Frame,Time,RightHand_Accel_X,RightHand_Accel_Y,RightHand_Accel_Z,LeftHand_Accel_X,LeftHand_Accel_Y,LeftHand_Accel_Z
0,0.0,-120915.43326817182,106732.4649197358,32286.355101885856,119116.35708659986,104623.04950422648,-15980.189116320238
1,0.02,-104698.89853722433,92419.56710439056,27958.59202343215,103142.47443430143,90594.85795563745,-13839.46942612878
2,0.04,-77858.93979899687,68729.62308369657,20795.414127556487,76702.6444151602,67375.77742943176,-10296.179229049487
3,0.06,-49063.38461440733,43312.25972886445,13109.840099864428,48333.41434469422,42462.801347415436,-6494.158908729233
4,0.08,-25812.70176494359,22787.59106660077,6903.580169976362,25423.054659258345,22344.115575197902,-3423.106741674089
5,0.1,-11184.16485322583,9872.733506735241,2997.809310360317,11004.900538211872,9682.924874817934,-1489.093926545507
6,0.12,-3945.9634825827443,3481.6773422843685,1063.4682066230687,3868.271038320469,3415.2558840419683,-529.7647007267672
7,0.14,-1124.9557652722935,990.4680118349974,306.83003657246365,1085.6133141137245,969.8970639288654,-153.13535777746696
8,0.16,-261.2057705948934,226.89678224297353,71.49118396305688,232.5979978718641,218.33575736267775,-35.08187174951142
9,0.18,-56.15283756710724,43.70175038728456,11.336364490537242,28.092216165003375,36.43426087862612,-4.919999893025849
10,0.2,-21.67421401512494,10.076103786236143,-3.299394314558893,-9.406170886139172,2.0609945576664517,1.1451557723480117
11,0.22,-21.064391883333016,6.573447083424183,-8.234216376963527,-13.271708714915146,-1.8709898860139846,1.1156827275142631
12,0.24,-23.379346128653957,7.214458914290109,-11.021841730639185,-11.934128619748915,-0.9045595095206673,-0.19633438026533945
13,0.26,-22.425621573337438,7.016647120655602,-12.679871732313522,-10.285614219098235,-0.04657683365520149,-0.9656251988311026
14,0.28,-18.45520804785817,5.823879388468487,-12.83544139745242,-8.191523343766653,0.41308619899974497,-0.6482254246826372
15,0.3,-12.334801990713661,3.814538751934595,-11.467892630971546,-5.5417576241483255,0.5020139202787273,0.4964644070136409
16,0.32,-4.9887980310450395,1.471634664661033,-8.899416799904202,-2.1642756051038354,0.4547517766496065,1.8057431467053124
17,0.34,2.6225233850155982,-0.5938058929732918,-5.478837450831933,1.9496969784518612,0.4694927206994637,2.825195447104452
18,0.36,9.30370830020204,-1.8772567023528177,-1.4797460779862048,6.416364896136983,0.5942988641400153,3.5552817854152785
19,0.38,13.762999147950769,-2.1869084501660843,2.6624342267313925,10.574514406821427,0.8038712879304785,4.125531464361896
20,0.4,15.082004032613078,-1.688871080670768,6.2341286162901195,13.82180316032216,1.117087147560167,4.386554242894272
21,0.42,13.115007293187777,-0.7304350858280686,8.492516355162671,15.870657340375447,1.6070562475092727,4.027440598176816
22,0.44,8.616521937875925,0.3978210474058267,8.903625834778413,16.833584324042594,2.3038117352056786,3.0036980286085524
23,0.46,3.0755380075361294,1.5405752326513527,7.047162565194935,17.105598289172864,3.093791367445559,1.4946192813830732
24,0.48,-1.8470560819746673,2.6062494323967798,2.597715648683919,17.016129050772754,3.6889039159622503,-0.5851379670288333
25,0.5,-5.184928865433642,3.521644713153216,-4.092381978032178,16.511180668567864,3.6861827155873446,-3.5113925536644808
26,0.52,-7.20225361431133,4.253562093956538,-11.353812334841592,15.245877642995854,2.7550199108792306,-6.845607745495803
27,0.54,-8.928607152718545,4.778785318919192,-16.691430468719872,13.030692121268302,0.917519764061851,-8.987363818977112
28,0.56,-10.915418361779583,4.985627139479498,-18.30772188347001,10.15043778734158,-1.3093262290086392,-8.15072422296779
29,0.58,-12.38568201724869,4.664283342115638,-16.03741373184729,7.211606028287105,-3.1299141481085275,-3.7914387775158085
30,0.6,-11.747992544183465,3.6600575647221656,-10.820166139863286,4.640084710187796,-3.93726066273514,2.998823090643679
31,0.62,-8.074750755032438,2.0243367308809095,-3.757970616050426,2.3002656727071153,-3.677340081919512,10.156930320192924
32,0.64,-2.03036958030933,-0.014639625970528813,4.058267222675736,-0.3129132024901518,-2.840937902747971,15.515003911531215
33,0.66,4.72549851260434,-2.201017007323421,11.284385606920061,-3.3606990743783314,-2.0806185398469013,17.564710275778204
34,0.68,10.906717945153911,-4.331877299872005,16.516401495260645,-6.132305339104917,-1.7346056386461177,16.08916372333893
35,0.7000000000000001,16.148751007471578,-6.2175100220810275,18.883724189401946,-7.379060439440604,-1.6731100535858863,12.165491730880323
36,0.72,20.267509003468177,-7.625787879659155,18.330170986297688,-6.283128700726083,-1.6028860411517751,7.28704516226105
37,0.74,22.365825341695984,-8.291695430040813,15.364335315313252,-3.110228046409998,-1.4327978675729975,2.4128047127569667
38,0.76,20.999962476160256,-7.9858795204176145,10.738611951982538,1.0404679612240764,-1.2406315360933866,-2.1105140699309293
39,0.78,15.301696301931287,-6.616770308276877,5.449965178449377,5.04776902081867,-0.9682091668422305,-5.977590789320114
40,0.8,5.960302982672246,-4.34257519999607,0.8192159122148936,8.38481587422732,-0.3578039270086516,-8.68605934747708
41,0.8200000000000001,-4.785408466219275,-1.6236349197868787,-1.8799221061781473,11.129388226043275,0.7217118886614392,-9.970103869119455
42,0.84,-14.108537340541062,0.8901084020848903,-2.1829356149732693,13.530168384781998,1.94795225262463,-10.252587515793369
43,0.86,-19.814032489843015,2.639172061669433,-0.8552178126968342,15.621363386595467,2.6278779369916236,-10.421265293716
44,0.88,-21.016261114690217,3.421390013973042,0.4608931049537188,17.267811625824027,2.1773409656055276,-11.101104470039026
45,0.9,-17.97085043215644,3.4443131147168105,0.055127019694181545,18.505850678804755,0.5833927447061296,-12.220081577513238
46,0.92,-11.55381093368672,3.1468182796715163,-2.9364874686654385,19.655995828305855,-1.5862915672960218,-13.23465284949255
47,0.9400000000000001,-3.138186455660465,2.9637554839377342,-7.727123566812107,20.959803334880252,-3.637242671478183,-13.562446420343377
48,0.96,5.119665493125961,3.233635669694336,-11.919788902189445,22.113707003119988,-5.19321278330812,-12.75967268928966
49,0.98,10.46014914062049,4.242936777906674,-13.015891425128181,22.249227599445625,-6.208501830874374,-10.58698439649637
50,1.0,10.785078149630479,6.154349039566355,-10.389329698126023,20.480434037153262,-6.670735621680402,-7.206367962024962
51,1.02,6.227444936155761,8.703386734628664,-5.752661404677721,16.59609797944724,-6.434138633636733,-3.3086595779164467
52,1.04,-0.6032393297617334,10.996553624020681,-1.6679929450286015,11.30668315547142,-5.363348055957372,0.07240176413383237
53,1.06,-6.245260918966895,11.8155460248624,0.29772374769202115,5.838408491245565,-3.598303654333015,1.9215852783460785
54,1.08,-8.530573461048768,10.326319130714813,0.2561297517424266,1.240525090094584,-1.6660878281913427,1.5817081651525664
55,1.1,-7.4993461706847535,6.652845813172671,-0.5169099202016298,-2.042540192419557,-0.29016077733274415,-0.9757467016853365
56,1.12,-4.657098912273099,1.8735901882634318,-0.5599077154225931,-4.115801186273125,0.021220295261408673,-5.048938982825834
57,1.1400000000000001,-1.568408019858009,-2.5547275556836215,0.9722654105361235,-5.344730006897867,-0.7012622526772241,-9.380398435985096
58,1.16,0.9059379296868341,-5.541748942783853,4.076901720927262,-6.218128598711512,-1.9383952569393856,-12.60362599400577
59,1.18,2.370578749893789,-6.795659348042458,8.201197574403837,-7.404995643743482,-3.052310269255277,-13.88390002690451
60,1.2,2.5387663479381155,-6.747909317398002,12.586659945875617,-9.653645742017495,-3.602476198435561,-13.452675896121686
61,1.22,1.551211826898502,-6.154994947507814,16.36354215075733,-13.32151116871389,-3.384789522421408,-12.534346303626084
62,1.24,0.3984500550395276,-5.688820866563832,18.70923081372707,-17.895210109241575,-2.3982055200040793,-12.541439824109249
63,1.26,0.3739917472156111,-5.665017663338836,19.365877038832213,-22.10568660614954,-0.933504531437745,-14.08126286131305
64,1.28,1.788128741861839,-5.911186363417789,18.979194188216336,-24.71695207060148,0.43882244169074025,-16.459041889889022
65,1.3,3.390786249072694,-5.842291493824927,18.473241508003355,-25.333903813893087,1.2156897220069696,-17.901803571969335
66,1.32,3.257908072871504,-4.834283995958877,17.88382203929349,-24.58087727891788,1.3906706315997888,-16.16653137360119
67,1.34,0.11290404304755963,-2.6990283634008465,16.15633112738469,-23.74287578283337,1.5283040953079026,-9.034712122234119
68,1.36,-6.5126671377193555,0.18135713978116424,12.496855721453755,-24.375113992001587,2.41944524425521,5.239485200476906
69,1.3800000000000001,-17.244005698094586,3.1988306847123473,7.87369852539607,-27.945624706808115,4.618963774003782,26.939280590095123
70,1.4000000000000001,-32.98190114456465,5.920854325221422,4.812744425612512,-35.14519339273231,8.172497037017498,53.61586668623717
71,1.42,-52.951662164594964,8.083574999631992,5.444349650284234,-45.02556740988703,12.612320638053024,80.00986316925825
72,1.44,-72.57853044374242,9.286166377873734,9.674064166564817,-55.007900746819175,17.07179623533292,99.82377297502663
73,1.46,-84.28109636012218,8.938305751942202,15.041922400699612,-62.34449409416594,20.398592282283616,108.03299434009708
74,1.48,-81.32854785812026,6.703433757014933,18.014036302569398,-65.84283397157688,21.43411324217954,102.26770988738222
75,1.5,-61.58471782950567,2.9893571892866673,15.627720365284077,-66.08080044174247,19.616738382267577,83.12143318537639
76,1.52,-28.45556454963704,-1.0936816285338682,6.818020222137618,-64.10216261044066,15.512336362127753,53.64488875501091
77,1.54,10.821713878656041,-4.281641465910677,-7.190200771475308,-60.2426162651178,10.561318534230828,18.14528084151739
78,1.56,48.116660276670316,-5.716882906986136,-23.99796659614679,-54.07097038625407,5.970435188278914,-18.977768486309255
79,1.58,77.42334348384856,-5.22662113734232,-41.891855425476194,-44.80577182451526,1.6604095404682104,-53.41435740927966
80,1.6,96.55605483826469,-3.3355961954976827,-60.41354293495546,-31.390981176750454,-3.6454808565764303,-80.40515277997164
81,1.62,106.18638677639981,-0.9932825603577783,-78.83054476855597,-12.546778614413334,-11.057407195536234,-94.89238397677461
82,1.6400000000000001,107.1413339773712,0.9459908779141946,-94.42424090295961,12.36917292458167,-20.05427717295295,-93.23308304165332
83,1.6600000000000001,99.01512136665838,2.1179910165820326,-103.01565160428333,41.83501221268675,-28.404693871125367,-75.4123079360181
84,1.68,81.54633050817665,2.591758559753602,-101.38764887765092,71.46102550550621,-33.62264992045508,-45.41434513636677
85,1.7,56.63823905695855,2.5925254630531356,-88.92494773455033,95.38917730654646,-34.482958330131005,-8.943189948711753
86,1.72,28.29010078460756,2.4045556887376467,-67.11141445300541,109.00281472404947,-31.255687247886556,29.016730233099963
87,1.74,0.6446972564641806,2.3465619946890257,-38.33788518251103,110.58889131887233,-24.966730029966193,63.86645062912672
88,1.76,-23.36122392033073,2.504144299834504,-5.76209109018494,100.83775851794212,-16.86502891499265,89.4715571612058
89,1.78,-41.543540116789295,2.4503201216717914,26.175123324368172,81.58699167924718,-8.433779637139265,98.88479022443781
90,1.8,-51.92076321532373,1.499020139484817,52.231320527746746,55.41269249140669,-1.2510312422559016,88.54475847944691
91,1.82,-53.98760616780545,-0.6240597058824213,68.26409060420039,25.634364395138416,3.6938244930034214,61.32884205319977
92,1.84,-50.566521774894454,-3.4971991327764504,73.08026552758197,-4.392445267282842,6.570428466119605,24.799773079639692
93,1.86,-47.240193399236816,-6.381491699948478,68.67587922549684,-32.345922257297104,8.404724717436547,-12.887230779031722
94,1.8800000000000001,-49.24502076529734,-8.481779644554747,58.915187080149856,-57.219791404338054,10.221404102292166,-44.94888981890673
95,1.9000000000000001,-59.11846857395899,-8.488187740292693,47.84240307719713,-78.71391343274584,12.590153037497723,-65.63662497091913
96,1.92,-77.1887379281093,-4.097640895316168,38.47141101556315,-96.68269868009946,15.865429011806484,-70.48244695876528
97,1.94,-103.18566056606731,7.349051866000883,32.11624479198774,-111.28777642696477,20.59798996151154,-57.779769279565485
98,1.96,-136.40569008404694,27.177380210351565,28.194861616752586,-123.43993766286442,27.641793566226777,-29.197437100327942
99,1.98,-174.70096010533513,54.08537790119571,24.8268175298362,-134.691359875368,37.840681155809925,11.71536286577692
100,2.0,-214.9047749660848,84.70648995477316,20.60786920574698,-146.59784337801617,51.46868855404733,62.06855457611826
101,2.02,-255.99937498442125,116.04474903750283,16.802882806991857,-160.56464164946178,68.08051591979037,121.17792143533542
102,2.04,-302.4504524374317,148.1109876025638,17.61697337298669,-178.71036379770442,87.45324235893085,189.30517544596097
103,2.06,-363.06393329252234,184.68880570393267,27.053539545405616,-204.79519747892394,111.16230374948586,263.6902191529979
104,2.08,-444.04784002204326,231.5396159137082,44.52884369293694,-243.70435091846412,143.36989294348888,335.5744680452201
105,2.1,-541.1529099486502,293.28914103587033,63.216569461991334,-299.02495263536053,190.030227784119,392.4643188756902
106,2.12,-637.6532117131937,370.90612691439947,72.2362431052612,-369.8195652328574,256.7552905419996,424.5997374010968
107,2.14,-710.1790574428933,460.73723169721643,60.48150288632501,-448.5898080979026,345.8889721726744,430.1689669478076
108,2.16,-738.7842216045212,555.0543890503577,20.228374374160996,-522.1152153550686,454.02206485384056,416.2896317716831
109,2.18,-715.9878057834233,644.1639081910928,-49.7413610139601,-575.1323684296117,571.9284854889676,396.7940613156957
110,2.2,-650.4259391858566,720.1456700942913,-142.21284830472047,-594.6021275251809,687.348790737457,387.5303919048325
111,2.22,-562.4973622899274,780.6637859742057,-242.4202606063614,-572.2289224085865,788.4742832204388,399.4901201102566
112,2.24,-473.5575110493231,829.4327735113293,-332.1496227334246,-505.69102691301424,866.2742693097305,432.95743389936325
113,2.2600000000000002,-395.5636571647526,871.3530315450066,-395.3707092200892,-400.37187337498244,915.733543350352,476.75184249107815
114,2.2800000000000002,-328.38412612575223,905.418002349503,-423.3126848139168,-270.0315519152681,935.6735562612115,513.0119936545659
115,2.3000000000000003,-265.05050554810316,922.1614959353456,-417.6588918412197,-132.37686783099224,926.2863776914835,524.7675139603024
116,2.32,-198.35828491594643,909.3475778181362,-390.3670667211039,-0.3600464048444554,886.6008239483615,502.93367263968923
117,2.34,-123.13677335255174,861.5911832824893,-358.8761264421961,123.23846522436287,816.2107673921265,449.30881467263896
118,2.36,-34.99428070030382,785.1935622322311,-338.3269932794786,242.21994028843142,720.8427893536557,373.5216795682516
119,2.38,69.99602655144848,694.1363531811435,-335.0082081764979,357.6579782988217,615.048374950912,285.9860649693269
120,2.4,192.94306858813178,601.6932175526623,-343.9938678232716,461.7873046496288,516.8903883928098,192.23621335835224
121,2.42,329.95740225852546,514.8583584304528,-351.50542877963267,541.0752437571922,437.79961186903586,92.50626112719831
122,2.44,473.06295619647756,434.01377400430545,-341.72940668173186,586.3218262585018,376.22270395565744,-14.508613593323005
123,2.46,612.9049992910254,355.2201276152804,-305.55150328209095,601.1012016971179,320.562950436383,-127.87327495184778
124,2.48,740.2568048595474,272.6330330045953,-244.63464476795016,600.9396809881438,258.42880498865816,-243.30800012946975
125,2.5,846.8011299160776,180.88227553422178,-166.37012453385321,603.9567844095485,183.7199711404273,-354.36843100576186
126,2.52,927.3302363685159,77.06373505951936,-75.37139933276933,620.6340359884724,96.10591585048356,-454.7220211805627
127,2.54,981.3083007032185,-39.176269080057736,27.751982800615675,648.8240688417314,-4.503422484557798,-540.9543148749065
128,2.56,1009.8023564693722,-167.1887150709797,139.037830017441,674.4739540088412,-121.42044118273083,-614.558384314469
129,2.58,1009.9401228429906,-305.5924528832262,245.89375094370723,676.9110017213659,-258.4576947921673,-680.671548312361
130,2.6,974.0883531868308,-449.9586867949062,332.0040370907451,637.9917739488435,-413.3746990908434,-743.239745862815
131,2.62,895.7136873067626,-590.7744012380031,387.4215544152443,551.041609153784,-573.5848704269492,-800.5988354650892
132,2.64,775.7999677677158,-715.0671821779752,413.4764412298537,422.9546001845457,-718.4557546529811,-845.7546416162412
133,2.66,624.2731620219746,-811.1336174289747,419.74193102930315,268.69703394541284,-827.3167616722142,-870.1329227103104
134,2.68,457.2378781791763,-872.4693234700949,418.67559934053884,105.2188542040428,-888.0022060739614,-866.116226090058
135,2.7,292.9196381933098,-897.9470500501257,422.62163487308266,-50.53917935372894,-900.524121330101,-827.869762132065
136,2.72,146.76076340028197,-889.1755059863457,441.5229015649771,-183.33263054388613,-873.8413175268755,-754.4276265642886
137,2.74,26.294610105780457,-848.2813129326955,478.3605274915278,-285.36308601623625,-817.8704271322418,-655.4551902939593
138,2.7600000000000002,-70.33516872214877,-777.7917618524571,525.3450877950586,-361.86688393876875,-736.2255310302116,-553.5362737811706
139,2.7800000000000002,-149.2910388524672,-681.6886859418173,567.597804295287,-427.96713261525366,-626.2020956869057,-477.2949820234077
140,2.8000000000000003,-213.37174963832922,-566.1193293107252,594.6256333605202,-496.01326078329555,-487.68161135747573,-447.0045258908101
141,2.82,-259.7993238099408,-439.006291087762,610.0964033371586,-563.5620695528598,-333.1698808580363,-460.7966080504875
142,2.84,-285.69734696853493,-308.8403378891703,630.2613750507716,-613.1688303177144,-187.646127626126,-491.62305350578265
143,2.86,-293.95192979165637,-183.875992447733,672.0954110247802,-625.4651566779607,-75.90724224589344,-501.87926403097794
144,2.88,-291.37794477886587,-72.09907163925922,742.2833089053427,-595.3622240550211,-7.8934049057829885,-470.44579378986896
145,2.9,-281.0234806862234,19.708942910734613,837.8721646661422,-536.8891677683932,24.611493687705067,-411.07149735866346
146,2.92,-257.77230989184693,88.80396039128182,959.252088483948,-471.7786741482448,37.23016684460771,-363.0103429322475
147,2.94,-210.51052297256626,138.7033686877079,1124.441692667205,-414.4858180741465,39.290628507663044,-362.5331500868878
148,2.96,-124.4879710966885,176.91744877381007,1369.8713363426118,-370.82980147724436,29.780692507308935,-426.4515407953587
149,2.98,19.49345701496933,206.97517645427092,1729.1712157760794,-350.98226714637576,4.183667934860404,-564.9655284243664
150,3.0,241.99059858348426,216.2181599959731,2194.8075685198064,-380.0323372381429,-36.39164997327946,-806.7235640310475
151,3.02,551.0621477488942,163.57435454197443,2682.5865684211394,-488.086647561247,-82.92576309284631,-1202.8828535063744
152,3.04,919.7881078466053,-21.04385247497123,3025.3893127766387,-676.2832485553804,-128.80415198010053,-1790.6707661193495
153,3.06,1262.269192136081,-407.142948538411,3004.6728918183967,-880.6614756382326,-190.03797357057852,-2520.8057712827826
154,3.08,1426.794462476108,-998.2575721710376,2409.826912567714,-976.2497279255095,-315.67626569509525,-3180.0267626193654
155,3.1,1244.5498167509595,-1664.6415177409262,1142.3618499645945,-842.4372899938026,-561.2759473129672,-3379.2503212052743
156,3.12,643.5524131118583,-2142.4641929793543,-623.9515645855736,-442.668694162462,-927.637178555254,-2697.5684440912364
157,3.14,-254.95861440451995,-2152.1279077913214,-2365.8735685831107,156.25896681902353,-1320.7909009030527,-991.4330073555411
158,3.16,-1169.4846269665275,-1600.1269877842524,-3442.7809421185193,817.9679590400794,-1594.9463064502545,1325.0153044823924
159,3.18,-1811.1392977084859,-711.9076792208454,-3561.2382264943744,1347.6020846739875,-1652.8643177945414,3362.3735873100063
160,3.2,-2029.1567914606887,70.90867716989538,-3001.7790838526935,1505.7337019694796,-1493.0040022577211,4311.038848849745
161,3.22,-1861.0236759778797,404.7195796342463,-2332.278435909059,1152.2952560883332,-1156.2121745255852,4047.035793461472
162,3.24,-1484.8726624830638,297.5561971612657,-1940.8486999907084,463.1415979329338,-672.0555945653708,3165.5063529349204
163,3.2600000000000002,-1098.3903110760552,51.29415489118213,-1865.2106346461046,-88.54765718667716,-95.47105924684146,2386.4819423510467
164,3.2800000000000002,-800.5204999037746,-36.04865822310464,-1949.0613166937783,-106.7747982332229,439.80542258963646,1981.549496363989
165,3.3000000000000003,-585.5140422239103,97.66174481321599,-2035.2767430716578,358.874561641782,766.7482392827759,1768.6510612734965
166,3.3200000000000003,-432.1694719665901,298.6229123022441,-2030.296619818706,882.0868681547815,800.4754710161321,1502.8768879327786
167,3.34,-346.2466200404482,381.9509586479117,-1890.1388711061438,1087.3766079828097,598.7737255889158,1143.036520746236
168,3.36,-314.0274676461724,280.5011683280775,-1608.2548415485348,948.8595275557917,314.0935963796459,798.8104048851092
169,3.38,-276.85358180778275,53.75779703692029,-1216.773170224541,686.5689459521955,93.69285709382059,563.4269584014683
170,3.4,-185.20569283425212,-197.97806415962617,-778.6915197318922,474.9013647072872,8.809557419072192,447.8849354275869
171,3.42,-51.28737704015573,-410.94284944669243,-360.1759826908671,310.9677913882437,45.61861682418034,419.9790067648273
172,3.44,74.6446539475518,-571.5644191644795,0.1198411364931502,112.1678002838015,140.25648090303952,447.70232413150705
173,3.46,164.50035799567146,-686.3416778577603,298.3424724775812,-145.5731162429427,222.85579485348651,504.413230648125
174,3.48,230.55857839837745,-756.329751787739,547.5843070581552,-403.3434209796407,246.68600902861223,563.8502586738522
175,3.5,292.9558914295775,-780.3413138599984,759.1138975143318,-583.4708430144569,196.6217859585019,607.0996404762728
176,3.52,350.39761010640115,-773.1012397120472,937.7139753903228,-643.5474695000271,82.30680029188198,628.995258780357
177,3.54,388.36563427171063,-771.3044933675444,1082.9736464085145,-581.3598195236143,-75.52137242399002,631.9916656177512
178,3.56,404.47231083733857,-819.8366049514349,1187.9982380802912,-415.66026719903346,-258.2924186516647,616.7435332751354
179,3.58,418.11371749746553,-951.4029352401058,1236.4931464078215,-171.4942772705553,-456.3368295069471,579.7915345126578
180,3.6,460.3458455393853,-1169.7958689499944,1199.633312337429,121.06538515306661,-665.6766616340522,513.6192891257465
181,3.62,558.4418901381913,-1438.6118501252995,1039.3994532703823,419.6021318854804,-878.8512541784514,404.1630415422389
182,3.64,723.991108775784,-1684.6810004173672,731.9805983484196,668.048499050507,-1080.3478369721429,235.48475086253478
183,3.66,947.4282046880264,-1826.3491940195886,304.00122599081044,813.1419010162399,-1253.5418605993023,8.985161276229402
184,3.68,1202.0623011994555,-1812.009458617223,-157.09825714771665,829.9073875669355,-1393.8318310543598,-240.37493301865317
185,3.7,1455.414699996512,-1637.250512492854,-542.1967973865515,735.3394667775201,-1514.8891714785927,-457.5646045916894
186,3.72,1678.4431086412637,-1330.6897747644337,-778.132497291665,583.368268168035,-1639.0489076311724,-607.9402073591057
187,3.74,1845.7997181381156,-930.3608378129393,-854.0632178549533,449.1939206356655,-1773.5999472226194,-708.4819664057698
188,3.7600000000000002,1930.4394940245566,-472.80951733569054,-808.3564527708612,406.11413222115357,-1885.9612859167933,-819.874350303686
189,3.7800000000000002,1902.9876131977624,7.002938445521735,-705.1547313369907,494.3105576096998,-1899.567690191488,-1006.4558212808661
190,3.8000000000000003,1743.0048888958595,479.5672370971314,-615.4480772475415,695.6927391887414,-1726.5903096019756,-1296.655541738545
191,3.8200000000000003,1456.3220734722886,930.983253027205,-591.1005452469816,937.0309906893549,-1322.9955405003884,-1669.2076076986266
192,3.84,1082.5351736483906,1364.9792987552287,-634.1062027370942,1124.912470226274,-721.8472081821755,-2062.1645387814087
193,3.86,682.426251519098,1785.942074372786,-692.5543014546372,1192.6292456768622,-15.396022786969262,-2382.013201776108
194,3.88,310.8553954371849,2174.0154268706624,-700.0991207114755,1136.3539347100877,694.3957009762955,-2503.2050821078506
195,3.9,-9.701323839792053,2475.8342315538275,-626.7012356282921,1026.2900948619028,1333.9354593942212,-2286.035265561476
196,3.92,-300.9021395474898,2622.6615765684105,-493.12146650021293,979.4131731417015,1866.5907513732332,-1652.7466298452716
197,3.94,-616.9937908567912,2565.9813217801616,-340.4720265253827,1085.849023336377,2283.7092376839287,-699.2948194704501
198,3.96,-1009.5314030840993,2307.898379629421,-187.35241159401323,1316.7909594632288,2590.110254182089,272.386634949173
199,3.98,-1481.6339142836846,1905.8389141213547,-11.74568155461683,1489.017100470377,2784.901872320236,898.375929751825
200,4.0,-1959.766625241542,1447.198201101517,225.8631751446879,1349.0676611682711,2844.5370560798356,994.8927604577439
201,4.0200000000000005,-2311.3110679443894,1011.5714925781824,532.24674229145,742.919010211757,2727.424877643104,681.960789045485
202,4.04,-2409.416269658816,646.3969156648368,847.0001948465648,-256.23328211023727,2407.6082200668984,271.7360068895065
203,4.0600000000000005,-2206.510202671181,366.35025730622215,1062.7742908484672,-1368.1016382678827,1912.4718959552438,38.09980309120391
204,4.08,-1763.652072934699,166.0920027455583,1091.2757101032362,-2257.668025314742,1327.0198056993304,72.10466856111806
205,4.1,-1216.3727280929465,32.413098914270904,921.848127835112,-2705.0456029928537,756.8425045277147,301.7109389015924
206,4.12,-708.1384430697757,-48.69044500648503,627.7608892750172,-2685.0958446042705,281.4214875330324,598.3474647147066
207,4.14,-338.45535123070164,-88.90946883000868,322.875676432706,-2332.034856668156,-66.4876935708125,861.7153573159858
208,4.16,-145.2813760538799,-97.68709533663674,106.22513923596524,-1840.281380470607,-290.30293860324537,1042.9307576750325
209,4.18,-111.4710144700052,-83.80153328325521,27.857645637197848,-1371.6222887821004,-408.6330077457609,1131.057446320201
210,4.2,-181.6161310799861,-55.75098759800987,84.04773682287505,-1009.1650659544282,-442.6926194482471,1137.2607753772852
211,4.22,-284.46340166174764,-20.549244473196865,232.68349526952198,-759.6362638642205,-414.6563455384947,1085.9459245457251
212,4.24,-356.6253464892293,16.857048281611757,416.8882240905574,-584.8115644420195,-349.23579186654723,1005.8777924798039
213,4.26,-359.838040653932,52.4253044626289,586.5634098366152,-439.7650203419362,-271.5701158959083,919.1927878373092
214,4.28,-286.4607230404521,81.92515443042451,710.1176446318007,-299.42538258716223,-201.00087070931272,834.734663087415
215,4.3,-153.7552615972612,102.06030401156076,775.2274319692624,-163.74414150709126,-145.70219117351246,749.7185324099005
216,4.32,8.070716365751421,112.9741683489779,784.0824329856101,-46.214064112107714,-102.76351173040874,656.1999627826445
217,4.34,167.38305778368857,119.06303573379242,748.5393113587149,39.68774128073274,-63.37496898766233,546.9763681274749
218,4.36,298.46942022523535,126.48040613890123,685.924836828439,86.40686461374428,-19.332866303166057,418.86563114960916
219,4.38,386.0278622787008,138.92012735337667,613.6792721016068,92.40414457890486,32.201074383476765,273.8092066034297
220,4.4,428.16851708452793,154.77944166793,542.9320466064659,61.821948361980304,86.95970806421008,118.51838002661114
221,4.42,435.48549771164363,167.8240092368308,474.2128991519444,4.948837140718422,135.28882706771918,-37.129267204419364
222,4.44,424.59272863972797,171.07977467269933,399.1122056952587,-62.14641212744333,166.5090359768164,-182.84122659619845
223,4.46,409.8694756469181,161.33351350933617,308.4913019511614,-120.58875204219467,173.4569911221477,-310.51233028874066
224,4.48,398.8657295868904,141.10511701558463,202.14403606718713,-155.05045679255082,155.06852513612088,-414.60235526669413
225,4.5,393.1592226660058,116.97909738385653,91.67669821242377,-160.26241473973334,116.96803047448861,-490.6558069215697
226,4.5200000000000005,392.07188672148254,95.98132625045271,-6.974182340408106,-141.31846629305738,70.66569806509307,-535.4103126445011
227,4.54,394.16754663495306,82.5168682525362,-85.02176376827154,-107.16491126305525,30.873906931856933,-549.9195737505022
228,4.5600000000000005,393.31678545014717,76.92177863413401,-145.31726356034864,-65.7437136864834,10.895461880537864,-541.9035492563836
229,4.58,374.5392397963607,75.5867428150126,-196.36848819266442,-26.077512374653796,17.871351152343344,-523.5313792373776
230,4.6000000000000005,320.88018163857396,73.0323265936469,-244.0749496092301,0.3263667045444798,49.761567518298676,-506.4032352437692
231,4.62,231.52442779855772,65.4385105990943,-290.22411736939296,7.167260583972922,95.02041119914415,-497.85956172927615
232,4.64,131.5538347136848,52.27358950649529,-336.03686673302195,2.6701875658919842,135.85707840676466,-499.5901028995647
233,4.66,56.5970026021411,33.31960090876065,-382.3451556989123,5.930131914641947,154.32293018822696,-507.17444408306517
234,4.68,25.58011894921935,4.672284548219473,-424.4681688172733,31.545936823688983,137.74751126776448,-510.10501485426926
235,4.7,30.828927802715167,-39.68573943876675,-449.7056309251227,78.8751660138376,81.79131236568966,-493.66470035087787
236,4.72,51.9894640025722,-101.06153719455651,-444.8211516367113,134.25245522141054,-6.9390943066262185,-445.23675489755885
237,4.74,72.42079872520553,-171.98561819725913,-409.3522029325261,179.4894282774614,-109.5910344270443,-364.63052570083323
238,4.76,81.90790146913295,-239.82890238225355,-360.9330507266491,200.1214821464244,-200.62143546023532,-269.8592263336239
239,4.78,72.75327313384038,-294.0781093630971,-324.6371072422514,193.2919408351912,-260.26319730023727,-188.4391666780245
240,4.8,41.56694696109948,-330.6831705619305,-315.85219982414117,171.709871024916,-283.4065300930638,-138.4472158669704
241,4.82,-5.186397568385093,-351.4768100360669,-333.7463171092578,155.9649434540044,-276.1280151174486,-117.31654008307696
242,4.84,-52.05614729550745,-360.65289804460764,-368.9445728610958,157.96880300799663,-245.72377438505524,-109.20300967415761
243,4.86,-83.98465952982195,-360.9713617782142,-412.4520443538112,172.0348100901666,-197.34032118562837,-101.31519396598196
244,4.88,-96.14915927489464,-352.0074609293813,-455.4514886275442,183.25017923548074,-139.20168562097535,-91.6308948267729
245,4.9,-96.16744531644147,-331.60852051536165,-485.65470145113267,181.06426727421206,-85.5804435328533,-83.20931191898546
246,4.92,-97.32258983671949,-299.1520865680815,-490.48686598778613,161.79640928012702,-50.81171995197855,-75.5238577372344
247,4.94,-108.44100721765338,-257.4066148444769,-464.67566510322035,123.41941974639664,-40.740437480460656,-62.98014082307762
248,4.96,-129.28495919096508,-211.07948415197004,-411.55825643449737,66.6075017516955,-50.43240667517627,-39.80741021828439
249,4.98,-155.28516651926736,-163.3765963930488,-336.8905931410034,1.3147591536946077,-68.35468825173675,-4.240921164640621
250,5.0,-184.8938486767827,-113.8996649128141,-244.73397310826755,-54.42035158578032,-81.64629537858721,42.030866981223724
251,5.0200000000000005,-219.97960328113368,-60.03757940450093,-140.23557816327124,-85.43232721125165,-79.63185980442702,96.91327505067176
252,5.04,-259.4220973232333,-0.7786620504895954,-33.45899790817696,-86.91018791150643,-56.66340291440963,158.29684582498624
253,5.0600000000000005,-294.96832725101746,60.341122290077294,61.911620433174726,-60.888851828711026,-14.928761584451792,220.4253586981731
254,5.08,-314.78881547048434,115.6868396016979,133.85818391525754,-10.156888932902078,35.201809579443434,271.7013538471016
255,5.1000000000000005,-310.81171689232985,156.93490528498327,176.58659255891786,60.860308369010006,79.65231780600865,299.3223383176975
256,5.12,-283.1405938384838,178.50599160933365,191.63071923433847,141.03869303673645,107.73708657774031,297.5566822619747
257,5.14,-239.14861487880202,178.6327612716487,185.75316992818216,211.8101084377335,116.35896149406447,271.4111470377199
258,5.16,-189.02196074273576,158.66913952376152,167.67427259852914,253.0810136827816,108.51770948259642,232.97634932866467
259,5.18,-140.81078099160447,122.7424810164833,145.90019374512318,251.53949900093426,88.92276254104912,195.1136322602033
260,5.2,-97.90372152431858,77.97715013292256,128.22972973458383,206.1359093088015,61.388677481557096,167.3055528823565
261,5.22,-60.1920414941371,33.54203418732709,121.27247622846018,127.91574702702108,29.55147425858418,154.4293839579788
262,5.24,-26.816168115938307,-2.095343528263321,128.20945045372176,35.019298762378234,-1.3904346330436148,156.95738062990534
263,5.26,3.194994977614885,-24.020180242535503,145.67007344608658,-53.592029694765756,-24.97770554277826,171.22279053100763
264,5.28,32.4791303029403,-32.14732096623798,163.25806868571752,-123.03260060877598,-36.43115283262817,189.7935260417456
265,5.3,64.56995827145394,-30.827108024862266,168.25175947950098,-166.09898052943723,-35.57206897438606,203.4009268602494
266,5.32,98.86593987009385,-26.995739277326628,153.07469298676224,-185.36320471269744,-26.660376296108126,204.6638557458428
267,5.34,127.37996191059293,-26.730528844140792,119.58708404833847,-190.99941164126156,-15.511975460088966,190.92173815283377
268,5.36,139.96999047996422,-31.486190964718762,77.07486018902023,-193.235080241228,-7.113143997303842,163.90338409190483
269,5.38,134.2179787215544,-37.12131133110371,36.79379145318832,-194.7758236345402,-5.28566113745322,127.80296208370709
270,5.4,118.64835707802389,-37.29642452664287,7.63118923879415,-190.7214424920417,-12.719335759399236,88.31838577084258
271,5.42,105.31864371018774,-28.423864871501777,-5.748707347565871,-175.93602191067407,-29.876048563515262,51.67341786342922
272,5.44,100.39600136560514,-11.398404361059274,-3.35336296383245,-151.5788739538644,-53.88422828658162,21.131562727535584
273,5.46,102.3271910650697,11.132143270496027,10.60538341617507,-124.67324460757379,-79.26501912746359,-7.1256826457652584
274,5.48,106.99856279733167,37.961959355380124,29.205386316639917,-103.21663906800588,-100.77085170491729,-43.27175870943406
275,5.5,113.05490384257756,68.37402582171605,44.512319712938606,-92.21911817340873,-117.32500060029679,-97.05435339452256
276,5.5200000000000005,124.09680454877794,97.6787742404631,48.784631661658125,-91.97321741456341,-134.68526220000462,-170.4240162558233
277,5.54,146.9786532169893,115.40125689131449,36.56214146486077,-97.96182005336757,-161.87577841729666,-254.4808494214622
278,5.5600000000000005,183.17979718571925,111.42861083912965,8.87058261753899,-103.90906995900929,-198.57378645009763,-330.9946662086327
279,5.58,216.8104864847872,87.28160844826677,-23.81480250492726,-107.38329354814063,-223.43262127558552,-378.5186085238727
280,5.6000000000000005,216.44305326262565,61.12600608275945,-45.52936166284068,-110.87297691297299,-202.53695402849445,-383.10524238806397
281,5.62,159.48370971412382,56.87481927411987,-44.602141434207304,-113.82837645525808,-119.41534922600471,-346.82965153343446
282,5.64,56.28309830891151,82.90199871803615,-19.69547338267358,-105.08842829566103,2.7613233946557463,-283.9998451428365
283,5.66,-54.82557355966723,120.44362571088777,23.25725464205665,-68.51150814299056,113.17343612271951,-207.5508719802034
284,5.68,-135.2293170307259,135.8278985076587,75.32902725492572,2.3401123372059267,166.88465196452648,-122.73166852053814
285,5.7,-167.19142955325276,106.92484144671565,122.2057148069633,96.5104344394516,148.21364069852672,-36.50411701748138
286,5.72,-156.22129463632075,40.125872685470355,143.39895961940212,190.80432426159126,73.46877842569043,32.95970874004176
287,5.74,-121.12608046688611,-34.864694447141076,124.12479633564274,261.21854409769986,-19.640022585846,64.4007396380583
288,5.76,-78.78939121565026,-85.28971622365343,69.9035048189061,294.2486484656329,-92.41898942713404,50.964340387722366
289,5.78,-34.10601088501994,-94.89840463057018,4.028350414789381,292.56755983281727,-127.66466931291669,4.722816072696428
290,5.8,13.48120275806971,-70.4584822939306,-50.55110757500499,269.0590583704336,-134.63047505950453,-55.369736670503315
291,5.82,55.41921234497948,-32.38229766093599,-83.70881318365396,233.1065396065148,-130.47540758061365,-115.27151368315413
292,5.84,74.08556339690631,1.0745431410230033,-95.61062091165202,183.55284067312712,-120.52607780661525,-167.2001776718597
293,5.86,59.16882792443397,21.63054371007989,-90.69887618199948,114.69790566652568,-99.20571738750832,-206.86858542201566
294,5.88,18.075690095383525,26.999107800749215,-77.2896524201617,25.916250800465782,-64.9446355418007,-233.01434276493657
295,5.9,-31.410700079624227,14.990211267446318,-66.76982646227052,-75.10160318852023,-27.69449843042226,-246.64480531346078
296,5.92,-73.97852514238059,-15.385838654208122,-66.55621532618063,-174.91537802376683,-1.6386784640090184,-248.07951157872927
297,5.94,-101.47856248789313,-58.62910029090078,-73.61205556073111,-258.5386274810132,6.614128090681249,-235.8863222006339
298,5.96,-110.98971792772227,-101.80022579044162,-77.79929581042077,-314.80199872546154,2.7146936749226285,-210.219126328612
299,5.98,-104.01181323589506,-130.84600714708893,-72.66612313233216,-342.17495573901704,0.0760834018255494,-176.48272865695543
300,6.0,-87.527560636257,-138.86083447943977,-62.22318894583088,-350.17352441660654,11.526598243519148,-143.95601024646191
301,6.0200000000000005,-71.42891556104946,-128.96614408594849,-57.06854459159689,-352.55690662143826,42.86442350818656,-119.44958512277293
302,6.04,-60.630860204830675,-109.87830187412887,-64.81199655730755,-356.39589845840703,90.61530453441566,-101.5284546151808
303,6.0600000000000005,-49.42082946285119,-88.94616378251709,-84.52390148074183,-356.76871022187066,143.7517029697196,-80.63883243949225
304,6.08,-27.357505248696253,-68.70925337439569,-108.97055596343677,-342.6222375205945,188.76415948592205,-45.14158961366137
305,6.1000000000000005,6.230272889094446,-48.44268888841694,-130.18704001395767,-308.4473883347706,216.56254278060578,11.680085449913696
306,6.12,35.89912434612745,-27.42330726309772,-142.81859036681195,-260.20944815408336,227.18634759729616,88.47492849903153
307,6.140000000000001,42.74923487073309,-6.366219324976297,-144.42042568309685,-209.74443430576383,228.16152659630444,177.44239397837327
308,6.16,23.546735447472123,13.442332169578384,-134.61104041828935,-163.68669594670268,227.23162352115781,268.2813185949942
309,6.18,-5.784138308728563,31.27601462191553,-113.93162572238265,-117.99379715990699,225.52122830129827,351.4806852965927
310,6.2,-24.76366466308449,46.51797577079241,-83.34868385619852,-62.69092883143657,216.73200200387868,419.4352372144381
311,6.22,-22.78192994814159,57.08366728546513,-46.07278637510235,8.337605305772954,192.4377006075677,465.94501036268946
312,6.24,-1.1402601486274073,59.178798210509655,-10.091151762779928,91.09173622488386,148.8408405458358,485.9408592098471
313,6.26,31.710246569035633,49.94349521631732,13.65246900852467,172.9883130510305,90.07014681315776,476.6737940495209
314,6.28,63.78495468869647,31.03117797321095,18.372348245790096,239.92486028796722,26.3676330875944,439.70223085884686
315,6.3,82.7670824862457,9.274328139082403,7.200132633928147,283.3857745146168,-30.61264824653255,381.78050363930976
316,6.32,80.91016284847355,-6.8093002712987545,-8.90219146431837,303.34238405666724,-71.85441045541228,313.2105554010716
317,6.34,58.855501346805134,-11.77282074475139,-19.309372085224396,306.20798917728587,-92.8230310586949,243.9888790469063
318,6.36,25.07094559228383,-5.51976348289115,-20.281196442214323,300.2686164809702,-93.7551200405272,180.1931354157146
319,6.38,-8.780668451163052,7.900330014065267,-14.824337296112713,291.939815476718,-79.00187694463605,123.44244763653202
320,6.4,-33.86652003923776,23.220017408727124,-7.810697178222647,284.40979697498625,-55.38430991792256,73.52460124439068
321,6.42,-48.15524522060299,36.33764294879818,-1.8619745393424698,277.7915628073206,-29.97901351792467,31.103482936386232
322,6.44,-55.59604560944387,45.15048205714796,3.157528497501601,269.6496287313771,-8.183509797916978,-2.041520033869574
323,6.46,-61.30110013828798,49.25433608075617,8.644293203523693,256.2365390701681,7.468116782778501,-24.346208067325968
324,6.48,-67.13591378790531,49.31544907200053,16.088673308162512,234.84169441796644,17.433598904057664,-34.9950627303172
325,6.5,-71.25564552249489,46.431859730782236,26.246856445591558,205.88559501806895,23.830206261173778,-33.443652734030444
326,6.5200000000000005,-70.95392913413755,41.548778995833636,37.93536875626989,172.92780151657584,28.065640415909876,-19.776861016224387
327,6.54,-65.52918686623079,35.220199906902224,47.43529074248841,140.70399789785736,29.14701050965065,3.5515090514547856
328,6.5600000000000005,-56.44059069396298,27.86887459053395,50.051208198679994,112.9417639573046,24.197751690558714,30.80571469107871
329,6.58,-44.903491482067395,20.163572120384888,43.416950145976344,91.30364932967292,10.917450485463569,55.0545213281071
330,6.6000000000000005,-30.246386152885655,13.084349365688581,30.168225184869115,75.5310250499283,-9.77891102483793,72.06368691194531
331,6.62,-11.748904189969696,7.673122648528776,17.439651594474718,63.96372200148441,-32.88109484888459,82.15361742196552
332,6.640000000000001,8.244135182039983,4.699481524762341,12.363673500329117,53.6073895808033,-51.22898994539155,87.72195882255315
333,6.66,24.38246462932529,4.467864450962682,16.320770012981157,40.07731239797225,-59.407191329120934,88.63764106111407
334,6.68,31.733932637371254,6.8565001561730305,23.452592830587182,18.760920323241372,-56.61691364963366,80.46841475771367
335,6.7,28.823067512766592,11.338159400819515,25.828438803692855,-12.504551768149858,-46.09755627708292,57.92475617742859
336,6.72,18.282857740172513,16.72457338212822,20.30729593148064,-51.16531732779113,-32.16564990660945,20.305083201245807
337,6.74,5.834218774690617,21.016654550346395,10.2253279104236,-90.48551968712115,-18.000705568740056,-26.284284711882876
338,6.76,-2.068896140450275,21.96464292679704,1.5030563321674224,-123.02151481376742,-5.392958117409913,-71.5111792891544
339,6.78,-1.6906736299784626,18.113976156311956,-1.7298885000664126,-144.4670995513045,4.7571959718081835,-105.64454743272111
340,6.8,5.664219248101001,9.487889399451326,1.28672266712924,-155.06761263550777,12.149915049374782,-123.53439689953908
341,6.82,14.93003835118217,-2.469058902542102,8.488032037000458,-158.19369300788125,16.83167846459736,-126.108395366346
342,6.84,21.353588976376336,-15.372906758285243,16.415916977063475,-157.7600929224078,18.905661434408835,-119.01116575112457
343,6.86,23.53972115215339,-26.44976447023717,22.200856719640583,-156.05173711568656,18.55228363481367,-109.24675677679372
344,6.88,22.876878780567665,-33.17759238256505,25.281500150941604,-152.66829684691174,16.402573252671345,-101.74230872773995
345,6.9,20.992810397094253,-34.16974329724431,27.428560754068027,-145.15325836897767,13.772282999048812,-97.67849994496615
346,6.92,18.773243899126516,-29.926573431686705,30.69264689505947,-131.18925229384087,12.148907676063292,-95.3047260612114
347,6.94,17.460799149374314,-22.62803564547044,35.020756002405285,-110.62698941180415,12.058411896101727,-92.46747340859037
348,6.96,19.008498711748672,-14.865873671966366,38.075089343799036,-85.64650812042336,12.502482082700446,-88.77679656894594
349,6.98,24.38064682692619,-8.444126479816186,37.58791699115578,-59.57735672318771,11.78982599176322,-85.45502293197174
350,7.0,32.17106468611599,-4.222007463986846,33.58175968268091,-35.85605923294107,8.849329229869662,-83.27818502311013
351,7.0200000000000005,39.62361506524499,-2.5299256834699655,28.107161377457487,-17.14862155478404,3.6809772846430286,-81.3117760827217
352,7.04,44.72743934834922,-3.1376500645780485,23.421341493153765,-4.107095042095959,-2.9350420321351063,-78.00728781419346
353,7.0600000000000005,47.13753270798534,-4.879574842392332,20.930876257336546,5.313936681016099,-9.644143791493661,-72.96062128355081
354,7.08,47.74251297407147,-5.992765898661192,21.31257922307561,14.657536131070257,-14.672783805824729,-66.90182591732501
355,7.1000000000000005,47.787986599361275,-5.417493292612675,24.638456098635103,26.4353777442267,-16.35691255106111,-60.08012238254524
356,7.12,47.93878913579619,-3.8734547236676815,29.99366243398154,40.2922071839349,-13.899625741475687,-51.313850114482065
357,7.140000000000001,47.670457911978005,-3.501859604125089,35.160494536959405,53.238764870462816,-7.911596282180241,-39.154540948478584
358,7.16,45.50054622673591,-6.233102786914383,37.12413695350921,61.70055035466047,-0.2859348914592415,-24.128928034990345
359,7.18,39.769086731924006,-12.228682559363616,33.56737803057587,63.81538080608176,6.8113266140254,-9.484708208024461
360,7.2,29.387289229570754,-19.7829843716696,24.32458350382985,60.22834165894398,12.086458554599771,0.903963744428057
361,7.22,14.552161096486586,-26.888617213730676,11.229200314767954,53.02404993778333,15.206138592192511,5.718268437921175
362,7.24,-2.849434857747273,-33.036077523503735,-3.6527220742721074,44.07719380139021,16.039431603144173,7.328093412014111
363,7.26,-19.95249237468539,-39.4354370114246,-19.458607829056866,34.25723101956527,14.440671159455816,9.888499748735498
364,7.28,-34.425573716189845,-47.44235812211949,-36.2783053666911,23.860654841882635,10.739433475825383,16.396954103939432
365,7.3,-45.245827924109605,-56.816262469418916,-54.0654529500529,13.522226499526687,5.711462197597653,27.252967137661322
366,7.32,-52.33629300924589,-65.49805189571464,-72.06201342724307,4.393959190029932,-0.03226930938171618,41.07648311740158
367,7.34,-56.358764637409735,-70.97348943797265,-88.92617883528406,-2.7829116893770522,-5.877268610190579,56.445967557402156
368,7.36,-59.162371890480955,-71.78482444588795,-103.41050067374309,-8.539672669298703,-10.36248863507326,72.46010197776313
369,7.38,-63.480028176788935,-67.9116516461471,-115.55273380673329,-14.240709927017342,-11.573680921161163,87.51979010445058
370,7.4,-70.97596622973194,-60.18379932816838,-127.28279381019738,-20.801779416123594,-9.008592635827858,98.26224016334444
371,7.42,-80.28233104669786,-49.69541670323405,-140.88894056940262,-27.88780305389001,-4.439312340319755,100.918905905066
372,7.44,-87.37782593929714,-37.58374962638914,-156.09386418941057,-34.03197342295596,-0.2917401278342462,94.53271143048474
373,7.46,-88.29738248312042,-24.83914584698578,-168.89605829366,-37.34548584106406,2.509395670207014,82.78924718269765
374,7.48,-81.84336717089167,-12.019479089978681,-173.8737592522105,-36.50059456595427,4.595525953303304,72.08931965688258
375,7.5,-70.27604979239956,0.838500166468683,-167.80744581110454,-31.545355468526985,6.399631385361545,67.12604722799394
376,7.5200000000000005,-57.75767224972345,13.935706409599959,-151.22574825425215,-23.989178717392512,7.128389855386872,67.82925265860624
377,7.54,-47.72500497077517,27.26765475835638,-127.03814048566402,-16.093628836248243,5.696181752934766,70.31866216026711
378,7.5600000000000005,-41.0549844977281,40.41474797901069,-98.23644671514835,-9.896619547667008,2.180791347586331,70.53725558675987
379,7.58,-36.44785429303283,52.78290882197651,-66.77609504917524,-6.557177015031257,-2.0475406845738786,66.77825617789699
380,7.6000000000000005,-32.37110603252241,64.05365705934658,-33.92072930186826,-6.245979149664492,-5.4032892770626315,59.16106227919617
381,7.62,-28.147348372636884,74.27777761895274,-0.8853954554597654,-8.356920535620173,-6.944836627706174,47.868437426787395
382,7.640000000000001,-23.065723452799563,83.33014409441755,31.2415140678618,-11.713673657225886,-6.447129471120418,32.916633434892354
383,7.66,-15.318028670465683,90.15471574700257,62.056024159868656,-14.816656148570758,-4.269019662220007,15.505165479931506
384,7.68,-2.809740335033835,92.66567245088956,91.72748378868948,-16.282576978120574,-1.3121333088404037,-1.4919976839599949
385,7.7,14.941228724447665,88.81512337796741,119.73530086684242,-15.151339837248635,1.3016716311244674,-15.265524545224736
386,7.72,36.23964397960597,78.24885418983582,143.70837034002994,-10.677725901375997,2.818568235628761,-25.33121439025467
387,7.74,58.57985415299364,63.0617606301588,160.18669617414358,-2.010987759873153,3.0789348751547942,-33.56787236428616
388,7.76,80.07629994064996,46.67148062560861,167.28127049514706,11.498848950339712,2.243114490147561,-41.71106937188817
389,7.78,99.20691079185218,31.62844678888342,166.85074255919181,29.450704624574833,0.6802171615377309,-48.95534490527451
390,7.8,113.35973412492196,18.35711166642171,163.7216353814453,49.88828165262686,-0.6802684321821324,-52.209225581613474
391,7.82,118.33742558539073,5.883715338980094,161.99511783189257,69.81583533031952,-0.2797095929925235,-48.628222088727185
392,7.84,110.27028357601422,-6.444944529617284,161.42674317133813,86.53500768019995,3.1256468463493317,-37.846450952958975
393,7.86,88.79429303961513,-18.044388781363303,157.3671437370997,98.76800028757049,9.137972602014258,-22.017712955453202
394,7.88,58.53057026870505,-27.563318003889577,144.6660316848102,106.47737022358493,15.539099545487097,-4.216684947052318
395,7.9,27.226189197508504,-33.78086972096434,122.02827675516622,109.59225911392295,19.755779934757665,12.779336559112286
396,7.92,2.094001782984134,-35.92965344735985,92.97378120104104,107.20397457343407,20.62694632548491,26.312708952022746
397,7.94,-12.793734123836112,-33.64818241263846,63.17847232497583,98.12991847211808,18.872732756016024,33.32988457480786
398,7.96,-16.890421903891188,-27.30116485810174,37.196629242708845,81.86745499663314,16.189095904377726,31.03641313705025
399,7.98,-12.246324257919012,-18.527995532907024,17.054407087885192,58.684770147502775,14.070968690825532,18.609318865457205
400,8.0,-2.425785336293477,-10.112424668150819,2.5314561152998216,29.235621996888206,13.15461125284543,-1.6591188150803282
401,8.02,8.437849083878078,-4.8990997060502455,-8.2587760459595,-4.972466684051481,13.125094675027968,-24.99462076422855
402,8.040000000000001,16.64609796591645,-4.554342763290109,-18.28093852535772,-40.24284977587358,13.039229182920959,-45.991383020139295
403,8.06,19.974749859256896,-9.003968025471666,-30.286517212978417,-70.36734437511505,11.915043795417677,-60.08367629431047
404,8.08,18.249655197051897,-16.622837288999996,-44.9649777369603,-88.87742498458826,9.309630474605171,-63.8824213661474
405,8.1,12.902279958438744,-24.813092364856,-60.07473350600695,-92.69049499139066,5.637558985727963,-55.21505654637682
406,8.120000000000001,5.70783426298018,-30.73430843693548,-71.87381361500529,-83.97705788333616,2.119210472986099,-34.00323340213167
407,8.14,-2.1692240083932317,-32.1437173362109,-78.11255298047192,-68.49963427079774,0.22617204276284797,-3.609075928604109
408,8.16,-9.977710112009941,-28.203259955484505,-80.02226895136775,-51.97035740747778,0.6761248662751649,29.140122882048956
409,8.18,-16.709285076897633,-19.84759771736588,-81.37393354789384,-37.50174583210382,2.618463869075244,56.233495692621
410,8.2,-21.24536922240842,-9.383001099922346,-85.40189445648853,-25.760348026222832,3.8425632165934958,71.72218204434694
411,8.22,-23.208462138547702,0.5056675806194533,-92.24718003995167,-16.77437021814279,2.0808442144601926,73.62311639137369
412,8.24,-23.242119708089206,7.7986879197498045,-98.71556013111703,-11.070660576678335,-3.487788542793605,63.58688867120182
413,8.26,-22.39812098383542,11.77550161114435,-99.9837054951035,-9.12272142956361,-11.61822468641987,45.295840304819265
414,8.28,-21.567361524939006,12.999857914919833,-91.78834385851404,-10.398302372290356,-19.684381589318775,22.994550725356717
415,8.3,-21.38227143276191,12.681701241950773,-72.0380299048085,-13.594934024077796,-25.158574901801686,0.6674397289662701
416,8.32,-22.06138827988616,11.849473246360928,-41.63093542120035,-17.73046865233106,-26.86710166377446,-18.553045018122262
417,8.34,-23.01456317143056,10.949453930487554,-4.659617561114189,-22.63129055839608,-25.28338323918784,-33.110747518448456
418,8.36,-22.728395849635312,10.131321465510428,32.11107855791456,-28.29951950815033,-21.899318942265843,-43.45638435350945
419,8.38,-19.11062746123457,9.920509111269048,61.06070878750746,-33.76371557919127,-18.3508187085896,-51.42412419387958
420,8.4,-9.747330370010893,11.641159915945783,76.86144257290454,-36.25217314501968,-16.00183741389243,-58.522984983317656
421,8.42,8.09928063302517,17.010661054147313,79.33758747327167,-31.481445167688413,-16.074407203386755,-64.28386125737224
422,8.44,36.56480488388011,26.883240005396154,73.65734814710669,-15.511178004388748,-19.645296034484748,-66.1982703855617
423,8.46,74.1770703476999,39.916796256775584,67.39682938501983,12.35770271135406,-26.824853939637237,-61.64641754338888
424,8.48,112.74300970119657,52.27481586939983,66.79976764074507,47.22539023193728,-35.59043463168631,-50.36687805969067
425,8.5,138.8167664922877,58.9652470575808,74.73055328087608,78.75530635543673,-41.86801208673442,-35.42056850107703
426,8.52,141.10548648675555,56.33658718020101,90.41930138325087,94.92298875980126,-41.712305957119845,-21.9235471198828
427,8.540000000000001,117.9374001332001,44.23368166510034,109.6506931560071,87.95264330951953,-34.15182884827073,-14.57417240238021
428,8.56,77.58938058905255,26.244996609785176,125.26400435089778,58.780671619509654,-22.18378126509431,-15.550562885875065
429,8.58,31.864296370844613,7.831439055759661,129.3372214696062,16.98007187406745,-11.013997199855705,-23.698734407155982
430,8.6,-10.05636282309397,-6.214296256827566,117.3632015019819,-23.790375788520784,-4.974347368653934,-35.12418278160244
431,8.620000000000001,-43.116624440957835,-13.376933282776253,91.75503545619563,-52.13447907897661,-5.238805046390228,-44.9672546515081
432,8.64,-65.41979103428434,-13.709318627621158,61.11062851513006,-63.757521531714005,-9.636834397442833,-49.762286637427565
433,8.66,-77.91586577498953,-9.19797019163824,35.21129961597096,-62.193134577682684,-14.517486242366301,-48.97522960516454
434,8.68,-84.10547789777236,-2.494181868395325,20.092392334039488,-54.956049560933494,-17.195458085200286,-44.450165026409024
435,8.700000000000001,-88.00901494928203,4.519286653165377,17.006596113328882,-47.98560920465469,-17.098271993950576,-38.438671201300934
436,8.72,-91.45169629069414,11.323130188262962,24.34925153724856,-42.77972364797024,-15.153352727660222,-32.359809499772524
437,8.74,-93.32861611671419,17.966925339544325,38.97844723784329,-37.950592312811025,-12.597067731792704,-27.243914199106584
438,8.76,-91.53357972236314,23.84020374283842,55.79848544194872,-32.602228307397006,-10.24392185651714,-24.713303643313356
439,8.78,-85.48314748305559,27.56456102554572,67.96756269679521,-27.806979449506766,-8.185717824391455,-27.084289730649306
440,8.8,-76.66270848914456,28.138918452644006,69.69759715090723,-25.362250843211413,-5.782348801964224,-36.32392789343197
441,8.82,-66.67475694574915,25.826471346787493,59.89317677955396,-25.930001832287676,-2.1873023202346276,-52.449827092746084
442,8.84,-55.18119726706765,21.69250116455062,42.74832633054558,-28.40816404880095,2.8203761711712416,-72.33455085036113
443,8.86,-40.987926322565556,16.51252185306514,23.89588511080858,-30.29551324797488,8.569620526603163,-90.0145325656751
444,8.88,-26.103569612246005,10.39127316892349,5.467429887642812,-28.149563166276206,14.099455182796428,-98.91855640263573
445,8.9,-17.534654824795847,3.2566148750112345,-14.722277905799011,-18.520512927104384,18.78321539723433,-94.84335575394518
446,8.92,-22.021405459818098,-4.630856464944979,-38.49182511170152,-0.11678914218269121,22.187042106380126,-77.54138314390241
447,8.94,-37.138055484297695,-12.583299012734113,-61.87008584678274,24.098331197672053,23.668264146365168,-49.9040181273322
448,8.96,-48.993680103235235,-19.44093139452403,-75.1059742673856,47.59451763446664,22.757990861791715,-15.934299515720237
449,8.98,-41.59891978479147,-23.48520614703302,-68.82379271988859,64.12263753911076,20.101339653218325,20.530093529444592
450,9.0,-9.990921095592121,-22.954095237154682,-40.868934509406984,71.48299059687996,17.434217977559896,55.78962957495003
451,9.02,35.57347675853855,-17.3257978784835,1.8168129124668346,71.8643961526592,16.02191492827108,86.01879757027189
452,9.040000000000001,77.48160804967114,-8.153016177488134,47.08816350827784,68.95701160339453,15.27196268799643,107.75281681516813
453,9.06,102.20049805245634,1.7654209505770226,83.73317625894146,65.0004346356447,13.50569645292046,118.83396017049397
454,9.08,106.05854459962765,10.1749840280904,105.60934088184581,60.223084743811,10.184502982302224,118.95004137642573
455,9.1,93.70867689818084,16.19970856286522,111.82064029394553,54.065761271435264,6.783489256687351,109.57348696205277
456,9.120000000000001,73.16815960733095,19.636236600671424,104.279829182221,45.94009251283659,5.137904559641005,93.65714414967897
457,9.14,51.30774314953568,20.120772464203668,85.57365145583056,34.790759562254806,5.289696343408528,74.97879415369775
458,9.16,31.575359738555637,17.419487337879595,58.45386794855063,18.978129475249666,5.30986080998141,56.69578262464182
459,9.18,14.336456471157913,12.196932974104374,25.88564227723957,-2.261677072683686,3.01881418755576,39.62732751233775
460,9.200000000000001,-0.9890753971511117,5.852178291046857,-9.424409923350376,-26.784710058472886,-2.4512655047263756,21.901335727309835
461,9.22,-14.059350160758349,-0.58711319071747,-45.44254504007451,-49.13759637934347,-10.569025895653628,0.9086954098305795
462,9.24,-23.67260533500643,-7.080750597247841,-80.15863074182542,-62.83708631909926,-20.109603566390685,-23.63839138026814
463,9.26,-29.045018267088185,-13.819196693218178,-110.17436831467859,-64.04846781373652,-29.284092398316055,-47.900334421349385
464,9.28,-30.375562847459538,-19.956749691996645,-130.1594664622068,-53.89356214185452,-35.312026357256386,-64.86150685823026
465,9.3,-28.46594660432769,-23.449999091306584,-134.71867414672252,-37.6958952866704,-34.98831748382141,-67.90103225237323
466,9.32,-24.600729014012053,-22.517380788846587,-122.16230966250959,-22.173820289011065,-26.909734519422898,-55.19381368450745
467,9.34,-20.591461590358442,-17.40594859929746,-97.02307897236972,-12.602549790659818,-13.420058093891036,-31.809213713344924
468,9.36,-17.81200858684147,-10.573770833077944,-68.4533275330406,-10.742548855258725,0.16568587773196786,-7.253436188725857
469,9.38,-15.812151914072347,-4.997380410601026,-45.67357113548325,-13.879208892314583,8.708837879466875,9.922200126342764
470,9.4,-12.611511041877367,-2.395116252087738,-34.39796518803047,-16.107291355562705,10.086811002229378,16.103578860958237
471,9.42,-6.926284355059323,-3.0172472446978116,-36.01759692822062,-12.035612464100714,5.943254761330111,13.06846078963142
472,9.44,0.09478827323656436,-6.5052149050225845,-48.18207382802024,-0.37726852250559917,0.49250965495447474,6.395589241298175
473,9.46,5.703976619008762,-12.25336202708377,-65.71786339274797,15.583008855764245,-1.9649175247079045,3.179540845825576
474,9.48,8.192166306521791,-19.022834145289977,-82.41839666411227,30.644704269966773,0.14725434293439332,8.77971546459079
475,9.5,8.563389707069526,-24.937782289537083,-93.59568662729,40.7610795280929,4.554278671855979,23.533951172643995
476,9.52,9.399140280788238,-28.308233111013124,-97.60658602602416,44.398914728027464,7.200492210574835,42.20965472090364
477,9.540000000000001,12.130807493433736,-28.282176048532705,-94.95931435207987,42.333368303374634,5.947454351152136,57.286762133715314
478,9.56,15.8144446945457,-24.582276903508905,-86.09860140671096,36.9220136912912,2.313948607267894,63.545072320458786
479,9.58,18.574318591267478,-17.083673863759003,-70.49295164851257,31.041452467610604,-0.14511515111436202,60.452306573308306
480,9.6,19.484311535933085,-6.229677190276424,-47.981038515412386,26.405695432500885,1.3220445349952663,51.350668891865695
481,9.620000000000001,18.507349166386927,6.139440694025823,-20.51573786361932,22.120434351106866,7.059658705687375,41.02793626115064
482,9.64,15.26880690989797,16.8679300355356,7.732892306641174,15.193088341272968,14.824023279364262,33.245042796077996
483,9.66,9.194554283131989,22.933801345248433,31.870451405641262,3.138402672128371,20.419120386957452,28.653673224165583
484,9.68,1.4063438712634906,23.27244943709546,48.32102512628747,-13.793324867903035,19.60516156348712,23.961492540511017
485,9.700000000000001,-4.246581971866798,19.444699243640663,56.57305662933557,-33.2340230451685,11.341874229911738,14.000755217741485
486,9.72,-3.2290989921059676,14.339937045474027,59.40310723548035,-53.42142791906638,0.04244596394789646,-3.5025873724253107
487,9.74,6.1022050136621875,9.762001049778354,60.721043871545675,-74.61026747787218,-6.090389391973806,-23.980738683687278
488,9.76,21.21637567509861,5.176310119118671,62.55841786012197,-97.01576129666688,-0.4546020247758378,-36.7783603955571
489,9.78,37.79511966176342,-0.9374943986761273,64.01115601928586,-117.21618724234045,16.75763214866257,-30.75440445276319
490,9.8,53.03132509659194,-8.669685997755154,62.75639636765641,-127.31176602459676,37.92417233704859,-0.8563641344759247
491,9.82,66.41318396575379,-16.063420553227083,57.12465325754383,-118.79231875115667,52.846188991377105,48.596001515674075
492,9.84,77.71465651980088,-20.69230508549103,46.97225108373466,-88.19169748891876,55.38330698488848,105.26564572642064
493,9.86,85.0522420895896,-21.284073534933512,33.48241369777661,-39.57974863077382,46.50984298927013,153.26903064534469
494,9.88,85.5473885899972,-18.084746777493343,18.819149542401398,17.993748815661057,31.911586893724348,178.45724678257272
495,9.9,77.63015190021088,-12.501213761715139,5.913347774486459,75.43687400352664,17.334168370077343,172.75106203998536
496,9.92,61.86538010370167,-6.477399126869071,-2.1178719382837845,126.7528420199851,5.905142652792258,136.43700723675852
497,9.94,39.58929563790404,-1.5725600061524712,-3.211441621809686,168.04455945131338,-1.705466686642283,78.16254359291855
498,9.96,12.048497788017697,1.545460399763736,2.356401380578227,193.49558598618125,-6.166775224537758,13.154902806923484
499,9.98,-18.23555625915307,2.307814231470962,11.562452849165897,193.2517967790837,-8.658282679679441,-40.3641442372142
500,10.0,-46.11149965906118,-0.9551280683160224,19.531008070475174,158.62534383491732,-10.238551208100562,-67.45013009013628
501,10.02,-65.46025667170349,-10.428056068544409,21.644683408927488,92.9545890511268,-11.858395206420505,-63.746799619258766
502,10.040000000000001,-72.95137644860715,-26.16404339884516,15.886082091201462,17.314399121871688,-15.476414265277606,-38.00059790600329
503,10.06,-69.96772019997681,-44.16936679745933,3.2464902725099245,-38.00303050743082,-24.093435736997108,-6.348789391622636
504,10.08,-60.975716928230995,-57.599236346593,-14.572055966213867,-51.79097080805482,-38.00351431069784,16.71674677748452
505,10.1,-50.36795121836599,-59.94399990135253,-36.56260818310192,-25.36626451923606,-49.9628831782979,24.288347768775147
506,10.120000000000001,-40.16374286636464,-47.72680877465523,-58.92387610903018,19.618797997397458,-46.14539116325434,20.051379071122938
507,10.14,-29.598875625096497,-22.156792757877753,-70.90186625513512,57.02190602090982,-15.021565135138697,18.784922271880845
508,10.16,-17.301976570153535,10.000978686389692,-59.99879292647863,73.26992680432531,42.09601227898037,38.850658885467595
509,10.18,-5.1429923927899726,37.64634741477561,-25.882768511847644,72.4081199945145,107.69393134692068,86.65817138993171
510,10.200000000000001,0.4539789224531159,49.95256552852051,13.465113703542862,66.30805819604838,155.90610040001826,147.3914570192213
511,10.22,-6.855572753277137,42.334769575289414,34.13977857615802,60.44899762348197,166.96921164462398,194.12703222608116
512,10.24,-26.149072318858998,19.07963635649458,24.69115502707144,48.44204491827853,137.57493501382683,206.64987558136642
513,10.26,-47.43760900951002,-9.883974334960303,-9.043729189480771,18.622318997739978,79.88650287855698,181.11574531800778
514,10.28,-58.20510207421283,-35.29411192048087,-53.587780224910475,-34.55789652708667,12.479036189877196,125.3129710660472
515,10.3,-52.097900234743065,-52.68926330114378,-97.66962095271633,-103.57292568297964,-48.37216424791908,49.8494557050531
516,10.32,-31.576289509789305,-61.98705643778444,-134.21941444477804,-169.71599646418213,-92.95313545962449,-35.655082340492136
517,10.34,-3.493294367218625,-64.5539539061931,-158.5699362537314,-212.16465426284597,-118.7296008064369,-122.22770639086485
518,10.36,26.39655400579773,-61.087916363785666,-168.2036658743105,-218.45496242973155,-128.34091685003588,-201.72054308724074
519,10.38,54.94890093889533,-51.54718613688601,-163.93415859362855,-190.2345838677124,-125.85894293238162,-268.68253583243245
520,10.4,80.06987583733144,-36.07778775296568,-149.84792166708905,-141.34331959200617,-113.80435155505162,-321.4758015707845
521,10.42,99.70666741724703,-15.687156508643982,-130.8301343338747,-89.72723804203271,-92.94564224916795,-360.4084853409686
522,10.44,112.33739570909489,7.407390314942839,-109.25291494289908,-48.211174985630116,-63.90187378352526,-383.83582679215
523,10.46,117.27911483007308,29.428142068112074,-84.2123444485974,-19.840757176506298,-28.432710144803643,-386.20910494808
524,10.48,114.32662679855672,45.36847355460789,-54.963803199607725,0.10597284156589692,10.029860739929239,-361.16998181008387
525,10.5,104.0630700472985,51.07256915306354,-25.179005730914447,19.073413716581765,46.27253004731243,-307.4941166186272
526,10.52,88.94396375200643,46.21262042535142,-2.432282334379316,44.56317289930482,74.30625230627732,-231.8348387811033
527,10.540000000000001,73.30137554731468,35.2543735178877,7.699299587235279,84.32250567813418,89.79914213811443,-145.4161400025409
528,10.56,61.447891347908154,24.765467808815615,6.957839044631423,144.3404110402835,92.05209263524668,-58.38906771740072
529,10.58,55.36116323054704,19.106776803845804,3.570031698424847,221.91801581127044,83.50514167923114,22.76806121507284
530,10.6,53.442107143129114,18.161870907847817,6.139857883415952,299.59694579265465,67.66357534068126,93.66302466635446
531,10.620000000000001,50.424447396425634,18.552144322148308,17.726247121579373,348.69250978693884,48.031195694812084,149.25755879114854
532,10.64,38.406915232862524,16.619237834906563,34.54625141660693,342.7985606546247,28.64370575219769,183.45269378709838
533,10.66,9.616622544596314,10.606414169928108,49.724145151880805,271.93006670445834,14.177794606624516,191.98645496159128
534,10.68,-39.364533391444986,1.070397406141446,58.90591998522918,148.35989620311824,8.110759367571351,176.31309287635304
535,10.700000000000001,-104.16905531946729,-9.765993122100735,63.487834753708796,2.2101222594273917,10.216225890526465,144.55955094749498
536,10.72,-172.61681839064056,-18.859779763175936,69.33637051251343,-130.5396484059637,16.00594402283294,108.05116176279367
537,10.74,-228.27638216436563,-23.06771653716759,82.38830371286075,-222.56620331597207,18.961708793448544,76.21412430079926
538,10.76,-255.24661422129873,-19.631317520945434,104.39768916849621,-264.72867455378946,13.862828483247986,53.855500085513945
539,10.78,-242.56501018008942,-6.815139938095944,131.32910176200681,-265.19765405942576,-0.9250695902524386,41.78362377047021
540,10.8,-188.94007068410383,14.441300303642793,154.96692484547177,-240.73122889992024,-22.962837902825495,38.67731768449964
541,10.82,-106.66130690801106,38.57675867747058,166.75417282784133,-207.7545094956246,-46.930980531421355,42.23858506590544
542,10.84,-19.379600977757395,56.40277095531749,161.98992033035864,-177.50606144270944,-67.17421642615176,49.46277620182295
543,10.86,48.53344677721433,60.64596822349056,142.32610020274748,-154.29829957480445,-80.23009425691937,56.708587919656
544,10.88,83.45451570557067,51.637025134502466,115.26075023516364,-136.22953442733922,-85.18698962086549,59.99284409072547
545,10.9,84.81021892482626,36.69914804844383,90.76610702121654,-119.18846426648773,-81.80355419385734,55.733874433215085
546,10.92,59.06180378409836,23.495211082418805,76.62485717185069,-101.27581211625461,-69.43768710596169,42.201938262192414
547,10.94,15.24626205511721,14.754926525562164,74.92230056584418,-81.81213112741239,-48.82419117355358,21.33785850531916
548,10.96,-33.8257931990952,9.479206321289842,81.76467332412552,-55.74865147933002,-24.23068110749096,-0.7208525457609962
549,10.98,-71.08866820041952,7.406553563819012,90.276204100195,-12.968160838411194,-2.3936006192171444,-16.255407991990797
550,11.0,-81.05751298300702,10.428346449183833,94.63183564900208,52.456873411146006,11.22865369076125,-20.98510989264329
551,11.02,-58.46694274940276,19.58386094070974,92.4909487970537,131.63797436871943,15.176637215915711,-17.498064687312116
552,11.040000000000001,-12.104795757764585,31.838459803755295,84.78938748705328,201.0148512341197,11.628769584645338,-13.621205982208556
553,11.06,39.592691242955794,40.69414620296611,73.64727421249648,234.2369189516025,4.119812110649497,-16.914644305331706
554,11.08,78.07014989023733,40.24391925518099,60.16245393001597,216.15238052109328,-4.384032369288908,-29.923052200231723
555,11.1,92.48091559244692,29.024261658182503,43.955390873607115,149.73628217831853,-11.87442309891858,-49.21787457562542
556,11.120000000000001,81.33775326175893,10.76268859283796,25.035130239827566,53.618374304454605,-16.88327874827308,-67.40830239762897
557,11.14,50.068812078396306,-7.965485509866582,6.150974478642708,-46.41497138079721,-18.725384223036556,-76.00509472486092
558,11.16,8.872390565924254,-21.23636706276669,-7.421383012513428,-126.78462439635548,-18.29500948623376,-68.57949918941694
559,11.18,-29.332125861690614,-26.405174375677703,-11.617331095364985,-172.93967771520926,-17.743080215735656,-44.34148016304126
560,11.200000000000001,-53.303792837243904,-24.473327039232025,-7.874364818986307,-182.34019733906726,-18.665793074374214,-10.381950228621758
561,11.22,-57.82144554612734,-17.955435838045993,-3.590879790607964,-162.6461893227118,-20.724461110671946,20.332209540967458
562,11.24,-43.28608882380908,-8.07819196257731,-7.526642243141374,-125.57182100889085,-22.086992748619124,35.38632933386465
563,11.26,-12.40686916695119,5.63084761623926,-23.570944702579467,-80.5738968673626,-20.631923765982105,29.80054163343246
564,11.28,29.501930389625926,22.539506259300843,-47.833831862277364,-33.12291115618692,-14.38076888244159,8.616373694570267
565,11.3,70.58004127955746,38.19091668747505,-71.30161820663345,12.807574634891676,-1.5253942693592517,-16.423523148910537
566,11.32,93.1302642071859,45.66466021601265,-85.95344933383738,52.58525098066322,18.50940848959555,-33.733263180305514
567,11.34,83.49885644328124,40.51724152837936,-89.69807528907177,81.59466436050641,43.03421269834116,-37.71480244172855
568,11.36,43.393760941226645,24.36862718838839,-86.72055503025086,97.11938306657785,65.31132084309468,-29.936796171169757
569,11.38,-9.324047921570507,3.5555687234580002,-83.68000667998669,99.21674824541027,76.94098858605545,-15.75481543332925
570,11.4,-52.29008401997891,-15.373009158691186,-85.04082003971152,90.19616740679763,72.36640458099134,0.15051436711599397
571,11.42,-72.5067540759832,-28.94544466167006,-90.5535966683804,73.19012896535476,52.126596272936474,15.866892375196425
572,11.44,-71.59396165103065,-36.922561805215935,-95.87013996126946,50.35666814810553,22.480422633696406,31.30275572328383
573,11.46,-60.769123442770095,-40.65853668309878,-95.43800530125253,21.752831430695608,-8.049363033937432,46.04873891878293
574,11.48,-51.68970039916014,-41.47669308429501,-85.85376670780207,-13.901308381160744,-32.74399265429651,58.26415432487566
575,11.5,-49.98302856423151,-39.721687712123185,-67.86909250372776,-56.50811176242453,-48.86939893587635,65.27354703285202
576,11.52,-54.365263652150674,-34.619914510865414,-46.07558402544375,-101.70052348803245,-56.875872516233926,64.8675113013005
577,11.540000000000001,-59.9086087188089,-25.107420303422966,-26.572001269170983,-140.5154654848912,-57.81534475969504,56.06802912665795
578,11.56,-62.04880542597597,-11.340691233140593,-14.148934499101221,-162.9021674311852,-51.63597975250221,39.133578412110126
579,11.58,-58.9034370799848,4.252314783549321,-10.762086366390692,-162.71249191171268,-37.89572555482136,15.368863885332438
580,11.6,-51.378663523438746,17.61744655272783,-15.820627746185252,-139.98740449357842,-17.867246625478867,-12.835653991512583
581,11.620000000000001,-41.53013916603039,25.249966863156956,-27.286595867652995,-99.27799985891949,4.202470012025241,-41.80621993683407
582,11.64,-30.130546856086973,26.115488748749833,-42.30309561852955,-46.63866221687577,21.953554933524146,-66.41444396386423
583,11.66,-15.081855661534428,21.74973308286336,-57.21111410793502,12.33507279671215,29.472735251737003,-80.152124282595
584,11.68,7.661109245565118,14.81048307305786,-68.09915607251821,73.36682543097068,24.04312051073478,-76.29954019641207
585,11.700000000000001,40.60339993759873,7.5320232341411995,-72.37507518634496,133.15332868451338,7.550503862327626,-50.97522127688973
586,11.72,80.85883597709382,0.9093734874475177,-69.41312703790072,187.19895686990134,-14.066257812976477,-6.540006459520029
587,11.74,118.81291567921934,-5.727490842576971,-58.502285266866735,227.33170680667286,-32.88845837311895,47.99458010703913
588,11.76,140.82368402861653,-14.94971589792288,-36.77495830710953,242.2178817404966,-41.90970124083745,100.39204320332371
589,11.78,135.49548772848146,-30.16443010978955,-1.5720624704253954,222.22311822612664,-38.004409065203504,139.35585243644346
590,11.8,100.9014107388611,-52.339816719721874,44.09753597462564,166.08233695792978,-23.446166764583545,156.86550707487487
591,11.82,47.94512006547737,-76.65128799316334,89.70006825998485,84.7161645989029,-4.2114677695537655,149.48155887264215
592,11.84,-4.140227396416231,-93.26470219858325,121.72930522756477,-1.2321093318769698,14.299561856168115,119.58781369167882
593,11.86,-38.07352300097352,-93.27529520209416,130.14656848959564,-69.37531810135215,30.295037567643142,75.14416156218675
594,11.88,-46.64316307239124,-75.1081759710157,111.80457216437227,-104.113647362939,44.293836187424056,26.765673842932653
595,11.9,-33.06872241927222,-45.66234494353543,70.67054239690346,-100.8306387291354,55.46038923401417,-16.21250529791638
596,11.92,-6.193035203063454,-15.64505488349282,16.263504255088023,-65.24097880783683,60.590203864466645,-47.97734579180325
597,11.94,23.51050272643186,6.358362825352589,-39.8207929327352,-10.491413982465637,57.26335435335551,-66.04111076367249
598,11.96,45.682995264281615,16.87761785464996,-88.5911588888871,46.6736928888911,47.11668672258377,-70.12353385518222
599,11.98,52.57611813884924,17.332541424192925,-126.1974904767211,91.06454391484027,35.15692975943804,-61.930956283297505
600,12.0,43.10976686576849,12.487409704735285,-152.0202892299754,114.2870284028993,26.1405363803173,-45.9812309634776
601,12.02,24.413292457444747,8.396111687478175,-164.80013382169284,116.79064187923107,22.036248245653717,-29.714170105438882
602,12.040000000000001,7.191788652068719,9.549016956286367,-161.45277687304196,104.97771284167115,22.362758773343916,-21.199731326171552
603,12.06,-2.203991834236093,16.190250090676123,-139.72714505495165,85.69724689546263,25.81381247739004,-25.11912803592003
604,12.08,-5.607463931885153,24.14250431301012,-101.38789913363885,62.86983351108427,31.090835615459355,-39.81486442807092
605,12.1,-9.416725495574022,27.862922831288337,-52.44851620839215,39.03198449999951,36.75264783311212,-57.69725315906088
606,12.120000000000001,-18.08402573606655,24.231188168101788,-0.5071553254523242,19.23884420163111,41.184119523046455,-68.86931138659101
607,12.14,-30.993559499791022,13.915841116225277,48.0182870159244,11.305280917650709,42.893929840658465,-65.86653724438305
608,12.16,-43.58240777572641,-0.007476046678813408,88.62564286744961,20.211167789409878,40.32295374995866,-46.97634511437373
609,12.18,-49.94320770157832,-13.868993281065286,117.95055055147529,42.54295946419991,31.716444794007813,-16.516990289403722
610,12.200000000000001,-45.99348457520571,-24.067708853479427,133.29682879284707,68.00296118283931,16.866822290691243,17.618230430432085
611,12.22,-33.067350176647054,-27.517128720337283,133.0463461756657,86.15436376373586,-0.21659828311164064,47.16387959781336
612,12.24,-19.07106242281895,-23.158680062823784,117.10034789706481,90.21933969532705,-11.901454914610984,65.69269310105346
613,12.26,-14.574848770584255,-13.568394468185058,87.13721360064747,75.6743325039814,-12.251082584556576,69.80678943034656
614,12.280000000000001,-26.035856703984837,-4.2834953314391155,47.46021347592577,39.901254512982405,-2.4753740267193822,60.11260162984766
615,12.3,-51.188558878142345,-0.230494770817824,6.018693331895296,-13.75488516818859,8.841977080593034,41.72944897065402
616,12.32,-79.61425177277312,-1.8872122299061171,-26.633284529952356,-73.61195212396095,10.757684140464479,22.78332742329687
617,12.34,-98.1441913926295,-4.892439153798312,-41.67772927438223,-125.18646450312832,-3.8675786017834692,10.19430432998768
618,12.36,-98.19695179636355,-3.7393182014233988,-37.37335054845782,-160.63453456137972,-34.52380159775996,5.142226171776088
619,12.38,-80.30951438221904,4.2330481056507425,-21.038994235932144,-182.30780891362627,-72.93069294242727,2.315603987684974
620,12.4,-52.13988518422303,18.421633692533124,-5.415850981296524,-197.19226010422796,-106.79961462361513,-5.746574103035491
621,12.42,-21.677168202918622,37.14160017002939,-1.5199685023128318,-208.84014558773828,-125.86183784937766,-22.74059625178557
622,12.44,7.468365861399408,58.44430990072965,-12.590978407099247,-214.61493878865366,-126.45827831758663,-45.94326605679278
623,12.46,34.0898347978683,78.75831850887036,-32.62391551431904,-209.13628939312085,-111.57483112719613,-68.27091894685464
624,12.48,54.45126042875245,92.66887428141273,-50.04734284330042,-189.35435782128462,-87.1163990884248,-82.67165258039162
625,12.5,61.981043657251426,95.79429900161692,-54.4033618067005,-157.3965152010674,-58.381172900945785,-85.70062953967444
626,12.52,52.93758306707033,88.06765443318632,-42.12456389534161,-120.22105740950677,-29.355274567877323,-78.65016530557754
627,12.540000000000001,31.4450959190497,73.77001141139903,-17.822554965225116,-86.33861526462955,-3.5973359011363186,-66.13737221669388
628,12.56,8.12215421648392,58.490117859344956,9.336150725995271,-60.90624909008327,15.726841028856732,-53.082490883657826
629,12.58,-6.288244231142894,46.125167071565066,30.933442403190416,-42.61534245316599,26.823711923510118,-41.88851840453977
630,12.6,-6.982551008592889,37.80222721746446,42.58386897644634,-25.550198506137253,29.743667447457327,-31.61023485546534
631,12.620000000000001,2.8928372418084582,32.315417154896906,44.281319952644324,-4.69298471340508,25.773699270661943,-19.3174783058947
632,12.64,15.284121244450539,27.380689986924793,39.31829688314896,19.841193984105786,16.419264589245053,-2.1089218280904194
633,12.66,23.618063579979136,21.21170119574539,33.10430249212523,42.71401707208417,2.5670599445886735,21.655847320577646
634,12.68,28.003038506528558,13.343835216988902,31.681219698828386,56.35345396579269,-15.817829919577038,51.80719930937379
635,12.700000000000001,34.88283542410053,4.1694736649730135,39.14887331535833,55.33339832355392,-38.88290241173846,85.74653860393931
636,12.72,51.21272794538603,-5.633364870841508,54.2548560197824,40.83189015685622,-64.55619259028488,117.70210756131614
637,12.74,77.72122650900259,-14.697543991075124,68.48682752559645,21.867790616417093,-85.59024008451256,138.773119224263
638,12.76,106.67560021291291,-20.5354817508468,69.74376714350778,10.016349756449271,-89.15527345474689,139.75667006096364
639,12.780000000000001,126.62068095819308,-20.616673147717837,53.11134028168355,10.643321537441631,-62.8743428051996,117.9985615245368
640,12.8,130.733073862213,-14.778176758967724,31.19366943319525,19.60416540929279,-6.36602651413261,83.75700407019286
641,12.82,121.09367186960455,-6.952977283576547,30.472521128604917,29.74113341445209,61.108181261514474,56.76871208661345
642,12.84,105.08749227190987,-3.7724187291229487,70.99655260174447,39.97250143365215,107.71987207416834,51.59981503277994
643,12.86,88.93820106741902,-9.812298504887522,146.32710313973118,56.08423366028407,109.62509882674905,64.98825343476426
644,12.88,74.90556441888282,-23.477334142374605,223.1886561677064,81.80821078505453,68.83659149176407,78.35621167815245
645,12.9,62.543981551514285,-38.030718642682615,261.63311770451884,110.12452208339201,12.29143561947862,72.76262877436818
646,12.92,51.5081094329538,-46.489374196298385,240.39603490100723,125.15513148200759,-27.293719898889773,43.46097861500246
647,12.94,44.368853506523706,-45.14432097177499,171.09268477600833,114.23617945962454,-32.53052615565993,4.751646043471643
648,12.96,46.361882247246704,-34.084994319949416,91.50838269216524,79.00075931203868,-8.801566419500837,-17.975588464394953
649,12.98,59.42510089381313,-16.895127065618652,40.158904230060315,34.905248346158714,24.26671740130376,-5.838036640129442
650,13.0,75.76217428640763,0.44020543691848246,30.48933333207474,-0.015380561123290448,47.69938104539009,38.63401840238353
651,13.02,80.51803328256798,12.927357571966278,46.21678052407407,-16.692613121038985,53.12649613456867,92.73499128113005
652,13.040000000000001,63.36724422268068,20.04767961123851,58.91108723680293,-17.93805063767907,43.21179923306322,129.42953941242925
653,13.06,26.997776659930558,25.290495024495918,47.7171619718857,-12.804739222210639,25.731483586046796,131.99791943248607
654,13.08,-16.110131415878843,32.25227413454246,5.314590292934753,-8.916765905574136,7.415269294608623,96.71295873313142
655,13.1,-53.74707760343429,41.639043162337074,-66.20318572531274,-8.634795135656525,-8.644671915069186,28.03886154275303
656,13.120000000000001,-80.43129147111533,51.34014415194584,-158.0354162852233,-10.068804295244586,-22.074187053356738,-64.05007645180606
657,13.14,-96.35646251122816,58.25259493202413,-252.9050211250693,-10.082401545859462,-32.941692718027504,-162.37131593312967
658,13.16,-102.86795924208703,60.162081258064205,-324.76657617388605,-6.411368721209662,-40.24849737425483,-241.93627877340728
659,13.18,-99.68762574798166,56.77548538179789,-345.8817000043293,1.5103145037952772,-42.30435776787327,-276.5046045965368
660,13.200000000000001,-85.59142455555556,49.07865376628472,-300.50105285667456,12.101766462496895,-38.67396264301104,-252.24790563767579
661,13.22,-61.28377990434592,37.28170763050974,-196.9624899182812,21.780449545990223,-31.658767436716555,-179.91573516172872
662,13.24,-32.185955141710295,19.81156203514881,-67.70893608920407,26.728655498445853,-24.904295359509867,-93.57195591667406
663,13.26,-8.495714552489696,-4.61699025035524,46.01516396503083,25.53428787071651,-19.68865546014044,-32.61697974351441
664,13.280000000000001,-0.8721623613045644,-33.90652209564959,115.2018710270414,20.13565368052354,-13.192450542665027,-19.06041450747966
665,13.3,-13.891268838623027,-62.6210310856209,134.75906743797725,14.026929184300625,-1.5021669586345041,-47.42611429151217
666,13.32,-42.85454074480351,-85.42856139561798,119.37237006198605,9.621761431222822,16.114780200573396,-93.18400582330415
667,13.34,-77.29406374607746,-99.79926018999548,89.99014313952166,6.868639084781526,36.87359825572719,-130.456826255274
668,13.36,-107.92880660809732,-105.55071659249603,61.56072706055064,3.417248148731352,57.49918047400678,-145.80489597403897
669,13.38,-130.75941992320736,-103.23267842955306,38.27969052325045,-3.955423695507939,75.82085135671626,-140.97012297450254
670,13.4,-146.07280394320406,-93.60855143008646,16.599743710570685,-17.034337491447268,89.52127514352858,-125.5953363236577
671,13.42,-155.60705324480801,-77.92466937752384,-8.293283131570114,-34.665295047781086,95.16751500968917,-107.25624059087576
672,13.44,-161.24128528737447,-58.02970137660319,-38.05868634871035,-53.88795088373736,89.59326481930007,-87.002912200915
673,13.46,-164.77314888980166,-36.27594945103531,-71.01422630376894,-72.50578781105014,72.12772989589917,-62.2465646149133
674,13.48,-166.99129236178078,-15.1285436806949,-104.24026184134891,-89.71133746215543,45.47536091550825,-31.856471606926355
675,13.5,-166.58564778928715,3.690832858538816,-135.2980542943959,-103.8927863625257,14.827174634412708,1.8973518160410807
676,13.52,-160.72264480113418,19.880211634807115,-162.43978113647307,-110.7587046811106,-13.837905783101649,35.236498185890355
677,13.540000000000001,-147.09635161005036,34.06416633479319,-183.6976972199942,-104.90244367515717,-35.242937661730124,65.83281598373406
678,13.56,-125.35962548082804,46.30238122670717,-196.22182001025357,-83.8499525582479,-45.8732498997656,94.18058999611219
679,13.58,-96.9135975640939,55.086978688713934,-196.9526402341184,-50.592725448414015,-44.9825871651551,122.82076866207933
680,13.6,-64.03351163282966,58.02250304300469,-184.14857909373393,-12.185014312815179,-35.40243613121838,154.42616527090735
681,13.620000000000001,-29.305096252455137,53.70732538144476,-158.39160640683144,23.996089080037002,-23.058630883242376,189.81352577753523
682,13.64,4.843966159145751,43.126675360473754,-122.46438724466836,52.961693369596944,-14.408197874310948,226.532238523459
683,13.66,36.91276753081978,29.337385649219357,-80.77718172714562,72.33301968169022,-12.958613523551705,258.5543005507677
684,13.68,67.16162628987736,15.782873485830432,-39.33311832369516,81.54237866126087,-17.606962745883454,277.3725027006652
685,13.700000000000001,98.00690290333246,4.705565917645723,-5.755415244519286,82.15767544925329,-24.362386477834946,274.670117908886
686,13.72,133.33172783214798,-3.230708439967291,12.79820919290815,79.08853069546481,-29.818187876484235,246.53807208382156
687,13.74,175.80944535934697,-8.472479438382837,14.310701758681766,79.75865393400683,-33.02992045276599,197.49664057441296
688,13.76,222.33186159615755,-12.41488214692209,5.144663690367565,89.30103971270343,-34.095576367736165,140.32490902850068
689,13.780000000000001,260.8012590303275,-17.542341144194204,-2.7651316347250905,104.46904499977414,-31.215581731691465,89.54461395788582
690,13.8,273.68198447846424,-26.463588454806324,0.6037950519428712,112.43846907690383,-20.292632123803443,52.81073132902167
691,13.82,249.28521109930324,-39.52103440528475,17.667680340649714,98.30070624680562,0.860995936884521,27.88503580572068
692,13.84,192.37051802340366,-53.23229983377006,43.24565540777066,57.28446931516238,27.521651035827713,7.816129632651525
693,13.86,123.18750454483938,-61.87501066199543,68.12232648432848,1.5245811555208775,48.922939130771425,-11.178740461886989
694,13.88,64.98500908873685,-61.32610010882634,82.38302160763226,-45.60089678330979,55.81769912640114,-26.675268910017586
695,13.9,31.748873171335948,-51.83629199367545,77.81197603482804,-63.612379953666775,47.36922325316979,-33.9227959110312
696,13.92,25.290214877387395,-37.62580947652026,50.8113183545434,-46.594130427180716,30.672640693512243,-31.91174515719402
697,13.94,39.19567613883417,-24.09433129078987,5.953754902855396,-5.1075998497579,14.748561857714929,-25.062173710413088
698,13.96,63.03780815356764,-14.856144896515719,-42.3653883237391,40.78932714457575,5.593424773746994,-18.825064277008032
699,13.98,85.50471341877113,-10.32084167472236,-73.73044210506086,72.1533118171405,5.110692522643703,-14.66150190148323
700,14.0,98.19017977030904,-8.40209923612499,-71.8555956255602,79.7513585636457,11.847508736365299,-11.144120044126993
701,14.02,98.74264895071576,-6.643098325448853,-35.53737923441349,66.24763286585419,21.808945262652067,-10.135736884923103
702,14.040000000000001,90.36405716699687,-4.010145313728027,19.385689195544508,41.158987288202255,30.0652222373606,-19.247115462513825
703,14.06,78.17308861320457,-1.0621853530152812,70.70264854178781,13.139340893727322,33.22077147111994,-45.701646094963145
704,14.08,66.06105335119058,1.0226629330465455,104.03212340724423,-13.872204622937755,30.74523619520877,-88.23264642679123
705,14.1,55.81989311135092,1.3146986798145517,117.92375261062497,-38.760328579159356,24.075610901659065,-136.549497635865
706,14.120000000000001,47.27617703391837,-0.4001946267111057,118.14419701186483,-59.7038154833065,15.153404198664525,-178.3338549551376
707,14.14,38.438835006661876,-3.266023752815545,110.2286269799796,-73.27031591163149,6.242197612734812,-205.5346657209978
708,14.16,26.311720102017325,-5.435756910280585,97.29273234757636,-76.06959444504513,0.392034921818631,-214.7733731753161
709,14.18,8.595927166265058,-5.01135046908176,81.4293411977235,-66.60240799815314,0.7990825064147176,-204.37175884544516
710,14.200000000000001,-15.025919836771102,-1.3236728980335932,64.28839485396595,-46.19634909805493,9.191915663464712,-172.7895919449373
711,14.22,-43.234794309612056,4.4502681130124255,46.247553598225366,-19.233875344540937,25.168462454547992,-119.83344391064206
712,14.24,-74.38182760247186,9.73846704018131,26.0734060937665,7.511826609735406,47.144132537401646,-48.70447478326279
713,14.26,-106.82817243376674,11.811286709469474,1.7081673828134774,27.13314991478269,73.22835552445122,33.28679694568706
714,14.280000000000001,-137.78139718305258,9.269123914139941,-28.159537754818256,36.021530730663144,100.77090065001903,116.1186397518048
715,14.3,-162.59408846153264,3.1220793389099444,-61.556765407774435,36.03287113497263,125.70129637889195,190.1428580342063
716,14.32,-176.23311322728446,-3.2158014263845844,-90.75779326647424,33.0432407256565,143.0351559800718,249.34755407922103
717,14.34,-175.7041549033384,-5.3893866025246755,-103.59916512711013,32.885398734345394,147.97736238258767,292.24119395201615
718,14.36,-161.32237730602324,-0.6544690704224188,-90.75027570817804,38.19631218572617,136.76449488891936,318.84945580434135
719,14.38,-136.771212578943,9.979600362624755,-54.02400078904256,47.95253006824154,108.02296667565489,326.5176994759654
720,14.4,-108.4543230997808,22.021838806359135,-6.877901370974545,58.51767692804323,65.0094129519264,309.8915972487508
721,14.42,-83.31658377815297,30.504180179099436,34.78097541833737,65.09092163444616,16.33896448988565,266.1158529423149
722,14.44,-65.44450533159788,33.16650795602625,62.42008038713068,63.770675316146416,-27.259038306309655,199.23667219004838
723,14.46,-54.5616419473389,30.919414633724593,75.87984513379722,53.60510904572556,-58.31810272068594,118.3936911625074
724,14.48,-48.34804835800107,25.754706906926813,77.33557899891997,36.61513351256833,-75.39209562428915,32.56886407613653
725,14.5,-45.69580262809063,18.88605913926225,67.70905383464077,15.408745694689497,-81.39583778414845,-51.34244986258372
726,14.52,-46.63745451380611,11.000029571221411,49.50285401463511,-8.759354272324469,-80.53989791501783,-126.0338785041277
727,14.540000000000001,-49.23345251276958,3.6660340459270166,30.247188133265873,-34.79583965955924,-77.16135642015729,-182.39584863272884
728,14.56,-48.0592444731294,-0.4340387241705175,20.027950325206355,-59.035976994250944,-76.00705360280824,-213.17845129581966
729,14.58,-37.18501466271607,0.675709093410946,24.555218393936304,-75.22452835317299,-81.57198716397025,-218.65270710725605
730,14.6,-14.92185769794485,6.271363983689685,40.98947039658081,-78.26188392065586,-96.20789709093044,-208.026483384902
731,14.620000000000001,14.597208059154216,13.277312009444454,60.85136312361283,-67.88716098634427,-118.96089990534267,-194.5434182587623
732,14.64,44.17885950956879,18.73492765339958,76.92256173485174,-48.73191507828314,-146.2574901022796,-188.57955406883133
733,14.66,67.56626521627332,21.5238256767037,87.46808836205753,-27.60108859252294,-173.6166039582543,-194.4956163950777
734,14.68,81.79743171172538,21.764124376756598,94.67874803733142,-10.86672230890125,-197.20659370248808,-212.40139291170382
735,14.700000000000001,87.78849844385442,19.590434715750774,100.21100587863015,-2.9171231474918002,-214.71617861771222,-241.21522216342788
736,14.72,89.91684058486452,15.281375023659631,102.58059392940751,-4.984126090374008,-225.35297650939054,-279.6056469205564
737,14.74,94.41258553047481,10.074398480468393,98.2121819275894,-14.504694838058795,-229.01743406974225,-324.91463900322617
738,14.76,106.18816436313523,5.838020815425991,84.49546650273797,-26.217121890493154,-225.08938057951354,-372.2045645635444
739,14.780000000000001,124.95475025298234,3.4619126454284066,62.17239521470185,-35.54072803064146,-211.47577137575595,-414.9804737528084
740,14.8,142.82659201816898,1.460953683116247,35.13855300255878,-42.71316572433082,-184.61168185306713,-447.80655772774276
741,14.82,146.1862188471227,-3.7269716929557477,7.587568207330424,-54.017903232062515,-141.0058943446052,-469.3963207523253
742,14.84,123.05607250677227,-15.222736912893701,-18.891572036119506,-77.02758441300102,-80.10740231870373,-483.0871716807289
743,14.86,72.48096055578264,-32.28911254602677,-44.9925107777659,-112.08406045197987,-6.7238570229462615,-492.837483464112
744,14.88,8.106331885079477,-49.2657200288071,-70.55811467871385,-147.9507857205991,69.44136379998912,-497.6367619325414
745,14.9,-48.715061116088236,-58.95293346161648,-92.81855152031835,-167.47747100289982,137.67165860547658,-489.6935908264296
746,14.92,-81.08477216165421,-57.98130144800018,-108.13059725356881,-159.11500969975728,190.85083709713533,-457.8639031543494
747,14.94,-83.67398574975954,-49.14174955678812,-114.18731702497733,-123.73052012629388,227.2169993585127,-392.82174403661145
748,14.96,-60.81844843531844,-38.765081796835105,-109.2096512152478,-71.34444034299032,248.40295056901238,-290.6569670881286
749,14.98,-20.794919374237654,-32.00111006031878,-89.06198638463559,-12.308341520127822,256.19675521677146,-154.11325467599158
750,15.0,27.437907021233467,-29.785415924474,-45.73540430482098,48.812216677043885,250.90586932196962,8.867168452726043
751,15.02,74.16587771123157,-29.00301951740625,30.509057056005318,112.39391367331046,232.02686974466238,188.47486914999917
752,15.040000000000001,108.44986349882457,-25.33765312613374,144.2635019558544,178.15480023768382,199.73943653939335,373.9813573958477
753,15.06,119.90691954131421,-16.865713451346323,284.88410004858105,240.84758602853694,155.6443717921218,549.4892066501942
754,15.08,102.95083554885781,-5.246826250002303,421.4083669765093,291.4534297080312,102.97111711284333,690.7973270606217
755,15.1,60.284913789689384,6.847317261291447,512.9253035488932,321.77913288943995,47.484396219390405,773.3731542946811
756,15.120000000000001,1.1179833028703254,18.50894353041722,531.8727725598139,327.0149948812447,-1.6755043829361025,788.8964265284346
757,15.14,-65.27234953051088,29.13391416857535,480.70999818784435,305.48775729303725,-34.349404089676376,753.4527053181866
758,15.16,-132.8215614762094,34.85406749248797,385.89645243967294,260.2519808069194,-45.60402530372686,696.5599813093522
759,15.18,-193.80878620204453,29.33842999357849,276.45644837500043,203.04172343514466,-40.29735746514763,641.3033460677733
760,15.200000000000001,-233.31108458487773,9.281463773120892,168.03027722338686,152.95830759357915,-29.222139518475043,594.3445875509528
761,15.22,-234.5004379606396,-22.55804272210002,62.22079798601462,125.44029072348101,-18.737516336903543,551.3921001408467
762,15.24,-192.6435119316468,-60.126687889135,-45.308243199706205,120.45175560557666,-4.783402286479166,508.4411923961156
763,15.26,-122.18274141708645,-97.08836825567141,-156.19545874694666,123.10499568451894,21.46016909067879,468.49951594142817
764,15.280000000000001,-48.21031435069267,-124.96325378635302,-261.96897496670476,117.23854708162403,62.2917688825447,442.0139199307662
765,15.3,8.196513603355971,-129.89223580674928,-339.24526028414596,98.8921771906735,109.09181000294377,443.58616026717084
766,15.32,37.01389905509487,-95.1182952605346,-353.1003977261116,77.80858133621342,149.0950720924069,485.3407459315313
767,15.34,37.563229015866014,-10.62984773598447,-272.73932752658374,66.77316537337582,175.123105783533,566.3803920227874
768,15.36,15.679257565468475,116.20297883227884,-94.1233800692643,67.9551079433943,188.30632075439792,663.3949223373472
769,15.38,-18.032999383507704,257.8578647929631,145.36633124268852,67.01364720048018,193.6001801200626,732.9827292820625
770,15.4,-52.56754068986059,376.19450278998244,374.2011216821915,40.55980009059227,195.27093460292082,730.4519375334044
771,15.42,-82.74191846851467,439.64797415161956,515.9386784079315,-27.187125535406754,195.90256512139598,635.0064551189947
772,15.44,-110.70059659607334,437.68736800277696,524.593245348738,-130.97784710329287,196.21553238797492,463.78635801477907
773,15.46,-139.7293804747815,385.07067673385177,406.05457047049185,-244.75325458958534,194.05857424160376,265.6392995576058
774,15.48,-166.03692157465028,314.6078167410489,214.08823061596487,-334.6305697511,185.28297497400126,98.94774294787813
775,15.5,-177.3579691394444,260.7535643676687,22.909994229418388,-376.0261831526665,167.90277791282085,4.473385815967205
776,15.52,-161.472401338871,240.9151864849104,-109.3380571209,-367.24282976782337,145.55738428924323,-14.253537297465389
777,15.540000000000001,-117.69936767882223,247.33814702603215,-164.5209466088787,-332.98643730580835,125.45733510531062,9.11216220922912
778,15.56,-59.54801145140452,258.38391443275026,-159.72838374372344,-311.4122818873781,111.65666325660115,27.005727219872682
779,15.58,-4.168640837790342,259.9033594670796,-119.48488264125331,-328.25320206603266,99.63165116243968,10.688601753827285
780,15.6,41.03863275725732,254.62301308360838,-51.96418882568807,-377.91817531554204,77.54811672790831,-31.78515864295911
781,15.620000000000001,79.08011419968531,250.17170790911115,47.867463454113775,-431.011631517328,35.2786302844484,-66.48720616817559
782,15.64,109.83245163268433,242.83597687789893,174.3668838457121,-462.31201538972186,-23.414246240396878,-64.22449589480618
783,15.66,119.94273444423702,220.18905540849693,296.04619306679024,-470.0628169738602,-75.37348130349113,-25.445625205307977
784,15.68,91.7920900326613,180.66151525162732,369.95751034100107,-467.5212254485227,-87.02044348682438,21.419840982985587
785,15.700000000000001,22.859848097674167,144.02558955889347,375.25079664242696,-461.1477880572387,-33.53253186184725,46.687160741846014
786,15.72,-67.65131588618542,137.0300681477676,334.40029831375887,-443.3730749419117,85.55901698826169,47.26502320571294
787,15.74,-151.38157537000296,169.60282510246148,300.0448720025595,-404.48316628618284,244.2067632350595,49.59498355923228
788,15.76,-204.8793861594796,227.58275306576266,315.81033461367053,-343.1811544519131,401.16388128352014,83.74290378675013
789,15.780000000000001,-210.43195390990232,286.71195542940455,382.13149747280005,-262.94498409699264,518.8349289090294,150.5728666174457
790,15.8,-152.19435693883065,329.8167179401936,453.1613588152487,-164.17467418169844,579.8947160596306,209.72074841655646
791,15.82,-23.4889042590021,351.23171817076206,466.7033284295834,-45.43552018462622,591.0036190147398,200.18147011834102
792,15.84,157.96432243775263,350.98895203697884,386.90543523182026,88.23136919598949,571.2721018030702,82.13149989332175
793,15.860000000000001,347.0331209440312,330.6840048359803,229.72444991646404,220.89930469822778,536.2175141879898,-129.6730916186018
794,15.88,490.7770183522731,295.2382430387593,49.57843534867163,330.1314697488177,491.29412175546497,-370.288287540129
795,15.9,556.9802149524886,254.4471599897857,-103.8188984133819,396.30630421198805,437.7052088280426,-566.7295563716223
796,15.92,548.2401798988278,218.8892304137978,-219.00636843273003,411.51201191934575,380.2140549812452,-681.5091426416976
797,15.94,492.0930233571954,193.40760350692085,-316.47575312193555,384.12288468666475,327.63233483853,-721.9469037187919
798,15.96,418.9856019276185,175.39989098328607,-416.62395704363394,334.90116254766247,288.1364638761911,-718.4945555899941
799,15.98,347.4558239476563,158.9836934065741,-519.3074167264687,284.0900706146031,266.13260259135865,-700.6817540824771
800,16.0,284.1153345916185,138.7100855670401,-608.3032652319826,238.93268661974935,261.0704610301832,-685.625847706884
801,16.02,230.41914392020558,109.02566742374842,-664.3966046056171,194.25090191026,265.1281195099682,-675.4654799692179
802,16.04,186.53108747377223,63.65543246460763,-674.0310378454685,145.6676139938123,261.7310545668713,-662.7149567273983
803,16.06,152.31779768740694,-0.9111382013829914,-636.2472110858444,100.53128606560847,229.38939961720556,-644.7336154982602
804,16.080000000000002,129.43608734648691,-81.27764905523756,-568.0241741187228,75.01805188058381,149.59515132182415,-634.7811276412319
805,16.1,121.67758477646233,-167.9990761298501,-499.0715948815116,81.41934067541703,13.309414825994665,-653.2044544716485
806,16.12,128.7221946107818,-250.60499265319453,-455.1971257837134,117.78841884168165,-175.81064564955642,-704.7009223996539
807,16.14,139.22601034540932,-321.262037354496,-443.931915834817,168.00719965190422,-399.8566213015715,-767.1523451994603
808,16.16,133.3519975717914,-374.56638584430425,-453.5263265229556,210.48726748233966,-627.5773404763834,-804.8781285424686
809,16.18,91.00146899897433,-405.924373435901,-461.49924461338026,225.60107401691383,-820.4296366202304,-791.2994047833183
810,16.2,-3.87645113476659,-411.87679588304906,-444.3173639208955,196.7115519103663,-943.6515894709999,-719.6565110418012
811,16.22,-156.58062432111586,-392.68003863586756,-386.8493626455331,114.80545128497326,-978.5416736847512,-598.8773571096301
812,16.240000000000002,-343.9863845900776,-353.6228437941951,-290.6085114669366,-5.573323487202035,-929.3561650264124,-445.218266500653
813,16.26,-505.6511178838108,-301.4829238231123,-173.56178392135203,-117.78109191108854,-817.5929742570828,-274.9989625042392
814,16.28,-572.3800086878193,-238.53249554610866,-59.574007341363114,-167.7785608185285,-664.1973668850342,-98.28541331873326
815,16.3,-518.5021545271503,-162.18605953554618,32.41578122297362,-140.21184379252642,-474.53501733901385,81.79835323270001
816,16.32,-386.0666990142,-73.92814674883408,92.81098713125141,-78.93225179219478,-243.6768868106612,260.72819439413547
817,16.34,-254.34646770159458,10.926207277356557,124.1102873556264,-55.84014984949428,19.644413964431127,424.0029924629109
818,16.36,-184.22123740925468,65.41167935065754,141.84769744840546,-114.41345331105171,274.34855150880355,549.2546127751591
819,16.38,-185.34284378189452,66.5599925921716,163.79242560597504,-236.11882805318197,455.8390114662359,616.3100089798133
820,16.4,-224.69639059026338,11.345918027178705,190.03653131257533,-354.3343648933941,508.70258395339016,615.0772546856416
821,16.42,-259.5681048087413,-81.03277948725741,196.41829322720537,-402.5588001350636,417.4097848416551,548.9226389831201
822,16.44,-266.0428761266729,-181.19473510710145,154.94167841667266,-359.1121975432486,212.68652416531495,436.96271712195016
823,16.46,-245.56136391420915,-265.1574086295883,63.8947669486465,-254.07743117973087,-47.29126765983436,313.39035944233393
824,16.48,-212.1175639102949,-323.7743593990101,-42.28404417022599,-137.6828255478985,-305.2705687369445,218.4465876806608
825,16.5,-175.68405644010988,-363.99678545063625,-113.34221708881726,-43.40084299546107,-526.1256918462739,182.28012345510848
826,16.52,-135.43824110987242,-402.9319189130509,-116.46674529456385,23.26590433945907,-701.7683077338093,210.66246257180757
827,16.54,-83.98926886167291,-454.0978640249331,-55.18245536212606,71.83707717119839,-839.5624054619324,283.1169983863571
828,16.56,-14.286715722130573,-509.77449568811255,41.69133588966796,112.53846558431039,-943.360511354583,368.7277913717026
829,16.580000000000002,75.85155709353023,-534.4980773279651,148.58586268049055,152.05978384529539,-1001.7968009155054,448.8431744636164
830,16.6,178.04525315162527,-483.9272624949725,256.45704209608454,190.22518332072266,-991.7191538959208,521.2760259847162
831,16.62,267.5837341182354,-340.24545018818026,359.61848494688354,213.95093424956292,-890.4444294870339,579.6326306343816
832,16.64,311.35855735118105,-133.8462806793842,446.2072844297073,206.18466400701783,-687.441984431885,601.2137348078068
833,16.66,294.366267364916,68.8676836849134,511.36667940370506,174.94683817896822,-395.539718177389,568.3219284391803
834,16.68,241.56037147575307,200.9946773064231,561.8433888034448,166.14612328827684,-61.01167251724608,490.25098224444883
835,16.7,206.56589352845415,227.67158441313424,588.3203287900913,228.80517220967084,241.68312787719447,384.7485971457853
836,16.72,230.3183129988791,156.8752108825448,543.6945035985325,364.338999907826,439.57240519765986,242.05031174773274
837,16.740000000000002,304.8309121978318,25.11215355105638,371.70215822693274,518.5544364337038,495.8442234453689,27.282209855970436
838,16.76,375.49591672293803,-128.13211239719203,64.86654496524162,622.9465597548478,421.7452515728031,-274.24250730556577
839,16.78,382.22520153837155,-273.9533307284526,-308.23784684714377,638.9776160579668,264.14400053543454,-620.8983909040186
840,16.8,305.1362918788755,-388.4374344142741,-633.2413706560427,569.5749914738917,85.57007124189559,-927.6911466212661
841,16.82,176.14624391220977,-446.19247185063193,-811.762646750798,443.19425723117797,-55.85045884115466,-1114.2861464619052
842,16.84,50.01654927026446,-428.56839295583427,-810.7675108651125,294.10548536135707,-126.15713017543808,-1146.4373893363681
843,16.86,-34.73716774528423,-337.92528284445257,-672.2935488063973,151.6974278378603,-127.01155431795155,-1045.9742222809673
844,16.88,-71.60966854571379,-201.8660325789162,-483.05484407124777,36.196123409142736,-90.28153562428348,-872.3532959877941
845,16.9,-73.7108052142066,-63.67838504472543,-326.0700089062717,-43.31182706530425,-57.817943073725516,-691.4781157857612
846,16.92,-53.28061779610276,36.183990078605646,-245.23034025998498,-86.60266439742854,-55.59672992739675,-548.3987214461347
847,16.94,-13.540615851886123,79.93718701593478,-238.77806019290156,-95.81506564909634,-75.09123173767429,-455.1910885974215
848,16.96,42.599974620049885,80.90706593814585,-272.9083490729597,-72.01223164343547,-77.42505739349436,-395.13773244564607
849,16.98,98.99351383481387,70.54608625840052,-300.9038622298265,-20.170542176923384,-24.03310830387641,-337.61775259717115
850,17.0,125.2859926532429,72.52199318225428,-283.52199841074224,43.50006844133453,88.34047228021541,-256.6915873948866
851,17.02,93.8956584590302,88.00336747174688,-207.7478543668734,94.60858881904282,219.93376867988178,-144.22353272765048
852,17.04,-0.2523073149956492,105.64029310527798,-95.25587936088704,116.2187320116333,315.1065270160577,-11.188451546323002
853,17.06,-139.2318896731996,121.72815414119171,4.410318629710822,109.04519119625058,340.55038502233117,118.28247815507353
854,17.080000000000002,-303.1441578177808,144.94080830748752,34.19692126984623,79.42341145279104,304.3565157511377,213.74587299243805
855,17.1,-486.581464825501,180.65007898848032,-39.76652001931588,21.762461572956703,243.64628433778375,250.8035124862084
856,17.12,-686.2462225860036,216.09968947067892,-200.10614335728775,-71.48791853705376,192.06347987966797,231.36326755383902
857,17.14,-874.8342247366995,225.8263065274249,-380.83893404875937,-180.30967632436685,153.69347565449505,194.62372351343888
858,17.16,-1001.5365625084069,190.62443378152065,-512.7378470623828,-256.712047164054,106.01433621796636,200.47915501417032
859,17.18,-1028.3962982291139,109.17768114197426,-573.969411892671,-267.07704768878347,29.26093034721983,296.0850692514695
860,17.2,-963.4029199006841,-4.913403541130204,-592.4270469077601,-226.38361639198592,-65.95986532804292,494.8991676710184
861,17.22,-852.8993730273007,-131.61003002252488,-601.458219227009,-182.26047225439257,-139.17024536743997,779.6173153526622
862,17.240000000000002,-744.0798141490435,-251.0880863473069,-605.1838632435447,-174.32494967012218,-146.77618942802127,1117.7231853780572
863,17.26,-657.7780059827164,-348.1769706119003,-586.2420404426678,-217.95288042124582,-69.08691302222704,1479.640641873811
864,17.28,-589.1848125354143,-412.73741125949726,-530.211518449328,-320.3506158370353,86.27787992462194,1854.816646673829
865,17.3,-518.0501958858113,-433.3410403504482,-430.21214579278785,-499.36091267889657,307.4279458195923,2255.033326253787
866,17.32,-411.77197920733,-389.39888868765865,-269.89879555695416,-780.8099505926543,606.6547260094135,2695.199138553685
867,17.34,-235.89673710102403,-255.31332183054764,-10.615297505487604,-1177.8977480504057,1018.45970774641,3154.4176486686183
868,17.36,12.079461265495468,-27.290488502917768,394.85338609148613,-1672.3415912467563,1546.16562053801,3534.6380501686594
869,17.38,275.66906029667234,237.5174139894071,964.0153580323117,-2207.543811300441,2091.874995483404,3652.5051681791642
870,17.400000000000002,475.07971957219524,408.38060080260055,1642.7109807359068,-2692.313890863471,2456.7238291667345,3296.470777741805
871,17.42,603.2437446667288,336.4025404774811,2278.3445148136852,-3020.945466080373,2461.2293527007328,2322.377805446273
872,17.44,772.5118956969898,-30.35373320305004,2627.650650106482,-3101.876670515861,2083.512712299318,719.9919930379447
873,17.46,1088.082741810401,-557.5051896774096,2431.8714551391267,-2839.9359848998665,1404.864585689622,-1344.668118199774
874,17.48,1421.687467244407,-965.3864279791117,1569.9361662324304,-2052.137186329185,349.7019747802992,-3458.6795349121057
875,17.5,1391.8887440066283,-1002.9564633042121,211.34060589434722,-462.6790769680402,-1394.580087834214,-4976.280075200535
876,17.52,707.6075363126998,-616.7630714978876,-1180.1283932856218,2029.0516681314796,-3936.7715075989754,-5347.9210724656805
877,17.54,-464.3216408614145,24.245631723258843,-2063.6466126263654,4931.959104033665,-6605.484485915387,-4635.193269304151
878,17.56,-1563.8128146643865,641.0827539480081,-2128.357958211706,7117.473418582459,-8076.970882738093,-3597.8920143287205
879,17.580000000000002,-2055.0047132193636,992.2585017039514,-1448.7223236536738,7483.597337581619,-7336.958615389056,-3034.1483197527823
880,17.6,-1734.4803434966311,987.4732677178108,-382.6716144298026,5859.393826231972,-4547.7235207183585,-3015.411227208448
881,17.62,-752.535779521522,725.1446160671117,663.9434131726352,3202.6388912219945,-944.7314845669332,-2928.151281882495
882,17.64,501.34926332985486,408.56785310405525,1417.7715549296206,813.3236906454448,2054.8327429103992,-2253.3081984609644
883,17.66,1576.2457584293397,180.95383049508177,1789.5033929850724,-607.9921688584892,3659.587027806806,-1104.0129778201047
884,17.68,2188.8949149652235,28.8731726222183,1836.142807527302,-1148.9081847515242,3876.415259393685,23.50075804574351
885,17.7,2342.3168780927167,-153.2451724330438,1686.0865638577243,-1206.0092589068588,3189.4701048970833,782.73659429039
886,17.72,2210.8361195396806,-420.7541567868992,1455.8153558946915,-1063.0189243906264,2164.7575551028076,1138.851654167677
887,17.740000000000002,1940.265806501092,-704.201936063055,1193.9636533862224,-858.019805480068,1220.2487925619548,1196.6262231224248
888,17.76,1584.321044745587,-848.1070358071931,885.9131118790456,-686.3938231835582,570.4278379140397,1067.5799585270597
889,17.78,1177.459284827614,-708.9429281944658,503.7568843971443,-595.316581570704,267.1218119526565,858.9958655121545
890,17.8,785.0624972273658,-248.4715605075127,52.147792924126655,-541.600255725924,258.8624567094044,658.599687980045
891,17.82,464.35676970188615,419.59626124448494,-416.3725079015327,-443.6531785020469,429.02655051160957,502.89941635203604
892,17.84,220.84938616868482,1059.6783079597863,-814.3588211431033,-277.33717189082176,624.1958941188066,389.33806305823805
893,17.86,34.09720350008099,1420.3237091958872,-1060.3893894186428,-91.12640162064223,698.3235807612796,307.4773715993068
894,17.88,-93.19859287118238,1361.7710672571952,-1135.4673195020966,63.03975993342431,567.3429592263036,235.14306221974215
895,17.900000000000002,-142.06489514540394,924.716310456185,-1103.3682407131482,177.271663568419,243.79425534855483,125.1179886785904
896,17.92,-128.40444627631715,297.54679190499485,-1052.787786016704,257.4547544499091,-170.39235445026395,-57.63502264659346
897,17.94,-118.12312207916187,-288.24334509141516,-1009.9595566783479,277.781092858786,-531.2081110624346,-270.2738964726701
898,17.96,-177.2392464946426,-663.8172069186555,-928.3242118499284,197.93759489106668,-719.4249851162897,-395.40280129366784
899,17.98,-316.5162190869157,-776.7702211998335,-773.3010123241278,19.344342768289415,-694.771238674134,-341.0585721440142
900,18.0,-492.2123940034249,-680.4985105508149,-589.0557586204341,-202.72333945960708,-506.20687941966344,-129.10514396108027
901,18.02,-650.3493742261703,-477.8051132046088,-458.995356628571,-405.54982925970546,-253.37275063820692,130.98410124839418
902,18.04,-760.3219703175113,-257.5608916235038,-420.830202847881,-558.8238230597474,-30.481129990737514,340.0423238807835
903,18.06,-817.0968975282776,-63.802429582040574,-446.02242793928815,-660.2249903876382,109.42339497955379,464.78456574351765
904,18.080000000000002,-832.939903194394,93.75495208377511,-487.6365107802591,-716.1608681863083,158.8518574139806,520.4424390454066
905,18.1,-833.728234553573,213.76997243186713,-519.3805472227166,-736.7766782478775,141.13146341680752,535.5732544362479
906,18.12,-850.9418017401022,290.0842782033244,-532.7638778800793,-735.9500917258572,89.92642951465515,536.8179324265343
907,18.14,-903.1495434205165,315.23083394176723,-524.3361470530069,-723.217730392068,32.069550995944276,544.299247941307
908,18.16,-980.3331351410127,288.2761253283861,-495.2495802381726,-693.9684690932905,-18.21493511750296,568.3422193908416
909,18.18,-1048.9744580732402,217.3707393926145,-449.99962521750604,-630.05930228998,-52.83734139102747,613.750653139054
910,18.2,-1078.5181480529322,115.44435498987863,-388.87926687910857,-517.0008638615286,-61.54478720369066,688.5449138622313
911,18.22,-1066.309177321471,-6.577694076942851,-310.54368471752343,-368.2998408563743,-31.24956653875311,804.1324202759278
912,18.240000000000002,-1033.8711026315254,-139.78546615054515,-226.37449714856638,-229.29594743641047,51.75287696171206,967.0093039523244
913,18.26,-995.4712250619989,-265.7117750238623,-163.30680973152522,-148.81469155115533,206.70055928838326,1175.8491429861976
914,18.28,-931.7914172360931,-345.6949763766253,-141.7849746593409,-151.74096825992467,465.00234157295506,1433.5818971498702
915,18.3,-795.3870765415958,-330.65384277409794,-142.4411640304028,-247.2569124502133,860.3293611760466,1768.0016650996022
916,18.32,-540.658267504411,-191.0990026348673,-86.42183832353015,-455.51632704222357,1396.8928271512063,2229.905159357714
917,18.34,-155.20115577672243,52.48252216473832,146.0088553189735,-811.3679853693386,2015.5393341576423,2829.476865345123
918,18.36,323.47796720589616,314.61578293399987,649.2565580876526,-1333.3304526260254,2594.333216449609,3426.558442924207
919,18.38,820.9825348297622,453.8129208803827,1410.5540344370638,-1983.063949559485,3012.9157178113473,3680.681266199066
920,18.400000000000002,1277.6032033711158,321.9605182755652,2271.6919634722813,-2665.5467710850808,3248.439104342402,3165.532908371776
921,18.42,1692.8599519672475,-140.7627450691356,2960.928732355216,-3309.752993003403,3361.9886506593266,1622.1462643027392
922,18.44,2073.938431580223,-817.4356968020656,3177.51083601806,-3955.71491836691,3252.040600450509,-788.6160373195894
923,18.46,2310.4933372453247,-1421.490686640936,2719.4867391976386,-4636.775451567478,2402.0588609552005,-3386.205203467258
924,18.48,2172.3174059533458,-1627.8227910535222,1632.4086549423673,-5019.7299055832755,179.22511291176625,-5167.889290133995
925,18.5,1526.262163111765,-1251.6001126645394,255.14867049581508,-4273.972206150798,-3258.791972904468,-5357.918335768986
926,18.52,530.777119497011,-367.757860082208,-965.9733807930072,-1708.9122529185383,-6489.6317824271555,-4006.4833299020643
927,18.54,-464.3000845528313,694.5388028715795,-1772.234523712208,2221.119362089197,-7779.384808042256,-2040.2603690607457
928,18.56,-1186.0289237364761,1503.965479472454,-2181.887957821117,5804.334401388954,-6697.248551104215,-570.1295473630611
929,18.580000000000002,-1547.524678262602,1772.7135965286857,-2303.216356242732,7318.680381854185,-4499.807779717174,-93.12061406236921
930,18.6,-1555.705055601781,1533.7459636992494,-2164.1285882450074,6413.370733596628,-2793.752518003879,-362.5178065799024
931,18.62,-1232.8683717180536,1087.1139356015094,-1763.580697039648,4191.253421464283,-2062.3502254818095,-884.2659825395315
932,18.64,-648.4245153728887,741.9791400513213,-1185.3632623075741,2125.513746132151,-1591.380905497279,-1341.8321474644504
933,18.66,45.21002943818853,587.667149231511,-572.7800457769395,1063.6737434261347,-539.2364649749691,-1583.131578252614
934,18.68,661.4223240203693,498.88025601645484,-30.83886683955427,1026.9674635202985,1166.859867765144,-1485.021844324231
935,18.7,1067.4839746830007,323.29303071008843,393.0478669096515,1525.9512878760102,2853.6945700205833,-1028.0312114741182
936,18.72,1228.8892778297202,25.116149489512566,670.3562344249793,1955.6052780761265,3750.084616236469,-417.43011101242524
937,18.740000000000002,1191.7709192093807,-329.6977090357368,785.9779656428964,1938.0514975460192,3566.62888739609,34.04846548178995
938,18.76,1034.5973771789895,-655.9092112026669,749.7342682535866,1519.5647208293653,2587.8126807162353,162.95062399863053
939,18.78,821.2005506971866,-884.1291547597947,577.458797930024,1071.8208091472686,1354.6291718401471,47.768711672626246
940,18.8,582.0684656870941,-952.22050949462,282.94102277105225,953.1369285157214,309.9583026653304,-118.51903460049799
941,18.82,339.4069901569102,-811.6208588449076,-78.27319884314343,1221.4785600948737,-326.1605348013761,-187.08817428234337
942,18.84,143.86114014448708,-460.1233018387823,-379.6112250619458,1617.2635219876556,-497.34779629299146,-115.1588671694443
943,18.86,60.57683026754029,31.18401284438956,-484.09118855567226,1777.901599885729,-256.15550367759045,50.99523145771326
944,18.88,102.23946744726405,524.5853050444242,-348.7258189794868,1502.7626487506727,223.1922185256048,228.69823961271834
945,18.900000000000002,188.7632581881413,861.3700406344585,-65.55019500332124,893.8005419965216,651.8154033978476,355.83135453895545
946,18.92,192.88933922350924,928.9891159379773,196.39078735676824,274.0323383270856,728.418450209841,410.6873814916737
947,18.94,32.73247420916941,712.125163458727,298.22162142679264,-65.16158512080824,301.2240734481162,389.44928960727907
948,18.96,-270.7462696051437,294.16922162508905,214.24335787304926,-79.0069102408708,-520.3672125501658,289.3074093591614
949,18.98,-607.5641895294484,-189.2790452596575,35.837954932295155,43.86621778974177,-1401.177007061332,122.54302895459905
950,19.0,-843.0258447254415,-610.5051572641913,-105.2231125805154,86.32810648496763,-1964.9505364173408,-69.46096967117035
951,19.02,-891.2256874956754,-889.3587998632377,-128.45583723999846,-21.57894531103972,-2008.6005939214383,-229.19279263034736
952,19.04,-759.4890050817228,-1002.9853402077438,-39.615800763900054,-206.27132597761818,-1591.616339351675,-310.7399927170359
953,19.06,-540.3432238226831,-975.0746212932204,97.72428898301135,-374.9819453168577,-952.9957195600853,-300.3898432339738
954,19.080000000000002,-356.73633968113955,-855.0165236864837,210.9482618022139,-510.33279927348747,-347.596687185993,-217.81640079069626
955,19.1,-297.22339900642345,-692.7899461771086,252.47546867015961,-663.6651031799445,73.09996814698133,-94.97424380552792
956,19.12,-381.50061111727973,-517.5821039228833,209.2659670782355,-885.6450085477455,285.35054066083416,50.43816192961991
957,19.14,-566.4182335445248,-330.3150870765109,93.89367611559499,-1166.442803381466,351.9627293100955,220.07082767597922
958,19.16,-776.1668980681977,-114.25210500800551,-66.13704782301868,-1430.9372152280162,364.0587043508709,418.12337129487014
959,19.18,-942.1850253988734,141.40386592879122,-230.78996603154857,-1591.5535712025667,392.7048627387726,638.4571752796937
960,19.2,-1038.943992060971,418.2513898211296,-353.7581395243562,-1615.8822563187455,460.6757465901619,866.4186911537894
961,19.22,-1088.8940896509382,664.4687845083131,-404.9248533628674,-1546.5894749451054,542.8904783093429,1083.2043236240122
962,19.240000000000002,-1126.9597746332965,818.7011572904279,-392.90474511570847,-1456.311504672019,596.632259882499,1268.1864053050476
963,19.26,-1162.1187179073117,844.547023426386,-361.49914961891227,-1391.5667423407795,601.2920242769242,1406.066723216338
964,19.28,-1176.4333736775172,745.3953530626717,-360.4707834682734,-1362.403731509226,575.6292153826006,1497.4441891464467
