Frame,Time,RightHand_Accel_X,RightHand_Accel_Y,RightHand_Accel_Z,LeftHand_Accel_X,LeftHand_Accel_Y,LeftHand_Accel_Z
0,0.0,-129579.77348667197,102628.73938035395,50400.85460447731,141874.580339975,104336.3690452824,-31503.19203461837
1,0.02,-112205.13907893538,88867.2952438173,43642.16971569408,122849.89034435124,90346.31299969729,-27278.46150183775
2,0.04,-83447.36013716203,66090.05936921595,32455.23529588835,91360.71345491151,67190.57977976467,-20285.921214570702
3,0.06,-52592.14282124009,41651.7746062235,20451.979149881783,57574.338759931656,42346.01066823495,-12783.571556214361
4,0.08,-27675.409585926074,21917.177532653008,10758.52427772717,30290.10984570116,22283.165290442845,-6725.603277799098
5,0.1,-11995.109647522957,9498.393692603404,4658.286908625521,13120.126290836035,9657.763119813253,-2914.1882193788897
6,0.12,-4232.712627974656,3351.2490221031408,1638.8866672761174,4621.615764525438,3408.3188595906668,-1028.8821928665618
7,0.14,-1203.4531925221368,953.3119230649976,461.60753727484837,1307.3440272893924,970.2099328919851,-295.1327249849339
8,0.16,-271.78349219376815,216.6927715734777,100.93049722935,290.1736525066014,220.5134837276677,-71.49283391406082
9,0.18,-46.509170941950785,38.702061540409986,15.215599249368783,45.11734027537417,38.26586993570393,-18.891487827557075
10,0.2,-5.251799358914944,5.004862724388238,0.9946810972005043,-0.5260871987969153,2.819936005595287,-9.805179739316404
11,0.22,-2.215075716983656,0.36073658178125056,1.6528168781021382,-5.512154791050926,-2.2015935146059604,-8.818498734080197
12,0.24,-4.220249346496269,-0.4374685909403279,4.5369541660667885,-4.207524271358392,-1.9247532671907743,-8.287188448232708
13,0.26,-3.887213949931139,-1.9951876639359218,6.747078679953287,-2.955962898953453,-1.180350968209145,-7.035347071464978
14,0.28,-0.9272066145088329,-3.9309996741383415,7.626954599197811,-1.8215695334428847,-0.4564818729497274,-5.72818967393202
15,0.3,3.279610051428354,-5.477081480272833,6.9531935100920155,-0.8778078595256399,-0.22443487099804343,-5.268849531944352
16,0.32,6.641639529576393,-5.8707146864306985,5.136726366582348,-0.25242871114007787,-0.6894570548841545,-6.0761662976319695
17,0.34,7.8002380671957745,-4.796987996395889,2.9377153720530247,0.06885322677703282,-1.7193154046412966,-7.588543494983481
18,0.36,6.9027932045318945,-2.584091662230219,0.9468936314167682,0.396789982963828,-2.961453001195858,-8.525890513383636
19,0.38,5.043882461233686,-0.010592926439405237,-0.6188049964772764,1.0928621364698439,-3.986713564751992,-7.680030375218601
20,0.4,3.0389201319691486,2.1346659510172366,-1.7242869586705452,2.129855048967856,-4.383686614340025,-4.640204415321085
21,0.42,0.9977889507987812,3.415262579100922,-2.376461798416702,3.025354133492278,-3.8616500257504267,-0.0014792220201539363
22,0.44,-0.8965689653008184,3.7971583733838363,-2.7643450598269736,3.280671233903562,-2.3898532580428737,4.972389182297981
23,0.46,-1.7496186510913971,3.4553979942494433,-3.3237363259659762,2.8071906421051143,-0.29223371193259784,8.856057181660201
24,0.48,-0.6175743853291229,2.606478003368059,-4.389730657466473,1.8657722210828531,1.836440800785799,10.497966707943416
25,0.5,2.3317615334097685,1.4920719845441148,-5.766971216935049,0.704366765276741,3.415738644125608,9.519218877367853
26,0.52,5.751062984259422,0.3888222884451088,-6.824764436552117,-0.6151533716866265,4.144468861053347,6.710485347879384
27,0.54,8.257043471507618,-0.4579635688195136,-7.05921521730486,-2.111524730671364,4.0110884965214915,3.690291259170255
28,0.56,9.42267071793724,-0.907682579815777,-6.417411715074625,-3.7461844692677984,3.155483211941487,1.8301837074132878
29,0.58,9.656489174344205,-0.9495565026482122,-5.048860857797878,-5.345059821608884,1.8346191645065135,1.481529285622649
30,0.6,9.370574650736193,-0.7000208922891269,-2.9621683167590995,-6.5717731386423885,0.4551211929248048,2.217989110986729
31,0.62,8.43545285791237,-0.35354845290028974,-0.117944871629728,-7.089429254938899,-0.5163891119280929,3.562581147794881
32,0.64,6.446692431703558,-0.090884742156973,3.172469308508007,-6.893594373714647,-0.7223806297001883,5.288629341843121
33,0.66,3.463818037765651,-0.03560466270685181,6.056833068886146,-6.3999155088300705,-0.02914250942321195,7.103073859571622
34,0.68,0.37519334370134394,-0.2676994615990764,7.468663144507349,-6.057270105763156,1.3710895995406378,8.222656628367053
35,0.7000000000000001,-1.6172843607296752,-0.786826448931947,6.855059651414624,-5.938466227605464,2.894263438575832,7.488541633833943
36,0.72,-1.9495607246248214,-1.4403526183900914,4.770313651588113,-5.813212026557843,3.780967042799271,4.247913452063455
37,0.74,-1.111657321279037,-1.9690793288070831,2.6899508939481604,-5.507422524959867,3.5918767887931056,-0.66950515062683
38,0.76,-0.13366523179239198,-2.178514480569579,1.9978975964027823,-5.024661484305146,2.5058311417022567,-5.064036112389007
39,0.78,0.2732103080522895,-2.0540935685470667,2.9662634445357052,-4.362712156490744,1.108565718521623,-6.829914581057442
40,0.8,0.09161517619244386,-1.7228976727931427,4.649582213751572,-3.3793926524436917,-0.04184468328157276,-5.5181820446286505
41,0.8200000000000001,-0.28511067482927754,-1.3587280555216463,5.749505087919314,-1.899264155646088,-0.6790437873317132,-2.561374157730376
42,0.84,-0.46392296719185194,-1.1333632650209606,5.612212232212296,0.08615642127696935,-0.87718906244334,-0.058608696086253964
43,0.86,-0.1476376041597288,-1.1900031982247672,4.512826387653474,2.3405361308312695,-0.9639554252027406,0.7176162165798284
44,0.88,0.8989663453797656,-1.5892172142423089,3.175336299218051,4.508562632873096,-1.29835745718603,-0.10297624405719907
45,0.9,2.653729901045849,-2.265994394913724,2.198411977823637,6.34890504771087,-2.0119587592161516,-1.5485607514019333
46,0.92,4.572845370815305,-3.0629113879614076,1.9272766801502343,7.86218437390732,-2.9197303393576863,-2.723403171396124
47,0.9400000000000001,5.796341203716385,-3.821798973104845,2.570511252191998,9.195538215813501,-3.6639125464224587,-3.22715891330114
48,0.96,5.918431630718714,-4.453428772589559,4.103724264159085,10.455770277877592,-3.9507883409484936,-2.9941051549282265
49,0.98,5.569547594549185,-4.940756257977263,6.069094800703489,11.648298681920124,-3.706980816120071,-2.0629725186386443
50,1.0,5.949785164121196,-5.289914454493147,7.7157659994688395,12.727891010740308,-3.0789022516383913,-0.6161320668855892
51,1.02,7.566495152349719,-5.458279224608009,8.42281701031433,13.581599928450505,-2.325528790677988,0.8505843002925768
52,1.04,9.55682084725393,-5.304611570784629,7.919892989711189,13.991668330870823,-1.727907123320192,1.5927882454832587
53,1.06,10.471822683832944,-4.625514532258006,6.177316807384713,13.789327625727195,-1.5540813651821217,1.0959667215416489
54,1.08,9.636948545736018,-3.2869093086167376,3.3126660719386667,13.073803761649454,-1.960753795952311,-0.34136390120913135
55,1.1,7.469444683244905,-1.3385884506524426,-0.28990301350865844,12.135907937808515,-2.7796990931076113,-1.5490577624993869
56,1.12,4.5517072365168865,1.005789612876111,-3.900613208453231,11.1338923263218,-3.425268293469455,-1.2060620399823476
57,1.1400000000000001,0.9391829918940657,3.45996697862921,-6.706405627219818,9.95466522429091,-3.1980756976990365,1.1928313667754062
58,1.16,-3.3216636477569086,5.690278429420111,-8.320832835663818,8.39999448543239,-1.8282253330170997,4.897093420610728
59,1.18,-7.423337072528497,7.325807193957836,-9.08168796122282,6.3904908165071115,0.27871047374101,8.265056845919169
60,1.2,-10.150455662013771,8.083671087158194,-9.752695296593835,3.9845251939897754,2.369708184724538,9.694969900095844
61,1.22,-11.045285380471958,7.935829685194275,-10.819426477076687,1.3513454157932347,3.8911955042618276,8.606818286514962
62,1.24,-10.864319279741466,7.133410611184344,-12.0646222806668,-1.2262128496988414,4.718710309163684,5.807017144824505
63,1.26,-10.791491312793054,6.052406520688811,-12.82978443483945,-3.476570061581839,4.989570941090118,2.8777930921349313
64,1.28,-11.436419860779111,4.978743104866279,-12.598554975569538,-5.374780385344737,4.867790503075588,1.061802291926006
65,1.3,-12.641766734941845,3.9987334521174973,-11.28241442331821,-7.180647500902348,4.467513168062874,0.57288526295032
66,1.32,-14.033409610879538,3.1015198801967583,-9.084570918569273,-9.164759950041274,3.8861025084206693,0.7645465043544528
67,1.34,-15.572420968191182,2.3573291920282813,-6.247050040654495,-11.321260464437335,3.2489961495757673,0.8490381085333649
68,1.36,-17.472068622328052,1.883320600879507,-2.9455616793046415,-13.356360696295045,2.732481037295983,0.5992833020009214
69,1.3800000000000001,-19.570450943525316,1.6217759034878276,0.544958301021562,-14.885714444472775,2.5247781817436117,0.4573435474623442
70,1.4000000000000001,-21.04027031494987,1.296838151036083,3.5565444880481505,-15.633347619346784,2.706822030873468,0.8019524387623415
71,1.42,-21.020629443896002,0.6736291030144309,5.133996631629103,-15.574628389245092,3.1427344216075346,1.0721162898337346
72,1.44,-19.509554000760982,-0.18509998793614105,4.778748772205983,-15.022189098813389,3.5079845889428367,-0.07848460505033916
73,1.46,-17.45724128081388,-0.9308498996630574,3.123959971659445,-14.543123883487006,3.465129901987459,-3.502927671658263
74,1.48,-16.00348798709761,-1.1543996203050968,1.636101648483862,-14.62278408382986,2.8713127250858177,-8.4873211718144
75,1.5,-15.694168177969868,-0.6426253832188569,1.5087610699607659,-15.271223762635604,1.8888088843650503,-13.071503876731423
76,1.52,-16.300333391972792,0.4597230417119379,2.874346951729403,-15.97232014146561,0.917623323953348,-15.496268726462388
77,1.54,-17.152071226909648,1.6905816090823191,5.021080344802153,-16.100938171484827,0.3603137298684062,-15.453154678231993
78,1.56,-17.547077418481745,2.5567338192113565,7.098640839924076,-15.385273656171142,0.3926587316519674,-14.098133945056833
79,1.58,-16.97401807239177,2.8833553529982763,8.446022632607754,-13.916336836097752,0.9676320698872869,-12.962368194949338
80,1.6,-15.195643434826934,2.9235198512485505,8.483144359738919,-11.816270049076493,2.0312435139871945,-12.78064159118826
81,1.62,-12.33653335056735,3.1601187666223334,6.721793565378546,-9.137599516157199,3.6555617216843412,-13.130824063394183
82,1.6400000000000001,-8.989236179861036,4.01964184764958,3.0377108566235895,-6.1497750040488945,5.9311693374221655,-13.001030989107754
83,1.6600000000000001,-6.144963062425522,5.684918001900957,-2.2133828962998474,-3.523768946318239,8.819439522684586,-11.712402654803263
84,1.68,-4.821306084571362,8.024383332794997,-8.390963968598761,-2.1083024226649805,12.180041173876692,-9.435184652897014
85,1.7,-5.649511413608034,10.60988437492611,-14.693037182742962,-2.6130893347675275,15.866883231635267,-6.942416021733372
86,1.72,-8.832135269769765,12.792708910978707,-20.035292052055752,-5.491195592486065,19.647636409630234,-5.001518839187034
87,1.74,-14.41901759100086,13.812608509573156,-23.109472172465125,-10.890274592354178,22.93968662885449,-4.204456554500098
88,1.76,-22.37022281664119,12.971332316698119,-22.867188769034975,-18.53740682628196,24.65859098479048,-5.419796069738711
89,1.78,-32.13438068227559,9.860604327099598,-18.986177881037015,-27.586020907441796,23.495880589178398,-9.927054941326045
90,1.8,-42.16367853397341,4.494011204703166,-11.96177073921009,-36.42644227159487,18.607543016872626,-18.33760595696521
91,1.82,-50.0102641045576,-2.7412055264531836,-3.0944109202252266,-42.618308189209024,10.292789643774327,-29.112229749618372
92,1.84,-53.17824669302613,-11.140237597931048,5.531346656524533,-43.34352928645876,0.17056567906726972,-38.61674621328881
93,1.86,-50.2749507641894,-19.58430777657034,11.649986741559323,-36.45343145293013,-9.34731284572684,-43.12977619736697
94,1.8800000000000001,-41.804077714574944,-26.513256364638075,14.17696107227016,-21.51739089072929,-16.086616631222164,-40.820725204748044
95,1.9000000000000001,-30.186450220851167,-30.364921394340655,14.2214166889155,-0.12076675494345546,-19.10088606846864,-31.92607089774783
96,1.92,-18.88230326371027,-30.395463701285927,14.480456123969574,24.779099907523502,-18.96639652806951,-17.746239306886235
97,1.94,-10.87331113944913,-27.14702644966186,17.292890692991143,49.935668359449494,-17.0998874583147,-0.02219441506049824
98,1.96,-7.33652336050005,-21.986444838717805,22.916267899325177,72.72247303618616,-14.57967515374507,19.06134904325697
99,1.98,-7.3897817490721724,-16.116962978206796,29.2339092049428,91.64313626502442,-11.473819346650465,36.94747265027702
100,2.0,-8.9371040192723,-10.055930801266786,33.04237418961059,106.40293485397916,-7.294560092845096,51.13747849069674
101,2.02,-9.909614501865128,-3.9717601354582435,32.20305394273072,117.5040755385235,-2.0863146980660807,59.845058867431106
102,2.04,-9.295570423215807,1.7264959967779892,27.213041592710418,125.6009420759637,3.0202561534389756,62.72081764585225
103,2.06,-7.5867700479403455,6.3024719141834655,20.880985592056415,131.06764883369812,6.377620585142836,61.252369620677875
104,2.08,-6.313554901824149,9.153928927203573,16.351011565969802,133.95345223954544,6.949036644222348,58.28466910226042
105,2.1,-6.86412181255379,10.270067630377602,15.171755246771564,134.16498578795975,4.979612934264841,56.59130998523081
106,2.12,-9.559732427240592,10.201253170462754,16.78274024035113,131.6966338777501,1.7387175512862572,57.19869995856635
107,2.14,-13.825189418181902,9.561077434458518,19.392476099826396,126.75159660117902,-1.352439700763437,58.53723051835746
108,2.16,-19.276080603393204,8.536986671028782,21.369827066557423,119.55646717490771,-3.540174848914983,57.12708546834419
109,2.18,-26.77162988713169,6.883527881151812,22.33194027099954,109.87580419519921,-5.023160694737869,49.513194909324774
110,2.2,-38.34811363216465,4.351961079924747,23.586258061212966,96.68701788504632,-6.714999954147295,34.24679171065694
111,2.22,-55.37073868181952,1.1037483041233838,27.828358506834274,78.7414575454315,-9.789181699480434,12.683298672174757
112,2.24,-75.71503814200565,-2.0671582306435017,37.754105270477154,56.27016072682582,-15.073710001578966,-11.784197490747342
113,2.2600000000000002,-92.65531892045348,-3.5574055459679803,53.50704091299548,32.833939834227465,-22.19472759771446,-35.44115774751793
114,2.2800000000000002,-97.6324737195689,-1.1552797079886163,70.60587245035735,15.272067504891794,-28.963849647510216,-55.77830751449962
115,2.3000000000000003,-85.55057793525444,6.660198674491877,81.24275502803951,10.359027078637181,-32.06705593762176,-71.91138814790264
116,2.32,-58.673629252550256,18.709544876513977,79.43524086353762,19.448555876235446,-29.244180474452705,-83.86445142109677
117,2.34,-26.384541175036215,30.3304756869903,66.02078011450834,35.11572338871316,-21.332212832142552,-91.42391739715401
118,2.36,-0.7958154454039423,35.29311357415133,48.65626143010137,43.61897271697609,-12.036643028938217,-93.16727093307466
119,2.38,9.613752265835302,29.46748519163254,36.372958394946934,32.87089168280781,-5.126823842423017,-86.23350418237263
120,2.4,4.318588984327983,13.588004679198377,33.10215307986626,0.39768852845826785,-1.174353696806158,-67.88900879570647
121,2.42,-10.437790694830817,-6.901397941734727,35.526927640247635,-45.25670214601753,3.4389480166314,-38.88051932014251
122,2.44,-26.994182299488706,-24.81130116595788,36.97071446196556,-90.75056580437257,14.167711794845935,-5.729752106663374
123,2.46,-40.28838754641011,-35.118289119951996,33.357307258634805,-126.05632416972988,34.090393064384074,21.157327053256754
124,2.48,-47.556259017102064,-37.5486856327641,25.13689252627129,-148.35396472216763,60.990950326144834,32.701118009503176
125,2.5,-46.594044176711165,-36.17912047872019,13.909802461636062,-161.0729787566233,88.1007936374047,25.686998462505294
126,2.52,-36.23730263454959,-35.92348357159058,-1.269322368432289,-170.8296782008759,107.88945779509226,4.031361546398075
127,2.54,-18.14896147039267,-38.27830074857252,-23.675811269068696,-183.71648673528276,116.01897889655004,-23.329691610922143
128,2.56,3.390126746074644,-40.07486745355316,-56.32766156881958,-201.64940536176078,113.16655860044054,-47.0440216268162
129,2.58,24.098022384055675,-36.31905324425825,-100.30145040018473,-221.13175689402263,104.41113608785896,-61.63016334013227
130,2.6,41.45452512516344,-23.620648953703075,-153.8771931122045,-236.26448867285615,96.96220776900712,-65.04244265829962
131,2.62,52.91725490108861,-0.5079019512924514,-211.13101330102933,-243.65709327352175,97.11463048611776,-53.71415306338729
132,2.64,52.64922123562945,34.215151413580344,-261.4932186752386,-244.4569307000205,107.45974569868156,-20.652692672707843
133,2.66,32.25123005666605,81.19432995983405,-293.0987709898094,-241.89349541018265,125.85773991272362,38.30747839104898
134,2.68,-12.705047184507823,137.97174704907087,-299.1169419824432,-237.6615745465061,147.43105120358263,116.77028457462433
135,2.7,-76.536440027031,197.97031888568767,-282.37581128595014,-230.98762311367477,168.63145582416433,198.6675707358384
136,2.72,-145.26265392950128,253.40037527301553,-254.47197455307833,-220.43570604260506,190.0275018487344,267.03495360399484
137,2.74,-205.34755668718546,299.5809020072777,-229.4406412529193,-205.91488116492178,215.57045972669204,311.42576010552455
138,2.7600000000000002,-250.9720606756515,336.1840002695714,-215.36235810030126,-189.4735008733387,249.78288609404453,328.91968615043317
139,2.7800000000000002,-284.53327788498785,364.18378505887404,-208.9861782024253,-175.33470303143002,295.24084198526486,320.9013723513547
140,2.8000000000000003,-312.7506217906018,382.5961924268719,-197.53229587446913,-169.58068653366547,350.6174729070497,289.85531405360905
141,2.82,-342.90967241350654,390.22982722875076,-167.56727519617917,-178.62257100563954,409.8083157194042,239.64157810489235
142,2.84,-380.13344424750437,391.5273644865931,-115.33608779788028,-205.33937135705952,464.8118547129264,179.4352395614306
143,2.86,-423.9487685715301,398.9276160286251,-50.37088855764466,-244.11289932541774,512.351558288394,126.02683432877146
144,2.88,-464.621560893621,426.9169735462758,11.350346049729625,-278.9708324308704,557.9894150292267,98.78117722912388
145,2.9,-483.78406429156604,482.3737803146907,58.71457233545857,-288.4748267139021,611.8032892800086,109.11892452830989
146,2.92,-463.23907955243686,559.5605011882492,90.72241998907978,-256.40065283851635,678.2921207790914,152.86702745923355
147,2.94,-398.1664574451021,642.9783155860968,112.17037938950864,-182.00887450370283,749.3528200814719,211.53957362234382
148,2.96,-303.7023257984591,715.2668907837542,126.2983954586104,-81.56698589706893,805.9660887396043,261.3151612385249
149,2.98,-207.27047819352686,765.2318496473644,132.2308387560004,22.180034564435687,826.6319950974178,283.7354949694656
150,3.0,-131.605937654177,791.5626631067444,128.22016384429574,114.85452484077034,796.201650948736,272.5143965965717
151,3.02,-81.46363351623732,800.3558347494018,115.90257534599644,196.33449296631977,709.9161897386546,234.39334624283464
152,3.04,-42.53102408642949,798.674476654257,101.10723386720977,273.12966371079665,572.5196308685962,185.1438940710956
153,3.06,8.963541793323422,788.6007389463231,90.6521611969852,346.55144784886454,396.4850672819491,142.20272089578646
154,3.08,92.99684479989794,764.8380238801617,87.49326259469794,408.87102129262666,201.65574988725155,115.3741286516458
155,3.1,215.36432500222747,716.438385551417,87.71362793248443,449.8462192880924,13.1792027500687,100.06836063306017
156,3.12,363.7041468203344,631.6869709788322,82.53518023409569,465.63412040984775,-146.04098505513548,79.57501842971809
157,3.14,510.7337442475336,504.13113770545624,65.13508831623554,460.7937479501761,-265.2281481614345,36.62148582402377
158,3.16,623.7235339061805,337.18926453701323,37.325048181128636,441.8377388310049,-348.83133695116555,-35.05317665948651
159,3.18,677.7551975032613,145.05324726369332,11.427301385522078,410.52846477821583,-408.6933363600292,-127.61786487538816
160,3.2,667.8461599809343,-51.47157555001735,7.003825055441073,365.9045276929669,-453.2629023087699,-223.2617585563955
161,3.22,612.169762608481,-232.92106561955913,42.52448233028554,312.04811435541444,-484.93485522307105,-301.2414323608632
162,3.24,540.5477021753894,-387.5806646311575,121.76761558787578,258.54178004957464,-505.1340883369012,-348.6365359382165
163,3.2600000000000002,473.9115054704257,-510.88186126432777,223.20151806425181,209.87697674754895,-516.8922110362901,-372.0428482431539
164,3.2800000000000002,412.4861470172022,-599.2988751173929,307.6330469048504,158.26663474957041,-520.8303232900377,-396.9886944356232
165,3.3000000000000003,344.45849045430805,-646.6608951149393,345.68208903515244,92.38354565040382,-512.2142203280812,-448.41355500613594
166,3.3200000000000003,264.61873934352116,-647.6941019146192,342.035128604206,11.971360885010657,-485.3041994142088,-528.7957341461233
167,3.34,181.93430525491516,-604.8520740210404,331.2304764334275,-71.31246653689837,-439.73056293254655,-616.8568086538226
168,3.36,110.50599480387642,-530.9823436639462,347.8333695492432,-147.66702093568887,-380.95486491306167,-686.8463804796547
169,3.38,57.76985311415342,-444.9584593155143,400.13603600256107,-218.59806121853467,-316.27002677599404,-726.6932260235253
170,3.4,22.804623460818412,-363.81288676740115,470.44008778678176,-289.8970743916217,-253.02883218845568,-738.7823252426674
171,3.42,2.941703036283291,-297.15554903682283,535.8543614187245,-357.96892750489894,-199.5505117634547,-728.5202447275119
172,3.44,-0.881983226457475,-246.94346787990898,586.1160216064116,-406.75740475379826,-163.7340861111806,-696.9988495172745
173,3.46,14.377981363863606,-211.27674594047437,624.999621094462,-418.8061027195739,-148.4834489599205,-645.4152933824678
174,3.48,47.76497282791608,-188.58318702844957,661.2520607569293,-388.6603445482767,-148.7518676234643,-583.7173572222049
175,3.5,91.1501196460135,-179.2272757695984,701.1902142524207,-326.00975794798717,-153.95956385773866,-532.3918986837775
176,3.52,134.32645278850612,-183.9617876432966,748.2338917275313,-246.89471080479092,-154.25154087112975,-515.3398849058335
177,3.54,173.77325127171702,-201.16601450506226,807.5055462157663,-162.00464068785044,-145.7241662791632,-549.5382349376157
178,3.56,215.1253720663807,-225.79210750524499,890.9548949435934,-72.43810501181747,-130.7897651064602,-637.6736363266117
179,3.58,268.32256840329484,-251.47570527673037,1017.5047644455358,25.589338851683607,-113.72139882689194,-769.0470583432887
180,3.6,345.3405697917104,-274.5963056621796,1203.8944069107852,135.2031675532778,-95.06217479078336,-931.6114274621544
181,3.62,465.02624162464457,-298.00685601369474,1447.7278021478965,259.4972022737571,-70.20589768211308,-1127.6545774381643
182,3.64,653.6122457760137,-334.1868077661244,1709.9538009975781,404.59553696560755,-35.990383654664825,-1372.6831084472324
183,3.66,925.1645391404559,-407.79501199822073,1902.0551405798542,574.9719516695312,-4.168999524045734,-1659.0492539011548
184,3.68,1240.1236233174113,-551.2996565791932,1878.6977334193102,756.828577249888,-12.885070053333692,-1891.8366691787428
185,3.7,1463.6290270065026,-781.8320715184134,1448.2618052730104,899.4895165799146,-120.49494308568167,-1846.493396104287
186,3.72,1373.9145766212098,-1061.4108049272645,448.7864911944775,918.0775868998951,-370.7100082560831,-1236.1776231303397
187,3.74,781.2571046155205,-1277.8131975282354,-1074.3837868769474,736.2428817090704,-740.4882536866915,57.995858327668486
188,3.7600000000000002,-262.8402057414849,-1293.8561506020942,-2706.343895149356,350.6826736927486,-1111.9847569739418,1727.2816200463305
189,3.7800000000000002,-1360.578572737408,-1055.0293958178113,-3784.274458333146,-144.06037248588862,-1317.7723561085418,3068.8948315555317
190,3.8000000000000003,-1988.5926338269533,-662.835392555442,-3865.9000793006003,-612.1506667899259,-1256.842606428062,3460.143214663447
191,3.8200000000000003,-1931.3845328232157,-321.65559994114005,-3124.6191554690904,-961.6050251219675,-983.7835204215937,2894.5418097237643
192,3.84,-1462.5746179846492,-180.68208809658952,-2195.2637990638955,-1156.516489962262,-659.5442161954022,1996.883612585452
193,3.86,-1038.2748847967553,-211.23664296533047,-1614.5718753371536,-1156.0824595325353,-402.16448676680295,1462.593890807094
194,3.88,-873.4190610231282,-248.75704149310872,-1470.2090619381715,-905.4611272156933,-211.77047347963264,1503.5004167903567
195,3.9,-873.2221216462633,-166.88272574808354,-1538.3802746078559,-430.8918732455903,-41.66129111996061,1816.168060316834
196,3.92,-868.9496715498083,1.174506984627655,-1601.621547036416,98.23358347183893,109.90501183635786,1976.720704942375
197,3.94,-788.4680846883217,120.72416709147689,-1579.7579384596493,465.6711169194403,204.96444395572746,1794.8751555627673
198,3.96,-631.3990114739961,108.38988040749378,-1463.9532766294578,568.6261484004751,226.81444971166783,1354.024512044841
199,3.98,-400.58030225529194,5.522175202034475,-1241.7803621973535,463.7633093503593,203.82208885824133,842.5699577749027
200,4.0,-104.16694153591493,-79.44472226160252,-899.4316144910218,279.4000176729406,181.57615302880203,404.85989365554053
201,4.0200000000000005,212.36382737426123,-69.67728049536666,-453.89964158370105,114.71791239407696,186.7346935785731,101.66195754830565
202,4.04,474.53188515740464,35.44868632969546,38.42176028765477,7.726860854412802,215.33426499317272,-70.34454288773495
203,4.0600000000000005,623.6342958081241,183.5306887476701,500.7603833237484,-45.38844710056333,247.31648458900324,-155.7654246914824
204,4.08,646.5131345965012,317.12959983169037,864.3630033166096,-64.7082994314211,268.3254977486131,-217.37135214061112
205,4.1,567.0434873546051,403.8018786810766,1090.757223492028,-71.79872438426749,278.7493264131689,-305.0050629790494
206,4.12,423.095338779965,436.6045949063917,1178.983523014158,-80.8499830561713,286.78499070901273,-430.8253107348493
207,4.14,253.7662549091368,420.9976262385357,1157.9897400530187,-93.45027859318415,296.801157700625,-569.1965457534192
208,4.16,94.09436386678743,366.32367965447065,1070.4801300019687,-102.26340318213485,303.63958652616,-679.7826817940374
209,4.18,-31.07475504316846,284.3551630707096,954.6380603034213,-102.36952733675881,295.6441519512089,-735.2277165903175
210,4.2,-109.99269192873868,188.0785204457698,831.743620805584,-97.63747641114814,262.8868005277762,-734.1017577637788
211,4.22,-140.96350093008982,88.62408714229664,707.1543710298668,-94.73315617781131,203.657619451571,-692.9960620815241
212,4.24,-130.43787146133775,-7.59699625376019,581.273505161367,-94.26641273135354,123.91340613428632,-629.2397702821324
213,4.26,-94.53152067204307,-101.32109183061232,457.7399977934599,-91.45892392138194,31.216757610187614,-551.3630039382532
214,4.28,-55.86463338335694,-201.18060026448134,343.00926731001823,-84.3112259047556,-70.54778669255275,-462.08127051183095
215,4.3,-32.90674859575385,-319.19240105502325,243.56571872092843,-78.06852303904299,-181.87946716877053,-364.7499235167183
216,4.32,-31.180934097621478,-462.37196813606795,166.16096320228633,-81.7993292937239,-305.20718005297545,-265.20670124824755
217,4.34,-44.285568221948665,-628.4425498100618,117.93502115921925,-103.19479886759845,-442.8049296856526,-169.8977735448701
218,4.36,-60.97139035517886,-809.8678729279036,102.741930256997,-147.3493407604696,-597.2713607133315,-83.74350711325793
219,4.38,-69.76592119463972,-1000.3667619964431,116.92566323883796,-216.76808166082594,-773.5157917246275,-8.10632194268611
220,4.4,-59.1659519808604,-1196.090418018027,149.73898759661975,-306.1987753581789,-977.8873045552766,60.23316831332477
221,4.42,-18.328684199337708,-1391.9092974198052,187.40007997527215,-393.528565734376,-1211.0825067720807,124.83744411164815
222,4.44,58.778080585075145,-1579.2334794192893,215.3928789798241,-437.55164121106355,-1458.7815400745822,179.360128781355
223,4.46,169.6517504944887,-1747.9018876505465,217.8578535520179,-390.8863118720105,-1690.3746410173103,200.9787740741287
224,4.48,305.25909579249264,-1888.2419249542713,178.85630303462554,-221.95160745740034,-1871.6644511874506,159.89391785705465
225,4.5,457.2867509627861,-1989.4171533927693,88.70465759562664,70.65940596002064,-1983.4219379799097,43.1485837540952
226,4.5200000000000005,624.37709546728,-2035.0637645499867,-47.695302861921405,462.1096474732215,-2027.7842391971162,-126.42433691047856
227,4.54,811.2711223567449,-2000.6587843958307,-206.0752747141974,916.678812837413,-2010.933048194591,-295.604914720452
228,4.5600000000000005,1021.2563445568867,-1856.5309471325738,-345.4296443966473,1396.499437087526,-1912.1535451671648,-411.95841899042256
229,4.58,1249.2006969167232,-1576.4430719650838,-420.6315328553469,1853.788029948258,-1669.3015258662404,-462.1068942444691
230,4.6000000000000005,1481.1305375983138,-1147.1030565749772,-405.6085762381493,2217.774771802245,-1206.2980825331497,-489.5158701416243
231,4.62,1697.580844353327,-574.004396177857,-320.589296322044,2399.5577165949917,-494.6754703704687,-570.5105231992354
232,4.64,1874.5309312279462,116.42391561136304,-245.18452803347415,2325.7280525266333,394.22420934800266,-749.7867038578245
233,4.66,1983.027821200567,876.6892848440624,-294.7153228309501,1985.8379878904714,1290.5848448574263,-969.1405867379921
234,4.68,1994.6565787352615,1640.590518120779,-558.2284536860578,1466.4501660062958,1989.3155134177591,-1045.2641812718289
235,4.7,1892.5787651421706,2327.2209851791818,-1033.840832940404,949.2734350899076,2345.0682553724832,-743.6645606941349
236,4.72,1671.0004975069273,2845.790354112736,-1605.444216197357,650.9603945273873,2350.978645677842,55.26010892637822
237,4.74,1306.0429682951499,3110.7278298994743,-2068.949528380418,694.0109265141717,2150.9957826653463,1191.4260633111708
238,4.76,725.4952239781993,3076.806246344965,-2191.2710598578988,972.1642876584285,1957.41683425104,2218.5394178334914
239,4.78,-147.18400627215658,2773.883623651106,-1802.3144768734774,1155.7076336236628,1909.634314751478,2633.0533623879473
240,4.8,-1256.6539515953095,2300.7873340349624,-912.216773484018,908.4879577234116,1979.1907725145147,2198.8083098567686
241,4.82,-2322.4993240931053,1774.7815691478172,225.7861968194076,160.7836634150922,2008.2590987557624,1103.1869220132842
242,4.84,-2954.3591976835396,1282.287978034397,1211.8178931825282,-823.3898892095838,1849.1306247043772,-174.59513805263953
243,4.86,-2926.7219436180026,866.4252226779646,1731.9525009886424,-1652.5189597282365,1476.2544058256206,-1151.0796752839917
244,4.88,-2353.5432916807213,540.5749947420414,1740.4625255843578,-2081.866234714882,983.1862653591913,-1567.3661770639374
245,4.9,-1590.6604699903464,302.34297519779335,1433.337760473977,-2117.936594682364,498.311702925743,-1448.2207447686537
246,4.92,-976.965872978139,140.43770967491105,1064.2910252009099,-1921.6741370173477,111.01399463309255,-1009.8437134668036
247,4.94,-655.1818980955463,38.619254205505754,787.3944732401678,-1656.4285182603226,-146.43100602844112,-506.22595422766165
248,4.96,-580.4878126317757,-21.442300016850663,631.3984704634172,-1411.8062436436135,-281.3177550543663,-112.48579906313168
249,4.98,-636.9335038904384,-58.047801132269136,562.5476755103973,-1213.7725344565429,-320.36220975930325,108.87535466410873
250,5.0,-733.3334096544463,-86.60173142961864,545.6813065955055,-1061.0284626890627,-297.3249317911916,181.0358358811114
251,5.0200000000000005,-826.3432152000914,-115.98132403432297,563.5077789490374,-945.2891879949932,-244.7221295118062,168.71092167407355
252,5.04,-897.731540642229,-146.58817188934205,606.9936510779198,-854.6161512386086,-187.86608114435688,139.05814753231599
253,5.0600000000000005,-931.022982306242,-172.2350095693034,662.232290672,-773.9595590329266,-142.10403695406143,133.49841986508608
254,5.08,-908.1236928741596,-185.21116085878046,707.458061623601,-689.7409122933406,-112.90354748039047,156.55920611632487
255,5.1000000000000005,-819.797957565085,-181.09121721907405,720.7177019145913,-596.0829472605244,-97.7935720825745,185.19172372474594
256,5.12,-674.7073925437971,-159.68998752995222,691.0213376823294,-496.9189802332842,-89.55470816084863,190.8701011648247
257,5.14,-497.65030682416045,-122.118759268969,623.9654051395257,-400.59969091834057,-79.88056115498783,159.56595759828375
258,5.16,-318.2052268104984,-68.27204376073713,537.5475748232452,-310.4516838342894,-62.67251288931805,98.79831700081112
259,5.18,-158.31011126465802,1.1648339317051413,451.9214464972431,-220.6112364254929,-36.478950417638515,30.814071294617634
260,5.2,-27.288546632657997,79.72756927955754,380.88342116299174,-123.02260032537167,-5.3873070418398425,-21.692876076160452
261,5.22,74.40708297671239,153.28771407012323,329.44451567820704,-19.37397003293768,22.65687488152492,-48.541772156265495
262,5.24,149.17860895967283,205.10688730503952,295.6386947909598,75.34980525590308,40.14078511273499,-56.38422874627859
263,5.26,200.49791986590157,224.95668922737815,273.0928259203072,142.79575576999895,44.81792314539065,-61.784603740262696
264,5.28,234.94715171351504,215.11298979427283,253.94654030810008,174.79403650871996,41.70652911691356,-77.50957898897445
265,5.3,262.5271644265987,188.1183594435316,232.76327783625618,176.84258264610634,40.13672611087235,-101.88496336677258
266,5.32,292.1413988220281,158.03714766850743,209.2004868662774,159.6927307348344,47.53198543109626,-119.5067363070734
267,5.34,325.95868716139915,132.45104472963592,186.23351546989915,130.27346068131718,64.79438060579832,-112.80712428067113
268,5.36,359.0864890792904,111.13877396434472,164.63054153869354,92.02717050117047,86.71126466963597,-75.46645728397843
269,5.38,385.82851581466207,90.5414155881685,138.42140656601828,52.08494447149532,105.6256506151573,-18.40331991768392
270,5.4,406.68315898559473,68.20552503362262,95.3085141527109,24.95518525118053,113.94378455537495,33.86878298899388
271,5.42,429.06867972517085,43.421270406646094,21.899181260008213,27.50585459766942,104.46724577585468,53.26772715540464
272,5.44,460.02022636049,15.84999198709863,-88.57597925933923,69.35074713809223,72.26176258819578,21.63843882029823
273,5.46,496.44071045027533,-14.32197846152851,-228.55411952808387,145.7474182563771,19.974521280630654,-55.99557787059148
274,5.48,522.8550212941183,-45.094264911758174,-373.3411853928625,237.10128529153138,-39.14536296371107,-147.9507924972428
275,5.5,521.6050678976893,-73.67523850813053,-489.9692918892865,315.79234786503196,-87.98821862448276,-211.31149570691383
276,5.5200000000000005,486.96224930702306,-99.91690421890408,-556.5994453760172,358.1689095084644,-118.48760460262295,-220.0018589453672
277,5.54,428.6365047916609,-127.41756166862137,-577.6706875707945,355.40179546192985,-136.62503700819906,-183.33432744467888
278,5.5600000000000005,362.19550415276154,-159.64907840523753,-579.3452704505999,315.06613400270294,-153.0776869789573,-138.09093532447528
279,5.58,298.4466720053877,-195.25601715171567,-587.9572594474593,252.122374723554,-170.6122424149514,-120.67050431589155
280,5.6000000000000005,241.46544735327916,-228.02350968231855,-610.9266156760053,178.89487815552081,-182.24752303028123,-142.76541247727948
281,5.62,192.47423954135272,-251.1350995888765,-635.5683189178312,103.71480389892201,-179.68232346785487,-188.37625062110266
282,5.64,152.5654920631798,-260.9287268644493,-642.9411645386415,35.260825834149784,-161.09188571307246,-229.92168903814445
283,5.66,122.47616960496845,-257.4343145914755,-622.277245420132,-17.151449747338482,-131.9066075657164,-246.90056290319373
284,5.68,101.47994381150843,-243.01717811846504,-575.8188406885863,-48.61101020048657,-100.54902122228337,-233.45540424418903
285,5.7,86.78296737053432,-221.20631771628706,-514.9694407499603,-61.66526533776047,-73.5157170491495,-194.63798292928715
286,5.72,73.6356241780142,-195.93649038230654,-454.01600237953613,-63.75326458751253,-52.80974231845576,-139.93108850114098
287,5.74,56.255139789525096,-170.33960584406094,-405.23762747110334,-62.57452977806344,-36.68734162256241,-79.87722036014492
288,5.76,29.62126907675807,-144.99699045369516,-375.24262835597546,-63.056825350682985,-22.092988056013347,-24.45382703482374
289,5.78,-7.953706347299477,-116.8789261330605,-361.84370245287715,-66.14404313653124,-6.288619382074599,19.93849872728699
290,5.8,-52.46809586933976,-80.56664343552058,-353.17049281260427,-68.96399928787834,12.454129826248222,53.62861568931491
291,5.82,-94.73073996874103,-32.165723129250026,-331.7908182147899,-66.78267033032218,33.595490680760136,82.94449291517559
292,5.84,-125.55687606307791,26.07511198883151,-283.3888306689518,-56.46815555464188,53.07141394414364,114.95348620931682
293,5.86,-142.45450596070714,84.23185651052817,-204.77342271587497,-39.49045082782732,64.49155166337786,151.95358324582236
294,5.88,-150.9998004069967,128.84108282612578,-105.44765210209535,-21.769462143856586,63.00899091731691,190.19049976261144
295,5.9,-158.5525236692066,150.88836655604229,-1.8918980782033223,-9.42581935337956,48.70578199556463,223.0727385037555
296,5.92,-166.56085377294963,151.69943024174074,90.88204627749587,-3.475755141634251,26.63799546278822,245.51918761777026
297,5.94,-169.54088925501026,141.41449364088362,165.01590480911995,0.9693163710380501,3.982145117610833,256.09424396707226
298,5.96,-161.29817272778251,130.93450851170672,220.4623202016307,9.034818928120615,-13.21409990518735,256.2680021170795
299,5.98,-141.47275615034303,124.53740264708819,261.72322626415394,19.63022381957512,-21.94785106696957,248.46711357045595
300,6.0,-116.22216587997522,119.51261551086876,293.02962484700276,25.89646931084396,-22.69642989042804,234.66351422505795
301,6.0200000000000005,-93.2895294685082,111.51033620130656,314.73719751544354,22.215794209085388,-18.68701233699609,215.99939816331704
302,6.04,-76.39376472249879,99.07396200791962,323.72565225871847,9.500813944244358,-14.083056453236724,193.29418722243554
303,6.0600000000000005,-63.650895166442744,83.8639803648249,317.77738912334394,-6.5045042139700815,-11.57708592602648,168.16234963408473
304,6.08,-51.01998547868292,68.6754753891434,299.2559948710251,-20.3544258114612,-10.824872627202463,143.73362884026295
305,6.1000000000000005,-37.23053473134098,55.98011656197556,273.4739125038059,-29.558631497388227,-9.130485131481795,123.61153946491734
306,6.12,-25.192957684623163,47.03889162641678,243.67804685315585,-33.88086981621571,-4.121342672819325,109.45603844640513
307,6.140000000000001,-18.855181815596534,41.12002460233269,209.11191785951684,-34.094007100294164,3.733059123275302,99.6427683036758
308,6.16,-19.509062915675674,35.80101793774249,168.50266824486872,-31.570338709599547,10.951789099537404,90.45426940990839
309,6.18,-25.31824776655396,28.98858876914984,124.2756212118673,-27.80184189399321,13.366881146557805,78.21038770836816
310,6.2,-33.41108532956147,21.098151211388412,82.43859502465703,-23.5271888189014,9.009684602162338,60.07336552811198
311,6.22,-41.52716654917947,15.125238172673189,49.11897150424992,-18.596582100460274,-0.47760796213982715,33.855361452488424
312,6.24,-47.74744222622664,14.255961961913414,28.283477548197947,-13.013690262320626,-10.61951598957113,-1.1666898341580136
313,6.26,-48.956429132768605,18.911862260132175,21.93851986819918,-7.940521381451818,-16.783013315433074,-42.571883093372264
314,6.28,-39.59164751537246,25.751927390141525,29.98208841167004,-5.316502293839676,-17.643036244439486,-85.0002672515461
315,6.3,-12.890345823406207,30.08776896550698,48.35614425990539,-5.799956675990124,-16.78526205186234,-123.13513552790063
316,6.32,33.45128026399362,30.552785465049055,68.52529979073088,-6.366771451031534,-19.579256505867594,-154.20014386332798
317,6.34,89.49355175577054,31.91823418445408,81.32771661737718,-0.8053676140242931,-26.654142688515694,-177.14704968101478
318,6.36,132.02070065141893,42.28246357134732,83.34925272664466,15.1995160150038,-30.82342195452892,-190.42276501779548
319,6.38,137.86566397282598,65.9045248344401,80.55250583937396,39.05766199454021,-22.651570617134944,-191.51579894599058
320,6.4,104.25009488699224,97.72784065953604,85.41857073412991,63.013218213923594,-0.17886566055274322,-178.2931868912234
321,6.42,55.541901020932315,124.61374811166658,107.79439671449776,80.78281829774517,27.458012847678102,-151.0717874512507
322,6.44,25.536354450538585,132.78485267578486,143.79490538090076,90.29397049181875,46.393028036218055,-115.73646056220326
323,6.46,30.194744239940952,116.31141993747636,171.50233229301358,90.41652553213314,48.22433684773378,-85.67542020756194
324,6.48,56.94778141639711,80.9881827480967,162.4719112096621,79.32046493024606,35.68095411134538,-76.20425597542145
325,6.5,79.69208432514682,41.31654632632178,106.14042759181268,58.84735538537062,20.117860538140885,-90.77290133854264
326,6.5200000000000005,83.14877091686802,12.444037415107676,25.924696391502607,38.3983161186349,12.937491591653833,-112.06308943644788
327,6.54,73.01559874265885,1.4165562737780668,-33.997023298321714,30.399060969060603,17.502667890503528,-112.38809601378331
328,6.5600000000000005,65.13472475942481,3.1915100360702287,-43.52272534168175,40.08043910405036,28.136162491762654,-77.3034245914311
329,6.58,68.50342644088025,5.257349568850708,-9.83888498155623,60.72388336914712,36.471860828228074,-18.55824305409868
330,6.6000000000000005,79.60717670140643,-1.9633746893252866,32.03102375797741,79.8395024889241,38.657985840224185,36.37777148841008
331,6.62,89.22425601399402,-18.398454191625074,47.88543309010463,88.68350327876007,36.97783854443249,65.16727103538682
332,6.640000000000001,90.5553882360517,-37.670181710277376,25.118778478484362,84.74624512773636,35.554294172148715,62.165079823671434
333,6.66,81.95740076161448,-55.740808632447774,-25.85889953987905,67.83170842142934,35.307500148836866,36.283977097134596
334,6.68,66.3004639338048,-74.784994187987,-83.22801547983578,38.177766629091465,33.13452015830846,2.887722718078984
335,6.7,49.356654406370474,-98.93919057265349,-127.57267761335495,-0.8990865650641808,25.269017443702907,-23.932812913576534
336,6.72,36.876068500891336,-127.68008789607848,-149.8131448212615,-41.52728438424744,10.771430740433951,-36.44831270137714
337,6.74,31.546753893243185,-153.67669951442505,-150.3413999297711,-74.60300627624545,-7.9164994470405565,-34.29973942862292
338,6.76,32.481242827886916,-166.5729861312575,-133.49505903271327,-94.75201924027621,-26.755704476815076,-21.573793789411823
339,6.78,36.771254984033675,-159.40667039861137,-104.51343776607595,-102.55487660060825,-41.89204826370952,-2.92891985955354
340,6.8,40.365741007104326,-133.1002197342434,-70.76529144807651,-103.10464887302213,-50.3272994278282,18.34024322728986
341,6.82,38.2700686799758,-96.06493976460699,-42.42438651655679,-102.25885640772509,-50.136015708608966,40.26672319741088
342,6.84,26.45288282247874,-59.53489318887627,-29.067759511887317,-102.68756976586278,-41.08862999622059,61.67313839171123
343,6.86,5.128765742167489,-32.195883371803745,-34.97329705804952,-102.61317798984139,-25.490613763859358,81.78150670619908
344,6.88,-20.33035891870597,-17.13373434925346,-57.50559324523059,-98.93783395899612,-8.15722799813743,99.89597778216607
345,6.9,-43.01317803703864,-11.481486052818799,-88.95952926773421,-92.06869044718881,5.4144567146216644,115.15358117443034
346,6.92,-59.93149846190374,-8.097361060879523,-119.76180990284529,-87.10549643455175,12.132156365535462,126.2032286622737
347,6.94,-74.26407798084745,0.8987961447945061,-141.86061627721267,-89.74844235710101,13.27130395690606,130.9812424556896
348,6.96,-91.90646494554139,19.67890316377771,-151.2861264873677,-101.07167454505068,13.298753079902516,127.72608238981508
349,6.98,-115.07950670903372,46.01063555026998,-148.42990202364564,-115.85701621815595,16.45711625667043,117.53509716503129
350,7.0,-138.83299115219737,72.3996738384601,-136.5122423211945,-125.12490611377974,23.843598318908036,105.92723839813632
351,7.0200000000000005,-154.1973634534089,89.96286354375181,-120.32125230763035,-120.66272128647795,32.731437821539615,100.44348728890171
352,7.04,-156.01756754996072,91.92402155732924,-105.50019922793575,-99.25705253112655,38.49139229889008,105.21383214259387
353,7.0600000000000005,-148.627070410321,75.2332201796126,-97.16592845769863,-64.79495664401287,38.310249434315594,117.17209844761625
354,7.08,-143.28932801375154,41.30335554329808,-98.2381160868933,-26.96245541078303,33.95933132130875,127.61690121949465
355,7.1000000000000005,-148.71297543792792,-3.408030452112714,-108.55092878457835,3.2369432545152375,30.712782272767456,128.27591702950548
356,7.12,-162.9484356991393,-48.21871945470883,-124.2786501151752,19.128508492211843,33.152953081076234,117.43145312661878
357,7.140000000000001,-173.67015213454806,-81.69081671461456,-137.97480539196573,22.274526035904596,41.80289222918235,101.46458950979584
358,7.16,-166.22952163622426,-96.55420208600538,-141.72654262331775,21.976095394572656,53.11633304288084,90.16716659258623
359,7.18,-133.01262487153576,-92.99448411503116,-133.03233953666847,29.56146597348979,61.91934660903351,89.1667049163998
360,7.2,-77.78657130039853,-77.99344645981787,-117.3068735832293,50.5368901572024,64.23732395437771,96.1119671953179
361,7.22,-13.49050805496499,-61.1566817211914,-102.72602159615985,80.50736984589403,59.23384487242551,104.08307709182934
362,7.24,43.497831116439656,-49.818236804069016,-92.31832417719919,108.29685146871134,49.558351160021815,108.23390400425892
363,7.26,79.28067329689804,-46.17339385574011,-81.87594639024366,123.54021091256584,39.87394651702707,109.03932975906642
364,7.28,87.2971681206443,-47.23950923498029,-64.99056160425751,122.66931262896804,34.384189466939475,110.46993502296112
365,7.3,70.90993531093604,-46.999939239244256,-38.91969192381876,109.59653095528762,34.819003016273726,116.3462317737262
366,7.32,41.650750051251684,-39.850749310203334,-6.400828503927739,92.08438488622328,39.83033510997416,127.70788921581966
367,7.34,13.283385233302432,-23.942651619829636,25.998772430829185,77.10570954108837,45.93663545772388,141.81269550332354
368,7.36,-4.587299406020872,-2.2522460696532485,50.93267057958657,67.61279339615558,49.54851253265093,153.07540589271548
369,7.38,-9.524101379606588,19.711898528127055,63.830985598520144,61.66296129061577,48.955245645071,155.98774587843604
370,7.4,-5.21579199735773,37.815537259496004,65.54443946340986,54.32337797350565,45.080359704984524,148.2289038571177
371,7.42,1.8596710394720306,51.534266022644985,61.96461751798558,41.699367436480685,40.779828966425285,131.4495593931746
372,7.44,6.177258791798319,62.93949364578656,60.46917965231915,24.24997930323878,39.318767171824206,109.44071184172282
373,7.46,5.832869936221317,73.94726089817865,65.85207688764821,6.337841082351993,42.777651076629155,85.89277332003248
374,7.48,2.682233049982906,84.55773466354981,78.69038330997954,-7.480348449837701,51.26349442235313,63.58913005694036
375,7.5,-0.34620461641127,93.18554115986514,96.57131404916369,-15.565576272758396,63.57259387591258,44.63731820639528
376,7.5200000000000005,-2.4004117572050405,97.95589907109473,116.02424492604149,-19.228657632243614,78.43126112948613,30.396239055782566
377,7.54,-5.0784544146418344,97.57716722909528,133.28994073543254,-21.004091643156094,94.51860091743114,20.915818803109058
378,7.5600000000000005,-9.981485399661963,91.6634229735512,144.65897684016247,-23.416595832479537,109.35034212610586,14.868243835016298
379,7.58,-16.707441342947803,80.90188103523141,147.91627057859762,-28.486983812458043,119.15698275632434,10.410628933964748
380,7.6000000000000005,-23.157074592133068,66.98285098280878,143.98667019113773,-37.069469375716665,120.58519660552258,6.153065419958962
381,7.62,-26.788130699544197,52.152088119237376,136.42508679282736,-48.059561091623195,112.47486710249946,1.3486922847404523
382,7.640000000000001,-25.612933881338723,38.55535634877907,128.73604767927907,-58.5727904667325,95.99169134469842,-4.523317420058727
383,7.66,-19.208248655476126,27.565012756988025,122.16687710818528,-65.46994637452735,73.37436082570557,-12.01891386613965
384,7.68,-9.104635033596491,19.460918853613443,115.9093553955354,-66.88951316236796,46.76639438183576,-21.516281873218603
385,7.7,2.435181772135983,13.874570504616292,108.9260681631643,-62.556948625774,18.24675949643308,-32.97372909929146
386,7.72,13.94479535323687,10.495062308049935,101.16479749107437,-53.620829671201705,-9.34264739400896,-46.229673113161596
387,7.74,24.671340297251405,9.052131733308585,92.95731941546855,-42.978008922166126,-32.49355500560127,-61.62734876021339
388,7.76,33.652802502376126,8.807781766948192,83.67203555263534,-34.93115556395424,-48.835905984329436,-80.02521436178057
389,7.78,39.94644763482704,8.749661886109354,71.73496122011966,-32.874578280155156,-58.88657962192768,-101.68752084426183
390,7.8,43.82467616909864,8.587077270515708,56.571744654695905,-36.62145092755496,-65.46892671548598,-124.74536330853319
391,7.82,47.05345210298174,9.230992229628178,40.440203634626464,-42.286828282367736,-71.16596178938192,-144.6852264841213
392,7.84,51.492678260413,11.927691695660613,27.707976046807026,-45.07347804313001,-76.38513099096272,-155.94435066449824
393,7.86,57.244361529455745,16.92158684679439,21.719655047192493,-42.52509726391168,-79.63715847410359,-155.15969665194845
394,7.88,62.14287342079338,23.145902008013223,22.085682579562818,-35.849135930822,-79.3145308870886,-143.87529457732722
395,7.9,63.224107343703096,29.168297313366473,24.948751534842827,-28.578569536390116,-75.34833499609428,-128.2173986652733
396,7.92,58.99819769487921,34.08507101559833,25.90310264066011,-23.501773112232534,-69.57669487015662,-115.12831111122196
397,7.94,50.62660536207025,37.295328633264475,22.835182714851427,-20.1770474721743,-64.56546326312201,-107.89142696083411
398,7.96,41.216802034626745,37.74539480748445,16.447528613821035,-15.376426225464336,-61.91203054817542,-104.67601022817288
399,7.98,33.92374970597815,33.93943191864854,8.726920668771859,-6.3548174968282805,-61.74990289572666,-101.12822183145732
400,8.0,30.03475778286574,24.917526878399112,1.1480461066270355,6.111473645389706,-63.77194833461256,-94.34130518261344
401,8.02,28.233312914395356,11.305026139772952,-6.08774956139188,17.979222900441673,-67.95485040732117,-84.73241566869712
402,8.040000000000001,25.883951043501163,-4.3667299136176885,-13.602504754201185,25.341377320493322,-73.57826490992022,-74.85436773789951
403,8.06,21.58117037287068,-18.385081479972424,-21.761317729808155,27.72295876850473,-77.90941753354187,-66.97861466087076
404,8.08,16.53543378337867,-27.509757809962544,-29.9145043790199,28.164027194009496,-76.94887782387165,-61.717817375589426
405,8.1,13.220190070565868,-30.685940563110897,-36.659836639094046,30.2118379073996,-68.15491991209319,-58.317489402482664
406,8.120000000000001,12.661382503922416,-29.511998445370146,-40.882650325869164,34.80557574635319,-52.44066131350138,-55.69490489550847
407,8.14,13.300590224023647,-26.985017289901183,-42.60788842031498,39.62036793915845,-33.37386942500736,-53.078699172869065
408,8.16,12.602164343213069,-25.471970492344397,-43.0140522558178,40.84624799373891,-14.465765094805707,-49.9392364428881
409,8.18,9.601446710584176,-25.43863494971218,-43.875196093705085,35.751353337087295,2.6982935723353245,-45.89322843963602
410,8.2,5.792778013203611,-25.75343009215444,-46.97249193840605,24.508157413616352,17.903348253327824,-41.20390154027943
411,8.22,3.812437125381792,-24.984094879395037,-53.28020517859171,10.39352430419942,30.613618637413012,-37.13596168135715
412,8.24,5.643978388394215,-22.288085113434555,-61.43790992453706,-1.7384609554727763,39.61843586870577,-34.7918751270542
413,8.26,11.981992398975088,-17.22177274805871,-66.49075125064786,-7.810009942299964,44.504882101501714,-32.84573142410059
414,8.28,22.46820736206148,-9.276425906208505,-61.3369908851469,-6.460207520239197,46.869279020545456,-26.811494227606712
415,8.3,35.44670093845575,1.7082854149907987,-41.44170946640891,0.13778384586506676,49.34650076005253,-11.648395419426988
416,8.32,47.103372851430535,14.438631165497966,-9.110609766836273,6.887871751083941,53.29479673548223,14.142469841720704
417,8.34,51.71347188818784,25.872267089156054,27.157868483857207,7.883135033862649,57.8230728686931,46.79363776650729
418,8.36,44.373157230200206,32.669730659142445,57.75584366641989,-0.7308198303414777,61.1558137042237,79.39631412454193
419,8.38,24.68478654368087,33.30590143579823,76.52178099604176,-18.65364410026062,62.288932847847505,105.62971968831431
420,8.4,-2.1974729731426197,28.612154314171846,81.57952494028189,-41.28054889483789,60.99947718454057,122.25802071853458
421,8.42,-28.635044445308356,19.80858587188176,73.77275754705174,-61.804666980491696,57.124153204213854,129.62980886778644
422,8.44,-48.86382417650523,5.882357440019301,55.06144816666366,-74.77128859130733,50.72550997861622,130.74205383595725
423,8.46,-60.99193242595243,-16.37505106202963,27.60388602972658,-78.76542057676758,42.540268006273806,129.37516796424165
424,8.48,-66.48199782664665,-48.532312791582946,-6.367962943673861,-75.76042979580066,33.37209704580758,127.95453839224992
425,8.5,-69.12586044671377,-86.13880861328118,-43.98905436184085,-67.66784202765652,23.135903592487317,126.22075854845443
426,8.52,-73.53118918642431,-118.70059695825819,-81.75281603083334,-53.812456608369075,11.248237616300585,121.5877138021948
427,8.540000000000001,-81.96519834374607,-135.12772083568393,-116.9826740667859,-31.978526980259172,-1.88754222702905,111.24498184044671
428,8.56,-91.58414217887884,-130.57770128754242,-149.37775600098806,-1.8095012776435375,-14.414139143314019,94.84401512683391
429,8.58,-96.1445371288317,-109.60213144482424,-180.49987336189412,32.34644566142455,-24.48557276296784,75.66606882870572
430,8.6,-91.85097942567654,-83.63551097578781,-211.25842002787016,60.97511218051177,-31.824020183356495,59.096628545021794
431,8.620000000000001,-81.41291453628793,-64.45373244188129,-239.48164559057392,72.11697676372916,-37.19154265184635,49.68286583912154
432,8.64,-71.84180527438517,-57.37549711693764,-259.5570298892275,57.12455973530234,-40.44973696603289,49.06511270377571
433,8.66,-68.13762983906689,-58.40616788300234,-264.68760625005007,16.88565801373343,-40.04860945279895,55.66391131915012
434,8.68,-68.92210334484645,-57.46676720265394,-250.47755081732782,-36.18402684536852,-34.99541071821564,65.53683126243496
435,8.700000000000001,-68.08365123581538,-45.56964758931805,-217.31168155570163,-83.45110501197394,-26.617220136427015,73.84078834410215
436,8.72,-60.86216880752755,-20.505636064025737,-169.90299715882017,-110.35151571633726,-17.051060868077627,76.76785319218106
437,8.74,-48.35265420375467,13.037773736420833,-114.97114747701944,-114.39119999439772,-5.971324236809988,73.35867564826944
438,8.76,-36.03310295953286,47.863575403987156,-59.1491618296252,-104.43835884497378,9.413066433367975,65.80989807991767
439,8.78,-28.349309844182294,78.6834595902695,-7.70639295900888,-92.16642426264177,29.816338218218952,57.56837898577649
440,8.8,-24.955991603693533,103.79598628676032,36.782327669253974,-83.26439839515098,50.29164580943253,50.8141706811292
441,8.82,-21.51292663809909,124.71167120511159,75.79044993194901,-75.22575704631211,62.91281041647175,45.94818701228722
442,8.84,-13.68982323750186,144.87881138612715,114.2737154566489,-62.14627914694758,63.45303852139726,43.09102534450991
443,8.86,-1.2174588953437528,167.32855363549226,156.6526239547629,-41.87129471144945,54.92014901035775,42.54257508423582
444,8.88,11.071851230381526,191.87104006174854,201.66234609756987,-19.792486357714942,44.46092369702879,42.8165035869354
445,8.9,16.40884503844005,214.24011029357922,241.55869538886085,-6.120402953582358,37.0267104428202,39.445099879413036
446,8.92,11.270898547492607,228.3197432820761,268.1888953506677,-8.691584272423661,31.532336344621616,27.960751125145784
447,8.94,-1.218265028560416,229.65265480474727,281.2099447690886,-27.10871021918623,21.944394471991494,9.401483888839286
448,8.96,-11.667355035758053,218.04351480678753,290.71631232700696,-51.76203096140676,1.643689071547474,-6.698723685934362
449,8.98,-8.646970809951721,198.40260311556284,311.1305824553526,-66.89706379705541,-31.528719428749696,-5.235610159878007
450,9.0,13.742338597513234,179.12194633798592,350.1792491143911,-57.14706629943052,-71.30770376846283,25.947716947088633
451,9.02,48.23567202054688,167.61060703105866,400.81922657478384,-17.998691307795838,-102.67851682240622,86.47673980170482
452,9.040000000000001,74.1438049515717,165.01532337205262,443.39873632527895,35.30424426215419,-108.46240936909837,160.73831406698287
453,9.06,69.3761168073361,164.11551326689442,458.52233207699595,71.9611293382474,-81.29341544748581,226.60548274120433
454,9.08,28.247202681297942,153.0146006056945,440.4389014037386,65.94199881830951,-31.249288413936252,268.64719634002273
455,9.1,-30.215408278921316,123.31943451240213,397.8240586244642,17.27173546827023,20.23914754116284,282.4352566946527
456,9.120000000000001,-72.97910834410008,77.69085029776599,341.54846871387514,-45.531841555013244,56.418460182774254,266.9579878577775
457,9.14,-75.46577702919998,30.995854655377624,274.6396521612429,-84.58355736615778,76.56316681829958,217.87651587960374
458,9.16,-37.23587664541198,3.510923623157698,196.72039769620665,-76.66888351052563,93.71019955372654,133.18800077703295
459,9.18,21.09041037802337,10.432575498965278,115.45646553677807,-24.097014434822306,123.39859552948266,24.940462908835883
460,9.200000000000001,73.79602626407213,53.89617148742439,47.27554553414892,51.68811402375924,173.0520060099337,-80.14710030479608
461,9.22,103.5105392886304,121.67949161066443,3.4538959172577606,124.78971836720163,237.85698148901974,-156.81808692770323
462,9.24,104.30442941218745,193.60066561128144,-22.39698801463673,177.10175874579824,304.4837095701026,-199.2808497173896
463,9.26,78.54105622601793,252.26680703233143,-49.50301184498998,203.35719599021746,359.672506781538,-222.00011634898343
464,9.28,33.93103407986714,290.8485562750545,-91.98295747496859,209.48481098298788,396.88798123705925,-242.78246455180025
465,9.3,-17.632716298780107,312.3245691584598,-147.24973264581888,206.8039995402762,416.1810067356812,-267.14900646884666
466,9.32,-61.40513784188127,322.1484251862227,-202.02766194497514,205.5029294140344,419.4322464344783,-289.4190360886878
467,9.34,-83.4412745358936,321.53691967323897,-246.22784842291634,210.59364590647778,406.79063854937624,-304.5330871510158
468,9.36,-76.57867999335856,306.58654319235427,-277.922599893962,221.39978624164948,377.0661189744342,-313.8018875194665
469,9.38,-44.873758104345484,272.68310005238357,-297.70221476123186,233.43687311931296,330.3886286047976,-320.10775722188043
470,9.4,-1.3108147999027207,219.56297190910618,-305.0006177406977,240.76229449022685,270.0521099234542,-323.1192799060272
471,9.42,40.75342431495085,152.26382209772515,-302.10268311344146,237.34573306432415,201.61499550253112,-321.3014457662298
472,9.44,74.47085360466194,77.00440697776492,-296.72308419281416,217.54679448911958,129.56500371009304,-314.7770509102942
473,9.46,98.00925271550551,-3.8908574227374872,-296.3635704252929,177.09236016776003,54.40953121679641,-303.6024146224222
474,9.48,108.25648339249811,-92.50597174834003,-302.4461347913202,115.0886904948052,-26.2966818601624,-286.5669173378295
475,9.5,99.76498227399887,-190.3776081146356,-313.29989694878566,35.861232093460934,-113.05355472912184,-265.2825683860734
476,9.52,72.08111805613072,-293.2236461667497,-330.0659002070762,-50.5056643268622,-200.56930167613302,-246.98315183022368
477,9.540000000000001,36.01729463947302,-390.94623743864497,-354.0610456896964,-129.63787648917128,-279.2862362165215,-238.2538933739533
478,9.56,8.128565300970426,-472.81947147232194,-377.93414186812504,-187.91402782908682,-340.47230343102217,-235.2501916875416
479,9.58,-3.3680082319135902,-532.8635527333907,-384.2304613615916,-220.51805984274202,-379.83673692913595,-223.062509317067
480,9.6,-5.835027919396351,-571.1978817999069,-356.6562939823219,-235.73202275205085,-397.94122157586673,-186.66002570701565
481,9.620000000000001,-13.576451257578563,-591.1464851047208,-294.13859227042815,-248.3804938658299,-398.9463518095295,-123.3923134781489
482,9.64,-32.00111985927242,-594.6490371822659,-214.96357146087334,-266.54736433873506,-388.2542036898195,-47.148843650666834
483,9.66,-51.15324937790119,-579.3461988246524,-147.27832773948143,-284.98895462972007,-369.11489182530283,18.13880242279962
484,9.68,-55.07270870587554,-539.8045333832044,-111.56222136159771,-291.43424063259795,-340.80955515074,52.57672315488028
485,9.700000000000001,-37.430283870088275,-472.1712912491802,-105.65809184523506,-277.2376991141484,-301.00366641249366,54.861072735122505
486,9.72,-8.574142329924499,-378.3933154270658,-103.73915458159804,-241.514846252091,-250.04517301728202,46.04815711908667
487,9.74,11.78599563838943,-266.9512894421636,-74.14377573069966,-188.13768762688045,-192.69383156001078,54.739987368914
488,9.76,9.246004279487527,-150.7506467475022,-5.5999310731369185,-122.0872841546765,-136.75084752727693,92.1034748258486
489,9.78,-15.457746790176396,-44.253567725084544,81.45314797061803,-49.225151263766065,-91.15087872638685,140.26928009074106
490,9.8,-48.408676443506295,39.633969917158154,151.7459717678239,22.19951728386162,-64.00209624091325,168.37064295717335
491,9.82,-72.62810445247726,92.71288567191912,184.21576450978688,81.98884093306972,-59.755644065003835,160.49410865847676
492,9.84,-77.07459692048943,112.85443077309034,184.25763568361126,121.04211215905889,-77.13802409321657,126.55745816707666
493,9.86,-59.8141772704317,102.73473225609621,171.44721801569113,134.4122653841723,-109.98238033763907,88.83434318892525
494,9.88,-27.197230548258503,68.45177272181364,160.39669470729922,122.50065920659415,-149.742860916864,62.68278661317751
495,9.9,8.923571557053693,19.95200785957852,152.42871854322058,90.82257936389843,-187.15066287960263,49.14796570755914
496,9.92,35.98130377051393,-29.264077533879238,139.9944137275617,49.01322511877947,-213.1821132260268,40.06024725649198
497,9.94,46.42875242032677,-66.1253748455332,115.96399476914883,8.98555885564872,-221.09053355052257,26.86945075197226
498,9.96,41.35076528865641,-83.54727603057069,80.26727556093815,-17.79031135708698,-209.12587797625997,6.414754739292181
499,9.98,29.26857608436935,-82.74390714442762,40.53740304165932,-23.580883194070612,-181.41343601816743,-18.275822320371383
500,10.0,20.394342797802604,-70.8395582102156,7.470450540917138,-7.41855235282806,-145.56527816761775,-40.85524501065895
501,10.02,20.302672006656802,-56.30079804708851,-11.471681082935177,23.941509462000056,-108.59516773673741,-55.675619632698286
502,10.040000000000001,27.71710439044509,-45.019835687227165,-15.355514814199726,58.66832569451485,-74.25085908668544,-60.29122307557206
503,10.06,37.0720507693463,-38.46725627132941,-7.6453317090143,85.16653489214636,-43.40728313448963,-54.76578865471603
504,10.08,42.32524803707646,-34.329857957195316,8.458195197532774,96.86462898181645,-16.233289153969192,-39.23339260351523
505,10.1,39.351076970480676,-28.907518949904308,31.24487312375683,93.9222493410163,6.435119755503272,-13.705941375402954
506,10.120000000000001,27.538392696421987,-19.51433159709106,56.95156740806975,81.89545036836267,23.539827113088634,18.84537352030857
507,10.14,11.014101876982485,-5.552704592643741,77.53708021496465,68.83159012789142,34.91367490418176,50.751354184959695
508,10.16,-2.783767043211699,11.71543995827605,85.05329003143594,61.646800545237014,41.6428920082455,73.43785258183595
509,10.18,-8.264501444459915,30.030539578908723,78.92834134788745,62.41548769536823,45.53726946873607,84.03920733719988
510,10.200000000000001,-6.385507254163642,47.12670665867097,67.81955586552297,66.65278194179602,48.26681689668371,88.05153338585687
511,10.22,-3.4391673945753736,61.39221279192433,63.63561164302846,65.89478512502744,50.423927925452915,95.16874574695758
512,10.24,-4.782321942237846,71.79521786693529,73.47690230961992,53.711033252867296,50.89719872201117,112.03004000569811
513,10.26,-10.19576045119604,77.48326553854612,95.6579476001741,30.8495864813711,47.587628897894575,137.33027195029499
514,10.28,-15.080866180459896,78.07255849512097,120.59590206389126,5.516495499142395,39.777367824671686,161.50312153588277
515,10.3,-15.036579649119325,74.49927422806607,134.785982538302,-11.603864608953582,30.15320897740621,170.54306492651813
516,10.32,-9.041702151271826,68.89303919412887,127.04696268999362,-14.06051900363491,23.750322525969764,152.8563236351037
517,10.34,0.6734820883130754,62.9972786711206,94.59512418424802,-3.0699074935521153,24.05264856780528,105.94856403330822
518,10.36,10.910163912533402,56.941327169689025,44.170280750792806,14.502037097758542,29.987338208164974,38.08395631220213
519,10.38,19.840770767323583,49.83697412050864,-12.370187017391677,30.768537481157438,36.78910914573561,-35.93494820230828
520,10.4,27.549185800811657,41.081031724587305,-62.63545543395706,39.94841613801701,39.5090609151326,-100.138459799645
521,10.42,34.42943687357334,30.73983864886344,-95.82056376342432,39.43475180246337,35.8548350770576,-140.86469273003135
522,10.44,39.652349340616325,19.444951342459092,-105.57061977007348,30.44013849057281,26.934517680664996,-150.43620751908117
523,10.46,41.99601935924081,8.615022373449403,-93.93444750700834,17.94419197424421,16.424349208925506,-131.43031226660096
524,10.48,41.82092013170197,0.14482181157501461,-71.04298985039205,8.581759595162538,8.545688734550204,-96.68590866855882
525,10.5,41.184001078285114,-4.917658959118075,-48.76579640251277,7.2990867261540755,5.488578466269909,-62.35348102967107
526,10.52,41.83578711473011,-7.103509520860964,-34.08052252291806,15.09042511609458,6.2334403684012045,-38.912019948090894
527,10.540000000000001,43.304602756555774,-7.610117756093899,-27.32827206078135,28.82364402775577,8.100662304018444,-27.142287923222728
528,10.56,42.56862000319144,-7.120956206277489,-24.649853432021025,42.74100344905089,9.505613484700394,-20.813664376857638
529,10.58,35.696634713047956,-5.806462653627609,-21.628257083356058,51.04465634135639,11.136480685051374,-12.756298324076266
530,10.6,20.889531312260843,-4.036375282354338,-16.24764915618408,50.58435492748289,14.712170677902474,0.015891059556245812
531,10.620000000000001,0.4610866262277311,-2.633168894103438,-9.80557880185884,42.06265937655332,20.91233375160443,15.064676416799365
532,10.64,-20.541562045784225,-2.2913679178176816,-5.301049871136073,29.106261813656204,28.454641961174474,27.470738140206734
533,10.66,-37.59784915855586,-2.666389278641463,-4.86186735326384,16.418769515957198,34.841611224590636,34.08877044496062
534,10.68,-48.2975127351158,-2.0000943028929266,-8.266369264052798,8.45751066993017,37.73804622385627,35.433418031663095
535,10.700000000000001,-51.63736396526767,2.4429576721273074,-13.003694134807702,8.577762760547992,35.80516426418051,34.37622500836762
536,10.72,-47.45018377457169,14.030831163992167,-15.246010561081809,17.738177047199446,29.04712993954285,33.76657490220611
537,10.74,-37.2632412282738,37.3488203293891,-11.191559044194367,32.65407687817882,19.535414848269106,34.82841791298071
538,10.76,-25.53358158419963,78.93906332527565,1.8953139162014914,44.67343505054995,12.578922775660262,36.62296168304623
539,10.78,-19.77143044223567,146.6294680696609,25.496180820402955,41.54837113851451,17.068736386328343,36.74405057499314
540,10.8,-28.26426809629274,246.91780336263238,59.75489439478275,13.400431236862026,43.61599593798671,33.34021291596981
541,10.82,-54.45624838665716,380.9071277264707,101.88835363381108,-39.30395672509966,100.52334144831671,26.647041489020722
542,10.84,-90.00406214870628,539.8085325423879,143.2946423244913,-101.35284191901818,189.3258453849714,17.38151237453512
543,10.86,-113.5306969221207,702.4392720889015,169.42561431485098,-146.96450502862308,302.2289730584757,3.420161537555032
544,10.88,-101.98777905489061,838.2552284394815,167.51678667051726,-152.9673669562568,423.03954833933824,-18.63080767176505
545,10.9,-50.41093967815536,916.8565568135778,139.86190450931707,-114.87829715387443,531.5060186418557,-43.91825128387889
546,10.92,18.14851184662334,919.130057968722,108.70014884243642,-54.041272548005544,608.6200995035259,-52.04304773916848
547,10.94,67.39689057279676,842.3873358391613,100.15226928951992,-6.696472207826428,639.349736321783,-17.62416015683386
548,10.96,76.64110570471644,696.6124789075502,116.86909889699574,-1.2079150909002365,612.4104649314304,63.51523563397157
549,10.98,54.376473543715576,497.09811566192343,128.25932165621205,-42.67187078002915,521.3049553489889,159.11738350719935
550,11.0,24.050763142040665,261.01413357687176,93.16978543995573,-115.78657070965822,369.06076575017187,217.9307561605205
551,11.02,1.7478193956691008,8.950729514245003,-4.962673855959821,-197.27508893222586,171.71323765203704,206.97312159758036
552,11.040000000000001,-10.926553694479425,-234.53024441597162,-142.8625092637451,-265.13691705834754,-45.47077046574332,134.2561813012834
553,11.06,-20.149445182523458,-445.7071360782571,-272.5198224984871,-303.9385429949535,-256.63912841036426,39.473693523215104
554,11.08,-33.23142140346613,-608.5507285215187,-350.9730554335026,-310.1136198546053,-441.031601005208,-34.30065358223128
555,11.1,-55.515904768304516,-717.16789935487,-362.3441761434398,-293.8664927661119,-582.8944513991827,-63.864780574805785
556,11.120000000000001,-87.60108727474311,-772.9198467257938,-319.7323727832086,-272.72502634464337,-670.3198946697487,-51.14702742734292
557,11.14,-124.71177452897706,-781.5200989149146,-250.25880128028717,-261.04804742256874,-697.712821300983,-13.262377917423654
558,11.16,-160.0497316361607,-753.5069074803466,-177.05252777580645,-263.65020086468786,-670.2729961209209,32.11307045946096
559,11.18,-187.26152189195335,-704.4473472709747,-110.39899977695896,-274.4675518913068,-604.8232408007442,76.50068420795867
560,11.200000000000001,-198.58083205808634,-649.1393690496183,-49.088218989626064,-276.988508041252,-523.7653012271659,122.28938192093844
561,11.22,-184.2149694070248,-590.7944601362015,16.670482997472035,-248.48664221271304,-444.5462413432179,179.91693239850127
562,11.24,-138.89610819656536,-515.695536027904,104.12290140136918,-172.3191006539468,-371.20191929766065,262.27875238701176
563,11.26,-70.29446483165083,-403.61086975838896,226.7750018075902,-52.310428471147965,-294.3495936567598,370.1765423954972
564,11.28,1.7137589046725301,-248.22953309886424,368.21799706493925,86.61053895788132,-200.3058782913103,472.0651876008046
565,11.3,56.59145409775511,-67.63659743080514,470.0736338684983,216.80291879451363,-82.86603149759092,506.2008155149449
566,11.32,86.35064590413288,104.35883202270416,466.1457723616861,326.95568670579036,50.22756112031878,423.21699464568417
567,11.34,101.30919269946462,232.99101555270212,340.39931119046344,420.80208222762235,178.90137085904735,233.16935113336928
568,11.36,123.90689147359878,290.6215006958503,148.36000301305526,501.19403656596705,277.43376522093445,2.4637254952056793
569,11.38,172.29278206867843,262.4848359556816,-21.87851120415357,562.4671529212751,322.5042778382425,-197.98214565738618
570,11.4,246.07332919774268,155.41108558829725,-111.95046498337204,598.0392721170757,301.7586960687849,-338.88125644168724
571,11.42,327.60300408138136,0.9953867940761221,-125.97007618492901,609.3117553221283,220.85277342633577,-435.02563691015865
572,11.44,395.57759912393817,-155.7531436683627,-113.23296947373062,604.3105754960458,102.74760959832975,-515.5030483380365
573,11.46,436.28976692943854,-275.6921237137657,-122.50998283408269,588.6759967170632,-22.47777029088729,-594.4450079804755
574,11.48,444.90958453970376,-337.9561958298822,-165.6175507747335,557.852655554762,-128.43865625077518,-660.9301300958131
575,11.5,419.7711265771352,-339.82819373979726,-211.96135219213738,497.47554688747454,-195.87351753009352,-686.2963753043051
576,11.52,358.32532486824766,-290.2902070097731,-212.73829954925125,394.19749627714407,-212.1324878601054,-641.3229958319525
577,11.540000000000001,262.7727461065063,-203.95099852619626,-138.74380688553805,251.06821634174148,-173.53672972857177,-516.813612301641
578,11.56,150.88762942107368,-96.08952800695067,-5.102474586905377,95.09762207923202,-89.56051251757421,-335.06268224711255
579,11.58,55.68577146865452,20.999541009844037,138.4957748910797,-31.256834930334392,17.234112134071346,-139.46036492002676
580,11.6,7.452531273852578,136.84053961806006,242.2599002364663,-91.46671664046832,117.8866296636588,30.2021538254047
581,11.620000000000001,12.453065588211004,236.33776565050078,281.9611860152807,-77.25911383147628,187.10554417413988,152.935456927336
582,11.64,46.6304022303238,295.79933429010447,258.90894268274764,-17.36297454315282,211.30849094667025,223.1006094220993
583,11.66,69.25034216265176,290.1446167454903,187.99158153020556,37.13203652630645,190.77504361662469,242.52224714254302
584,11.68,48.81628460140897,209.93735364611922,89.76921891979545,45.90153311615894,135.95270033358466,219.9680842576371
585,11.700000000000001,-13.679156131050979,75.61305652444665,-14.801321397995286,8.213245290000017,61.52142678661317,171.69356578459318
586,11.72,-82.40256874009492,-65.06983519351392,-110.55315694624905,-38.07471810825966,-17.59095492680106,115.18678195151787
587,11.74,-112.60547975797702,-158.99451918826747,-188.10300105209973,-49.74262446515093,-86.90806904375631,62.30206557958155
588,11.76,-85.940870494649,-175.5411281670078,-235.65618377053457,-14.915030461036306,-132.60277723724846,20.542747576506972
589,11.78,-23.13290934318268,-120.331885656017,-237.1196243414898,39.52029079758639,-144.54232403005932,-2.2342127173147617
590,11.8,35.78795594274898,-25.804267562896744,-186.3245011133804,72.19616806013252,-120.73825474947148,-0.4390283629259848
591,11.82,60.75899421017182,71.62241857530536,-101.82251212775276,56.66650680030482,-68.53882403891114,20.958041844105914
592,11.84,44.12255953004917,149.22790377564996,-19.97782911893451,-7.653009272245802,-1.6060816471417443,45.92367880640542
593,11.86,-6.398129807937002,200.28702592945626,30.13004593141347,-103.57013402911304,64.33077713952012,59.980230576886925
594,11.88,-79.07671764429801,225.52887629891285,43.701591558021796,-209.13234419044028,115.44505127281202,62.80379275305919
595,11.9,-162.01307261486835,224.5036970270599,33.643109389377685,-304.0679037886796,143.17334489002135,65.00056726122753
596,11.92,-240.69517788830336,192.89370239258562,12.423916987439247,-369.8164730167565,144.86901576983763,72.1011095363511
597,11.94,-298.7404449304579,125.51909682142131,-16.693154875662117,-391.77993262861787,121.2560259602331,74.7985738800653
598,11.96,-325.4662811465589,22.674939416432657,-53.679573814578646,-367.0901297062211,74.45023808941212,56.83149661846618
599,11.98,-320.53083744308185,-103.2946223820832,-92.42516702271185,-307.76942051219123,9.243763831908844,11.495430301681711
600,12.0,-286.969522169602,-225.7615103661297,-119.70916137325707,-230.7171184073144,-64.76409239462534,-50.459635978285974
601,12.02,-222.66039900313044,-310.12524753519006,-123.13826382750936,-145.60276626722862,-133.65721548467462,-108.11436229199572
602,12.040000000000001,-126.0489252414292,-328.32384463305607,-99.9065051355835,-57.62784280100623,-182.47051980432968,-144.06946896368282
603,12.06,-11.265765433531152,-274.2639085155911,-57.750580132785636,19.912578547448284,-199.2824013099131,-151.48598808688592
604,12.08,88.25499254179971,-169.3435897868771,-7.75252769722207,64.04810911623886,-178.63113940502114,-131.3018924803737
605,12.1,135.996570578077,-52.48439535011876,41.58418914930414,56.534929114908806,-123.52232284348719,-88.11998747048303
606,12.120000000000001,115.26956222537274,39.24644717888389,82.11726857198445,-1.4929432992940441,-45.67897259273698,-31.375601048152152
607,12.14,40.92334111370758,86.09463501185581,102.45606403738758,-87.16398587071,36.09698089726534,23.515747629639083
608,12.16,-47.92817110476081,88.52337519053499,92.73396025995048,-164.59640052978676,99.89402808697423,61.43965360094339
609,12.18,-109.62202067261337,59.8605088729487,53.44591589977751,-200.07059572538657,127.38626659521094,76.6560010508532
610,12.200000000000001,-122.87309634878551,16.825761589902267,-3.559114619409452,-179.20796674204854,111.67419737673094,73.96972018247023
611,12.22,-96.86101803421533,-26.06177792361563,-62.137023572863015,-116.46465221087492,61.971356972610344,62.0265262078307
612,12.24,-62.622670017598956,-56.90551838702321,-107.45618744989407,-47.1702663541425,0.8593754599805017,48.54374946188755
613,12.26,-50.74865754799359,-64.23072659572792,-128.37239815567975,-4.982592526106814,-46.06038528574089,40.61283149757599
614,12.280000000000001,-68.62788385881083,-37.39080009306271,-122.15239638157482,-0.6639721718014364,-62.92699528669169,43.06212259323605
615,12.3,-93.59894241953047,27.00826238842994,-98.98901905396013,-17.36565149176363,-51.24237087049467,52.335599116923746
616,12.32,-89.33348847529851,117.43568633142127,-76.39822470698725,-23.989427074549887,-27.45951642316542,54.95002999577811
617,12.34,-32.78855179014449,208.69736966472698,-64.05016307080797,5.542026094908756,-11.990073851701833,37.773452781591615
618,12.36,70.19689465696653,274.5546937492746,-54.191104009061874,79.77374211769784,-16.93211436871396,1.652860614377091
619,12.38,188.38913843708292,300.79903983807833,-29.35905097252042,185.75241267972658,-40.272252898674964,-37.951823477246016
620,12.4,279.2822384002752,287.24210960721206,19.485730152995547,290.8085709624755,-68.924897784919,-66.44303477851938
621,12.42,306.6015521449115,240.2829938930338,83.42202046676657,353.53607009681525,-87.0803323729445,-84.61779674299403
622,12.44,257.7840580398348,166.70777394829412,145.37763169129914,345.76730023356265,-84.63295023814717,-103.73772659397322
623,12.46,152.29587941153738,74.37007515357342,198.2246982125732,272.5433727905316,-61.95679115503735,-125.67016225863162
624,12.48,32.1637977411067,-24.083046737516874,248.692613959958,171.94305393189865,-29.118865940433267,-133.61921569559294
625,12.5,-60.50160314551423,-111.01226242759934,300.89120950379515,92.32713127026747,0.21701651157278512,-107.887373785477
626,12.52,-105.23392398850018,-169.15940019814923,340.2291985295569,63.11597464902819,16.99414917794381,-48.456228451685945
627,12.540000000000001,-113.25486128598712,-188.5536237390987,339.8283012211096,79.45138586798078,22.12563327775832,24.04548666224563
628,12.56,-121.48168197085012,-169.6226061295509,282.39951312039153,109.4967591161834,25.485317465250553,89.21717513305258
629,12.58,-173.81337286021713,-122.09950057791757,170.32390482751282,114.48422227777903,39.30640023951304,142.00648574865917
630,12.6,-299.957312912477,-62.90846544715623,13.695724398733336,64.49650234354927,71.307817933534,184.7963767797984
631,12.620000000000001,-501.28102081636274,-13.358215047339653,-184.13862944115715,-54.258330889548034,122.73678452393943,210.86194519983263
632,12.64,-746.7289241049945,5.729097431491265,-421.7061283923349,-233.8061067475767,190.17675360725855,204.94302390880915
633,12.66,-979.5947602545816,-21.883393502736084,-679.7824530041058,-442.53380558583166,265.840237225736,166.71096174578452
634,12.68,-1136.4122923778423,-107.66464556812834,-913.4403823036432,-639.3113988970881,337.69372788934004,134.57945141414908
635,12.700000000000001,-1172.2658944078842,-257.38588814161903,-1072.905733745366,-803.1253505777714,398.7188953839774,180.14508077303705
636,12.72,-1075.79158348832,-462.1046854702,-1137.119384087729,-954.5179655147574,466.13392235923413,370.42720158877796
637,12.74,-861.519481104379,-683.7028030246422,-1123.2372963019907,-1141.976345635919,592.132401273997,733.0313329999684
638,12.76,-552.9777181680597,-849.2134898338952,-1056.0232080036571,-1395.0420043416411,843.5545600717792,1262.7745159610847
639,12.780000000000001,-184.9293848599063,-869.322079055361,-925.5367770071502,-1683.7509221540795,1248.5771953847714,1961.0690169653337
640,12.8,177.80427523877842,-682.8628075157139,-679.16549178539,-1928.312650491338,1739.2044467229493,2844.3598167862747
641,12.82,453.04477989420536,-304.09261526529497,-261.20315141608074,-2061.7369099016696,2142.74243815268,3859.2772459080807
642,12.84,611.3389551872941,165.15062724793785,335.3680901254109,-2110.805097022247,2268.084755466414,4727.302392519955
643,12.86,737.215153579173,574.2647145526346,1047.8187391350223,-2252.6269938443106,2052.9203242642243,4874.669254330052
644,12.88,982.2044052173767,787.1126413961485,1755.2426891274765,-2768.1718247678773,1624.7545243562245,3649.5525422844403
645,12.9,1416.3684619339895,734.0126817496458,2294.7026694569067,-3785.1770072045715,1150.3728772852128,826.0922330158874
646,12.92,1911.13194207578,448.00420447978513,2482.1979481141034,-4889.66478611047,581.650998214202,-2959.414897969932
647,12.94,2175.7453524584516,85.32190824735234,2178.55305096912,-5054.961165569657,-394.7147515632555,-6297.418369697707
648,12.96,1947.5735357822468,-113.54181713857,1398.204052750882,-3303.9835866631333,-2049.2353578524894,-7727.210745636416
649,12.98,1212.9091335343971,42.422895349507684,358.62252002650075,271.8806594230423,-4191.233657109365,-6692.861917330053
650,13.0,269.7599346930589,541.7278846497297,-620.9752261212374,4227.756021939878,-6062.185554498194,-4036.1811520568863
651,13.02,-472.9508249408955,1141.4095942876077,-1294.748398502826,6758.771502463392,-6695.071341385279,-1481.603301253468
652,13.040000000000001,-804.2382066601746,1505.7982046370719,-1568.1487218283764,7095.75514014998,-5505.875919655782,-341.0892226703779
653,13.06,-809.8122009765377,1413.0782793923481,-1448.1486548924297,5912.238188967047,-2735.0266557109844,-556.5532057157855
654,13.08,-671.7845279860537,896.4682405113451,-994.9403859747375,4462.712857699658,569.9572240280254,-1025.9068157681068
655,13.1,-450.0522990840643,228.01456003438676,-344.01275044254976,3502.2330188751157,3115.889720380822,-808.8186813170132
656,13.120000000000001,-113.58060335057405,-270.5638879246735,283.15266595722164,3019.874629165921,4134.356832240244,106.3632992649776
657,13.14,281.6832900287829,-461.4098165664782,663.3340266414284,2720.9591335373516,3740.2835484339275,1106.5348436479014
658,13.16,555.5757909282987,-456.4546996477537,703.0136718386277,2480.442575596701,2607.485986892853,1688.0538476108422
659,13.18,562.188820656871,-457.2208794578786,490.2775581725258,2334.1445442646536,1366.5953478937195,1765.6231740249123
660,13.200000000000001,329.72815959840926,-552.9212973544161,213.28611350264808,2250.967797242245,295.3364628887595,1492.2255799241375
661,13.22,22.36645965656834,-678.5700639737961,26.949497035745694,2070.478484088934,-575.9717988454714,1039.7023197022495
662,13.24,-200.14773428622803,-724.9416050083641,-14.917385882950768,1654.3200087577757,-1228.6224111180695,556.1991220587671
663,13.26,-271.1079542439138,-646.7285365621916,66.20674115069443,1038.6350077823706,-1565.7169623343832,181.10389647179665
664,13.280000000000001,-211.7441474974858,-477.7905623229474,230.5883016174941,419.5456939000809,-1504.9039598183633,10.064213836744017
665,13.3,-85.60556127683716,-287.1570983953018,441.0459265035413,-1.2978598499014993,-1106.7244074117575,42.546048068549666
666,13.32,41.75130502772427,-138.05821994735658,638.486118115221,-158.58414523688418,-587.0230470143259,169.54258866649684
667,13.34,123.71478470428856,-67.52091066108832,724.8238498330493,-137.59558261880966,-198.07582483023342,221.29200145853116
668,13.36,134.7441264953269,-77.71530747231613,608.6913818246803,-78.110680241968,-87.31644662462523,62.231128656756084
669,13.38,68.36683510305386,-138.14810620895344,289.4440487433923,-71.89715384347713,-238.12605253219715,-323.0294558262248
670,13.4,-56.351080156477934,-202.30255891927308,-117.3022684472558,-135.4924775377927,-508.32756709350934,-823.4381024216851
671,13.42,-194.81692453894692,-231.59746079487252,-458.8268777452373,-255.4790067772903,-720.413839057132,-1278.7821006395047
672,13.44,-303.7801489237245,-211.8999194585603,-652.0975925489,-439.7015364491429,-751.5059352577032,-1566.1356289451965
673,13.46,-375.7422300090964,-153.74562955100237,-712.1569320344585,-715.4121729426729,-582.5919971762719,-1633.203187312003
674,13.48,-437.8182811689869,-79.74702750996474,-696.4363365390038,-1080.19731592216,-286.4307227823048,-1487.277635355531
675,13.5,-511.5362521259642,-9.758895496544625,-644.5124821372142,-1465.78875818407,29.765107209245258,-1176.0210905501594
676,13.52,-581.019509159376,47.2652440541972,-566.1969485349309,-1760.8822100960083,282.68353081505063,-770.1165668229895
677,13.540000000000001,-607.4151056789194,91.70632127143536,-463.14072993413674,-1875.8028226904094,437.8675538895036,-343.67237812388623
678,13.56,-572.3416922690354,125.72034131261265,-349.225879288496,-1793.4517507198434,500.66790313599165,41.77436031085449
679,13.58,-504.11298678737404,148.12051033017372,-253.34684262663856,-1572.9432013676665,496.12452990399754,345.57581026668265
680,13.6,-464.3736697823337,156.86662612604778,-206.87712743319872,-1313.800720480791,457.5506608546466,552.198329811626
681,13.620000000000001,-510.2523477485932,154.20356424763605,-227.50695347153828,-1105.2685136989535,422.97715352866066,668.8125558036015
682,13.64,-659.7506897145105,145.53051676365467,-308.1556677626112,-985.5141028282742,425.55364972113557,715.9609600404374
683,13.66,-880.2001562956333,130.73574991711627,-414.55686809726535,-935.5030406224525,475.76747215096725,723.9369978246741
684,13.68,-1106.3355344523743,95.17266416475266,-500.40194340337666,-915.8182628071444,554.011421484759,735.4840479690586
685,13.700000000000001,-1275.570458173016,9.09865833010197,-541.1774458554793,-916.1265460760205,627.9116664065965,794.6418798711632
686,13.72,-1352.3957474737945,-157.82548284621046,-557.5323932974949,-970.3341879092817,681.6645442266857,920.5670955801259
687,13.74,-1323.692801182226,-407.80608146188405,-596.6753044338293,-1127.4629532861527,734.1461607248561,1097.2479548588703
688,13.76,-1177.5424249492128,-688.4702190233154,-684.7223459889665,-1412.6048092118508,837.2634987485794,1296.5624138383173
689,13.780000000000001,-894.221853445069,-895.9892467238988,-791.4064856093914,-1806.8641153976337,1051.755777146615,1514.0572039576432
690,13.8,-460.35773137035426,-920.1961068661005,-826.8617808557565,-2241.49915484953,1396.5281100118764,1788.9552370421695
691,13.82,110.54041132060328,-708.8164456766501,-664.0725059831111,-2598.86686625683,1797.68534045506,2192.4885328887513
692,13.84,771.8150920353893,-307.9243872550776,-184.51340558548742,-2741.5492823749764,2101.1832264553277,2761.832813995256
693,13.86,1454.7946254070737,146.1196249414299,650.3778925902602,-2598.2795405267007,2178.239394679784,3360.3319745482822
694,13.88,2087.184764953028,476.47790802335345,1725.9957836135168,-2276.305767990625,2041.8146656122763,3548.279875785905
695,13.9,2602.8602869646406,542.1363678706591,2759.3785694818366,-2057.047922613851,1827.1387388979206,2699.5628352833837
696,13.92,2924.8912145712357,323.8858218035367,3388.4200360817604,-2131.920206709191,1589.4302516386017,497.7997024648258
697,13.94,2933.291468060226,-26.441047291318426,3335.9717593222103,-2240.2661953432466,1103.8441792768667,-2533.118881698932
698,13.96,2485.6188839491897,-237.06285236170856,2547.8223752484864,-1707.037258587119,-22.326871233142583,-5129.5198520631875
699,13.98,1536.9785147502141,-69.83634183177946,1214.6955015828412,-72.19103928533161,-1867.5835189410557,-6179.358699288256
700,14.0,264.50559339867016,510.722605350858,-317.13311428241263,2322.4378708450326,-3799.4524358320314,-5599.5721225204525
701,14.02,-970.1170913171512,1259.4325258186077,-1660.1809461993898,4542.556095947488,-4751.221335888236,-4237.867318288964
702,14.040000000000001,-1818.403953654466,1741.2494604884093,-2468.1779902476014,5836.500125126714,-4094.5052095881847,-2920.0259499861286
703,14.06,-2102.927630216491,1607.7129990226317,-2520.2300484454518,6064.184015096225,-2234.821939104174,-1783.0613764156824
704,14.08,-1815.0880974535712,901.5516909217232,-1828.3118384560587,5469.6163516298475,-250.3830294154477,-580.6734659756444
705,14.1,-1053.742751956975,81.6424729380717,-677.3416478300555,4337.678571107987,1028.5623612957065,669.215434285841
706,14.120000000000001,-18.02044789297458,-336.4518445624836,492.70926130729447,2969.894606262538,1515.1944795697868,1621.3026000143668
707,14.14,994.0791783941029,-195.88414886209978,1294.8386866641372,1773.7933216364827,1565.0422774616054,2041.6374732277313
708,14.16,1673.3606643652768,240.76267081050054,1539.330268660066,1122.103255288674,1416.567942701386,2021.0880550870497
709,14.18,1843.5113214588382,587.5764231594778,1253.5302944091732,1067.323291880915,1007.4025404338943,1770.2015036167895
710,14.200000000000001,1542.507077161059,638.6404732280386,622.7972700540246,1285.2763331372707,208.53137296543767,1408.9339735555197
711,14.22,975.2138635512649,427.42948736274207,-98.70746659835409,1375.8557055650135,-902.1291112202266,981.6113669162705
712,14.24,381.71861494803875,97.06382894503227,-684.8149953242325,1210.4778406290961,-2006.9226445661816,532.8661263775791
713,14.26,-80.67104495589413,-234.46373705009643,-1005.1963389886391,959.338434109599,-2734.513636319231,111.09358464804643
714,14.280000000000001,-372.17140243345733,-515.0168694531241,-1027.1102795633365,819.0574925157823,-2877.1841399449145,-240.88481011426435
715,14.3,-523.9501970874428,-725.9308317222232,-773.5698439501732,781.2258224128245,-2479.282413964185,-468.66211641558436
716,14.32,-571.3283127470661,-843.6429146436881,-304.7213006218679,668.0937260109926,-1765.8821178575336,-519.7235489834275
717,14.34,-528.344291586858,-839.5810835022269,259.4370076012893,335.08086664234725,-999.85389727658,-402.5101561608682
718,14.36,-410.1230757852707,-711.921825761076,734.6104224968248,-190.83349267694092,-376.9789466860848,-219.3001567316295
719,14.38,-259.0956333216786,-508.44826528614,940.1324087771259,-737.9735503174884,4.526961057482367,-119.44254666144619
720,14.4,-134.4579117919186,-308.69527641924014,806.3984587681641,-1115.6179837961504,135.66087245819568,-202.948839061557
721,14.42,-70.25417737951763,-173.83310579649932,424.24821328561177,-1226.1059468852259,83.9806884082531,-451.2858476725333
722,14.44,-50.02456329226883,-106.8981242302618,-21.520463885682076,-1104.8738267264491,-29.10691877224383,-741.1317890397906
723,14.46,-35.3551063361118,-61.954713263408635,-377.46132269543943,-889.521781514934,-76.455990402415,-927.5474829077743
724,14.48,-19.86110525670527,4.827785840675645,-588.8220322941349,-740.8073680353981,15.614493846306047,-924.4657650724848
725,14.5,-41.39153550534162,93.11879073992783,-668.5337162614464,-752.4322600523831,234.91336994408732,-727.6654408233856
726,14.52,-137.59948801764386,164.42656463467262,-641.5761142269479,-906.8783171875077,500.69468104480103,-392.4867092250955
727,14.540000000000001,-302.7855774538314,180.7982589588222,-537.8286382156244,-1112.28671675845,715.4377835133828,-3.7594314051284776
728,14.56,-494.829256476826,133.3507592489476,-412.5379780612035,-1281.9424091280432,815.009044940987,351.7956351700243
729,14.58,-674.8125931166394,42.23561907751996,-335.7494906850771,-1380.5300985486576,792.6309587163064,611.8467090791412
730,14.6,-831.0060950061684,-58.21102970572325,-349.1533122746275,-1409.7870472699153,692.1371251273649,751.4518396524697
731,14.620000000000001,-967.1272998693964,-133.9467835148827,-438.32906545832043,-1373.0122802978995,576.7475378128188,779.187717758364
732,14.64,-1079.4313349658007,-165.84763718201344,-548.3517325319385,-1268.2969189430153,491.34855080792204,731.1968020435322
733,14.66,-1159.065007376752,-165.86679148747413,-626.6572574980539,-1118.143267058464,446.4321197909293,665.4026667106459
734,14.68,-1216.0112818512007,-180.37715784862513,-661.2432989688455,-995.1348204090225,434.55773087955515,639.8878774750054
735,14.700000000000001,-1276.5391134649342,-263.564176118184,-691.1164820871251,-996.95719620329,455.5027432622036,679.6050253160516
736,14.72,-1334.0287687191612,-431.2674628673576,-779.9449466455864,-1177.4791941246317,523.1694239759055,764.7588163235724
737,14.74,-1312.1092433272963,-636.1954141316961,-964.0181522469913,-1501.5929993830612,659.3046547810588,858.9015661423596
738,14.76,-1106.3670838380285,-793.1105535574666,-1209.0713297545435,-1875.5949451224458,890.4382107543173,953.3274050554857
739,14.780000000000001,-673.7029839561887,-829.3163865188342,-1408.9466613302982,-2214.3352568633645,1237.9164218135832,1093.802965669314
740,14.8,-72.78496512628669,-710.009861413118,-1420.9315080157794,-2463.0815818044407,1682.6141344675552,1373.6859415923002
741,14.82,578.1007849737059,-433.13869117690143,-1106.1717041596694,-2568.687423858911,2127.2816775400725,1876.9805510753013
742,14.84,1166.1759103679717,-38.808428170576676,-369.9589631892444,-2481.622112026515,2413.869819350111,2548.3173582875706
743,14.86,1617.007197145222,357.1558697886485,775.3576109799712,-2220.8387157162388,2411.4598541045316,3044.7137531741173
744,14.88,1901.5189395337734,577.127833416429,2140.7844775625,-1891.2908174098668,2101.2885664875735,2777.7927486473413
745,14.9,2030.0629749281816,496.5874432593225,3358.0788717217492,-1543.807805871399,1558.465535569093,1320.091210546554
746,14.92,2015.1911881733772,175.52920456038132,3997.3085638848534,-1008.0689094527969,832.338907267813,-1068.1035098937036
747,14.94,1816.9129255596365,-147.0846829933338,3769.9149519179164,4.939012271249652,-122.48759946761174,-3399.5846995259435
748,14.96,1350.6721714424693,-217.25823047078592,2707.8209278770446,1527.8656867234863,-1321.3539692338802,-4638.941193011926
749,14.98,595.6329496667449,59.08030019999191,1190.2179137685143,3140.669765288812,-2531.986199388808,-4483.216366810024
750,15.0,-299.45229424267046,563.2892513018926,-239.3090003651959,4267.160883846234,-3266.098779512856,-3458.554247946258
751,15.02,-1048.8012605189601,1038.8283691322295,-1155.6717002187404,4638.154979704804,-3097.0110048465126,-2328.2810892275274
752,15.040000000000001,-1391.2938301879826,1237.3476764136608,-1416.004534105065,4405.3554328552,-2020.0757937296912,-1492.2648172799486
753,15.06,-1236.5042884657776,1069.2307719716246,-1109.8896884083192,3883.8505761229117,-495.04126489858265,-893.5588547048203
754,15.08,-684.688772824029,666.3568540435369,-429.7244630577774,3290.504913296095,852.5757860261356,-341.5355690671622
755,15.1,55.39613079139377,288.71837860095116,382.0121839331559,2700.4903051039973,1587.1571738036341,188.56768998956542
756,15.120000000000001,760.8098159936859,129.89466397888953,1038.3813998353792,2138.894831713664,1613.8192375030858,567.4904799981173
757,15.14,1259.268627595771,189.7939457108636,1287.9478812037685,1643.4703323085623,1094.6997709475536,714.6266639399119
758,15.16,1474.7444523231752,326.44871872913177,1057.0201710376664,1254.120260681123,284.3208770772776,693.4628447609543
759,15.18,1444.3191566584246,406.93430348203026,505.7856096282078,992.8825933300765,-575.0385530656976,623.9692167393545
760,15.200000000000001,1280.3443148301267,390.8731259987945,-81.02624380215002,872.1301684933499,-1289.8059018195845,573.1555324998852
761,15.22,1095.3152936154966,300.17468372042833,-475.06864714841436,891.611972869098,-1741.262325809448,536.581570129347
762,15.24,942.4607040341473,162.2205306037164,-605.5262892191354,1004.9082832807071,-1911.2850018087688,480.18360184497266
763,15.26,806.0022037090025,-6.174011431199807,-529.2730847313296,1108.8507984043,-1872.6948066056377,384.33433436138864
764,15.280000000000001,638.5254863854948,-189.74826482268975,-341.51231109052145,1091.2139283911697,-1736.8299217819094,261.78335649329495
765,15.3,414.82728926979087,-371.70390779790375,-118.35134056861793,892.5368112302442,-1592.0431469412774,139.89450317813726
766,15.32,159.93473409910024,-537.1011122490894,87.37714699093826,529.6395146211321,-1469.5692073695004,27.23135225142395
767,15.34,-67.26239889884705,-672.5204072562549,232.65968266887722,82.74881193230952,-1351.1890759685016,-98.13324650658696
768,15.36,-214.3911877271774,-760.700785382397,281.08453908882217,-335.9516676551297,-1205.7047279334438,-269.0916051635544
769,15.38,-269.2496241123868,-776.390953301146,210.00272754585743,-632.5311164725529,-1020.3312885085138,-500.2959707706758
770,15.4,-268.3183617202667,-691.9488068744652,23.36810369310821,-783.8023428915496,-800.6136259610505,-767.9404059628507
771,15.42,-272.6797710153638,-494.96527159208006,-235.6441927456766,-847.1365833787693,-548.9831227166435,-1006.151008091194
772,15.44,-323.58040893844293,-206.15807288875817,-489.72112094406856,-911.0661951938757,-256.1659944898801,-1127.4395303257802
773,15.46,-415.3125372153545,118.59197268856201,-661.4775898546621,-1031.191244949649,78.20683923847619,-1064.7600033338508
774,15.48,-513.1751658063756,405.5452868821759,-716.7393943744597,-1206.3534288032783,418.1895612336438,-810.5071564197915
775,15.5,-595.5743128660644,590.925861823356,-682.0894272165763,-1400.6922183788747,695.4006684986664,-424.1692899766419
776,15.52,-673.5177531514034,647.0074191284132,-624.0883293529988,-1576.0173761123258,852.5815022146626,-4.6702747703109395
777,15.540000000000001,-771.9437653382407,591.9901547551666,-605.5966550776238,-1705.9359991301503,887.2568964609769,354.09774472934305
778,15.56,-899.3653308688733,474.6226993239279,-642.3466734750539,-1772.6078618836482,848.385464036237,604.4157290058125
779,15.58,-1036.7314768187516,344.47226602270234,-686.7023817861821,-1762.6481897367419,789.5684061208063,763.8597449630189
780,15.6,-1154.9379381657345,230.06646562272607,-665.3214067763524,-1675.5528317219755,731.5682502322398,892.0830565301983
781,15.620000000000001,-1247.8935970745188,133.06068914138356,-556.5104332501165,-1541.5890201120064,670.0694869204262,1030.110851787829
782,15.64,-1348.2614732812444,32.52750798600621,-433.0578642395453,-1422.800139249065,604.4422909949991,1154.2377561551052
783,15.66,-1496.5093715604899,-101.05066065491357,-412.07084300641066,-1374.197044319566,544.354109486629,1197.7056957850218
784,15.68,-1681.9775650337913,-281.77556543066675,-556.3730947558653,-1393.6056422466506,498.3866227423912,1122.9106698030248
785,15.700000000000001,-1819.7326908427817,-491.69216468562234,-831.5373369310187,-1425.694900907884,484.85543065615104,966.9226771698088
786,15.72,-1798.2105768346735,-690.1236045707244,-1152.1208957760173,-1434.204618830647,566.0212401985289,814.6148922175739
787,15.74,-1554.5037707438653,-834.770389787886,-1444.6616741383064,-1465.4028060048206,847.9423410047559,742.0211255920058
788,15.76,-1105.7973075162174,-883.8463547760351,-1649.0088644534749,-1621.1644299756354,1405.4137420447985,805.6471550881242
789,15.780000000000001,-518.7552556920841,-786.4393569786452,-1668.7369614078148,-1960.4407236373893,2177.964923196908,1076.4465448381816
790,15.8,140.2154757910789,-503.9205477986512,-1353.4866688976822,-2424.910671747661,2939.736165978745,1610.9467315797099
791,15.82,829.5863092949305,-68.74336251457822,-575.1188345897696,-2844.255304234871,3405.2004709043413,2280.5012615352357
792,15.84,1522.8047076027715,380.5621309474775,632.8502599766068,-2994.71850467516,3407.3697088315384,2609.111648810647
793,15.860000000000001,2170.883731583368,649.2899634455255,1982.8490328723324,-2677.894771876796,2972.698663231104,1948.2075789565147
794,15.88,2655.9871251869827,606.5791757602914,2992.117757867941,-1820.524418645562,2181.4853656137816,46.44805244289523
795,15.9,2788.583718134077,292.2523381266835,3203.8717073882444,-558.9993395486256,976.4820176925779,-2504.542962599905
796,15.92,2399.409380688596,-75.64522427799858,2461.537213861501,799.5346787974405,-756.0438064772272,-4545.78370778276
797,15.94,1486.0542911870634,-221.78580923965768,1053.15918561164,1982.3239343795033,-2813.707461887004,-5201.888952990868
798,15.96,285.20595909432126,-3.3653082707630517,-409.92484499139704,2951.320402324739,-4482.481675203622,-4488.553768566957
799,15.98,-815.7530267455302,464.87874686489357,-1327.888448884715,3853.5260190544927,-4925.062165550181,-3122.2810763359143
800,16.0,-1477.934542454214,866.6286538552008,-1421.564236331576,4745.836519728129,-3872.506076546295,-1804.422023927326
801,16.02,-1574.9166433269106,904.3556523621185,-804.3256100599617,5421.040196934033,-1895.5159843502472,-718.2498962892525
802,16.04,-1199.7235023965952,523.6998605117124,171.34339919668378,5551.723933925818,38.9537434096319,316.79848421849255
803,16.06,-537.7429792870084,-37.46339415098794,1124.180877830465,4988.038551296213,1247.178854280864,1337.8520730295672
804,16.080000000000002,243.24991464883485,-423.0686408634945,1784.0821657835095,3899.7425893987925,1601.9043425246568,2061.3835440569765
805,16.1,997.6405511317134,-418.13564741546975,2037.2955556648803,2657.7029649092938,1313.970960516779,2214.102135097487
806,16.12,1577.6167173282602,-78.87385423248868,1901.280902897558,1600.6767325964115,632.7827973515572,1855.8307662976317
807,16.14,1869.649336624334,352.18089897454985,1471.6132531706119,890.1875260466728,-240.09754425124166,1290.38485827814
808,16.16,1854.7632463028115,631.879701019323,880.5176680851367,528.067042221649,-1112.6582293117044,777.481306259507
809,16.18,1612.2392386024844,641.918324456652,270.8362446431127,449.18931028384793,-1812.6462312945248,404.0380937995081
810,16.2,1263.30574410682,402.29633639796066,-232.10439772204708,567.0974856515631,-2242.863515587615,139.13661748598398
811,16.22,908.334101529783,16.156228111024582,-547.9301664085365,760.7795736329484,-2398.3370260755046,-77.34986630006264
812,16.240000000000002,599.1422012083408,-397.229378366304,-652.714778214958,883.5506354548187,-2333.044903142264,-280.9748664982458
813,16.26,349.77916593226064,-744.358657454216,-576.6625381466401,823.8966059492329,-2113.9816145258314,-471.29802078105627
814,16.28,157.92406171292123,-965.1431849968757,-396.2181803418889,553.7000140054038,-1787.7021761566518,-636.7450273883453
815,16.3,13.172448904933562,-1025.5114366221842,-212.77741804372286,115.48315207664777,-1372.9064858761162,-775.5183530902859
816,16.32,-100.25533455493073,-916.09204103651,-110.7141586895366,-415.18462050536596,-883.0869949118811,-881.9260597272399
817,16.34,-194.80630108962885,-656.4457174630975,-116.1383672934564,-947.1904216658322,-355.6930586959998,-925.8516645555294
818,16.36,-278.7028433620838,-295.44453029630927,-193.49765054734894,-1387.796666539499,146.59743946146529,-864.5912535309521
819,16.38,-369.46183523682646,93.12359789294587,-286.64337097016147,-1675.7202847149879,562.7014248113793,-680.5223000884047
820,16.4,-494.0951820537582,420.18797041600516,-364.3909929939158,-1802.3770008132378,852.7848194491219,-407.65563974551674
821,16.42,-661.7274996779015,605.02279035442,-429.014047270194,-1791.730803511326,995.3515077794882,-122.58305682745386
822,16.44,-844.5723123045358,613.2341743011525,-492.9629776539126,-1671.0636124270627,988.2582214779081,95.53744833221893
823,16.46,-999.4437652223555,483.77168032688826,-558.8363902626184,-1472.280255191176,868.3965462042397,208.15452917555643
824,16.48,-1105.1719387373785,312.93916292318283,-617.023853388157,-1245.256255626194,717.5788409810943,232.64590034408906
825,16.5,-1173.9516497120987,196.06368674657637,-650.001890070562,-1048.8648035220149,624.3135681406228,222.59386992169993
826,16.52,-1234.5998221882285,168.64976789854794,-637.9245805658591,-928.4665331125195,626.4595124205732,234.73886701026782
827,16.54,-1312.186080178837,193.22749569353442,-570.3891178247688,-904.6954728355033,689.9633917623123,305.07270248790564
828,16.56,-1414.5766036499217,199.69772622995117,-459.92935557621865,-970.4347275380405,745.049798455148,436.3589664045205
829,16.580000000000002,-1523.1242233225798,141.72935144429576,-342.8500083315716,-1084.3020531799204,742.9212477759233,595.6883731956273
830,16.6,-1594.4575439664272,21.88698800468597,-263.46114969117014,-1175.3500720560332,679.5723072694863,731.6860076808296
831,16.62,-1585.759229490156,-127.64833307541349,-257.55481775916616,-1181.7880664703125,579.3406188170416,808.8591197799417
832,16.64,-1491.6224635224241,-280.22805528994184,-350.2478030299508,-1105.9327008349858,477.49248907980393,829.0943655041624
833,16.66,-1352.6819784310583,-429.3411154098087,-557.1963933206305,-1027.9381205873642,424.2303802211442,819.5936569617136
834,16.68,-1214.5413981633205,-572.6575486579316,-867.6549855999523,-1051.6257294012687,488.5643676468079,809.5458648836743
835,16.7,-1071.2102647037514,-685.9859833364467,-1218.2067623817456,-1231.4578214677672,741.127688940398,828.9735832260424
836,16.72,-850.2081442441379,-716.8306477184201,-1490.5080492075936,-1546.241534717485,1221.4034600936857,927.1636757049105
837,16.740000000000002,-456.2439392922334,-609.250067457987,-1540.8149015893111,-1921.6932612760427,1896.8780547058873,1179.1544580920122
838,16.76,161.59815504209388,-343.2678850833091,-1236.3560572526985,-2256.1512273291787,2627.65642290653,1651.0674530879419
839,16.78,964.6368514934518,38.88229232847458,-492.79773792629305,-2430.47625009199,3187.7363213668204,2301.820037907262
840,16.8,1824.4687168132937,435.01078380326953,660.328466412381,-2330.591129483445,3379.359605668906,2844.8058332044084
841,16.82,2563.328206835356,715.3480927864285,1993.791379221559,-1910.0376324239667,3155.318375520749,2725.7950511860236
842,16.84,3006.495004713366,779.6607519946788,3062.8890927989523,-1261.9803134279123,2591.708829344327,1417.4404097571523
843,16.86,3015.68976762942,615.2162107760928,3366.759301760223,-602.7361782043578,1707.9094199114695,-1058.1204746080844
844,16.88,2508.0283248736378,311.1239701736203,2657.819258927845,-101.10109623411714,374.68646399301196,-3872.9049803240628
845,16.9,1502.5189345928711,8.574449251808403,1184.229239248946,330.0698367007252,-1481.5342358550915,-5812.635577580386
846,16.92,195.66862765104716,-173.29762327101454,-389.0342050705794,1020.6523280898414,-3548.817415922822,-6116.839553995398
847,16.94,-1034.475462579148,-183.99612602248143,-1382.1492158531385,2219.8038945998087,-5110.580356643187,-4978.650165301332
848,16.96,-1792.791141052734,-57.24712035424158,-1500.613276505036,3751.5253973777444,-5492.8806562361715,-3238.1831108453625
849,16.98,-1904.4946734538298,98.5986365011617,-912.9209260243126,5033.070216604589,-4578.300577785926,-1622.2279994710836
850,17.0,-1485.9581952885956,164.09655189986984,-28.51635987856568,5471.611243013505,-2876.3514811690175,-315.4377260607984
851,17.02,-782.3306802025088,109.4818009873485,764.4618289206553,4869.23484482851,-1133.5528147901189,820.7626447280859
852,17.04,13.012616964259625,24.336766380419476,1237.8044568184991,3510.3236809868463,93.8506283266583,1831.8112724529835
853,17.06,775.93144736303,21.522577151562814,1345.6630340958698,1944.382505471739,594.1290777139512,2569.9656938238695
854,17.080000000000002,1389.917795934109,124.92655303759868,1174.1524872612256,685.0069864036269,435.44945467688143,2857.112371247569
855,17.1,1754.4141291928058,268.7826909412021,856.4579066462718,-2.015898801896981,-135.54036558465464,2603.6704539185603
856,17.12,1843.845204161764,381.92621408757543,509.4754352403547,-152.8636057859593,-773.6035908604678,1841.5505745672012
857,17.14,1716.900653900051,444.35483584519443,216.49910270531788,0.654443624435963,-1140.640484742164,762.904353424161
858,17.16,1464.4196602308557,473.1448967064555,25.63784180346819,213.08167836024606,-1048.485006650469,-297.832394076363
859,17.18,1157.5563199879289,475.62748918090114,-57.99301365190154,347.4673285804697,-560.2246905822474,-1011.3458171244645
860,17.2,835.1966203410566,419.7805975706974,-71.7398392117762,382.09119602707034,43.39754530798311,-1227.5609876189276
861,17.22,521.9541127092236,254.00149594285034,-77.1080110550023,357.36169470002136,433.83437644722665,-1031.1596651657724
862,17.240000000000002,243.1442829607884,-31.39175587048647,-135.38494904807976,322.7479701676898,430.5374177719728,-659.1991989003527
863,17.26,14.201105093562063,-362.918904956612,-281.7478021836349,293.97016602834384,90.4172931402388,-356.57514450409354
864,17.28,-177.00589294063957,-619.6847117769337,-497.2799561662905,232.1638428912641,-355.34927495861507,-252.77207857155818
865,17.3,-359.9263722291744,-717.8666226861562,-702.4245463194198,73.31243668580989,-652.9853017229866,-321.97548244886707
866,17.32,-547.1019786428889,-658.7256513575801,-798.2116765019762,-206.4037026483667,-659.4437552317503,-439.6359879470814
867,17.34,-717.032131665365,-503.7062695011418,-730.6736078454978,-555.4682370361439,-389.7078358288948,-479.21410182799013
868,17.36,-833.4521237322718,-320.486412841334,-519.9396480485967,-878.0469771656703,22.720758644511523,-374.5610041831417
869,17.38,-876.3884919323937,-152.9061351526478,-238.55091605188147,-1093.9607433026904,410.99291721577526,-129.60080675069116
870,17.400000000000002,-855.7623960005421,-20.437671305438823,23.61012505577962,-1174.9674803658947,657.6014437031898,195.44851584671747
871,17.42,-804.9975039670738,73.16050072822412,184.4182071364784,-1145.0825754010234,738.2021308903717,507.69789755460954
872,17.44,-765.0058918140165,131.12169887029324,196.41228369009926,-1058.2809393863247,709.4329473835717,723.5833920798327
873,17.46,-763.7153991412903,154.1519182593908,73.51808541404439,-965.6790407323665,652.7667878123774,815.5331999921618
874,17.48,-800.9204114981786,134.97609731295367,-114.95716824581139,-890.5757493142655,617.830424437064,823.9257132098651
875,17.5,-856.6309261071049,64.33189982174464,-296.53027019004696,-834.5148672416606,608.4960550232771,817.4166448983582
876,17.52,-919.735162464706,-54.17395909924483,-453.4579736473204,-806.9416728317252,610.1713832803919,834.4982584600037
877,17.54,-1000.4537093817286,-194.8540863463033,-627.1622103724123,-835.6908160950003,617.1278442335001,859.5275428330647
878,17.56,-1104.6146343041576,-319.8008696380955,-858.0720833936485,-939.2192851414445,634.4383807701627,853.942598683169
879,17.580000000000002,-1201.0663576470354,-402.98231206257867,-1122.0070059746959,-1099.5738635223204,671.4205817081381,806.8019963331716
880,17.6,-1224.7849946580209,-445.01450718878027,-1337.2757691364222,-1277.3320495545915,750.8070766984813,748.5677810252953
881,17.62,-1110.7441823262714,-460.3711981297233,-1438.200246783831,-1450.2823652851007,924.8362282274188,720.6324245072519
882,17.64,-822.1272624212986,-447.749993233277,-1426.3651370375876,-1623.7516601289417,1261.3510853770408,756.1824176724365
883,17.66,-359.0223202256602,-376.19305278620004,-1332.163313404348,-1794.0494290143415,1779.1216296230418,911.8855886253393
884,17.68,237.60600842781378,-209.00080827993435,-1127.9464038663682,-1905.216217592243,2371.1672958500462,1292.6977309457639
885,17.7,882.4539106323529,48.8667890764177,-701.7070075725778,-1864.0839892916856,2802.390073718696,1954.9739750877293
886,17.72,1464.7451578928708,322.4631228248513,52.69307267314622,-1640.800282277294,2828.046204732067,2682.551398835797
887,17.740000000000002,1894.5812195850604,490.5246421458652,1090.8199138575842,-1388.7997479596797,2355.6762351326324,2869.189116682859
888,17.76,2126.2414263510263,456.33322206398475,2143.961517206101,-1420.5193866229379,1494.4610811729733,1816.824710077557
889,17.78,2115.2484452339063,226.97202174566996,2799.2427919564752,-1918.8505260377801,430.93062674790747,-610.0612348408595
890,17.8,1776.754079779489,-55.68840968221292,2717.3216895510773,-2570.1903213916216,-725.9317579465513,-3576.876492387597
891,17.82,1057.9673115702535,-178.9736466438632,1871.3991846812937,-2592.8078756119094,-1929.5056169885156,-5682.097007756173
892,17.84,80.42294489090975,0.6650134680700148,625.2664270317746,-1343.9486738226533,-3032.85219307136,-5936.165757045184
893,17.86,-843.7948916491071,444.99338161598524,-464.669869579883,1036.8527246623833,-3738.42924012583,-4434.115219380446
894,17.88,-1392.3669325312633,945.2745023951852,-999.3690958729463,3646.9660898405646,-3802.1464615771547,-2155.791076896167
895,17.900000000000002,-1432.726218254118,1247.7083632983722,-940.7742207516134,5471.525677711963,-3276.294385946358,-183.48302267151405
896,17.92,-1057.338126051604,1198.3501479615925,-519.573037590383,6015.214568761053,-2487.936869366089,947.0481633756096
897,17.94,-477.2107191083418,816.5795604986785,-2.8595220540504585,5456.81006756291,-1769.26947981466,1333.938621190191
898,17.96,100.40997430109873,264.6085620994038,447.9760515852879,4382.032087789021,-1238.064256534768,1354.0948872844237
899,17.98,549.4304560952932,-250.99474877280795,778.4547719272684,3374.0595164920846,-821.2733893540674,1277.7736681465485
900,18.0,847.2080753129519,-573.8444061563893,990.1824052705351,2709.068152273675,-420.33779126176955,1147.6384674877436
901,18.02,1033.2937812836844,-641.8744478473483,1105.5605148392829,2315.180355334183,-10.106344307472302,903.0473310638845
902,18.04,1138.3146039470928,-485.674162955498,1152.008767849085,1980.601653429319,387.45245473860894,541.5413462752374
903,18.06,1155.559272919258,-203.7279073749364,1149.6036977285012,1586.918497746999,751.5150572594442,160.11017184558096
904,18.080000000000002,1074.0731824740292,72.72140142515666,1098.1594139003605,1152.1083252982107,1051.2900535577317,-121.76104426414602
905,18.1,915.8514108091092,216.84773788735902,976.2933702983904,723.6868820975257,1215.9925777606709,-254.02953956836592
906,18.12,732.1910885159012,141.7502145091968,760.8694169326266,315.95362208693314,1157.7320479795792,-277.85964353469626
907,18.14,573.4056437467899,-162.24061669951323,449.4035451637393,-55.1506100964427,839.8734144500838,-279.3089544572882
908,18.16,458.70444351627066,-601.3441342003491,61.27242240394641,-351.17578661932697,322.7890755191968,-333.6699209028063
909,18.18,357.5214159851504,-1000.3837569414281,-375.00098093672307,-556.647284052295,-253.4021975264373,-477.1064963855041
910,18.2,199.98822379812847,-1186.467832252993,-821.818041425598,-713.2769030974962,-728.5021270100933,-698.80050587368
911,18.22,-70.12049126436443,-1082.278235764602,-1219.929010515842,-881.9727345398655,-980.0585349503984,-946.1496325249857
912,18.240000000000002,-433.6437398734056,-735.0762240236006,-1490.4650900005654,-1077.7820763914829,-956.0538805758047,-1146.7213360202236
913,18.26,-788.267710222405,-268.01018864633926,-1563.3785699849955,-1255.2702121584987,-684.586538288057,-1235.6165188951422
914,18.28,-1011.0643299437716,190.36437765351846,-1413.2470404119929,-1354.112185447437,-265.57521651695527,-1172.3005657594244
915,18.3,-1038.293712413082,545.1421631728491,-1078.8777384483,-1347.7429872092753,157.8254865571384,-953.5058587004532
916,18.32,-900.1729743382837,742.7724214162477,-656.9696721812354,-1251.5034972710646,448.1531573384151,-627.4750336223151
917,18.34,-694.891040622594,773.5278823810731,-269.98028899784117,-1103.4059362151283,529.7271116490514,-286.4599774568389
918,18.36,-528.32151004153,674.8225126706961,-17.908124369278482,-945.0567750447922,424.5642370353877,-23.160017709461655
919,18.38,-458.26181107991744,520.2726206105901,63.339085367764085,-804.4726021998401,239.2404966695183,119.06133013417302
920,18.400000000000002,-475.1136584449355,384.9920103040531,13.950796026238496,-681.9210981348606,98.6873038601498,164.26157358545657
921,18.42,-527.7977696052765,300.8512128675634,-74.2422628801776,-558.2286761681257,66.0250415655137,186.21063192744325
922,18.44,-571.6291506932587,236.6643269902985,-110.47891627396461,-426.4359161637525,109.046743747796,267.2039142615289
923,18.46,-600.9142904622302,130.41377278496304,-64.42104459221056,-312.71647321164517,141.47750600668235,444.3818257296775
924,18.48,-645.9621041933349,-47.63343029568476,9.541699901888045,-262.2103119531822,101.82298888914154,677.2213905102203
925,18.5,-741.5212480801922,-262.53871949375383,17.50735676569414,-303.6109321282907,-0.6627424990959554,879.9982919263796
926,18.52,-890.923557485901,-446.4664500038666,-89.5570285935087,-420.7198170303277,-104.95009737060164,1000.2087462454031
927,18.54,-1054.6006480402666,-558.0078975036862,-277.3951386497897,-554.4808766175425,-147.30187880504474,1057.8742418588001
928,18.56,-1175.450565398363,-607.4551494823228,-474.37796015547724,-646.9072298767826,-87.57355225358896,1106.3080089836444
929,18.580000000000002,-1216.8863050977475,-629.7493712812591,-641.3740021771478,-698.9623997624939,101.86466990875603,1175.5204618554244
930,18.6,-1171.4586450800782,-639.6478757850849,-788.5440951241476,-781.702522960476,460.6187536914546,1264.1392869740985
931,18.62,-1032.0646971121198,-612.7678718240588,-934.696510270942,-980.4587257096266,1043.4988810148375,1368.9168650796905
932,18.64,-768.2406302908671,-504.7412592157778,-1054.8741924644016,-1324.8581483080688,1877.6732260601061,1512.595190126271
933,18.66,-347.7827767221779,-287.6678579807089,-1054.46194450143,-1759.8236587347612,2885.451278697782,1751.6019547982407
934,18.68,216.4425361903514,21.854475477130944,-799.1758232988816,-2156.160189498764,3840.141185331934,2131.2580112864916
935,18.7,853.4482285994166,353.16549861092443,-214.49523204995967,-2346.0906390803166,4429.333144141243,2558.165783567848
936,18.72,1470.7868272626674,591.8042967950973,599.7430318460866,-2200.5199098681323,4403.187282158964,2686.212887441503
937,18.740000000000002,1989.0616312567538,618.1852544169628,1354.073266045069,-1728.2302358357952,3674.427947056567,2039.3230294636624
938,18.76,2330.4254382087993,381.28120089945656,1711.8929152622377,-1085.4628324660096,2283.467403731637,424.6099401405078
939,18.78,2388.1129186810213,-27.94605990906853,1501.7230326739677,-432.6466104457543,331.028391065047,-1723.3495331474815
940,18.8,2039.0797938534488,-387.1803570512597,829.8410360019823,217.1276549705941,-1960.7687858153824,-3520.7302006784203
941,18.82,1226.2930825656588,-481.0455094936466,4.550097090668714,958.2364452035858,-4120.066823188492,-4262.574107339073
942,18.84,66.60194664998534,-272.03589298385106,-652.9163692148358,1803.9036102125895,-5497.781555222402,-3893.8169034873963
943,18.86,-1117.9613459265297,65.4368971318336,-957.4296284526231,2587.911273469992,-5629.045469511309,-2902.985148477601
944,18.88,-1924.541679626762,295.71838699677966,-886.4862506731296,3071.5625177843694,-4577.829246151174,-1851.855855525525
945,18.900000000000002,-2093.2552425237636,314.1107547988488,-520.7716018275598,3137.8000805191705,-2901.1147893787656,-1032.1080293727239
946,18.92,-1651.570292996181,205.94532330037993,19.51637187988626,2881.715618925368,-1265.2926515820727,-471.9878719210459
947,18.94,-859.9940830743195,143.08418902440758,603.7984354956615,2510.5308941945586,-91.50975551349205,-130.71527701448414
948,18.96,-26.257671174087164,231.20830690639423,1107.1221277240484,2159.481795819645,505.53784813218067,-4.096744626278436
949,18.98,652.6831138688158,437.1543810709052,1440.4413808071822,1830.322324020807,576.3277880317147,-63.61779255198233
950,19.0,1129.6353079199382,638.3160728792386,1578.8377396816009,1499.8393332914407,230.05073286168567,-188.17112429480167
951,19.02,1443.5563320808608,732.2221434558071,1555.5655688185657,1215.6931354261267,-359.51953769771546,-225.3389422398267
952,19.04,1629.2345386423149,704.8573712373005,1430.944198866881,1038.8045991602862,-941.8565959330392,-108.30289381981086
953,19.06,1676.9843987594575,613.2700335073841,1270.6737809953754,932.4581428432134,-1259.9794348199805,117.71155578104423
954,19.080000000000002,1561.956424403651,524.4757049458594,1136.2758423685327,766.9444323357313,-1164.0619797050833,368.62515493041565
955,19.1,1294.751270356635,470.3759977857246,1064.7599811666303,440.98461743016935,-681.4959740999382,592.732097085714
956,19.12,940.9245172506932,435.2387948306795,1040.252389119009,-16.28553248717385,-6.302697849143463,774.9475921043982
957,19.14,600.3416681217576,365.9794853611427,988.331031255214,-460.0268974953963,580.0443500595005,894.2644444001296
958,19.16,361.3300557249331,199.9251863190197,810.194111939717,-736.1176701998091,827.7059760646741,893.3920853403208
959,19.18,254.18276787265864,-97.12545083948088,441.0733287621004,-781.377321449266,632.8509033416085,700.9480300870415
960,19.2,239.4373046195255,-499.9327429037349,-99.62228982506286,-644.1622806391315,90.07026742438633,293.8041821078653
961,19.22,243.4984450284994,-917.6506229190796,-694.9433326828498,-433.62438760489954,-550.9913145965244,-253.03105904614912
962,19.240000000000002,208.3809604185423,-1221.6907624310372,-1170.296168002035,-255.92833120518878,-1004.7558963959746,-775.4594424841803
963,19.26,116.83191244316541,-1300.633875152822,-1382.0754899242834,-174.76872384597127,-1082.2265776784166,-1096.39326673271
964,19.28,-14.043397861221495,-1113.8710427736355,-1306.828535996172,-199.81499222909287,-768.4204561411407,-1125.691286158948
