Frame,Time,RightHand_Accel_X,RightHand_Accel_Y,RightHand_Accel_Z,LeftHand_Accel_X,LeftHand_Accel_Y,LeftHand_Accel_Z
0,0.0,-118763.35044580832,105310.49004842434,32668.37301461365,115586.81827340613,108966.82302699875,-11913.504836555807
1,0.02,-102886.01237845945,91199.02128954689,28322.354213594925,99971.08751941906,94313.21390263698,-10259.321122812082
2,0.04,-76585.29097275202,67842.0224825126,21114.476778669035,74152.97255001987,70064.79396960532,-7518.913088326874
3,0.06,-48331.501706235686,42779.55238019643,13356.908486426466,46502.49548803894,44060.72513966404,-4576.719398192508
4,0.08,-25479.973055223345,22535.28938953005,7068.799999903813,24236.96798315224,23083.782070622183,-2205.6951889769307
5,0.1,-11074.12962067943,9785.750147537367,3099.2864778658577,10293.982845138271,9915.29083477056,-733.4759723548029
6,0.12,-3930.121985275613,3461.0769700385913,1139.4407960044102,3465.2287646110353,3436.31487200036,-46.523155992276116
7,0.14,-1136.5394500077261,977.9649395576236,396.6085550571385,878.9457575201466,948.7818983154694,155.35079112577654
8,0.16,-270.6204222907239,198.40779436298985,199.14496248589768,162.9501618704159,217.4738453393693,131.4771740709747
9,0.18,-48.95409008727869,-7.876856038343313,179.9223316570148,61.452778160513446,61.686752394691155,31.059343218566163
10,0.2,10.376944915106781,-67.42782014956379,192.46676469288622,101.3293548783382,40.5159414131506,-77.33030590438091
11,0.22,41.69063805659594,-99.15350328025254,193.31693404085297,157.5161736669309,35.75752573546747,-165.08845337023757
12,0.24,75.37031998377068,-125.55380715735598,175.33060743760404,214.46791297321602,26.824124488098903,-222.57186893876758
13,0.26,114.49011054992027,-143.97468040599813,141.30871526679306,276.8692495834259,16.728031471206073,-251.81575716742458
14,0.28,151.1935703515506,-146.62640412407626,95.93430033926768,343.05887318637974,14.585058415691133,-261.4326401401411
15,0.3,177.44001274989142,-130.17916796454801,44.89847989015726,401.38681213821894,26.072635536507946,-259.5189808426807
16,0.32,192.2114770108686,-98.03939542882874,-4.747391296138329,439.4250189373959,48.51184373576421,-249.19582178352096
17,0.34,202.1686915401806,-58.670285131868866,-48.05291933663621,452.2065164501816,72.56527654220866,-230.86465143553022
18,0.36,215.8132456775229,-21.94135415983338,-85.8462205111338,443.56485409502966,89.67538809434106,-207.78033353851617
19,0.38,237.36747623217866,3.5796077254685965,-122.65919591099026,421.2832395574468,96.6731480327525,-187.21043923275417
20,0.4,264.302750591051,11.290609107208024,-159.75519079545245,390.5575838182915,92.73330044487913,-175.36444059918645
21,0.42,287.42124419628857,-3.2962200056587907,-189.9810052538171,349.22064279469726,73.84891239036423,-171.83075259652534
22,0.44,291.86366297313907,-40.41489841604227,-200.08976614086345,286.81139666366903,33.182173573596266,-169.23420285083083
23,0.46,261.69838985931847,-91.45486999653876,-181.72239966833936,191.17234340789437,-30.84178460442881,-157.8659065645665
24,0.48,191.4780779304525,-135.76051586093845,-144.73095323343517,63.503554092695424,-105.48507020953048,-129.73369485271192
25,0.5,98.172392328397,-144.93233450164763,-118.53272275804065,-69.66567384061742,-163.57933211531915,-78.06395972642889
26,0.52,17.15398787441521,-96.18370627095534,-132.67447125838075,-165.88360785134918,-176.5449737430699,3.150112037739971
27,0.54,-22.78903351698669,12.403897092709503,-189.79416481506422,-198.3697983682846,-133.41385222815563,112.2545080003458
28,0.56,-24.357012919406934,155.49394899171682,-257.7879986276605,-182.78700633939394,-51.16322450131486,230.30929449442607
29,0.58,-20.625280576069905,289.04488741731745,-291.8736743656891,-170.1901101282707,33.69538409862653,322.9915375252707
30,0.6,-49.446748521729134,371.3287008897189,-267.22001120967246,-209.24069551807784,87.20747635298754,357.73968864172
31,0.62,-128.32795616095288,384.7580368181923,-193.18145085347163,-311.12862644596447,96.38537904078055,322.7285027536471
32,0.64,-246.58976134591836,342.8161782959603,-100.83849999671048,-445.0907790950246,70.60709383116607,232.84540698197884
33,0.66,-371.7151057239987,276.5945539564061,-21.000472170475703,-561.9324201012564,29.349372238284705,120.18069913738512
34,0.68,-461.8831470982889,213.44181742655942,28.052509259668838,-623.1490903824415,-10.302235817721359,17.482876498067263
35,0.7000000000000001,-481.5670135071798,164.98057504349492,40.891243115467816,-617.1985382958029,-38.74825855936091,-54.82573120196208
36,0.72,-416.06308692855487,128.92597199348629,22.111588837341667,-558.2654849637617,-53.75885092797638,-92.83932941486592
37,0.74,-277.3058160412604,97.14515250532284,-15.080390437902993,-473.296004872446,-58.683092452623725,-106.35442273533332
38,0.76,-97.7001152120597,62.61417179603559,-51.3446101207987,-387.47411005045325,-59.34316177441706,-112.86133572596785
39,0.78,83.11731605985136,23.076927392642077,-67.22657436589452,-316.20712372373987,-60.25177491450863,-129.5879249930381
40,0.8,231.38301735685576,-18.460331217971152,-50.94710500760202,-264.6199658664611,-62.532411727591416,-164.92161506217616
41,0.8200000000000001,327.59265994840115,-55.82663469129824,-3.5079662668857736,-230.27755438366978,-64.48672500166677,-214.19777234425845
42,0.84,368.072454230937,-83.22547946166094,62.31416176689369,-205.6764510039522,-63.2208221239826,-264.1447209723783
43,0.86,360.81731783678146,-98.63072927339294,128.72718455770027,-180.41037357053818,-55.91651564874394,-302.8414148460138
44,0.88,320.2198458461164,-105.35154223403956,181.30170789829145,-144.15025239846472,-41.00363406785937,-326.6690702744059
45,0.9,264.11992183542793,-110.52557672362182,213.95012724240138,-90.31160872215627,-19.468553340035534,-339.5828411465394
46,0.92,211.58221893840687,-121.18360927932316,228.19289872975006,-18.5270782162006,4.632058914084014,-347.9533944973402
47,0.9400000000000001,178.6130114666106,-140.74684883734426,228.65938869519306,65.9388960103787,25.22188799890548,-356.5652633454789
48,0.96,172.72429324347013,-168.0687201245604,219.24993532892287,155.17909725100276,36.43843994940738,-367.3410904923023
49,0.98,189.8922104881114,-197.79840391159178,202.90473553861375,241.3242508501795,35.24684477511258,-379.09493400812926
50,1.0,216.96475025099045,-220.48353893705706,183.84169119471056,317.733700557553,23.51056156689588,-387.7139547101356
51,1.02,239.9982738915682,-224.59009065913887,168.58201624064566,380.0392065796492,7.996196495731941,-387.87398138845435
52,1.04,254.07257774171237,-202.67409276913745,163.6654936700514,427.6353583483071,-2.69464199061324,-375.89637109200964
53,1.06,266.3270626888054,-157.28179713631658,171.6296883945659,464.1968841584913,-2.7860325102615278,-351.2134316220392
54,1.08,287.8539372330366,-99.14001200102417,188.72131188712072,496.53834103431404,7.658708052063869,-315.4116894227477
55,1.1,319.3585216699889,-38.54442861449728,206.35156670416788,531.8984453317913,22.823444728639203,-271.16261486980653
56,1.12,341.1801004239767,20.020481647749893,215.50262692223876,572.2778699868397,32.88589477456506,-222.70642903047616
57,1.1400000000000001,317.2510077454169,74.08064608994354,212.42710010566108,606.6139285291715,26.565507951732382,-175.22863814107012
58,1.16,214.8673079872065,115.77928856278467,204.40136424790694,608.2028949363299,-4.843264059231974,-130.37689504407808
59,1.18,29.332148517265157,130.89579883399583,212.63271582539616,545.8597224042301,-63.20768984965915,-81.54090543133076
60,1.2,-204.13588704002527,109.47946592261599,266.82784468922426,408.3908590522901,-140.90084768744816,-16.128882632738428
61,1.22,-420.18736953291636,62.608480058633276,387.6900092490616,227.55587512897483,-218.37116281224655,73.90735281917377
62,1.24,-551.6664799070604,26.074635551544777,562.5041339777877,72.90579998185478,-264.6433536938739,180.86447912904936
63,1.26,-567.148276849655,35.16837315215258,732.8141413532669,5.868771532552955,-251.0795859532979,279.48021999934633
64,1.28,-496.78118708550323,89.46641854010525,816.4085438119882,29.0534272027078,-175.18297303465178,339.3281340649182
65,1.3,-418.0365453918606,149.4361869421353,757.4858949088126,89.74991176747585,-68.3631641551006,344.6213199259482
66,1.32,-400.7629462042264,171.88968439724047,561.7188186652837,137.49253314081676,26.16799862263782,305.056194401517
67,1.34,-456.06500166414787,143.83369368040195,284.51545309836047,165.94801157235727,82.67981196767684,247.76620935823303
68,1.36,-535.9281923026853,83.1526661973445,-6.170614469635723,195.36955976859676,101.8106106575152,199.1906515619089
69,1.3800000000000001,-580.4039563020642,17.445555200007945,-253.15699190390353,231.59545003871742,99.72709989939193,173.78318956619756
70,1.4000000000000001,-564.1698871560587,-33.7913999822169,-415.43683873092044,254.73952336527248,93.98504944638655,174.95386197305044
71,1.42,-502.87175996961514,-65.14477122792714,-475.1515095132018,240.80783156919404,95.1119895766398,199.64471489420856
72,1.44,-425.56331234788183,-82.32146669761616,-446.95837380754915,184.37182953721828,104.91093188860556,239.31935672323704
73,1.46,-348.55786093131474,-93.43294634437335,-372.94499876324323,101.56197218852037,120.18659734652516,280.7742934632123
74,1.48,-272.56789990859136,-100.43342392245184,-300.02152902508897,17.216396196758247,137.53173628565816,311.5045640545097
75,1.5,-195.09054297822664,-98.19369449506794,-257.11526857847775,-49.85594666754993,154.5449808567123,325.7419984927226
76,1.52,-119.36548609801352,-81.37888288156367,-248.1897738772406,-93.29013162007064,168.28795375876405,324.6817349457077
77,1.54,-52.93155762022624,-51.195970733136676,-260.7748028392934,-115.60534767854583,175.18318987693314,311.76507839444616
78,1.56,-2.0096030400550493,-15.731477847879631,-279.1454615982707,-120.5226329341881,173.2658154735994,288.6981554386851
79,1.58,30.90458042007168,14.709343632809077,-293.0663383298019,-109.1595126930695,163.77964566109404,254.73570361738587
80,1.6,45.81013707883925,32.31035466352004,-299.93388918703675,-82.87244865292519,149.9560071405267,207.89538244797626
81,1.62,44.77482427256671,33.892534800019064,-302.90415509564997,-47.39631478071696,133.98149429730387,146.47167443550126
82,1.6400000000000001,34.83780672562518,20.73264243496283,-307.96454655336055,-11.262194918584129,114.87594979892783,70.07582785262038
83,1.6600000000000001,30.666974651168434,-3.108347150175687,-320.50567856116515,20.80790757116364,89.66315358165951,-19.5597859226051
84,1.68,50.0222809176167,-32.81627582925874,-340.4156710340905,50.943814905180915,57.96669363363205,-116.04640679943378
85,1.7,100.28146573800998,-63.61191056596286,-357.2322763057964,81.96900555549459,26.410263796708012,-203.14344783874571
86,1.72,165.33156098819543,-89.95138117664946,-351.39040057137726,107.62731788801771,7.239273230465116,-252.87469285545254
87,1.74,207.43469687535642,-105.11009658384384,-306.0288948524734,110.11595883755155,9.477208958833586,-236.93609146571094
88,1.76,189.52498173562003,-103.43573291351898,-222.7336028122126,69.5366551860906,28.904764854694115,-149.5214583263901
89,1.78,104.60818319006198,-84.78545012190227,-125.80353414400871,-19.482784793852243,47.00494887875773,-21.14854101051626
90,1.8,-12.392037169826935,-56.772925157390745,-47.61311800229087,-135.05361939217835,42.94963637011491,94.7327232133162
91,1.82,-103.87834713558027,-30.29059920995478,-6.078033904881821,-232.96610302772163,10.675525312551134,154.34523663924907
92,1.84,-126.31673524304111,-10.957806497287159,6.643038367669262,-273.3090256806688,-33.94923098027663,148.57719451506202
93,1.86,-75.07617890216487,4.062861315866401,15.044107111651918,-249.3998815942931,-64.13265482159171,102.95117555111534
94,1.8800000000000001,19.040303864920794,19.984478521321282,38.981669035712606,-191.22396350994,-62.614707861340435,57.396633796843325
95,1.9000000000000001,112.03758575447021,36.839081862000995,78.24567305381927,-140.91787993408283,-33.227299422869855,42.20904641467985
96,1.92,168.031814466483,49.08983728786717,115.13702267608801,-125.7260469261494,4.836242248118857,63.441139682961975
97,1.94,170.65840326590074,51.3909210194952,131.0949373288285,-148.49437753270567,31.395406930845894,103.30166145470596
98,1.96,126.85282507337139,43.43724904378735,122.34573929475513,-192.1234947748817,35.581670770817645,134.677176149309
99,1.98,63.27582444738408,29.752447550549416,101.87352554358996,-227.67520474983843,17.74150991437383,140.75459493334077
100,2.0,11.75068239447214,16.240841167515654,86.47622132925358,-226.0722754644401,-14.299199491987567,124.48565003849617
101,2.02,-11.424388815296371,7.75337796898762,80.07886604213431,-175.2973880171382,-50.6637086218267,100.1307622678172
102,2.04,-15.404824754445933,7.990230229200672,69.07803470931162,-92.95269322702192,-83.4333958771081,77.13795812202618
103,2.06,-22.013023454958336,18.983127036783305,35.637662314863775,-18.769657783737777,-107.62397977473941,53.66792921968022
104,2.08,-40.62135106881824,38.38206973066146,-22.920141933311957,12.159899626567338,-119.88047996998719,23.956886339422002
105,2.1,-56.048581804066224,58.01224848249794,-87.95536101217192,-7.20493715510889,-117.28316801062581,-12.214196430664224
106,2.12,-42.109674047706335,68.08863883317004,-133.68450030696442,-56.9638082059963,-98.27553813142517,-49.10806331408596
107,2.14,14.142175454733003,64.67225453956152,-148.53410717137896,-111.04950582678761,-65.35683835316021,-81.43458976653996
108,2.16,101.9162932755778,52.432615348445395,-143.22467815004106,-154.47175499453402,-26.500179280695114,-107.63959127415573
109,2.18,195.92196549625515,39.44435215744325,-138.62704428738238,-184.17748505652298,7.479664157350513,-126.51176416457457
110,2.2,271.31784138761725,30.055899820924125,-146.13215889094377,-201.32139773141373,28.41056848321538,-133.28605350722734
111,2.22,311.9549428288951,23.294628974386008,-158.68319319169194,-206.8273938414044,34.55841279642989,-121.37621107701642
112,2.24,312.56225786818754,16.640847057485267,-158.54240043003725,-201.39146529197427,29.722606626443863,-88.00911349456834
113,2.2600000000000002,279.30982361111694,9.314469309585057,-132.8577403908762,-184.98259977017094,19.217018330709166,-38.088670741199515
114,2.2800000000000002,227.79854654206252,2.0521285742274133,-83.55703900425051,-155.5280147097153,6.643251131704111,15.92288544492693
115,2.3000000000000003,176.0930696581476,-4.205537968526822,-24.96955933373988,-110.99772897887325,-6.494197359033131,56.93914245310409
116,2.32,135.83674208666304,-8.092618562966553,26.925283294091415,-55.15547405173969,-19.28414013758451,68.82417960023946
117,2.34,108.37846603542795,-7.1687735277389635,64.1856437252207,-0.19946972667503537,-29.9832196223551,44.582094171480236
118,2.36,89.17608429313867,0.858274538732803,88.88219119647697,39.5346365696263,-35.91808199070121,-7.207091067432061
119,2.38,75.83547449522757,15.47943648587475,108.25268332098348,58.54266448893466,-35.0400963470218,-64.61839061974098
120,2.4,71.50115465092347,32.024801385886136,129.3845821664898,64.40497425339196,-28.227770804295417,-104.30947192258876
121,2.42,79.99455016329125,43.311084161647685,158.0898537797257,70.11519199820759,-19.95305996942809,-114.8458992675328
122,2.44,97.17236112157612,43.4323864904397,199.2768665017001,82.53140159241664,-15.560574866829871,-101.23786297086406
123,2.46,106.81800668352554,31.26057125249753,252.69905304800062,99.10758798516449,-17.05218976093919,-78.29224834158519
124,2.48,86.31157408156653,11.271465209966292,305.4563722272318,115.1012329401216,-21.646173201297316,-59.38780602799737
125,2.5,19.737106735640104,-9.181404986832865,331.7790156449471,132.3151933577954,-24.462830385627548,-49.38860960093007
126,2.52,-90.79521699148442,-24.27203865162102,305.9653358435396,160.56913724605647,-21.949117357375012,-45.39761115066548
127,2.54,-224.5038633242826,-31.911493212307107,218.98307947850762,211.2689886334862,-12.648864284634916,-42.22312243794016
128,2.56,-351.9923752739876,-31.79577508148443,83.47158653924203,288.23855858102405,3.800308891457608,-36.57819849713412
129,2.58,-447.61600808869747,-22.360536786514132,-75.91301261786298,381.16044935626275,26.521427801246976,-27.318798670392876
130,2.6,-497.195919437546,-1.5883119172306586,-235.415935347091,465.10313720470583,51.75652966820752,-14.489932821880736
131,2.62,-501.0757230461236,28.478175106868328,-377.36714169899926,507.6601017869099,72.10992394312967,-0.5978762580537441
132,2.64,-473.5878422466583,59.58589235980773,-487.82050438770347,481.8428065369211,78.39817035996356,8.061336369320195
133,2.66,-435.9320382449317,81.27013237708982,-553.261166105818,378.60752342055093,63.59639960162126,5.542923700439426
134,2.68,-401.97009895304427,86.6948009028299,-560.5460822357932,211.85195991403143,27.14820173798489,-5.492011193286912
135,2.7,-366.49241772257074,74.10139483679527,-500.75152683321386,12.91553021534023,-22.635405685170703,-12.04792475784696
136,2.72,-308.1432160730278,44.601923977579276,-376.07499629883165,-181.93760372882895,-70.55281104582457,-1.0903419867615316
137,2.74,-206.57504508150362,1.3944481080567792,-205.55784442377484,-343.2499728473681,-101.46256939269026,29.434561278867847
138,2.7600000000000002,-59.49923781807062,-48.95284753184839,-22.575739909192755,-452.8653983923372,-108.7000171458661,73.21415462835304
139,2.7800000000000002,113.41499511372191,-96.80443401549769,137.55270302103696,-501.9432814817266,-97.84451877243143,127.42819377876802
140,2.8000000000000003,280.1141205040207,-132.4633374878522,251.26037418806828,-488.8030392212512,-82.32331818498965,196.01422676515472
141,2.82,410.6306851302301,-149.39013319415483,311.64534232836394,-419.54094398903044,-73.82972828923481,278.7563589879435
142,2.84,487.98562800723766,-145.76166802256745,324.04985358299837,-308.0313909731845,-75.06982711932181,360.45775797411807
143,2.86,511.23317920990553,-124.48190219328478,299.48081180495274,-172.90642266596183,-80.12837604863793,414.9859897375725
144,2.88,491.3817663817265,-92.12536605832884,251.14919371500045,-34.210495588726786,-80.67458130648126,421.67058548896796
145,2.9,444.69068452367543,-56.95432284117546,193.43570513263302,87.95322418900206,-71.83589481360686,378.45725706419023
146,2.92,387.0485112016621,-26.242149449602206,140.1029115607338,174.83170480221094,-53.92686039030209,300.76256358912343
147,2.94,329.9296356769979,-3.770630158986906,100.999487481248,212.8543783544053,-30.91553400145157,209.66643425782323
148,2.96,278.1551666024328,10.960635020937978,79.81345097364273,198.50766591330597,-7.99968742779504,121.16098032605797
149,2.98,230.7481653177107,20.980368561254714,74.80358707427042,140.87276530327796,10.403828008169379,43.14767852528135
150,3.0,184.31156677495187,28.96576130205276,81.2077329675616,59.77220919979838,21.805528408883056,-21.972319150083948
151,3.02,136.28224803800407,35.78962093356866,93.59282169751046,-20.286362838463578,26.02035517734924,-73.78456928124388
152,3.04,86.65047286815906,41.25057140877463,108.0901318052467,-78.31504526341226,25.107357499930927,-111.70719322193784
153,3.06,38.21677977265125,45.34507061579413,123.62618805835831,-104.00285290742752,22.50659043106821,-135.0126481301351
154,3.08,-4.947410739506494,48.476723052391065,140.02887204171014,-100.85805058388772,20.943077673843817,-145.12207106192668
155,3.1,-40.23882524675513,50.75312158649801,154.1582382530592,-83.75515060874062,20.443401296851256,-147.91754709947983
156,3.12,-67.70297919690731,51.45366515155228,159.12919479367193,-71.26876549781902,18.71922036733086,-152.45368086117418
157,3.14,-88.27402711489577,49.35236970184188,148.78431311303638,-75.88246888768388,13.89576732721976,-165.5846682674144
158,3.16,-101.70074552652119,43.75797975310063,122.7871271952513,-97.54601387659807,6.846243339767246,-186.86858013467003
159,3.18,-107.08485145344724,35.39214740453274,86.86551682909175,-125.01709298749338,0.9215995269547421,-208.72192551574233
160,3.2,-105.13072114029121,26.143616714929948,48.62637742581888,-144.07217100790803,-0.3365613502041791,-222.26449026186432
161,3.22,-99.0936248587287,17.77249281988042,13.417152120276203,-146.35964882551684,4.662311277624816,-224.2194718954187
162,3.24,-93.23395975377122,10.762588115121888,-17.00690648463879,-132.62646592907885,14.995056051486774,-218.9960356038303
163,3.2600000000000002,-90.21529967598298,4.301424314558112,-43.48015838252902,-109.06942668968497,28.087132694487632,-213.79710091939086
164,3.2800000000000002,-89.71053350515487,-2.775712736970185,-67.66176632438712,-80.65272107550553,40.892786333612094,-210.71550660673688
165,3.3000000000000003,-89.33429021289666,-10.858448855517564,-90.68401575822816,-46.64279086664003,50.5506861500491,-202.90632676786308
166,3.3200000000000003,-86.85191895134807,-18.89516363198812,-112.629258842365,-1.5683978715743354,54.66849623625528,-178.61057723561532
167,3.34,-81.47342012791555,-24.602095457856347,-132.51760412783585,58.87772934452675,51.84881509100339,-130.0418466076331
168,3.36,-73.45326352002672,-25.616752896804712,-148.43496336344663,131.16124984258715,42.41953401893978,-60.266787234614924
169,3.38,-63.34272017500097,-20.98790414784068,-157.9822079634425,201.9755321507884,28.571861875722654,16.84175166630954
170,3.4,-52.06214214992926,-11.978370220442109,-159.23361903078916,253.57354770767057,13.431252352411256,83.23703303800124
171,3.42,-41.121521376893504,-1.586427224478622,-151.67649708798814,273.101312628094,-0.3443658094716171,125.41025787915811
172,3.44,-32.01191930397767,6.896110448349837,-136.39481697181816,259.2506940086308,-11.384067721589059,139.96726347182667
173,3.46,-25.34219734446282,11.350551652334286,-115.51291355487008,221.73776434049438,-19.397102691711243,133.2911986868448
174,3.48,-20.856466178379584,11.444327981362072,-91.55077109080914,174.82195434378315,-24.39674280952009,116.4011080194703
175,3.5,-18.158080862687363,8.191287356253849,-67.1455844352001,130.29641162777284,-26.231053738568185,98.93559708906479
176,3.52,-17.125930459121076,3.075507378479185,-45.072562987891814,94.57605646765306,-24.904737794289943,85.7703910069806
177,3.54,-17.755027944316627,-2.4699171521471346,-28.103497909475493,69.8655858631152,-21.163743351811767,77.00054261500864
178,3.56,-19.887312944782913,-7.106916459844651,-18.223388080904225,56.00916597604497,-16.334355897975378,69.93362902652805
179,3.58,-23.07450228940853,-9.694131591188905,-15.459756780248949,50.68336913631119,-11.335759607464087,61.39582772369676
180,3.6,-26.554926621641336,-9.77524427546596,-17.483745331957806,48.74075036170694,-5.991847221882245,49.11524951832505
181,3.62,-29.464543961693806,-8.041398568136497,-20.806824400441155,42.83399954651796,0.5083232214361675,31.939462631662607
182,3.64,-31.24579244902187,-6.108425130419365,-22.802073798651413,26.18686452418104,8.578400858777844,9.80101572008384
183,3.66,-31.853636612304143,-5.570902914452644,-22.843760395971035,-3.7757628139361463,17.771665020154153,-15.715668908126815
184,3.68,-31.5986094283732,-7.048341308742521,-21.814095104038586,-43.50411926500085,27.09522348226001,-40.82024632997435
185,3.7,-30.947103160774994,-9.955098897633414,-20.812769256344893,-84.8330071396531,35.4247497783808,-60.31347231740399
186,3.72,-30.440615604541414,-13.061155662330346,-20.26908090214764,-118.90082682159564,41.60753515058853,-69.63555900448151
187,3.74,-30.55181311911361,-15.291526893263534,-19.864721864974637,-139.438713083702,44.4765999948923,-66.51435817242968
188,3.7600000000000002,-31.460388252300756,-16.143135851392724,-18.97869002630802,-143.58409279904782,43.06620497733371,-51.27349259312682
189,3.7800000000000002,-32.95254182760773,-15.537656816052426,-17.184603592505567,-131.29569546571884,37.03086063380625,-26.506311532843743
190,3.8000000000000003,-34.478364147275656,-13.461571339458391,-14.415598272161896,-105.28110243372089,27.054608183998283,3.2026392853188304
191,3.8200000000000003,-35.174958105862856,-9.889899749748059,-10.718714557117604,-71.3324314233893,14.912597571303902,31.999658287559654
192,3.84,-33.79682103180111,-5.090674446463112,-5.913603182128476,-37.3141684820456,2.973560613154418,54.48160513051987
193,3.86,-28.934098405618816,0.12711713928868407,0.39446626662709683,-10.216729844315099,-6.601833794126411,67.77766473407345
194,3.88,-19.89817207022282,4.666365888089195,8.271234074832712,6.819461051576588,-12.435786526887247,72.48906017157917
195,3.9,-7.731060658132909,7.733233805736363,16.810847792403447,14.996514602891175,-14.073283174237055,71.50959068816908
196,3.92,4.836851488375308,9.167731911280656,24.17308836133538,17.511949475758236,-11.927798721190028,67.47556338218429
197,3.94,14.741275759165827,9.262555690173022,28.478332519607285,16.591498974489127,-7.206189010829395,60.88828313422235
198,3.96,20.18819665174626,8.414900796598817,28.818346114924985,12.411361827533,-1.6238365818507445,50.292161368746825
199,3.98,21.38724828641101,6.944065030044796,25.611357205725497,4.421928266432223,3.201351741051377,34.0896518784819
200,4.0,20.158245229144885,5.008013181220914,20.191738388545446,-6.532609432607005,6.304822488547892,12.509079613211643
201,4.0200000000000005,18.806847121849806,2.5155553706767426,14.007936740429285,-17.446612799854663,7.4490501515964835,-11.64790537112442
202,4.04,18.846789487590257,-0.7923323387927929,8.00738689733916,-24.60757730988174,6.83153682429014,-33.93834068601227
203,4.0600000000000005,20.1650378565636,-4.919443846593468,2.651330299939396,-26.014541602506895,4.88387918281999,-50.06460882359613
204,4.08,21.195548451355464,-9.105890309445694,-1.6541720929003185,-22.423227632674976,2.2688809053011214,-57.20105636072394
205,4.1,20.190474334622166,-11.854476964833513,-4.506145573179242,-15.989219976151553,-0.26829905520003405,-54.4683611694248
206,4.12,16.707720777110772,-11.793790218552225,-6.173380441700229,-8.022559089865286,-2.350775852951836,-43.0851454646476
207,4.14,12.04012108853226,-8.760440122226624,-7.97430358522845,1.6835321869002713,-4.265031642430627,-26.322868812276802
208,4.16,8.224626353679078,-4.026317369121246,-11.112052904019148,13.368744998306054,-6.590239508272313,-8.660548169280556
209,4.18,6.580587882313161,0.6110908328072586,-14.828906389457492,25.652312324993495,-9.450189792142188,5.899274684267868
210,4.2,7.048744003435405,3.9878320173245765,-16.361524697423647,35.721326823104675,-12.22112992830716,15.1921404716157
211,4.22,8.699027750696912,5.991802947359024,-13.215925545742964,40.963577986748575,-13.958911968875693,19.008143632127936
212,4.24,10.654155723814506,7.163450897341642,-5.368733815988556,40.208477533351626,-13.992951631845273,18.39641695064929
213,4.26,12.482854595797235,8.086975522542605,4.625158968292334,33.77704052301817,-12.196671410890666,14.896019228550848
214,4.28,13.962072239727865,9.046484015404781,13.205193327755767,22.978719185765392,-8.974934761603414,9.860769036991003
215,4.3,14.852250816215246,9.98435364939519,17.6645356727118,9.765669571193575,-5.115646748128436,4.1044932771446625
216,4.32,15.004540411889078,10.619904602557813,17.344345233595742,-3.4482420582858047,-1.4914692592530958,-1.8394583859836402
217,4.34,14.426900590622894,10.633632602234716,13.634088649434036,-14.167776110289468,1.2972699608904545,-7.244095971811033
218,4.36,13.078906212282789,9.846488389868814,8.843588686738801,-20.50422150135672,3.0637383387581627,-11.19285937866231
219,4.38,10.73302592157484,8.297425161380342,4.742981814722337,-21.741293671976603,3.8434882350871318,-13.077608278740211
220,4.4,7.157753122646875,6.1748950469096116,1.649122260482185,-18.264986468442434,3.612654244745694,-12.980073249049028
221,4.42,2.391704724467707,3.695604667975007,-1.5157795640111718,-11.024704904467345,2.2597841605299385,-11.519884282551322
222,4.44,-3.160642675040024,1.0542694411018485,-6.1810518866425905,-1.2397953664393604,-0.14291914490518115,-9.408310858357622
223,4.46,-8.763388784046562,-1.5897404121039962,-12.573031951876706,9.439755563135048,-3.114943331611517,-7.096781907597668
224,4.48,-13.463212681431095,-4.181839968276246,-18.83589714839993,18.967930598899493,-5.947595491799365,-4.561971772426193
225,4.5,-16.430851290199655,-6.7732986155047055,-22.009128209638867,25.56766757494247,-8.146088632835655,-1.4152695328328557
226,4.5200000000000005,-17.42014299573715,-9.256870388200799,-20.380068183246287,28.406780775844183,-9.57993204326549,2.4161382004412815
227,4.54,-16.865416381668517,-11.039567714341022,-14.974155774560089,27.54800397334565,-10.151246540029682,6.155415420909227
228,4.5600000000000005,-15.470006734444983,-11.166813103794958,-8.693833633214167,23.470706615550004,-9.487164234749834,8.729467346755689
229,4.58,-13.726216953049128,-8.998758431164166,-4.107752863467658,16.83107338054831,-7.129613850306555,9.761769785548909
230,4.6000000000000005,-11.772222685831796,-4.863553230985625,-1.9574012051892282,8.44007213915174,-3.0149320745187085,9.602117059772867
231,4.62,-9.561822365624003,-0.07587803598252713,-1.306478539118638,-0.8182818231463214,2.247695436916443,8.43753010959865
232,4.64,-7.08474091354277,3.6941472265580293,-0.7571916221881076,-10.022690726789259,7.46876021301032,5.765767880011349
233,4.66,-4.406275643707913,5.224712966942279,0.3964519836641922,-18.12078404733201,11.263360994438948,0.9624319789706486
234,4.68,-1.5507328447830995,4.266238316760463,1.8765417060419756,-23.97427657521578,12.631501634562305,-5.648648095301539
235,4.7,1.4698037987010493,1.6040608639973044,3.0014925568893824,-26.767664689298535,11.477435428900293,-12.47964317002007
236,4.72,4.373623493158494,-1.3457123020090709,3.471165916487526,-26.551677411974993,8.670913227696593,-17.56275029426379
237,4.74,6.522708102826497,-3.22818907393984,3.6896976872633234,-24.267262969206797,5.55304770617245,-19.58881583324976
238,4.76,7.434573423519584,-3.336184916746901,4.522176729644044,-20.868543728141773,3.243384689417892,-18.036719984226686
239,4.78,7.433179410796775,-1.805508831458567,6.772002494604856,-16.297119276055497,2.162942245915285,-12.824571500298749
240,4.8,7.5560753631492465,0.5330761894818488,10.669983762658907,-9.644739984713405,1.9501651723610984,-4.486441219554665
241,4.82,8.642486504991695,2.529950548600499,15.669166409256526,-0.6142189831389242,1.7644444169266307,5.270327663166024
242,4.84,10.499891857812617,3.2911981995327553,20.747549969251928,9.282963269911557,0.8373663413744303,13.671598266100137
243,4.86,11.969352263470523,2.736034230494192,24.964273500196253,17.167668256340143,-1.0095514742855705,18.02089485857827
244,4.88,11.886535520546577,1.6801191832099194,27.70664134718127,20.49059611782263,-3.218969171656912,17.11745346889375
245,4.9,10.152066808096553,1.230558480486318,28.43640094726762,18.50797978710693,-4.901626138352984,11.880163724520163
246,4.92,7.875863880811759,1.9271347426600887,26.402319538424052,12.526808989780525,-5.5018018431811155,4.724594631069874
247,4.94,6.3340191300425595,3.393602672124719,20.949239749670856,5.0292467004362225,-5.086672658735926,-1.7223616824123342
248,4.96,5.787914550315053,4.771621058274572,12.363852070920615,-1.4957248893929171,-4.03551215589513,-5.512442659488778
249,4.98,5.4173550434398425,5.407158120552782,2.308025681694778,-5.3109147167290525,-2.646460479681975,-5.606857140855707
250,5.0,4.275372270590226,5.151383523405919,-6.887696329985493,-5.756689510890768,-1.1215917774838484,-2.0653505584983494
251,5.0200000000000005,2.101494313485273,4.2367151628283635,-13.462940279804387,-3.394327681415895,0.2845707871082579,3.7067506105975365
252,5.04,-0.6326529621657031,3.0431004443234095,-16.815219524137472,0.20108853152351325,1.2954904194916121,9.355594167334718
253,5.0600000000000005,-3.0744437060400283,1.8761289281746745,-17.279832595279274,3.270258138559389,1.7295732012308216,12.70426060185466
254,5.08,-4.365782015263587,0.7645864684455783,-15.807166804991388,4.906924580354117,1.5201223489293894,12.680303712523992
255,5.1000000000000005,-4.127183317158476,-0.534659161008864,-13.717430527491743,5.402122126228349,0.7385935370429225,9.450772396180518
256,5.12,-2.891664631504939,-2.2050584865214127,-12.154197096247133,5.569183863202088,-0.299205332893623,4.141097199137608
257,5.14,-1.8768595174141365,-4.031078098943778,-11.385753472466888,5.813656349220878,-1.0670175040638734,-1.464492603902797
258,5.16,-2.063639879705518,-5.489408733984371,-10.735604462377005,5.949592260706355,-1.1625614570517602,-5.478724271692425
259,5.18,-3.575359385083786,-6.190769592213659,-9.460965103270667,5.731617556867075,-0.6357758888491434,-6.819167538857536
260,5.2,-6.026337263162031,-6.146991821996901,-7.724915205962498,5.246292722897318,0.1147264156104848,-5.744064480023696
261,5.22,-9.150752438747523,-5.604052642236053,-6.484305317113049,4.826262920873178,0.7777251186109533,-3.414219926002189
262,5.24,-12.789360443507885,-4.731135005852208,-6.357588868477687,4.869250305302907,1.3786001602612155,-1.061104426595789
263,5.26,-16.445308110345813,-3.5311679675354304,-6.882170894882988,5.67690951449233,2.0984906469160105,0.2996546586734563
264,5.28,-19.199423679460445,-1.9820729600536564,-7.133265331128437,7.079041185693336,2.9306672034276713,-0.2071450681746576
265,5.3,-20.116757290014334,-0.19357651993677455,-6.9338211310858,8.11211066240562,3.5326322720611474,-2.873665211675059
266,5.32,-18.688553609729052,1.556740857634155,-7.1664156649314865,7.388414321317483,3.373488664184066,-6.662466730434858
267,5.34,-15.043865446071482,2.9030495431812384,-8.82083294685952,4.087059567966434,2.051611047518099,-9.45274858757013
268,5.36,-9.950422138542569,3.5259393847475353,-11.7840654915161,-1.2816727058764372,-0.4227724193976169,-9.513599629703744
269,5.38,-4.585870730695859,3.2749428494224118,-14.559661816772113,-6.878561131342726,-3.5615884111490796,-6.677508226240713
270,5.4,-0.060696537820133206,2.241749412186791,-15.17482209746614,-10.143733020715999,-6.584469596016259,-2.0106139793192925
271,5.42,3.053156818600595,0.791715024357551,-12.46683507465144,-8.835040772720099,-8.69931362234221,3.3328189759782134
272,5.44,4.7914438548814795,-0.47753799759635535,-6.757623371605327,-2.401645320635206,-9.302052943544126,8.620049322143442
273,5.46,5.507562279566926,-0.9494591032041428,0.3968003362561338,7.043431964292695,-8.100743192189068,13.07310048256475
274,5.48,5.720482292842608,-0.36663320652571196,7.08976111911071,15.2568470503676,-5.264341915915329,15.376771562322894
275,5.5,6.160306367224783,0.8811678921812428,12.011006547472606,17.959614299108907,-1.5279344682844047,13.999244973718126
276,5.5200000000000005,7.475942195400294,1.8897677293373576,14.827413040815173,13.10759948129445,1.9798241125843772,8.063510633075104
277,5.54,9.609732939923756,1.8337437433703607,15.870261154479953,1.8575519723717597,4.243003792456257,-1.9472250913737847
278,5.5600000000000005,11.691622763327052,0.6002526614491477,15.673030407217254,-12.052820405975263,4.868156943832146,-13.8925488820313
279,5.58,12.822259598941436,-1.0963567666617318,14.770949431690793,-23.795035625226546,4.181766833273256,-24.186030242837564
280,5.6000000000000005,12.858307604999908,-2.2492107823054392,13.557044104373311,-29.155454627297296,2.891100870634101,-28.958280609048554
281,5.62,12.247411473939465,-2.2828829846831136,11.991426775072238,-26.189498869816386,1.6800799036546394,-26.1269486434389
282,5.64,11.289095973731957,-1.3848894053222862,9.53002626732877,-16.259645175125243,1.026843380319261,-16.964695582403788
283,5.66,9.916009905323172,-0.26449543038927026,5.753026945991453,-3.4990320451523163,1.1627475710095088,-5.516071682751574
284,5.68,8.117271462009285,0.39336522610989566,1.3690852192739449,7.348606651227447,2.0081257876961986,3.9520313530960136
285,5.7,6.138823366827706,0.3701129910111157,-1.5681429834572826,13.164822620748218,3.166808639719971,9.377242505119174
286,5.72,4.165097778543253,-0.017884280584973267,-0.9373502138857916,13.176763139916787,4.127250326506502,11.31807875863906
287,5.74,2.1252916639628556,-0.2329274995846488,3.565144451934997,8.274676009168147,4.542923618071779,11.400391456555418
288,5.76,-0.020398274681224432,0.039719172970751726,9.749724683157414,0.17217604244947426,4.33488376784053,10.567320490413461
289,5.78,-2.0010680102592375,0.6644689305255191,14.314326795242845,-8.933552529141831,3.605831473695023,8.821517362192685
290,5.8,-3.4291366179578002,1.1967234129190434,15.165439868572848,-16.54998704779438,2.5462714789605623,6.314384390721143
291,5.82,-4.230710831520286,1.2408071420394826,12.66475577331503,-20.454963384745263,1.3948472527464764,4.129136917593642
292,5.84,-4.776434969136179,0.7593045160782464,8.852233440435015,-19.654778520091625,0.40289354321325166,3.6282272557661854
293,5.86,-5.543627438340057,0.13056124558775023,5.54927260689231,-15.076140616589358,-0.20619035375599154,5.062434197699343
294,5.88,-6.656722361827146,-0.12179734303630863,3.0826306806160777,-9.085889625201645,-0.3102261712864038,7.166898491383023
295,5.9,-7.799911775405443,0.24757655177161608,0.6104326814545349,-3.819614021636796,-0.026018043356822063,8.390772815904835
296,5.92,-8.577080455140276,1.0123084893117722,-2.5016684023952065,0.18917771311888343,0.2393574832141625,8.302240658911664
297,5.94,-8.844865597589527,1.6892230788925304,-5.767321190796119,3.637288622602786,0.010981860897418927,7.476449938831889
298,5.96,-8.623863447226723,1.9077905819191923,-8.06744167677008,7.001368264028734,-0.9112749756367933,6.3253888406079675
299,5.98,-7.841235597319885,1.6005597358934365,-8.848145890074946,9.870903569006408,-2.330187850263373,4.584786159742455
300,6.0,-6.3938722361220535,0.9496214884113415,-8.58383624243981,11.509899664682928,-3.7983626402320856,1.8748007305779975
301,6.0200000000000005,-4.470301512377873,0.2071388688980809,-8.10424775335553,11.53977795630266,-4.835137479153076,-1.6613297361285966
302,6.04,-2.6098482148356523,-0.4689794161026982,-7.731293268985356,10.048177615016908,-5.11051977032216,-5.344257016448141
303,6.0600000000000005,-1.3339087527224425,-1.0465512186659751,-7.179516563238995,7.466485198292828,-4.5850572822829925,-8.338332614438563
304,6.08,-0.800373022665114,-1.5051653119509378,-6.096390248743122,4.546606885077514,-3.52160535215199,-9.944604864769197
305,6.1000000000000005,-0.8696512459198891,-1.7024675017762778,-4.435820921010759,2.1295224252474774,-2.29824141324872,-9.794536152691908
306,6.12,-1.338497050881419,-1.379707131693169,-2.3609203397258,0.521770336518719,-1.1582144703044297,-8.121680971537305
307,6.140000000000001,-1.9253659935121057,-0.3527014041501661,-0.12422788736032903,-0.8018588165596251,-0.163210530153465,-5.8112255379585465
308,6.16,-2.1560518118651766,1.259803148400553,1.8142814617104397,-2.549055883028377,0.6260032023996647,-3.9108628968973713
309,6.18,-1.5923098902435178,2.996037618192965,2.8488271717516778,-4.813460515986644,1.063794749238937,-3.049838584465421
310,6.2,-0.3085459365032528,4.238485704896044,2.7802511141293724,-7.1754881974690266,1.1012142638978102,-3.2712832856165206
311,6.22,1.005601326606162,4.467850842040626,2.308057363933404,-9.170417158409165,0.9243896847447366,-4.055993735091614
312,6.24,1.5918129289843812,3.4924856460256226,2.6616873340706784,-10.126587291506485,0.7617063599426926,-4.371796525645491
313,6.26,1.2928471175578942,1.6438996532655064,4.518012419464313,-8.899690214645155,0.6058996254877145,-3.125533679274248
314,6.28,0.638080947423879,-0.22547735887451104,7.318133203753668,-4.6535115698261205,0.25028530689937845,-0.014988242635077031
315,6.3,0.3623703019032004,-1.1335268269527632,9.74426209259408,1.7539804396494028,-0.41365867242979665,4.011904123127801
316,6.32,0.9920510287098664,-0.577211613064094,10.7712718542863,7.609712061356513,-1.2324855378577229,7.307873714530832
317,6.34,2.74061217851607,1.1210909378507445,10.134194308201515,10.155469174964642,-1.9358842138692256,8.6943548362152
318,6.36,5.371857745304182,3.0247343134859372,8.040063989867258,8.733789909529122,-2.3488737490033005,8.211394251602695
319,6.38,8.00554605408098,4.177636405229839,4.910111294098977,5.109269138251515,-2.4057635236329062,6.851006985825751
320,6.4,9.353375162249723,4.133444457029136,1.4496435146405902,1.8426906024277674,-2.0574172342519605,5.675778629426457
321,6.42,8.484380579883329,3.0750253220610833,-1.4886198499703465,0.45425793066025855,-1.3131045615027923,5.161496962170885
322,6.44,5.50977981912645,1.525898910574419,-3.41542071319246,0.8040633101297225,-0.37452512655628284,5.126397588745215
323,6.46,1.5808041778742128,-0.0413573852834635,-4.451289540970878,1.680646089795375,0.40517461220065704,4.981333941391348
324,6.48,-1.8621184987036443,-1.3951757919579002,-4.943432602784351,1.7458398286253651,0.787584094586091,4.0109016450061725
325,6.5,-4.090594067027659,-2.4934616932190585,-4.9451060277867915,0.20131617832416726,0.8592894728789573,1.7295438851247487
326,6.5200000000000005,-5.487963045730923,-3.3372383096195906,-4.1599596823275915,-2.8621802188641547,0.9378302056169432,-1.6933481011394391
327,6.54,-6.853698131746885,-3.850804342181699,-2.3815024064604886,-6.3796907810975245,1.2587229160261748,-5.276902736445347
328,6.5600000000000005,-8.26060502878299,-3.860643496772145,0.026008110899557402,-8.688753302957064,1.7423661878633605,-7.569667288565107
329,6.58,-8.750515217581675,-3.2180253065053845,2.123582528475733,-8.378367051129793,2.0481448685014803,-7.331250321087148
330,6.6000000000000005,-7.268857768908845,-1.991708848987765,2.958395433229793,-5.126173586603205,1.8755090471067348,-4.260962424245324
331,6.62,-3.8621705768082677,-0.5328735862380826,2.1682641010701977,0.04976770130938857,1.2587086681655508,0.6236912903353791
332,6.640000000000001,0.08219427451312433,0.7153554657397567,0.09796678293091565,5.31650872637578,0.5674720085254299,5.429649865852314
333,6.66,2.8215279680873806,1.5328457330657597,-2.457705969978119,8.994396227659108,0.17878789454617794,8.514811720918129
334,6.68,3.6126773375959695,2.040787631374226,-4.524653336975849,10.273845152073811,0.15022750166059184,9.270226635679334
335,6.7,3.1886268854430044,2.4558225340611535,-5.352652942888804,9.258792249676581,0.23976096240113787,7.898489961511965
336,6.72,2.874008776586819,2.7403294821245314,-5.0291939316584955,6.607157059648715,0.21980689051220204,4.870120689030264
337,6.74,3.251225249975949,2.592994193223712,-4.5414521890200135,3.186466420098278,0.13849923553840265,0.8829287159644252
338,6.76,3.7887143998925543,1.8229194986413462,-4.705791544717313,-0.23408619288478927,0.28156326767537787,-3.012037900300558
339,6.78,3.6804003055405925,0.6460389038777133,-5.058994610186602,-3.2450922790779817,0.8688509124181121,-5.737830750297756
340,6.8,2.7395549271705955,-0.44357616498170904,-4.283271059880849,-5.773023256717689,1.758712189066395,-6.704457408774345
341,6.82,1.3781127449174897,-1.0258796744117282,-1.7343535564670407,-7.830491674551311,2.4798775237740713,-5.960605639007721
342,6.84,0.040095398337340465,-0.9707636031612117,1.8536188734135095,-9.360332363709542,2.588089705526486,-4.004481443378194
343,6.86,-1.0371847485068424,-0.4649435167749044,5.141140098817248,-10.1454892991337,1.953518680635939,-1.5000205103641213
344,6.88,-1.679619326986594,0.08149395481577928,7.254402252920525,-9.758798859193332,0.7343766295650749,0.9850928356539089
345,6.9,-1.819783994084946,0.26834852398221976,8.072031609113067,-7.909522341161113,-0.7483728888365396,3.0792435313561266
346,6.92,-1.7508411850132353,-0.0342188013733947,7.862134931423876,-5.013988561383714,-2.047516843889909,4.54567357114562
347,6.94,-1.999333004034739,-0.648439476477744,6.96135100878767,-2.107109782562883,-2.703895109979569,5.285381329827565
348,6.96,-2.7475149586241265,-1.3007814801842947,5.748109390217371,0.058625796887897375,-2.541256381445763,5.41775999465121
349,6.98,-3.5566547698747826,-1.8197857600677627,4.58593910871897,1.7222427826306894,-1.8827902180685294,5.218152370943824
350,7.0,-3.8266930602076172,-2.1150076066215835,3.5707682166970782,3.800318780440822,-1.393364773416217,4.908388831960952
351,7.0200000000000005,-3.3903032965588533,-2.0300164430981527,2.4739854474023626,6.773131946088171,-1.5923497711126116,4.484897408301381
352,7.04,-2.4486030792850926,-1.3384411417315694,1.1259322667114726,9.748465712062199,-2.4110091435032412,3.6432487523695842
353,7.0600000000000005,-0.9889676896515881,0.009597110621490601,-0.2742159062482352,10.740162326937497,-3.193438316227936,1.862083403482942
354,7.08,1.4198130181426059,1.6403477572291738,-1.466418306677628,8.274495843140498,-3.191366673856273,-1.1360533366271997
355,7.1000000000000005,5.007132659085661,2.850359977060882,-2.6260157478853277,2.9584287585725004,-2.132157547189615,-4.703268741861043
356,7.12,9.055666940419634,3.0342644840123336,-4.168638866250506,-2.6292257773876355,-0.3602804566173342,-7.2065921007300275
357,7.140000000000001,12.101425330685561,2.0931728574566453,-5.963504538837272,-5.723199432238865,1.490918987831443,-7.09221374210217
358,7.16,13.084376707114632,0.5171490562219231,-7.056067705518601,-5.1730096347119385,2.915556800636131,-4.204865652804657
359,7.18,12.225879067813612,-0.9010380768625045,-6.476995822043054,-1.806437265188698,3.728934393393316,-0.008053067212649118
360,7.2,10.637380928756441,-1.5518646579602706,-4.343831225235263,2.5466981310548618,4.008086616954918,3.429276080609525
361,7.22,9.118822555520453,-1.3924766659848764,-1.9815984416953543,6.2304394976580975,3.882485572946772,4.64514431129426
362,7.24,7.517631804505747,-0.9343347728659216,-0.7924157361479327,8.344644036034348,3.338478985051406,3.4087391992435605
363,7.26,5.247027400406083,-0.8267364642956971,-1.1049859307564247,8.796443314776708,2.1871117832558062,0.6127387754125855
364,7.28,2.130196670378955,-1.4234447679421487,-2.4388976137063914,8.14856127910014,0.13644225433180207,-2.486253047817099
365,7.3,-1.37836046277994,-2.7648093513883816,-4.906470586336346,7.4078632685845776,-3.225777032425186,-5.197247226265352
366,7.32,-4.46073638737332,-4.942873748799664,-9.818230165823325,7.685507758692965,-8.443782042515155,-7.72570341594265
367,7.34,-6.204137307558287,-8.339527612276402,-18.237811645098528,9.47515146350381,-15.786749992588469,-10.767770668156233
368,7.36,-5.992514752870758,-13.343552001558841,-28.79973368052232,11.727175679504263,-24.43720034210545,-14.953768882953142
369,7.38,-4.103173650909084,-19.75449711606577,-37.555867222910095,11.899456587257367,-32.147851662120694,-20.481186049694447
370,7.4,-1.8150223792801383,-26.434185446253206,-40.597011454763724,7.817580520475895,-36.12039162858706,-26.75936179388662
371,7.42,-0.5697112980611672,-31.486402179224363,-36.68994088448956,-0.12051144192915575,-34.47314271773515,-32.06335601848398
372,7.44,-1.0415642913837027,-32.81485741290988,-27.09063144930699,-8.970474612997926,-26.91809556223508,-33.66591603964697
373,7.46,-3.1573999906113968,-28.88841061063693,-13.625934831721914,-15.69780048593767,-14.47639916554665,-28.967531276354286
374,7.48,-6.511966326466994,-19.610532113540664,1.7988032887147245,-19.307511743814445,0.7066579028164084,-17.438965179439244
375,7.5,-9.90318891409137,-6.782443130991545,16.280583199544623,-20.524390855983775,15.375737677442268,-1.9542420591598764
376,7.5200000000000005,-10.617473133102168,6.606230995827492,26.557583188819592,-20.217185654295427,26.257872611229185,12.162649646462315
377,7.54,-5.640027961219697,18.05923545994834,31.469992943594242,-18.964925432052546,32.0278165591747,20.106149374107662
378,7.5600000000000005,5.343047796109894,26.654783112466596,32.698420259005296,-17.793661337908265,33.76079907352637,20.0595094497476
379,7.58,18.658849963186647,32.32817671085458,32.20188374597793,-17.995767254017096,32.89152866908171,13.258034058433594
380,7.6000000000000005,29.25866799396853,34.37261823230942,29.560463606038443,-19.297031302695892,29.186337816912744,2.501318094903929
381,7.62,34.46573052569687,31.400973446907106,22.698286712077078,-18.679137614069962,21.48960184947056,-8.885451082154812
382,7.640000000000001,34.69124558952046,23.228056056119467,11.247202186941752,-12.434554235019306,10.437948883996325,-17.238358625968118
383,7.66,31.056691433475507,12.39419327784072,-1.318598931300671,-0.20142040388548366,-0.3722704728873003,-19.095385669534558
384,7.68,23.462087652819726,3.0716616370337313,-9.546981967683593,13.555386435498075,-6.750912078112435,-12.82347379636456
385,7.7,11.261340463734392,-1.8688023399925635,-10.503981635408527,22.868044176991148,-7.670730691647719,-0.38402813250038825
386,7.72,-4.829054064218966,-2.582808068139282,-6.46441148148748,25.202000985357028,-6.301019682967608,12.635149597880504
387,7.74,-21.994021709737105,-1.1001346101631841,-3.0524178271635876,23.173979080138157,-7.001163114779373,19.625397507780647
388,7.76,-36.406712937584295,1.1609296040598758,-4.662608982154818,21.846288706422886,-11.251874524544778,16.903872930823706
389,7.78,-45.05129042867023,4.447314814919677,-11.038483206331287,24.33129325347624,-16.281590944900252,6.353253497817773
390,7.8,-46.9669172790352,9.223841145238318,-17.358102527819153,29.373791090166897,-17.45705568618672,-5.334023906699962
391,7.82,-43.183974478688796,13.82034458236886,-17.836244621136295,32.91503520743229,-12.586019224567263,-10.927247154567763
392,7.84,-35.4342817436199,14.184923157687212,-10.409235828131465,32.22618361785936,-4.463711231264167,-7.7413210642677255
393,7.86,-24.831629287145176,7.123467914202027,1.56787378169204,28.379323479057625,1.3425385658086535,0.8936806545786579
394,7.88,-12.144794962533553,-5.791268879871976,12.249322601350032,24.49528599356979,1.7964264818543842,9.431876975758858
395,7.9,0.4754836601356347,-18.362562830426597,17.547154876849966,22.205225400967187,-1.05141834000916,15.051459504022763
396,7.92,8.910227016751058,-24.606544679540868,16.679634778820613,20.44605331922631,-3.0491491389299448,18.368517598740617
397,7.94,9.414829501625173,-23.37526923055639,11.135783791224071,17.11758291009961,-2.4160166455498966,20.211033566606424
398,7.96,1.7918925357347408,-18.156300441475665,3.602479224828952,10.86182668872137,-0.5291838034063956,19.443781309316574
399,7.98,-10.126477136030367,-13.03795967664412,-2.362930126816818,1.200423044616782,0.8365022914456113,14.491485262546423
400,8.0,-21.02206529515913,-9.505827831372587,-3.105336597738627,-12.049096164065105,1.7935098087330728,6.017277211090385
401,8.02,-26.963612959315746,-6.693611619647653,3.3142850923895937,-28.542027699358016,3.7612656754931932,-2.7943001968769465
402,8.040000000000001,-26.58968886280964,-3.5436427862558846,15.378786529027286,-46.40528635095799,7.357924378844782,-8.469794023373002
403,8.06,-20.717320102707298,-0.08500436949715162,28.162182367417536,-61.85257021636609,11.394533034044706,-9.403051204376256
404,8.08,-11.308715915347221,3.0314397192017974,35.866903916487736,-70.45957355559044,13.97578200711682,-6.152815296261983
405,8.1,-0.5435839449073148,5.594129984220789,35.49589003937908,-69.59942361159997,14.476157659595337,-0.28721005803682287
406,8.120000000000001,9.634143201814009,8.065730964323215,28.672228243336114,-60.13195939947602,14.226279039366174,6.8180855831523886
407,8.14,17.688539902813375,10.754845065071368,19.747744439416923,-45.77651984469827,14.9685595025279,14.160196568211173
408,8.16,22.787585146669684,13.125092784540449,12.10361789986349,-30.820033525340065,16.781035230376357,20.41956785495151
409,8.18,25.107275149856143,14.363429236056884,6.4287915846522665,-18.26618182202021,18.057685742688285,23.775987731187136
410,8.2,25.63320682976586,14.515426867719793,1.8813027404091567,-9.3204901818097,17.478715403984154,22.99046560041945
411,8.22,25.435193908562837,14.55401142806664,-2.3910793438979385,-3.4869162759155223,15.28204035723024,18.53268877908716
412,8.24,25.032664948927877,15.25390123209884,-7.040530877222444,1.050254435698502,12.4780248404488,12.304970154686707
413,8.26,24.31480624593223,16.383860422949468,-12.575886746505276,6.271608254033695,9.615549965928844,6.329385364045445
414,8.28,22.890106241013633,17.079813097520127,-18.762019966744937,12.779380700579878,6.765545873869695,1.726456467768049
415,8.3,20.498633162521696,16.59688811511482,-24.308888002227473,19.38487537489678,4.12429652219159,-1.4046976596691345
416,8.32,17.219709527165186,14.503109834348713,-27.66300990301665,24.423888995416306,1.9612477404488675,-3.4644301712993713
417,8.34,13.36131544886565,10.579721914975538,-28.04277437815516,27.29526748222004,0.15738635096962972,-4.786903587143316
418,8.36,9.171317816441281,5.071980893988016,-25.657671617987088,28.46837282508897,-1.6494028890819157,-5.470578052712125
419,8.38,4.72244522897434,-0.9747262760267762,-21.292946725001126,28.307592019277195,-3.443320927301266,-5.533495452712364
420,8.4,0.10387061702585293,-6.021276222312197,-15.889605633747282,26.460083034396007,-4.727370428148944,-5.0926169261111225
421,8.42,-4.35964749236622,-8.904444624652756,-10.20598700388281,22.443368504729946,-5.091574881315907,-4.4288577909110485
422,8.44,-8.147614694209896,-9.454830652136891,-4.525113006182333,16.45665569970347,-4.634913786889958,-3.8612804161611995
423,8.46,-10.816199875242813,-8.42114962335177,1.279767898080119,9.49630635291666,-3.813215225196037,-3.443953960960055
424,8.48,-12.246612711132475,-6.9652752275244705,7.186627659035362,2.90778718228991,-3.1446007141050423,-2.8331089159325327
425,8.5,-12.631293069341318,-6.104649558914817,12.493873142340304,-2.1375639716858528,-3.1514831730422084,-1.6685272902808355
426,8.52,-12.24891487769812,-6.234110989663601,16.013442592132037,-5.162743275433099,-4.251582571800828,-0.18284010031830822
427,8.540000000000001,-11.302205567189425,-6.8668464909857425,16.96891505690241,-6.836398245130967,-6.3003878678506995,0.6985136792465908
428,8.56,-9.899998684663107,-6.90760651753215,15.682470062096343,-8.725162338969817,-8.28556424582907,0.050459952810533504
429,8.58,-8.056884753700439,-5.492137712754939,13.247258696104634,-11.957552990088512,-8.879435852617068,-2.2263548932879016
430,8.6,-5.760233234228468,-2.7526612692042285,10.607382052408909,-15.86219169130157,-7.48993800353354,-5.322571458901958
431,8.620000000000001,-3.193057559324056,0.22824670480410758,8.163176285226566,-18.154404974200084,-4.678797364546725,-8.102706906433411
432,8.64,-0.8573876244839668,2.2189116166798777,6.092542713241,-16.61915746604459,-1.6135469233042716,-9.596546927770529
433,8.66,0.6898636627416641,2.6284307826006468,4.534546038500196,-10.724129331439933,0.6997402976970122,-9.214515669682623
434,8.68,1.306626646189474,1.6701462397752018,3.326550529081551,-2.0033185768885273,1.764196791928848,-7.01270057528105
435,8.700000000000001,1.448808520382731,-0.05001785609039751,1.9915121144530408,6.815326012967462,1.5571884831882914,-3.823795090821176
436,8.72,1.786671171951334,-2.0155012506927736,0.23183206184823468,13.31943109558778,0.3689704063081945,-0.7900940402459106
437,8.74,2.4912339916840525,-3.935420198249465,-1.818244902401193,16.549004288063486,-1.3324991810590971,1.3661851636083637
438,8.76,2.8677282642228494,-5.564043183430025,-3.942730820827455,16.92246059697861,-2.961934344732744,2.5315193275511976
439,8.78,1.879802756431436,-6.542687378853788,-6.133124441586929,15.322229920531466,-3.9025322934322935,2.869395856572032
440,8.8,-0.7890940962142323,-6.496601281871229,-8.40448916328831,12.573132133974717,-3.7426460879804697,2.672531593429879
441,8.82,-4.241318253377225,-5.304769108832263,-10.59483788064329,9.660682159421315,-2.5400633047068273,2.5051966822375276
442,8.84,-6.996882423755632,-3.285198298714065,-12.469588412313866,7.7576892376679165,-0.8353849280728363,3.016576527282676
443,8.86,-8.040937311566763,-1.1161918127206834,-13.867003276226477,7.507057200110007,0.652936071987745,4.285001707948379
444,8.88,-7.267184472104963,0.47266395908842895,-14.650589098194809,8.388317220335127,1.4388160027935148,5.539390290343604
445,8.9,-5.192046067501359,1.0406738090196834,-14.570737714902068,9.125380484203689,1.499158937011575,5.831501633739068
446,8.92,-2.5299263683526347,0.59072761004967,-13.312394847980645,8.726254539957434,1.1661333019820612,4.850106099760012
447,8.94,0.013663660674513467,-0.53898857556556,-10.851729455555724,6.9988816466457955,0.7919439888128553,2.877294540606474
448,8.96,1.8658725510936494,-1.9112395314246315,-7.736199764389344,4.252215541459233,0.4966983490972375,0.2838591664262681
449,8.98,2.757904789012865,-3.139159471228326,-4.791940421096994,0.8101780277060417,0.19466435600979234,-2.552521772047201
450,9.0,2.8237107128163172,-3.891459770098985,-2.5011806399737386,-3.1731559152293705,-0.19919747462885176,-5.082581507527344
451,9.02,2.520234032205323,-3.8802661663046663,-0.7764988014163983,-7.551032995343945,-0.624116112917119,-6.726869946101587
452,9.040000000000001,2.398448633773814,-2.9370892766459313,0.7186568501249704,-11.87377674688004,-0.9096390880277844,-7.169796942967498
453,9.06,2.798981538663522,-1.1435544861175213,2.22077379593122,-15.310400980291949,-0.9039706044194459,-6.453278627095017
454,9.08,3.632053021136267,1.079831753234891,3.8055668101336715,-16.958197603936817,-0.5801288752992719,-4.88100217623426
455,9.1,4.441286057925545,3.0288843329833814,5.46825401022724,-16.24321745110759,-0.10731941540844053,-2.853685309234746
456,9.120000000000001,4.744981173344872,4.001125605161711,7.2545629420924955,-13.20990438923041,0.17717535027495923,-0.714684247875653
457,9.14,4.352733088024493,3.7260130671056513,9.42222042302393,-8.758847065347199,-0.0009988778914101215,1.326145820886051
458,9.16,3.3575784335326757,2.579991922181204,12.229226057201807,-4.528826620679037,-0.6223682339238391,3.219557854447348
459,9.18,1.9378308409140315,1.2508288286405145,15.053387066139564,-1.87808783261449,-1.5748451646797794,5.020389032612656
460,9.200000000000001,0.43201653347698876,-0.027088804679876732,15.582800291009226,-0.2898541577030054,-3.2947702052036183,6.5220474856075565
461,9.22,-0.23134025116932755,-2.1139578081814174,10.27730719020711,3.3032504874967827,-7.228493649083459,6.6077433805407715
462,9.24,1.6313676732742515,-6.876459644837205,-3.643922042811149,12.842728126012254,-15.426714539095864,2.8766346568744483
463,9.26,7.635329995459285,-16.018959500812514,-25.61390349460498,29.343419178189826,-29.0575656397657,-7.776805759024999
464,9.28,17.620635350183694,-29.11456472309748,-50.072943266847446,47.593871030518905,-46.38045433538334,-27.294190737759422
465,9.3,28.43220865519693,-42.18845096209394,-67.29792493919537,57.06194819301024,-61.57104027801938,-53.55600886388184
466,9.32,34.82748334985113,-48.785608736978396,-67.15327751057526,48.1168883619853,-66.09289258490753,-77.91690576928025
467,9.34,32.28096621805173,-43.96238069290838,-44.53192931082516,19.478070590777083,-53.23478742370264,-86.42565405861274
468,9.36,19.397266294746444,-28.448703457134886,-3.959572870137322,-19.453631446949547,-23.749913678190467,-67.40232670168163
469,9.38,-1.4239690274561208,-8.806941133957656,40.295912342290066,-53.64431632892723,12.242498778665112,-21.80850719381136
470,9.4,-24.30948504338315,7.391012105393574,71.3798009211177,-70.91758018775981,40.77400418097248,33.751834509109116
471,9.42,-41.18408351027669,17.073163735787315,80.64769338405964,-67.77375822299251,53.57881920438944,77.12191079032905
472,9.44,-45.17444794245111,22.497072389053642,72.14024306972851,-49.21705436558764,52.5752722362179,95.39637028396956
473,9.46,-34.784478105920044,27.159132803798357,56.00396827926677,-24.049096483350727,45.14213653520653,90.37655156841379
474,9.48,-14.939996016013374,31.877298662242364,38.8376826963637,0.003469716899267894,36.630402728131,71.92900615550539
475,9.5,6.282755179277669,35.06652970087077,21.29900588638761,18.374200392876162,28.209120400879133,49.153120117760785
476,9.52,22.151443793467557,35.5204043458497,2.646686618556083,29.508918530619514,19.644016437246115,27.384778009461215
477,9.540000000000001,29.765293995144535,33.49904525111253,-15.553369677958187,34.14020622488913,11.281353072053017,9.276865954776822
478,9.56,29.871979896955715,29.406586475143918,-30.317334369959298,34.272485103062195,3.391353501227405,-4.598961858312448
479,9.58,25.01968594362055,22.92527189332764,-39.85608997442332,31.753131847396556,-4.2941150086171795,-15.631039404924717
480,9.6,17.580773617157625,14.07432816697492,-44.25570820562399,27.30647527961657,-11.373235288085937,-25.45925453150504
481,9.620000000000001,8.932072716634528,4.373402982965906,-43.85630165727405,20.838081882728094,-15.809998401368713,-33.55458865075959
482,9.64,-0.16508340917151415,-3.7402263406896905,-37.67869991417871,12.415651525913962,-15.042895802611385,-36.977950245623106
483,9.66,-8.91941467978901,-8.572375608809873,-24.359822850531536,2.826808365398543,-8.41464518921243,-33.04914174806154
484,9.68,-16.204106858246387,-10.0635453904079,-5.138124153378035,-6.511730309547545,1.4462676816500095,-22.3213410773919
485,9.700000000000001,-20.67304538588696,-9.158828004357868,14.858791201171696,-13.9514136112914,9.996864168022743,-8.726729315572928
486,9.72,-21.37441571860902,-6.542422118745231,29.39896512644055,-18.18063366795424,13.982950123714545,3.2542932138621126
487,9.74,-18.5436349674344,-2.2623772828097084,35.124401607403684,-18.80021958648748,13.298606774613546,11.18868693101664
488,9.76,-13.665137316050512,3.3337150716532062,32.54589136661639,-16.550068494424526,9.832272588822738,14.48154357561842
489,9.78,-8.503991746565152,8.783714588248412,24.486997232307118,-13.043715506714758,5.482964067715046,12.974746951980393
490,9.8,-4.11574474741789,12.213075027869186,14.943282569168018,-10.032025640004786,1.8949539955555545,7.407911136587698
491,9.82,-0.8180269015368591,12.72633237962929,8.303882577326759,-8.31468762558172,0.8581275004574438,0.9147871681382356
492,9.84,1.199735011415394,10.705913797218884,7.163145179636162,-7.085101304939249,3.2164756433010098,-2.064472315556648
493,9.86,1.5752571686040073,7.075228889851601,10.12626974387608,-4.818336903546726,7.4415558449450945,0.46157466916837286
494,9.88,0.07213617877893463,2.8791742705328036,12.763084365830732,-1.2614555799817078,10.478726698267629,6.038672737844191
495,9.9,-3.0198679945208915,-0.6940118115516813,11.309698674984944,1.7413097178100148,10.295430764714835,10.100483855062082
496,9.92,-6.87029446257459,-2.7068124566396783,5.456719145183901,1.8335042381786093,7.249293783406149,9.881424282885707
497,9.94,-10.433255707771512,-3.132251417079993,-1.935280287153477,-1.523346479049684,3.251521287612382,5.964612404964934
498,9.96,-12.837933868378641,-2.837559220373927,-7.2801142624917965,-6.425703053291821,0.14277387702314148,0.8900431409860012
499,9.98,-13.667152183966007,-2.7947196841611905,-8.833286591105098,-9.943905773873507,-1.281540131077321,-3.000794314645307
500,10.0,-12.944618691716983,-3.360642570934514,-7.654419261361304,-9.9797188872667,-1.2952071743701277,-4.641515187382401
501,10.02,-10.828138757833946,-4.224708998236419,-6.267959584205258,-6.219297127822535,-0.6648269464471741,-4.134599401083289
502,10.040000000000001,-7.453979889953416,-4.840593394966867,-6.2495831940022315,-0.04857356913631404,-0.011226211771258265,-2.29617697086575
503,10.06,-3.2343544117013163,-4.830329809585537,-7.168199697065573,6.239013183810629,0.44035593284764574,-0.2730071891857111
504,10.08,0.9042769683933168,-4.094322523860168,-7.792883824550328,10.651824849822248,0.6843219024573137,0.9886510755746755
505,10.1,3.9645469554922226,-2.7412595780688345,-7.831754234939456,12.511971856984255,0.6640642454764842,1.2836503272103372
506,10.120000000000001,5.633645741837059,-1.0462976345657622,-8.187773153683278,12.477647850660937,0.19343958736715258,0.9561411868569839
507,10.14,6.423660922702362,0.5599785290496484,-9.827277705169722,11.586089812586136,-0.9104462032972728,0.02420824035850072
508,10.16,7.0174304522902125,1.5977836418507656,-12.697080020515703,10.333272473719605,-2.6222144803758693,-2.0883178471915844
509,10.18,7.5952527299408015,1.7126283636467545,-15.457550678621736,8.614046215108752,-4.597695887511638,-5.584700532538498
510,10.200000000000001,7.860335210905566,0.7700589206612612,-15.976713852409263,6.247079213420783,-6.286829071384684,-9.360359428206387
511,10.22,7.6028862766242185,-1.1045643491885209,-12.474165468308557,3.280350280279918,-7.220525931954512,-11.5279901461936
512,10.24,7.046784947610772,-3.408770118873266,-4.885681847997271,-0.16728705665075005,-7.2285286010497085,-10.90078131766166
513,10.26,6.586337954160827,-5.224473268830698,4.568000780807186,-4.026484783900765,-6.43591420127937,-7.747962086105682
514,10.28,6.344853978732004,-5.605661463719143,12.3736049839811,-7.983594146686896,-5.140146319527916,-3.2175520319851314
515,10.3,6.1475595313611295,-4.284753901139904,15.875459654090966,-11.188405801061819,-3.703265553657924,1.5866573211114545
516,10.32,5.797486703204317,-2.0056100299936683,15.049196632277228,-12.602961320437009,-2.4475631932561415,5.830629180213759
517,10.34,5.127810726689866,-0.0035180332704232153,12.31098334585045,-11.839852916466583,-1.5191796899874863,8.67506053873003
518,10.36,3.857309487263014,0.9343051902170332,10.352358175469181,-9.535657045296134,-0.8274377222235332,9.489118807107836
519,10.38,1.7111892752719782,0.9067456688625435,9.987241428272469,-6.7115528301315885,-0.21977684469922798,8.65782290166188
520,10.4,-1.2657853072872667,0.521143818863627,9.938665252661682,-3.9285410274904953,0.2222327443322969,7.669240433384012
521,10.42,-4.682222712531884,0.2916590128987459,8.325183333896327,-1.3680310764474548,0.15614295320818905,7.796768936041371
522,10.44,-8.021677263823502,0.43559675805257786,4.213954544451072,0.5208502174887597,-0.6752961627674923,8.885438633142854
523,10.46,-10.734352780772225,0.9967548924719204,-1.731091045367812,1.11842844425201,-2.150804749389735,9.86406027586567
524,10.48,-12.235241036919964,1.916226746601392,-7.499984842583667,0.44601853141731207,-3.853375912205575,10.126752113239231
525,10.5,-12.007237934283483,3.0082772602294234,-10.640626653625876,-0.7577156162610474,-5.296865756058757,9.783444451736905
526,10.52,-9.59752357744869,4.05453826200047,-9.244560135134748,-2.1674654298510316,-5.99054280916245,8.614474564853298
527,10.540000000000001,-4.105328843044048,5.116420171903474,-2.110533442711551,-4.868584346364003,-5.408686857211741,5.2959085778265855
528,10.56,7.032039388580951,7.0354021476981945,12.0820387936222,-11.015031835175959,-2.9834789781244946,-2.2457487816436013
529,10.58,29.707727157818987,12.014817483039467,35.60838819024006,-22.618154479416685,2.011547469577024,-16.031375329280223
530,10.6,74.01358952987519,23.938176289271986,71.37454732737612,-40.62906626239971,10.687267807995333,-37.49045367035719
531,10.620000000000001,152.118720748009,47.79651708501644,120.69935331555068,-64.43680284810277,24.310371019971637,-66.81585480868561
532,10.64,272.2495311607052,87.76651786348427,179.2687126188067,-91.08787020673931,42.9313671617546,-101.74193357860247
533,10.66,431.44005635205167,144.5271522855572,233.5943278400718,-114.5752779944292,63.25054899217057,-136.54749975189026
534,10.68,611.7851069621835,213.914081237407,262.7058012053935,-126.9622113524055,77.75158361756394,-162.66086517977539
535,10.700000000000001,783.0732349982954,289.2718038625087,247.48930238767713,-122.10004998181006,77.30535874865731,-170.9993468976307
536,10.72,911.7431989410688,367.3120969812661,182.29870204021447,-99.55473824947794,56.82926220675223,-154.93515079790524
537,10.74,973.9576357610874,453.31242832951204,78.572731030397,-64.7999951586074,20.048985170391564,-112.91830073572923
538,10.76,966.5800677869396,560.3609596957276,-43.732156526912306,-24.449115515392442,-21.02492776018936,-50.03479949712019
539,10.78,906.4792624823351,701.4167374224503,-168.94313913039807,19.95681826582818,-52.155385376426494,22.710705232027813
540,10.8,815.0162237307918,878.7287720570389,-290.56471531821285,74.5661998846038,-63.86834692254206,92.1511467225769
541,10.82,699.1006825583073,1076.978761894649,-405.33316233345414,150.6024187278252,-54.33227631839534,148.14041549117738
542,10.84,545.956029145118,1263.527247491094,-505.12023105637195,259.1123454040751,-27.17697804849092,186.61006492712818
543,10.86,336.49163311419693,1395.1628817677142,-576.1871239135753,406.63319621606405,12.680797890264381,208.1507075533251
544,10.88,64.81374930356372,1428.3772022750668,-606.5135896025657,593.2964554700737,61.77164366744947,213.5492758091046
545,10.9,-252.19504467588456,1329.635429475032,-594.6573962112865,812.4832332342125,118.70358144407422,200.70855832120643
546,10.92,-579.3722353835352,1083.5451951041728,-553.1438467482418,1050.439580796247,184.47482865060118,166.27860639755477
547,10.94,-874.5441596936379,698.6975146844135,-503.19675053574025,1285.3300227917712,263.36812505896097,109.96507466001415
548,10.96,-1099.4775416546531,210.04972411195305,-463.43841733720785,1486.4125578697358,362.411504980098,35.2474886074894
549,10.98,-1228.2887716404316,-325.7522290563919,-440.76178354877277,1614.8525077972508,487.075768606868,-56.22067510421873
550,11.0,-1251.789124584232,-844.14155449622,-430.78047970829255,1628.9253156062668,634.6329233146366,-170.85949634366756
551,11.02,-1176.7227117012062,-1290.9093577922617,-425.72125506891615,1496.073898362285,790.30794218956,-322.3556037896235
552,11.040000000000001,-1022.8346996869561,-1635.2060217153628,-419.96706279626665,1209.1804055391324,930.626170290027,-523.0323250606349
553,11.06,-821.6319669587089,-1870.1261109122024,-409.03236271577134,797.0957703327188,1033.323006661807,-772.2979023171981
554,11.08,-615.2315615345976,-2003.166415974437,-388.2020142988377,319.0895073544248,1087.814720518247,-1046.383623515578
555,11.1,-450.05051232796893,-2045.9772007292033,-355.5584071780815,-156.05609536677395,1099.1083896985347,-1293.6763938679023
556,11.120000000000001,-364.79971744779755,-2010.056460339085,-314.58012423318326,-572.7850504800438,1082.605393625443,-1442.9498588402776
557,11.14,-379.30727521280085,-1906.634380393652,-271.1844482892369,-899.6519160252866,1053.7465268785445,-1427.5667969416536
558,11.16,-490.80197600177314,-1745.9440703773462,-228.53526254876869,-1126.589588785299,1019.1906213707415,-1214.7691545146733
559,11.18,-678.1282612924745,-1535.3771822307124,-185.38855347554534,-1256.534175662819,973.629316523112,-821.0523069157972
560,11.200000000000001,-909.5616769411215,-1279.035155107018,-138.01246613537313,-1299.190289179811,902.0413944314957,-304.5246087332669
561,11.22,-1149.4271642737535,-978.6307204821297,-82.40513529574088,-1269.2871739730176,785.4801984310579,256.96978788491367
562,11.24,-1360.5667885236207,-633.8045169146824,-16.0705298631115,-1186.809737749078,609.0696724034041,786.7270087764532
563,11.26,-1503.4087401549843,-243.47070196982682,59.67169649872843,-1075.1575524883062,369.73983247230365,1222.2917945913123
564,11.28,-1536.9574424821294,187.20059394504324,138.2649636100804,-956.4618668556795,78.59164816924988,1522.7388463930924
565,11.3,-1427.1091121927034,634.8881140294203,210.23761919630726,-847.6048228298488,-245.26458676584755,1671.066529323021
566,11.32,-1160.9315463499145,1051.3242145790414,268.67283969120365,-759.0295504973958,-584.6542079233362,1669.9969459714725
567,11.34,-758.5402542755899,1372.1669322404791,313.3929080133395,-693.6234076166941,-928.01261231648,1533.8321550554688
568,11.36,-273.82989881764695,1540.4809221058638,350.6823674679899,-644.4578548106035,-1261.9398958844263,1283.433887555032
569,11.38,219.6959995559516,1530.9586166204376,389.5461024321621,-596.068936408048,-1560.2050926754273,947.5319480137725
570,11.4,654.7637598162519,1359.384570674476,437.58899419699827,-531.8391301559988,-1783.6516674818643,566.1813447689993
571,11.42,995.8721329256011,1072.813575060153,498.72033492909196,-441.357248703712,-1896.8125798351703,189.30212827366913
572,11.44,1247.6866886999283,729.5554225124221,572.5228334350296,-321.4532206257325,-1889.5612070211089,-133.55662898952892
573,11.46,1439.3874677448828,382.50037340107247,653.6851655006432,-173.7489558910887,-1785.0430263053172,-368.5606709139954
574,11.48,1598.7271131037758,72.56967755907047,731.5677984663885,-4.640205207592707,-1626.8291906809286,-507.5972970142169
575,11.5,1737.3298626026208,-170.09549139527064,792.0042035439171,173.71163683007453,-1456.2202268004348,-564.7178894246031
576,11.52,1853.2307816942982,-323.2464933152703,821.5978974567595,346.90923828344,-1297.2433205027066,-562.3094457892977
577,11.540000000000001,1939.178466971097,-372.1395988472809,811.966570655332,504.89079756262333,-1157.3232809831072,-518.7721088912101
578,11.56,1986.8799418603412,-311.9799642434614,762.1638833619372,643.4129612223525,-1036.9295087977378,-445.4746574023928
579,11.58,1988.6156673496532,-150.34768368132384,679.0893725177884,757.9951924366203,-936.2238052941359,-350.37041143048395
580,11.6,1938.9929915803823,93.22005155947791,575.1338384439912,838.1787444922224,-853.5464603981982,-240.95257706745127
581,11.620000000000001,1833.3628439986956,389.5574259761021,463.0103436913926,869.8456730064568,-779.9809857223984,-123.29244532927356
582,11.64,1661.3648117097177,700.3189930150422,351.06566340173066,843.7823122172678,-697.3001236792496,-0.060049817434978614
583,11.66,1404.622698080495,976.202750176177,243.38179507420463,762.7262790184373,-582.8097334999056,128.18219008468708
584,11.68,1049.019719151903,1159.4540640644368,144.5433934582761,642.075905301386,-418.89324058727124,257.9841325079095
585,11.700000000000001,605.9891203156645,1197.3995233584012,63.084985667216216,505.28967890384683,-201.83662309580933,378.3896595676106
586,11.72,122.45682588197874,1063.7471193408169,7.548355315978029,377.51103484321163,55.34428026277948,471.4857051889005
587,11.74,-333.2152673086596,774.0208585804012,-22.867865429753717,279.76297921209874,328.5716730441894,519.4718556461193
588,11.76,-699.7467295088898,382.58562664487306,-43.03570855251473,224.62700579502064,593.7260366859069,514.7814264263158
589,11.78,-945.6150439091313,-38.90955285419961,-75.26052461334079,214.43115808873668,834.7912410134531,466.70329400433263
590,11.8,-1074.3276457310083,-428.5769619551685,-137.2564555947609,242.49266836433026,1043.893673188258,398.9504916529336
591,11.82,-1114.6973664246116,-750.3388496012299,-236.66896692433184,295.76221348842535,1217.2993328486864,337.95119425136124
592,11.84,-1104.6881386994892,-992.0160834585461,-374.20815640263226,356.4257101174235,1353.7318434815074,298.33899305637345
593,11.86,-1076.1255975175923,-1152.467195913805,-544.9573514614985,402.75784273642535,1453.6818934512264,275.3443296056097
594,11.88,-1045.3515052793164,-1231.1744479180593,-731.4585350111804,412.34461280720507,1515.227037406901,250.05755614666958
595,11.9,-1013.6527055581355,-1229.1386557341243,-898.7909370524692,369.023388782649,1529.6200337337605,204.03597355419845
596,11.92,-976.7958339559452,-1158.188232487748,-1005.6594274568919,269.5279673254741,1484.3969498566025,131.73510307998095
597,11.94,-935.0070598254076,-1044.316926873537,-1026.8616266528015,123.71953256720158,1373.5039446570304,41.38511699280886
598,11.96,-893.2475611402904,-914.3505138467883,-965.764391132847,-52.2025795142717,1204.6523110054654,-53.42476462386243
599,11.98,-852.5053401071668,-777.6538864083018,-844.7303291772571,-242.7479899682482,996.7514966222228,-140.93208199232134
600,12.0,-803.8399225353719,-626.6298842400251,-684.9826951416793,-434.31564134608294,770.5098362017113,-211.68648811601514
601,12.02,-733.3779943881975,-457.52507567516955,-496.11995428135873,-612.5508418704899,541.1090407842687,-257.52281254723107
602,12.040000000000001,-633.2154331811685,-284.9385061518572,-282.4885105655267,-762.6442538307546,318.3320979427306,-275.41125743356855
603,12.06,-506.6991455546806,-130.84164123591597,-55.8674494517721,-874.8372418505189,110.94689498079968,-272.85203493323684
604,12.08,-363.272397565911,-1.6488918269053467,161.24949917723592,-949.5741660480685,-72.0750948042869,-264.8338088554103
605,12.1,-209.77852391183308,118.69046150648981,345.7785629888325,-994.5309000026577,-225.18228706422707,-260.6216146410996
606,12.120000000000001,-48.985094766352944,251.50987131455832,485.2543832525184,-1013.578762282449,-348.6222192726989,-254.3068503455309
607,12.14,112.61199332651273,401.89259952646444,577.1167876158268,-999.7671478395653,-446.2832354913163,-233.46206361916006
608,12.16,257.1817283614053,554.921279934129,620.4178704760301,-944.0978582553414,-524.424286032729,-198.5396614968264
609,12.18,358.64098829624584,688.8399141860771,615.508740387151,-853.3240054522478,-594.7361077875898,-169.1137657768382
610,12.200000000000001,397.1194293902573,787.1769220911174,574.6569575719774,-755.1146147747545,-674.8166370506522,-167.96364918219365
611,12.22,375.3205221590358,839.2548479349433,527.5074910690277,-680.654897318456,-779.7635434774495,-202.60385922431828
612,12.24,324.1253719767409,835.1000263183174,508.3658025814012,-641.1164850040639,-910.1296253905027,-266.646029102428
613,12.26,290.17651269233664,765.7574291579139,534.3853884218636,-622.3331375052147,-1045.6155805763035,-356.9151235629022
614,12.280000000000001,310.5975769224235,631.6672881198269,594.7110203575729,-601.5374405299848,-1148.7957725337283,-483.01818664911445
615,12.3,391.8670953056732,450.8471107892757,658.0180176550317,-566.5604055977714,-1179.1502577422839,-657.0421398532111
616,12.32,508.985330409771,256.41693861469975,689.4557794717011,-519.2387637747847,-1112.1056629497493,-874.2139511678026
617,12.34,624.6009008091879,83.11926199378891,665.6361894937975,-466.1899150118418,-949.870287377704,-1103.2386007490227
618,12.36,710.9298974260869,-46.199884676829356,582.1878052051986,-412.09480773453026,-715.3705178871855,-1294.5577464761245
619,12.38,758.1197088328603,-125.03269268691315,452.25761098390615,-360.2447308306923,-438.0655183128857,-1400.4249160307236
620,12.4,768.8751846166974,-160.0764796471814,297.83744918618345,-312.2648933093061,-146.55690907231894,-1393.5476645248157
621,12.42,750.5619530878247,-165.54955350700365,140.3550951131846,-263.14087889345035,130.50371320930918,-1273.8652469544961
622,12.44,711.5032538762985,-156.3493364626303,-3.900070753780442,-199.11279539364338,364.4838626779351,-1062.570660042578
623,12.46,658.8993979339609,-142.30412191079,-124.52221545689162,-105.0135285659866,532.11248247468,-790.5741314681453
624,12.48,595.9621631374389,-128.47174136697353,-217.07271016401126,24.00118807657883,622.1027218715474,-488.98036933406183
625,12.5,521.6107734662397,-120.43196942011807,-281.2815162372376,176.72968219010988,638.224937283258,-184.19600141212172
626,12.52,434.7980355571694,-125.95233293056481,-315.9461568469544,330.221871427429,597.2485918718493,103.48450413894341
627,12.540000000000001,338.4354851814355,-149.61461957579144,-315.7070555336775,459.69715713064795,522.8532466013162,359.43764890280954
628,12.56,237.5346717730656,-187.8654147450402,-275.94096449652363,547.3838476068993,437.9548621547397,573.5981064188044
629,12.58,134.22389904880453,-230.95738155844907,-202.30849826972536,586.5479848665009,357.9292727218036,739.8751446465288
630,12.6,26.532752194025413,-268.47762445006833,-113.91667472658085,581.2872059835091,287.0212956585515,856.8149469539388
631,12.620000000000001,-87.5834794961776,-292.9156783403724,-35.05345571172119,544.9215111535513,219.82653921961554,928.7654524192235
632,12.64,-206.26744193439754,-301.1397129543459,17.455882774765417,497.70288685947673,147.16229262655656,965.6229582078385
633,12.66,-324.7620958637697,-294.7266705680589,41.076042560480815,461.33822656486683,62.71896079459113,979.9930996854569
634,12.68,-440.18438617136263,-277.4453524047529,45.75289645868486,450.4588371155528,-32.54192552329984,983.0029842013394
635,12.700000000000001,-554.041517597195,-251.06444397113412,47.24778525490781,467.7061746637196,-129.23371518078335,981.2091955593783
636,12.72,-668.7834182229162,-215.25963964706395,59.22740205114412,507.98892652989525,-212.40086067316298,975.4358561070545
637,12.74,-782.5200837600046,-172.80819912827826,86.23094505294064,566.7106947994484,-268.06364170628444,961.0014378126493
638,12.76,-889.1073482904806,-132.48224814103529,121.131079979948,641.0570729060653,-289.8943659517563,930.4017536250124
639,12.780000000000001,-983.1833113035832,-104.1911537282944,150.21216610854702,722.6916373777633,-282.0655389154201,880.0567033325731
640,12.8,-1061.8339346905982,-92.15268735515224,162.47619356535287,792.3423568642611,-258.23274686645897,818.0459789874953
641,12.82,-1119.205322190667,-94.84446407271257,154.37450006258018,824.6229834370426,-239.25761459015052,765.503962817905
642,12.84,-1141.4735383289792,-110.99692118746623,125.43503339519562,798.6985166355215,-250.66093367834594,747.9410564100197
643,12.86,-1110.7699472140623,-143.4508638225867,70.26307560125102,704.7346448351814,-317.83235259375715,780.5651480025087
644,12.88,-1016.3957898494976,-196.19816519880695,-23.000671230265088,542.7001351985597,-456.04152621270663,855.686427767701
645,12.9,-863.53483888962,-267.1017687702489,-162.81677140784348,318.3775283374965,-656.0665912750119,939.6149736798952
646,12.92,-672.2151723843797,-341.6005628387296,-338.95802811944395,42.90134940754905,-874.2512113934415,982.6587360883527
647,12.94,-468.1149964580256,-392.1481926236436,-516.405883569846,-262.023947439633,-1038.3767499164362,938.3202021895712
648,12.96,-273.03607854129564,-386.59242445196594,-649.2114521946221,-556.8034916775798,-1069.7765444773624,780.9193660955898
649,12.98,-101.27692012925289,-304.12014245631997,-706.9542444718511,-783.0358614691414,-909.1457403204502,512.7913070444362
650,13.0,39.28867720316791,-149.78605227612053,-690.9533582777941,-878.3289380864355,-536.6743516193357,161.72674592326
651,13.02,147.47179708211127,44.26380952369462,-625.5257015858032,-806.6203907695415,11.689936217721126,-224.8126736721107
652,13.040000000000001,231.97612198174394,233.8403032359113,-535.6841900390921,-585.0163558861495,635.5816293434698,-585.8416052921182
653,13.06,310.53415827275734,382.9188110895047,-435.38123788510444,-280.60853876092966,1188.5587178873575,-856.9846547384775
654,13.08,398.5931438624072,474.53897901790924,-334.2206253015263,26.3924930936764,1532.7740910290036,-988.001942641326
655,13.1,493.9411005795978,508.72107953949836,-248.06063556613913,282.8572311921956,1601.7686393471224,-963.0588882278951
656,13.120000000000001,572.6950875340527,494.61725172669253,-197.70869933240414,473.4131488599704,1426.0984314399018,-811.3469464553759
657,13.14,603.4112734601421,444.66372776152934,-196.57124440842205,602.1271701264918,1106.5193922900544,-597.5805326126923
658,13.16,568.4672674655192,373.01520273325485,-240.1134442421842,672.1513993020935,760.3103466131702,-394.33089860142866
659,13.18,475.10254346243767,296.03589431084976,-306.7963290871674,681.7483399784564,475.1786028278693,-251.57684278751103
660,13.200000000000001,348.6315424550765,231.0802768698622,-369.3684226572014,631.761779508422,287.69593202028517,-181.63869792125058
661,13.22,215.9263262205179,192.0935375852807,-407.7972856627649,531.3872515357237,186.94859536364714,-166.32893034223065
662,13.24,93.61768631036958,185.2290297736633,-415.2659747190279,397.10524674840474,136.12647335567357,-176.7108458601253
663,13.26,-11.889950705563358,208.65909412385446,-395.0313524672635,247.55880427405313,98.79875008246853,-189.37217216975785
664,13.280000000000001,-97.6553342853054,255.8975494354479,-352.9853363544843,98.16500802864559,55.05921273674244,-191.56555843886636
665,13.3,-160.10507818448738,318.3229243645027,-292.94393343111403,-42.0306131869255,1.647024842783729,-179.21144345234347
666,13.32,-196.59052447404886,385.49379846101954,-217.90356238690126,-169.4444884751456,-56.83736344605934,-154.1471275885153
667,13.34,-207.58647377882596,445.872677067082,-133.97936293847408,-281.4255589542765,-115.09059856288891,-122.2350823086729
668,13.36,-195.23014368168452,489.2220900496973,-50.505266707559294,-372.28289160385,-169.1829423161263,-90.97166735334272
669,13.38,-160.9573649178111,508.6564225066061,25.4796410026318,-434.656246376767,-215.88084888321617,-66.19927241853966
670,13.4,-106.26295920116223,501.09704788479706,94.27712663845536,-465.9832619039621,-251.67471564742993,-49.26450265250547
671,13.42,-34.28801311813477,466.9605324753395,162.13308326359746,-473.7935684149657,-273.4552285108108,-36.8552125747225
672,13.44,51.72019395201428,409.06393896292764,235.4669350910156,-473.51345614771117,-281.3670758114537,-24.711690799940172
673,13.46,150.93426195714423,330.6071379388705,316.56522830945994,-479.1580754466323,-280.41908300862906,-12.723215745888762
674,13.48,264.36659314027196,234.60239995543742,402.53196987172225,-494.341791420739,-277.7779978685972,-6.181809318241214
675,13.5,391.9025851945343,125.99023774066256,486.43531479629314,-511.5962441998845,-279.039291254448,-10.985577220713465
676,13.52,528.8285260128159,12.662819391007964,560.4143517412818,-520.8864589560235,-287.57686337711,-27.267490357675463
677,13.540000000000001,661.6616665573792,-97.4696700656785,619.0703989124099,-519.3661694123397,-303.96195670143493,-48.49188707299368
678,13.56,766.8417617271314,-198.98116005866297,659.5137561442948,-512.9163929262645,-322.31804752154636,-67.80487944747264
679,13.58,818.4983529269124,-285.816836185008,678.169733337312,-508.86178014715836,-329.7444659443828,-85.53865277769006
680,13.6,800.8187348995075,-346.5123712731868,669.1085160756289,-508.78641821138945,-314.8938161537392,-110.12839048703086
681,13.620000000000001,710.1466032277384,-367.81405104671336,626.3686994347652,-508.4604528288986,-278.25460783719103,-151.59753298660877
682,13.64,544.9933802805738,-349.91606353331787,548.4799286957256,-501.9574415234853,-231.43313311314773,-214.11017221574411
683,13.66,305.2980299659374,-321.66052632532296,444.1414278770014,-483.8744539293847,-185.65441699860287,-293.5863169671221
684,13.68,15.605565158967906,-335.2986677382679,337.19884778998437,-449.8290871495383,-142.15607279581772,-380.42222307992347
685,13.700000000000001,-251.94391915927827,-431.8000309425583,262.3172272560853,-398.4283705771053,-93.42794167101918,-463.80648661393593
686,13.72,-397.0784056091481,-598.0985022409862,244.62005702360568,-332.89872121337464,-32.01383756758526,-534.8966964864567
687,13.74,-355.6025309389479,-758.0396806986887,276.0370794018655,-258.55494650635745,42.49216217478828,-587.7212314460128
688,13.76,-153.26989173508937,-816.3458424349922,314.5229263778637,-178.6417214114647,123.36501674309781,-617.7836276236318
689,13.780000000000001,105.88355996170185,-723.1759448218413,313.1005126300634,-94.73875360064996,200.80851072478828,-620.2885332479801
690,13.8,308.00934635960357,-503.8485010881508,252.31076344654696,-11.176582081379905,265.0699270330779,-591.095193086685
691,13.82,393.1578682841712,-233.54067374582453,146.25680132171772,63.94090126373919,307.7746120866336,-530.5461020538366
692,13.84,368.49083717662245,11.83944928973299,23.35315876678149,123.99141515948628,323.58333830269123,-445.7103099488663
693,13.86,279.4575661032304,187.05937787647298,-93.79740757332922,169.16800494800808,312.0618674286338,-347.4279223902131
694,13.88,175.10408420699525,279.6393183642201,-194.17175914454702,205.6985343073647,277.50025257852644,-244.8661142240511
695,13.9,89.38878462291459,297.5307853689143,-274.3146453819183,240.557038656467,226.1517459486917,-143.44106314072388
696,13.92,37.250700456427,257.92085873981773,-333.60023472383625,277.1870216802651,163.105090367353,-47.57188478381933
697,13.94,17.43645301810225,181.32896369584603,-371.4979286983587,314.6274780577712,91.28105883901156,36.21021412841856
698,13.96,18.39914446428089,88.79717762135968,-386.4468706127622,348.7777707186197,12.773681265567241,100.49320145324671
699,13.98,25.87600316052226,-0.3343692589154674,-376.1664096806127,374.42138391071416,-69.63749263325786,141.98744613956504
700,14.0,29.409155480914905,-71.1872535238752,-338.71479499799693,387.6534260075033,-152.61718071419716,165.12566825087356
701,14.02,24.810139370851516,-115.84557728100789,-273.73855485453566,387.63347162048524,-233.11708547719954,180.12353956013246
702,14.040000000000001,12.008298733731337,-133.63867353409196,-184.30331398411673,375.7841595420276,-308.14919975765474,196.91287709514143
703,14.06,-9.104366774004667,-128.82550442597997,-78.73147921550175,352.84013400079186,-374.2601992624416,220.1660788644374
704,14.08,-41.15834965321813,-107.98968648550331,29.853607590632375,317.3944287275904,-428.55657400969335,248.55622614838262
705,14.1,-88.53958071400953,-79.2616346720188,127.27936843944511,268.22506642742735,-469.9927827455638,276.99281090017195
706,14.120000000000001,-154.61399441477107,-52.38062907215718,202.977436772327,207.7051143737549,-498.10367417079374,299.6708762518598
707,14.14,-239.10754284492958,-37.03299691299537,252.05933331919027,142.44960607397002,-510.4618707491264,313.4577133050337
708,14.16,-337.2317735699842,-39.11500885305952,273.7170019444793,81.34862854649091,-503.13372133306024,320.68346048157605
709,14.18,-441.0356900780554,-57.748425651306036,268.26712463168917,33.42145111533572,-474.43103245091413,328.60874955519665
710,14.200000000000001,-541.7885045490101,-86.40302070131787,236.7323573325142,5.919682807284813,-427.3585812118639,344.59255394344314
711,14.22,-631.2695651608321,-118.26189415833316,184.40161718386798,1.761889554964469,-367.8147469963078,370.7614461876489
712,14.24,-701.3113002044415,-151.18297281721306,124.50578289266008,17.102551482638006,-300.9397299421778,403.22027237936356
713,14.26,-743.4744335959724,-186.91596855017707,76.13255080683557,41.125499737722166,-229.79976408103855,435.8646625745794
714,14.280000000000001,-751.1831493720388,-225.5794884184657,55.90622375825168,58.84781317792088,-157.38375796572456,463.8588913010523
715,14.3,-724.0761115652463,-262.5095553576113,69.89273516277278,55.76419060649809,-88.87854644207323,483.2825979357498
716,14.32,-670.6112533184539,-291.29701141378234,111.91658652652143,22.587195429403067,-30.66667308760452,489.0889171617471
717,14.34,-602.9875140436794,-308.20015838080013,168.36928338195622,-40.20792584713747,13.951576018797542,476.34883106497625
718,14.36,-523.1469388281989,-311.44391344740217,225.37758882683585,-117.16379809682415,48.38051021536256,446.13450497215314
719,14.38,-412.2430763762874,-296.52162802137246,274.2601082545071,-176.027572506657,81.60402249820078,410.44424394647433
720,14.4,-243.33107026967528,-255.09033826798174,313.4369207129097,-180.636372009187,121.62319374775198,389.1300152855771
721,14.42,-15.597318206744902,-181.4646986752428,347.3565383752739,-119.80135347848731,167.39580201949155,399.9209724686722
722,14.44,225.70865235462787,-80.67223480819987,382.3835374726998,-25.950415977648824,207.21151181605921,449.4234538634669
723,14.46,413.6594293455256,31.518553281676247,417.93692398102115,46.01603974046785,228.8009563910752,528.2763254514557
724,14.48,507.58367233046346,137.2435321198457,437.22030296564327,65.79821322493925,233.35597141339883,608.6187915396217
725,14.5,515.7846370554594,224.92520213145548,410.2392177093843,50.515344542295736,236.78277436054987,647.9864865346315
726,14.52,476.7242331368219,291.1823854895465,313.3125763488507,40.36693303943342,254.81893133562534,606.2650224675945
727,14.540000000000001,425.65039501202455,338.18563440355194,149.22194595147337,59.003066852496794,289.32893339873715,468.9772674792299
728,14.56,376.0193680053395,369.4524427076991,-50.189001224975485,98.85254506948343,330.12964989369107,258.5705339941751
729,14.58,321.358046625743,385.4146541871311,-238.7047223988816,134.29406405158625,365.2513556220215,23.761862839347753
730,14.6,248.50909149424308,382.3931750640429,-375.31850865252204,140.82400416559256,385.92407671231183,-184.72407119042845
731,14.620000000000001,151.6456704793166,357.0687065267528,-439.7095488136839,107.18379319216046,385.84906683539367,-335.1740962000523
732,14.64,38.80178089893336,310.66579343824634,-438.6612631603267,40.75294204619928,361.78634909870067,-421.55874909191186
733,14.66,-71.49283703973634,247.16924384452528,-399.2457275024593,-34.16106293003902,315.61103491087766,-456.18229452466915
734,14.68,-158.5320922794022,170.80296835994176,-351.2194264095705,-87.75719684908435,253.555517692918,-456.54271446868347
735,14.700000000000001,-206.4210476540733,90.1901495240703,-310.66545385262907,-101.2011792314374,183.3370320818638,-435.55622522017836
736,14.72,-208.25381911499983,23.317922814764742,-276.5613713347796,-76.1339557860761,112.79969240512602,-399.76471022365257
737,14.74,-168.82936089821538,-9.048378291593927,-240.15506803379378,-30.565749924304058,49.67584881061611,-353.5232393855997
738,14.76,-104.82137721742527,0.6112172072237314,-196.60944401562506,13.274023615177786,-0.07108498614400283,-302.907057644153
739,14.780000000000001,-39.5144898324082,38.12810789472767,-149.49307688321684,39.51644912504344,-34.27317610712199,-255.2182659570101
740,14.8,7.029920233694302,76.30580628053048,-107.49729610451561,43.578540980438454,-54.04493765349192,-216.2210245496247
741,14.82,26.33488771120716,91.43342814033737,-78.50571407330598,31.5451941911241,-61.51872411331713,-189.08351215102465
742,14.84,23.01295910721116,73.80297470285517,-65.15073990062508,14.40500348532002,-59.2188643393223,-174.4926569683124
743,14.86,9.964998089986278,29.0952649036476,-63.38993166519622,0.08249834291226765,-51.17133310167436,-169.5873253110309
744,14.88,1.5737426680168376,-25.373351522023142,-64.8825842877098,-10.631149065842727,-42.47501360168958,-167.7945590257334
745,14.9,7.900135092647545,-68.2066431125022,-62.36577701732821,-21.35572273838246,-36.68412014376647,-162.69920399506492
746,14.92,31.10765353418196,-84.48021592837384,-53.88242680084739,-34.73968149495277,-34.28350664074118,-152.86498526777675
747,14.94,65.31899082484694,-72.80976718433338,-41.90882833510393,-50.41146128267854,-33.9518861970129,-141.91127891537272
748,14.96,99.90392856692505,-42.77080536280407,-29.251476786953532,-67.08329084356095,-34.368102870200175,-134.15601108740694
749,14.98,123.99910363422201,-6.5773413054601475,-17.30361996724604,-84.1849059438022,-34.42573091027067,-131.04868252969158
750,15.0,130.3965972045771,26.216851060801424,-7.959431493223493,-99.62887979451433,-32.36160206632732,-131.34033886193828
751,15.02,118.52968815047694,49.72099285944379,-4.764352744093764,-107.12960159553077,-25.19186383767576,-133.7024528557588
752,15.040000000000001,95.4938065893542,63.00840881040023,-10.339577071766977,-99.2594848587429,-9.528222234507368,-138.81984348973614
753,15.06,72.99089684281422,71.5447349099623,-22.97758848143883,-75.16340067757048,15.890256902148854,-148.57609899920834
754,15.08,60.777353860165604,84.13666164169678,-37.08923526503277,-43.634329410347014,47.8807341598583,-162.88720245322244
755,15.1,61.07872205334138,105.53796138352351,-47.94770245294544,-16.172956641450963,79.85927038365392,-178.06576368168453
756,15.120000000000001,68.13857879276074,131.0907889198656,-56.004663856961095,2.788950137521998,106.08275241801806,-189.2375863544704
757,15.14,72.94163499950197,148.81283614675107,-65.67966550602372,17.043060151000134,124.74989877436934,-194.01287662243664
758,15.16,69.52790265765486,147.95751615039777,-79.31938623884243,30.05814167373395,136.7127952275272,-192.90783760520566
759,15.18,58.31676530503225,126.9859753456281,-93.15042787994571,37.656640096050594,141.62223381351407,-186.16550707392588
760,15.200000000000001,43.93507377638814,93.27989402743324,-100.34552286803681,31.468640584328487,135.90808801528883,-170.73540493146953
761,15.22,30.113032391146042,54.93642092695826,-97.79562204311046,9.543700799639492,114.70826506983406,-141.0728439182907
762,15.24,17.647208926640438,14.621082875274183,-88.7574333457373,-18.49045463565269,76.14751025609905,-94.04334121420953
763,15.26,7.278910120049045,-27.05222170376641,-79.00357188748934,-38.104576706231185,24.751864546469417,-33.99799071217802
764,15.280000000000001,1.9828803177749847,-64.57073952637545,-71.66740010470866,-41.36110177739782,-28.587868348423914,27.17483259529899
765,15.3,4.012380805225279,-88.17923186921908,-66.188524838779,-32.02399013531721,-70.92203973146812,75.80752236977779
766,15.32,10.501037556441858,-92.48019540691143,-61.12827734103142,-21.03163587239184,-93.96278579248367,103.28587833883886
767,15.34,14.236066530247655,-82.77380615547379,-56.92757217710885,-17.84028140653923,-98.8282730513789,109.13058397010309
768,15.36,9.263218940888207,-72.64045925727864,-55.941682193733854,-24.75703973641326,-94.85946754521875,99.50724532335904
769,15.38,-4.991105185617087,-76.17895679800574,-60.32761659878943,-37.49248906568378,-92.96530860358396,83.32847294826529
770,15.4,-24.80261126306192,-101.12217425677503,-70.23361600559403,-50.05938666230602,-98.57984040761164,68.6023930861068
771,15.42,-45.89671547461507,-145.4023785164929,-84.11573143568542,-59.32031276114817,-109.492883307912,60.515434806735755
772,15.44,-65.07345627738843,-197.2760300957177,-100.41259566325057,-65.55321793971336,-119.47675441492761,61.27049436679147
773,15.46,-78.06035072797712,-238.65010569526356,-117.81171843746401,-68.54289776089486,-123.94119321087965,71.2800241576922
774,15.48,-76.76926623931152,-250.0699487103689,-133.18378805672813,-62.04342925564619,-122.68225621789506,90.754201725195
775,15.5,-51.09471949763211,-215.88504450004336,-140.52477184901696,-32.290682106104725,-117.76401381580558,119.20057123558973
776,15.52,3.141078818765987,-130.49571799543986,-134.40691065140606,34.94840024006204,-109.07916649717146,151.57248800691792
777,15.540000000000001,75.5322612910248,-5.61396701785506,-115.56381314879422,141.84888112342665,-92.26020365540163,175.14671797226416
778,15.56,141.06731792351837,127.94488820381284,-92.07222996717559,270.6272848884156,-61.29725072145291,173.18683552799627
779,15.58,172.941053934545,231.7003954810379,-73.79648537509198,387.6675061117168,-13.87340997423425,134.6421356583591
780,15.6,160.3770654663935,279.88586392523644,-65.35739040073065,457.1121636493364,44.4239936051045,61.857401707743406
781,15.620000000000001,116.37485239592144,271.90890061506997,-64.10196786629882,455.59109043397456,99.46948561267153,-29.261448899809572
782,15.64,67.63920251397164,226.13752124121322,-63.4539947817735,381.8166062104773,132.4468034794923,-114.64963814842913
783,15.66,34.87857367257821,163.83178298812706,-57.10021424416688,257.57717841876246,128.0798364540681,-169.51712257922128
784,15.68,19.502902011078348,100.09783570945447,-41.20851069302435,117.94549597737407,84.26105309382807,-177.15876956526074
785,15.700000000000001,5.809508862872013,46.293750569648836,-15.749665535665073,-5.720492887007801,16.448296146540137,-137.09152452631582
786,15.72,-24.778611639810148,13.80991049911838,14.495145327046025,-98.46501125153328,-48.46870626019271,-66.66733312681174
787,15.74,-78.11624992784769,10.832165348276838,41.61257036212881,-160.56746807886026,-86.3034178952821,7.485580850939609
788,15.76,-140.63700652140872,36.09990212672983,59.91645537172015,-196.0193908238595,-87.98330510137936,63.67850133302761
789,15.780000000000001,-186.15142226606253,78.61970227913008,70.57267437440906,-203.61527890594817,-61.58630127900124,94.54467806956208
790,15.8,-192.34502524992672,124.51867013845217,79.96199375437911,-179.02203165500453,-23.761390802831112,104.15635539149051
791,15.82,-155.6346530276082,163.7494109249731,92.98691698255945,-123.71539454456801,11.886456907461483,96.58742366821363
792,15.84,-92.87701318179415,190.57974490396592,108.87047323527136,-50.183048558144776,41.101562508783914,68.17974509098707
793,15.860000000000001,-28.684389886607953,199.5939556838253,123.89892879342693,21.836251719788255,67.23379881053293,11.31722146054361
794,15.88,20.646438966336596,183.9843060280571,136.95052763649215,73.83163275130835,94.71925476560178,-75.1842793307067
795,15.9,53.72863745118632,139.6981090733646,151.09456956526276,94.9976823818277,123.178209333188,-179.87397498247287
796,15.92,77.61202724282819,70.44297293009657,170.03008242770377,84.75617350200531,146.20803945769393,-281.47265175330045
797,15.94,95.1334658941558,-14.341807363657658,193.04103304128614,52.86769274130411,155.73790542629973,-356.88379948448244
798,15.96,97.50383890857202,-106.91087025989441,212.17399078496746,17.4593697201684,148.60717886651506,-388.418727940578
799,15.98,70.16539146104937,-202.32570594175877,213.98368762270275,-0.4574117942464788,129.78265584890664,-367.94436449660986
800,16.0,8.51583334572867,-288.86963527942453,186.57194275255316,13.778578157098025,109.56529194551918,-299.11857338013664
801,16.02,-71.62124319470979,-341.75484230475564,128.5770984777708,58.70630157051185,97.72044157952455,-198.07298755039506
802,16.04,-140.95993208084633,-335.32469706767154,53.06369437000774,112.50714048219317,98.99219872198563,-89.53354072286649
803,16.06,-175.21825960628203,-265.637847679992,-18.19971915032083,139.6537426915524,110.98562557894901,4.312689393187156
804,16.080000000000002,-167.67999592858544,-158.74323763020317,-66.82971675183234,108.58775513678016,123.5880472730664,77.0047435193341
805,16.1,-127.69368618788558,-55.03897940333242,-87.76577954714799,12.423597023025977,121.51483316041005,140.32449659070758
806,16.12,-71.66768939633207,14.371350903892917,-90.27595368856059,-121.89043724694784,91.61963766190595,210.3576679939568
807,16.14,-14.78858652822802,40.505796727238454,-89.60034648869663,-246.65531176100018,31.26773720342602,289.6437529173956
808,16.16,34.03985862585025,34.66081659588082,-95.38534870143529,-321.63196861364077,-48.866673574376215,364.0273082820122
809,16.18,72.71196463325711,17.22839285829944,-106.06512025110081,-334.12088128630904,-129.46807317889204,416.13619709992645
810,16.2,101.21745981750232,3.9804977414815994,-113.87232880649674,-294.4519614270533,-190.59298025343145,439.4872572101117
811,16.22,116.65763144904027,-1.5382831106811112,-114.59603411758579,-215.37332428720546,-218.24695339819903,439.9969717001472
812,16.240000000000002,115.18842411127359,-3.8800124093706936,-110.55871957505117,-98.50258399730697,-207.25538698998966,427.0332118934332
813,16.26,100.12132513711175,-5.343588450016842,-103.25615212513281,59.01891440990426,-160.42434186357025,403.86830161641547
814,16.28,85.80768025118016,-1.9109151291465398,-85.34735706298534,244.93773489680405,-86.16500880290812,364.3165041737786
815,16.3,88.68933781731101,9.287794512579204,-43.728216805035,418.21086027924486,2.5477494548887845,297.15860896538493
816,16.32,110.55429237399791,19.83483265049538,26.487550139906716,517.2580855148842,88.14034146403887,195.57883172732284
817,16.34,130.74333214875577,11.102522712143053,109.87774035342207,491.3776330113134,151.00679502650314,65.03527923474773
818,16.36,118.91705343404772,-30.751917086765758,174.09852079750547,336.44718927744555,176.08272769612148,-76.13924000337872
819,16.38,59.6638095689829,-99.65296828583007,189.67920262021465,106.38179984335818,159.25417749834332,-203.0576108912696
820,16.4,-34.103981825594474,-169.83038181058077,150.3411069978365,-113.19627558263149,108.64121681489547,-293.098318743562
821,16.42,-131.7935201486709,-210.4307819623885,74.42833998921901,-252.10306808219516,40.50940831395904,-333.6516135978511
822,16.44,-207.3272616242363,-200.1217786769119,-13.279183518501613,-288.91274505442095,-26.964474923036043,-326.1428960214224
823,16.46,-249.64213809848727,-132.6646874440339,-98.3362449959753,-248.4192072737108,-79.30509253828257,-283.67319758175546
824,16.48,-254.77466783418197,-16.262836847463525,-174.48063578883443,-172.33801312819915,-109.24791697249657,-223.17046197917637
825,16.5,-215.53386895284825,129.41468040348633,-230.11670875505948,-92.79891779806941,-117.22719992138224,-158.0602111666017
826,16.52,-126.2267537714931,279.10356705818845,-244.75823138934737,-28.632173316573912,-108.74311058140675,-96.29868141847473
827,16.54,0.34728432334536485,408.4912700957,-203.1909268527479,4.163064611847052,-89.70316539909928,-42.09943139766105
828,16.56,124.33013602759112,494.86251039427077,-113.18800279467254,-8.813531270740611,-62.12028534643639,2.4133733848405865
829,16.580000000000002,194.53823259363816,513.0302968128351,-7.5690837374730116,-65.67667449217778,-23.431752763193554,35.371070140956405
830,16.6,180.48310240867895,439.9678435687781,73.40890065656961,-137.35826060453977,28.95673988053162,52.17022211477227
831,16.62,94.02983610953646,274.842753800374,104.96247587474971,-180.6412725497953,91.03463442164625,45.4073108379006
832,16.64,-18.654674869696315,56.38562741408051,88.25446951836605,-167.5581852568978,149.8247992036105,11.822351942609604
833,16.66,-107.49232258538007,-148.53023968291927,43.675012825029434,-102.97595249183536,188.7582126951834,-39.266199529819076
834,16.68,-145.69038448728614,-283.0433571526156,-3.963876301125673,-14.953301083517498,197.2314481823268,-87.28924193422665
835,16.7,-135.76676989807586,-331.2284004512395,-37.182179184352364,68.3286617818377,176.61667015363165,-113.23797896367897
836,16.72,-97.58675189944562,-314.97298596590167,-50.022324586950305,131.81326850875433,138.14471397951692,-111.86776040698993
837,16.740000000000002,-53.067557534988026,-267.021051543884,-46.00613133232355,171.30256941791902,95.52541721573614,-91.92419636110775
838,16.76,-17.339473118157084,-210.01694625185843,-33.13393616351088,187.40266901056955,59.073691389969035,-66.84199080651427
839,16.78,3.0561102549324133,-154.76273360474775,-19.346106446898894,184.4295058501575,34.751723306047374,-46.78045212072159
840,16.8,7.694932176276218,-106.6067806227014,-11.118335904050538,170.87555994008795,25.716802394622565,-37.65721555022193
841,16.82,-1.8603742385472364,-66.7628540229517,-14.954183799214986,156.07234926906182,32.89132958994966,-43.977763450024895
842,16.84,-24.387561924615753,-30.03140292415654,-37.61992409372321,144.9579998025386,54.976166466189554,-70.12195416946159
843,16.86,-56.46991459242973,11.911133827964944,-80.93222050809415,135.80094835979904,90.08657889300392,-117.73403439293088
844,16.88,-86.62536022120358,60.08892941873904,-132.92587696155942,121.99844258558011,137.42765480456114,-179.80772658559522
845,16.9,-93.42434979101299,99.96002234321803,-164.4940555667742,96.98384155624305,194.9290072847154,-236.01552598243563
846,16.92,-54.88496921053331,105.60294118897502,-140.6999937442479,61.260073371329234,253.59237889274135,-257.47519679747074
847,16.94,33.77960032281885,56.85233549956343,-44.16651379981619,26.627803522333956,295.45814224106766,-223.02811080702935
848,16.96,149.7549367702336,-41.88190500929096,107.13326670640936,9.964626928273447,300.19696886242,-134.96294953051614
849,16.98,253.52884235241206,-155.8762596395518,264.8905680451816,18.15837227892528,257.04593069826166,-19.585210033915075
850,17.0,315.3345036190501,-234.3187534634364,375.99959471781534,39.52638749563143,173.22664564262556,87.19990830686041
851,17.02,334.2015082990571,-238.18328182718201,409.3505169634921,53.89501565375642,71.70854139951065,157.28046850892966
852,17.04,332.1523543360728,-164.9282574221539,367.0229428443107,51.88169654698426,-21.360869644267765,181.43505281936027
853,17.06,329.4845194161612,-51.73251898589878,277.114348823927,41.27512936745579,-90.86759002542462,171.23182228380426
854,17.080000000000002,325.17481512371626,47.83874643850757,176.21387294518877,34.13643246556359,-137.857864126891,151.01657070239986
855,17.1,300.4227379047263,97.02203741051602,92.04278832746529,32.181803740895845,-172.69625026582787,142.44423270195423
856,17.12,239.15695052481692,93.75868431424641,34.008774807995366,27.205629194618503,-203.91111409531752,150.6119079963902
857,17.14,144.2467282328566,63.72295321075909,-4.671277036641511,11.583365578786749,-232.56710709752286,163.00403494598265
858,17.16,37.10952384433228,39.17206077720912,-35.08623336225219,-15.60571293774878,-254.66359820270378,162.69502502598706
859,17.18,-54.61766921540822,39.39624121057502,-60.24754631803701,-49.82772653704322,-266.5102307076233,143.25237235153466
860,17.2,-110.92452980205019,62.870960190859364,-73.32668451943255,-84.0153476650781,-267.73557285855753,111.70639562398398
861,17.22,-127.46537075084211,94.11635742705926,-66.87698860350852,-111.8950287173344,-261.1447270404362,79.7732607815451
862,17.240000000000002,-114.16458977427617,118.69340398500819,-41.16430775133329,-132.67293359716058,-251.31653411443432,54.505509826011135
863,17.26,-86.19194391853415,132.42175455562608,-2.8665279147082785,-152.66875151028168,-243.15222264973252,36.1510865857726
864,17.28,-55.049893999852316,137.49747756166983,41.21852102837853,-179.97292927786532,-240.83324031310013,21.74833209628153
865,17.3,-26.37159539153997,133.60674128922005,86.65646950766636,-217.03870819467568,-247.4731202688277,9.444847629943528
866,17.32,-3.2113244491592665,116.13393475849819,129.27802946535854,-258.9519152698891,-264.5373370188634,0.44351287754100577
867,17.34,11.088265619062893,81.98639684530221,163.56328564996755,-297.37114333687913,-289.7310632788847,-2.1202520451497398
868,17.36,13.607150898958562,34.22927546209088,183.78053489812316,-324.22141953809455,-314.9932039441245,3.8348641332859623
869,17.38,4.346025354190045,-19.387371343732358,186.09290036510703,-332.7067162639572,-328.6884912497385,17.184412624471058
870,17.400000000000002,-13.130585103995816,-71.06393304845203,169.84361630308467,-318.54662409999344,-322.6172910539992,34.401353106461755
871,17.42,-34.81218079524177,-116.15998562228165,137.99687795664377,-283.4649404942842,-298.06968815475005,52.61626976736585
872,17.44,-61.17926072600057,-152.8429265290067,97.38454488585299,-238.27934254838726,-264.51590075827465,71.97303457859923
873,17.46,-98.84225222418581,-178.618959166671,58.3617998974065,-200.88503245155746,-231.52347488107034,94.89042475784645
874,17.48,-155.17476170910547,-187.38180366382977,32.132864392882176,-187.46826853631302,-201.37279225561875,122.61804324806874
875,17.5,-228.74918833324833,-171.8738716813903,25.56132293809375,-201.90209302663746,-169.2818787841657,152.03608610591505
876,17.52,-304.2384754791025,-131.4322957459784,37.44432363294577,-233.03982988498535,-131.00253961742902,175.98746834743787
877,17.54,-358.50745257587096,-77.9096861204761,60.7185998288319,-264.81633826611926,-90.60435079406568,188.22864297422916
878,17.56,-374.9351472064893,-33.15418529222524,88.81705750111227,-290.82708248702045,-60.888230440584245,190.55331139485492
879,17.580000000000002,-354.7327869767567,-19.34325598401691,119.06289108011646,-318.4977592074295,-55.58432762418443,196.83828179567786
880,17.6,-316.0843797184379,-49.09709162114858,149.8150745406801,-358.555283927948,-79.81875028066563,229.30408527943678
881,17.62,-282.62461150510296,-120.98039924597984,176.29065426886956,-411.5011726112872,-126.33489514698954,307.56783090115744
882,17.64,-271.36028568915197,-222.12832895329376,191.33535674292878,-465.06445603431496,-179.60435541711087,437.5754046042451
883,17.66,-288.7617914741478,-336.31072595911803,190.80926413002868,-504.3417227222527,-223.73754357301988,608.1970626079535
884,17.68,-335.17089069811277,-452.0197515233924,177.8214618745785,-524.4995395178078,-247.86548424913286,796.3997547834084
885,17.7,-410.72250294436316,-564.1658654955124,161.39273674819438,-534.446139523261,-245.7124279430207,974.7985274346065
886,17.72,-516.3267771170033,-668.5657158361556,150.18791516359371,-547.457366852,-211.77309203136136,1115.5352878470364
887,17.740000000000002,-649.2948952308705,-755.1648246353766,145.91151782631266,-565.8665985577385,-139.7097502869168,1190.674667186167
888,17.76,-798.3492356289661,-805.2308461290163,141.67049615862388,-573.7264356996616,-26.086354896913065,1174.1948104714886
889,17.78,-942.0521082388284,-792.85642531643,127.09010488086946,-545.641443717477,123.2263820520867,1048.8241345480685
890,17.8,-1050.323875915523,-691.092074627611,95.77863849012685,-464.1663935028223,289.914819261851,814.7410834161456
891,17.82,-1087.724908666631,-484.70933259589253,48.207104350288674,-329.3564470256139,447.0964712946918,493.83712693413645
892,17.84,-1020.8375874602142,-185.73343673532594,-11.332911032849708,-154.95384989143116,568.7142235957342,126.11294777760983
893,17.86,-831.8366437941028,160.54898140217077,-77.42545960604342,37.751549829440734,639.1732779889478,-240.3735151728917
894,17.88,-531.9987648871531,488.3084247487239,-140.8639063036452,220.20161239519888,657.8481071458425,-562.2937404948195
895,17.900000000000002,-163.5338612459064,737.0101106258746,-185.16057159645834,360.00181735729427,636.0419865075694,-812.4001389324253
896,17.92,214.30304822459607,873.8956011957496,-190.84765863858448,436.91127404114866,588.4505787171042,-984.4886869241641
897,17.94,546.3724951124457,900.3714492499225,-147.28456384439366,459.79479651711733,525.0010575272796,-1088.1223811578952
898,17.96,797.7310785846834,842.3738629911234,-61.38035205549322,463.80894340447253,448.59926258168,-1135.8443825845522
899,17.98,957.976627884633,734.5025848428907,44.722162592842885,486.85687257966276,358.80451798540025,-1133.2140888444305
900,18.0,1035.3528480013417,607.9686357463781,143.6841230849765,546.3730731623971,256.3493834490886,-1080.1338008368655
901,18.02,1047.478224554968,485.6711722883237,212.82247792887227,633.8707004119213,144.701719141009,-980.3697826251187
902,18.04,1015.0320861098872,381.54511359184085,240.71155011225096,724.5056301732665,29.772383411725507,-848.5649983994997
903,18.06,958.8310650623743,300.9779065592374,230.6602844557906,788.6594986836777,-79.84389989881991,-708.4599006166843
904,18.080000000000002,896.592765538534,242.38160009682656,198.47469260385043,799.181924606404,-172.74017973495728,-584.9319669424715
905,18.1,838.7672243377629,200.93161549970654,162.53855193638555,736.8130513039089,-236.9829887290939,-496.30690645691243
906,18.12,787.6627774607067,172.73552299335265,132.28301390341113,596.260945308855,-264.55413807307275,-450.8566820114564
907,18.14,742.158949102884,155.9582265691825,104.84191595931844,390.85624068512755,-254.62456253310785,-446.54695244562413
908,18.16,703.7265409581555,148.0455078439268,70.87808647998497,152.44240820163054,-213.3105575527435,-471.5555191473258
909,18.18,677.669481244411,142.41328365616633,20.88246172143851,-74.83717985400723,-151.20286261802224,-506.25641423768315
910,18.2,668.6072638898695,128.82794317613212,-53.555733269683664,-245.85818137076728,-81.05600145605992,-528.9459392588383
911,18.22,674.5217494125989,98.08940582895794,-159.17984886974924,-327.32810401405595,-15.955452499716483,-523.6604808144432
912,18.240000000000002,684.1484258327984,47.41640029343737,-296.02569158869755,-306.6269066739866,32.57166062096218,-485.50204190322984
913,18.26,679.4995103553366,-17.546219166416165,-451.76304859102055,-193.16932824165536,55.930384821004694,-421.79720253289645
914,18.28,642.518135826422,-85.09129883052111,-603.9559888414419,-13.302707646804855,49.29594537957302,-349.92547819367763
915,18.3,563.3005648564772,-142.2172810654162,-731.0778056341828,198.11943079432717,13.304416476453774,-290.99607013546745
916,18.32,445.95424656920204,-179.04250782707885,-822.6383685903915,407.232436604838,-43.81052918629409,-259.4264674739758
917,18.34,308.04895455477026,-190.83641536218062,-879.3535357530732,589.8729756013723,-106.80791276171806,-253.95543735237823
918,18.36,173.11902393165087,-177.33127732426598,-905.1826640176403,736.9891234807621,-158.37275357051868,-257.3459592462616
919,18.38,60.77453600377318,-140.88842006691686,-900.7799556314394,854.5987091214431,-185.77786319413588,-246.26572299804576
920,18.400000000000002,-19.484873928558002,-85.29179890153326,-864.3052885348241,957.9181328869488,-184.96893116243047,-205.6442859998202
921,18.42,-67.75139094099147,-15.223159384677247,-796.5218864799726,1061.659666627817,-159.31427326841282,-138.4736166741392
922,18.44,-88.01896213063702,64.6990557702504,-703.1416967457583,1170.6791397271127,-113.4026307739715,-63.87417276057034
923,18.46,-82.30496102427355,151.7762493053016,-591.879869152589,1275.2837974431075,-46.16608414288254,-3.675712080797247
924,18.48,-49.82232021608788,247.22428813143267,-468.8956986989302,1352.765969631058,50.64276263146383,33.452992866564244
925,18.5,7.899998132439805,356.78661084577294,-340.4464573252089,1373.7280206820576,186.23594982620597,59.35598580017741
926,18.52,80.24627846553823,488.10751409550164,-218.79317861218925,1311.0976877164935,360.96365040472335,100.41565532111765
927,18.54,144.0190493153915,643.8575204940803,-124.84517932787851,1150.1844839343034,560.1427921555108,180.18470261106384
928,18.56,165.69907629952075,812.6777443099961,-81.69341157873318,897.444457407048,756.2965125465737,296.6253651478786
929,18.580000000000002,111.04338214140918,964.0123746895622,-101.14111667856739,584.2301168333636,918.9262425674794,406.2629474252328
930,18.6,-38.02465641262023,1053.9118792174843,-171.87353926939088,261.4088625353943,1025.639835831366,434.13166359038655
931,18.62,-266.36330080390337,1043.3498741649905,-258.28107210595283,-16.852984002150777,1066.9095255157465,319.0353487037969
932,18.64,-522.4317845041041,920.00980406189,-313.29562238914866,-214.54750552403317,1041.5843807744504,70.79852046854994
933,18.66,-737.295439865543,707.8261031068065,-299.72344956917016,-326.59248295803275,949.1684457827394,-211.80144935488798
934,18.68,-856.2741839076164,455.086025084158,-207.65630867302954,-372.1357242885538,788.8487870129787,-392.99570734567084
935,18.7,-861.973310537888,208.57688355343004,-56.74686960597995,-375.64214340513604,567.758005299395,-387.5727329551521
936,18.72,-775.0186170988627,-7.332180823114072,117.59631087663482,-355.4095360173666,308.95287576256067,-209.96752024515368
937,18.740000000000002,-636.5833605792741,-192.99132040166802,283.33479262683534,-327.3819178325688,47.83253060860774,52.337942516783784
938,18.76,-487.37436530116406,-359.7096245143224,422.6137269016727,-311.6703467476562,-182.56426482083776,305.86920411709343
939,18.78,-355.3485492019677,-513.6347869118582,529.2426801512803,-328.31150817052776,-365.15795066823847,496.6127058303991
940,18.8,-254.61942044924854,-648.2237829404098,599.5988494318547,-385.6761608246562,-500.3170801467984,609.05572211958
941,18.82,-189.40040056461046,-747.0657271624528,627.8613833804029,-474.39744276481343,-596.4126582526834,642.8008633433224
942,18.84,-156.23915203468002,-794.0713411145847,610.4780280299483,-572.355047438178,-660.3947656931467,601.377506983142
943,18.86,-144.4717494779633,-785.889442881163,554.7135449954521,-655.7173539172833,-696.5881234519911,500.3108849027757
944,18.88,-139.57618016082793,-737.1960320786648,480.9249206295018,-708.9170468138002,-710.9770435842445,373.4819138102747
945,18.900000000000002,-130.50844035830715,-671.846600416949,413.65454091594984,-729.9089177377592,-713.0880553252314,261.14791148493157
946,18.92,-115.39952415113775,-606.9163849181507,368.391047158856,-729.4895730451054,-712.9233481139462,189.3739398533056
947,18.94,-99.79282005829208,-545.3166279261096,345.6797403375757,-724.4027828066658,-716.4049371752457,160.94005358106162
948,18.96,-88.98403364579069,-482.17305488888474,336.00884286423565,-726.4816252823373,-722.3454448844116,162.07841813362737
949,18.98,-82.01546122156122,-415.3506558303628,328.2269433521942,-734.1773114266844,-722.0630777771426,174.1621490173339
950,19.0,-72.40312481628496,-349.8705443393276,314.16282721758745,-733.7338945631404,-703.289572690293,181.5821110949451
951,19.02,-53.83928761436633,-294.53799780525515,289.7131342982554,-710.6568838025204,-658.1730125144286,175.82043355592026
952,19.04,-25.73572301121997,-255.02904965341702,255.48440509578717,-661.9947567620101,-589.6733762835229,157.8901989092975
953,19.06,5.527995466212865,-229.66827173276386,216.2781946614537,-597.8680834090537,-509.7883124380131,137.73017347915544
954,19.080000000000002,30.847512964456957,-211.8630109671328,177.73459410298435,-531.7558640912821,-430.8906531720818,128.0775096070461
955,19.1,45.01036739433468,-195.78867451946138,142.69640470407197,-471.40480675131516,-358.8864892043713,135.2985415899795
956,19.12,49.88544240791974,-178.28845025864706,111.0283666422605,-419.5030716308532,-293.9635454351584,154.75687608837458
957,19.14,51.794115470226735,-156.8357798704447,82.28059551508554,-378.75889847900584,-235.18054988206785,175.30994357012838
958,19.16,56.9611027127941,-129.5868026603278,58.17729549072935,-350.9435549128,-181.7305572527234,188.16218272088548
959,19.18,69.59112413172116,-98.08478367846332,43.59208587734732,-330.890868537667,-130.2419063618642,190.85746440826995
960,19.2,91.99323055735942,-66.44089115026858,45.12218019838975,-305.6674263252037,-73.95597459311678,183.43334333006254
961,19.22,123.81346824538213,-35.58828275875814,66.330442597866,-262.2313849890309,-7.13494774086391,163.06346423665354
962,19.240000000000002,160.40070777690514,0.2862636302259798,102.4666405213237,-196.08846082644533,69.27464972279698,124.56593500995538
