Frame,Time,RightHand_Accel_X,RightHand_Accel_Y,RightHand_Accel_Z,LeftHand_Accel_X,LeftHand_Accel_Y,LeftHand_Accel_Z
0,0.0,-146.2357268181853,110.62633654256484,46.493445754406665,44.795047448908,100.44725103821384,-40.44331342714582
1,0.016667,-140.7288279439641,114.39795102381501,52.538521199541606,13.89059923128599,125.44992052651136,-51.1667629083382
2,0.033334,-127.2570660645772,117.77139883803783,61.55003255013531,-48.24246663268226,168.5531010497494,-68.66364106847621
3,0.050001000000000004,-105.24738952457079,116.31471748660009,68.00519638371502,-136.9393135329871,220.71210784621567,-85.14214242532611
4,0.066668,-79.00207555651161,108.71630955053914,65.51628640893172,-238.09832982312065,274.16751499494706,-91.34119383708523
5,0.083335,-55.63957954083876,96.40569174136354,49.47126792869341,-330.1833956332488,320.8357639782482,-81.4025600642183
6,0.10000200000000001,-40.66472250409818,80.61874942486423,20.021207772611962,-392.9165225653995,349.9721348843527,-56.49662970133366
7,0.11666900000000001,-35.798648704533356,60.51499909350883,-16.586001997699373,-417.056521940378,350.9632237939617,-23.440677701425493
8,0.133336,-39.95787459233286,34.47335696804456,-50.249130365541305,-406.6982089489262,319.1349179716588,10.116305835917833
9,0.150003,-51.201660110201985,3.0911497123324043,-71.88493035463064,-371.25960662453826,257.68622717662885,38.83846853982879
10,0.16667,-67.82417105572328,-29.111953279805043,-77.52122082049868,-316.2834227669144,174.96760923872938,59.661122269601066
11,0.18333700000000003,-87.76632133938827,-54.05909986358972,-69.62500493496206,-244.12625156744895,82.62590352217086,71.39893725024955
12,0.20000400000000002,-106.9051292639819,-61.97980277566007,-55.83491254490943,-161.71052864197517,-4.190706660333797,74.6554116028494
13,0.216671,-118.95717552920439,-45.439215210020166,-45.24374752693832,-82.25420304297914,-69.93285451668177,70.02395614674339
14,0.23333800000000002,-118.44916977212301,-4.616545994734417,-43.65121659430132,-17.01664061430932,-105.83196108267123,56.38753751095221
15,0.25000500000000003,-103.5723913986739,51.18996717732171,-51.395569026918906,32.047709677691564,-113.23028469381629,33.25518777279859
16,0.266672,-75.79999727815877,108.72827427031825,-64.59528370444976,68.80899504897002,-98.78252596294197,4.54226199432297
17,0.283339,-38.119343279471366,157.4668790267704,-76.72346779723935,93.55932912892618,-68.35196941330861,-22.990142018295078
18,0.300006,5.480265083120742,191.10074097823457,-80.11446576779765,100.33180949943272,-26.691492549064982,-45.73228732809628
19,0.31667300000000004,49.897176034288805,204.61159533139408,-69.75574740272695,84.32382142194547,19.38509156541899,-65.05524584384241
20,0.33334,89.4103324651496,192.5520482170985,-47.37362007296938,50.12354399710354,60.311046810772865,-82.28532565781616
21,0.350007,119.27411953779901,151.7781668985075,-20.93485432850142,11.480191858232825,87.08314974084593,-94.32205526242235
22,0.36667400000000006,138.60685460977172,86.44438917711874,0.43186041662724683,-16.620568272757446,95.73734987915829,-95.9647012905634
23,0.38334100000000004,152.02979573578267,9.275284064840564,11.411527656650694,-26.216044103866636,89.24102865498803,-85.94840581044241
24,0.40000800000000003,166.58491765325252,-64.36006236318767,11.803767582615452,-19.24013815350272,75.19913688068854,-70.22633036559454
25,0.416675,186.0812390334968,-124.82625190222393,4.095354601828953,-4.107980670452065,61.47529077305339,-59.60209392778723
26,0.433342,208.84814677029573,-171.09496873030068,-9.710234597094884,11.317702078808676,53.074944814696224,-63.23849714109226
27,0.45000900000000005,230.1616515334216,-206.84868903802862,-28.551804641353087,25.78568894938001,51.257565951749534,-82.37577684773514
28,0.46667600000000004,245.52163020476263,-235.2379516742721,-50.38506303427789,45.39174682873567,54.05252022440024,-109.06355962965067
29,0.483343,252.16970602543628,-256.8439825494282,-71.46036515638151,77.9393392038409,57.761529676223574,-131.22842626397147
30,0.5000100000000001,248.9978357647544,-270.93470156325657,-88.07798120101167,125.04011575412676,58.79900212899206,-140.23509920125576
31,0.516677,235.93402871671313,-277.17945559889074,-98.47699321902229,178.9132457900218,54.692323656167645,-135.21921248920628
32,0.533344,214.0354726304523,-275.51131069937105,-102.9791778751509,227.23531494979773,44.30156975144446,-121.42419915071525
33,0.550011,186.0431768548262,-265.21293482359954,-102.71893907603675,261.6633450277203,27.910047160411025,-104.88462144259486
34,0.566678,155.51087589265052,-245.60613468895764,-97.87420889155746,282.1586379589226,6.498050125695249,-88.40886225220859
35,0.583345,124.62863398998834,-217.32184048346195,-86.75574886815492,294.0958824111907,-19.906921669462562,-71.42915387740378
36,0.600012,93.73777361323376,-181.45056545798423,-67.97374478518314,302.4350114856853,-52.337494536103705,-52.322166742574574
37,0.6166790000000001,63.503514263876205,-138.26050632988435,-45.49601683464293,309.01335218153054,-90.30631440890362,-30.924496889842757
38,0.6333460000000001,36.54008060255508,-89.4084136090498,-30.880386064274767,314.0415061244146,-129.9016000250998,-10.070627683739925
39,0.6500130000000001,15.87670092357001,-41.46008266691715,-36.67563707683129,317.630554413392,-165.39311879885358,5.1465345469478985
40,0.66668,2.0768511845388655,-4.047315655589989,-64.73029591380029,318.7943183175746,-191.99864521796485,11.139725391411234
41,0.683347,-7.42133922527939,17.428040493103104,-102.04834947970619,314.87750495196576,-206.65428495746252,9.603444679705326
42,0.700014,-16.176808087217445,26.480966732437636,-130.167596019676,304.0347179135661,-207.78961453776407,6.35413139220404
43,0.716681,-26.675715630342292,32.253666172332814,-138.176406755048,287.64028298266913,-196.09905394903012,5.512336290515069
44,0.7333480000000001,-40.27009204665019,41.35203885751452,-126.68923685602229,268.79027536207786,-175.35417175679186,5.401558522740347
45,0.7500150000000001,-57.30043708196863,51.78779499904222,-103.42236591974412,248.8068121947922,-151.63138936613637,0.38303541993325574
46,0.7666820000000001,-75.3194218246375,54.61474019368002,-78.76617271515836,226.2954075952705,-130.7340410582592,-13.809492655083043
47,0.7833490000000001,-88.18939653453867,43.34960957772973,-62.66962776705876,199.3377764818128,-114.18138209364417,-36.05197635600143
48,0.8000160000000001,-90.12923172849358,22.96739243238749,-59.8009728548584,167.78925209929054,-96.22657559348931,-59.92129933079565
49,0.816683,-81.48052598996519,8.579080701368166,-66.88260235030009,133.84999389365424,-66.5455340813208,-77.75010164516644
50,0.83335,-68.66203708483015,14.225693220452616,-77.32113215276084,101.45457703527164,-18.86965081516766,-85.6248042271545
51,0.850017,-58.47467801994219,42.62030760338773,-87.88769672192957,75.05058378883489,41.80395801432802,-85.43982810627742
52,0.866684,-54.23709813508667,84.36354341579363,-99.14275920841058,57.57711515189221,100.66950011777885,-82.99869495721033
53,0.8833510000000001,-56.62587887441281,125.01043713318181,-111.38247895618127,48.333622911968455,142.18510420513874,-84.22494775929093
54,0.9000180000000001,-65.14925831828268,152.87045221380026,-123.02369836950055,42.702981359054604,158.99107017941202,-91.57056102922306
55,0.9166850000000001,-77.87984773214808,162.88373961345178,-131.73517498928405,34.68841834947425,154.10693755413962,-102.19556923762502
56,0.9333520000000001,-91.77698422220294,156.57096671147937,-134.54157702677747,20.35186393128009,136.40734274468247,-109.75430619852152
57,0.9500190000000001,-104.68985432407231,139.58357385993457,-127.83095305770976,-0.6990183602679325,113.84827224658864,-109.71364371569837
58,0.966686,-116.05542330481666,118.0331969895733,-110.41781790349833,-25.949203015756446,88.7523084896169,-103.83993982814519
59,0.983353,-124.59923639089016,95.7704741538875,-87.32345374402274,-51.10984903061491,58.332295581788316,-98.50533007084897
60,1.0000200000000001,-126.61898165742171,74.78378080517376,-68.62892865622376,-72.0594792156925,20.884468870944808,-97.80407518442672
61,1.0166870000000001,-118.55325913318683,57.23707364135562,-62.87936314873575,-88.40304640525959,-18.091839864470348,-99.75671445600923
62,1.033354,-101.16679333564133,45.59753288138099,-70.80765621588085,-105.50254811779351,-47.274382893080755,-100.58279850627568
63,1.050021,-79.45449766827315,40.81071391456313,-84.63840341791617,-130.4702032398145,-57.8976421450451,-100.44136888787975
64,1.066688,-57.696851505703194,41.27336211066635,-93.20252475388759,-164.31627330082455,-51.06950046341655,-101.99114401139259
65,1.083355,-35.59315509228384,43.36288556033881,-88.91921643208636,-199.65936530717175,-37.21661568246331,-104.59933727512293
66,1.100022,-9.858503897416574,42.941269092963246,-71.4573357759463,-228.75004194453322,-27.60158074457837,-103.40871151357481
67,1.116689,21.55062757672799,37.85579335302185,-46.042573026092356,-252.17131337503812,-25.62408661335353,-94.58096470051163
68,1.133356,57.897877868830804,29.683972377100435,-19.13492839100474,-275.6049059999165,-26.93985292549307,-79.18295027174491
69,1.150023,97.01552861524263,22.111410018699768,5.336503025939317,-299.5983397856573,-26.501225438237807,-61.14715890305362
70,1.16669,136.17554118236885,17.559423746008417,27.756359927835945,-318.3325147606736,-22.04132040040728,-43.73042426693752
71,1.183357,172.56013575368578,16.29260139405107,51.17334701413552,-327.9427778101043,-11.49268474745934,-29.09666874996149
72,1.200024,205.67404340529794,17.77114240683767,76.93408299376847,-329.85607839090994,8.211309225514334,-18.521539788958556
73,1.2166910000000002,239.44552518729904,20.137807679715433,102.29309412186632,-324.6396996440677,37.76967927494862,-10.475507974946089
74,1.2333580000000002,279.30383828641834,18.147118824448064,122.73875970931368,-307.13563915634177,73.11695275336214,0.5337374092530043
75,1.2500250000000002,325.79258454850657,4.761901969078535,135.5469631024735,-270.3998166421185,107.96098855018062,21.683196069533103
76,1.2666920000000002,371.89690467062013,-23.242953652288556,140.45860571079322,-213.38880603971,137.33056074965572,57.95110577279726
77,1.2833590000000001,406.94130092185856,-62.42614518792165,138.65347566968848,-144.5228023110781,157.24411319827504,108.86880375988021
78,1.3000260000000001,422.2007851274664,-105.86094422846448,132.98845438795556,-79.4537913283809,162.63010726574566,166.5452896040276
79,1.3166930000000001,413.3571113103738,-147.11842497520726,128.2885412820714,-35.106827681597736,149.01751188611624,216.68124510758167
80,1.33336,381.1085484435588,-180.32114484916295,128.3434205412479,-21.713022891723554,117.65256048524049,244.4555970179552
81,1.350027,332.8020516668394,-199.33491091968256,131.09277188514284,-36.25114438019636,77.5771199609235,242.52247262820254
82,1.366694,282.2748892672985,-200.3867135438773,128.47795055600244,-63.40358249822637,41.29139864445334,214.1629040669818
83,1.383361,243.40609946951957,-185.67370689755492,113.70818461283157,-85.39236977079996,17.825058356250175,169.02898771632644
84,1.400028,221.30627595481909,-162.79986183649996,89.01380092025346,-92.26082007840455,8.479645912764624,117.20262250725986
85,1.416695,210.60475155021015,-139.42315193092924,64.57745269116073,-83.7115606122498,7.377051495601724,66.84245495259756
86,1.433362,202.22830982034054,-117.3993202195802,49.74590217185771,-63.954473307422106,6.361150064176758,23.7701053584297
87,1.450029,190.41655048198737,-92.1807178429192,46.972944558933605,-37.29394979488131,1.068086467616459,-9.720255516657408
88,1.4666960000000002,174.4481156060576,-59.88857572932841,53.62522195787905,-7.808819651991841,-7.113552214899159,-35.317127339784584
89,1.4833630000000002,157.17333561631062,-25.74272742217517,66.1993309458039,20.005557575821914,-15.085110697577715,-56.54086987500823
90,1.5000300000000002,142.99109359079955,-2.8330091248567797,81.75128343669783,42.412893885316024,-22.916099654443016,-75.73308786210912
91,1.5166970000000002,135.264532685992,-0.26695498749430513,98.06980123593695,57.63383018454141,-33.37534968504968,-92.89176241092171
92,1.5333640000000002,133.92566236742013,-13.812920822994897,114.40874534281761,65.11558398737304,-47.08365530303695,-106.54136998224017
93,1.5500310000000002,135.21001530188104,-29.766362641503758,131.2031735580495,64.86800965524704,-59.80768039843981,-115.19933966174744
94,1.5666980000000001,134.03690366369509,-36.752204857682486,148.40486471478152,58.71581519909077,-65.50802847632488,-118.61941381821971
95,1.5833650000000001,127.36539130767099,-32.32511803790359,164.47230754701968,51.00271282178687,-61.56152564547328,-118.44522086680132
96,1.6000320000000001,116.05125355942593,-19.80167454919187,177.1707553905373,46.32349562113747,-50.25275604058753,-117.38316821109407
97,1.616699,104.05111966042764,-2.3502654512057775,185.81797042438166,46.622675172083945,-36.0284335412876,-116.99078622799993
98,1.633366,95.77480481497123,18.211619468107138,193.08168021453994,51.04099249430978,-22.8864019794307,-116.44211601361407
99,1.650033,92.75141384615416,38.714971287601365,202.98584561952913,57.95275501351305,-13.913244438272365,-114.02402138896237
100,1.6667,90.91182127826296,53.68696529873543,215.00645967883446,66.65281556350607,-11.16976881704743,-109.46255615101515
101,1.683367,81.03619494633463,58.68165510282273,221.00083105833454,77.61363578100409,-14.881972204601729,-103.90896967254793
102,1.700034,53.672237296202056,54.79320964344748,211.41969604631652,91.16526304019023,-22.880831749235774,-97.97778550079997
103,1.716701,5.259016003175267,49.61276720070565,185.8656864701629,105.19624167818657,-31.125213243872196,-91.12422531046695
104,1.733368,-59.3397493862048,53.19725749250297,154.90216826269292,114.51087710730415,-35.441323184231486,-82.9892333657524
105,1.7500350000000002,-129.141886532044,71.74132891972354,129.30321907028363,113.7987343541721,-33.92709990681747,-74.08072731867415
106,1.7667020000000002,-192.13263778243766,103.0244610132567,109.36201749227578,101.42931104465498,-28.40526968296009,-65.16169742172508
107,1.7833690000000002,-240.09297668379935,136.6258267515093,87.08865715530118,79.75673525310486,-23.48416326259153,-57.297814135658136
108,1.8000360000000002,-270.3551748235126,159.3968599903953,57.092864990276325,52.385021811897175,-23.709800279562337,-52.38333408966825
109,1.8167030000000002,-284.16035779604056,162.81916422724836,22.107789629024943,22.26577394458487,-30.977854647513627,-52.16205369115529
110,1.8333700000000002,-284.4087214543008,146.7398897088109,-11.16595885117614,-8.174312740119415,-43.99410238713842,-56.54135529491076
111,1.8500370000000002,-274.768499947396,117.56083762594164,-37.9773913135724,-36.93007982059531,-59.40002315868142,-63.97132296499227
112,1.8667040000000001,-259.1950911112683,83.92016181982184,-56.94904241376189,-63.1208296720136,-73.09889419081964,-73.70237942883092
113,1.8833710000000001,-241.20751788707196,52.854909779038294,-68.80138534176443,-86.70172042677167,-81.7223616901088,-86.67913457519525
114,1.9000380000000001,-224.01882679149224,27.457116702843827,-75.70343433838596,-106.63625971081137,-84.37802742837678,-103.71905756708864
115,1.916705,-211.17234745869524,6.860631311248652,-81.15607222638693,-120.09585704050475,-82.91113659745425,-123.46981328511859
116,1.933372,-205.5966175170467,-11.270064969786276,-88.73969244657322,-124.29859291687926,-79.79658584361438,-142.6997641967671
117,1.950039,-207.5850025184493,-27.46646500887368,-99.57494675316214,-118.77350826349063,-75.90284794981383,-158.03956447246486
118,1.966706,-214.65875263050867,-39.11902066526983,-110.95107293336257,-105.50754775914108,-70.43130529152943,-167.0091842374733
119,1.983373,-223.5425312326803,-42.46836546975015,-118.71804488168738,-87.50542534256978,-62.46783534914686,-168.647744385071
120,2.0000400000000003,-231.62586652759933,-35.85759482193006,-121.46759843144514,-67.50746927695212,-51.713477698890074,-164.68875056356984
121,2.0167070000000002,-237.29649580656917,-20.24311178905522,-120.92710393429667,-47.23432185707974,-37.018565858850366,-159.40498096391707
122,2.0333740000000002,-240.59835746782818,2.8887206125893314,-117.7303099307293,-26.769279812671513,-14.936786363163423,-156.55367292899183
123,2.0500410000000002,-243.79426714420643,31.26066511591505,-108.91376570948177,-4.5439445726863,17.74666596972827,-156.3115911969528
124,2.066708,-250.15821013969753,59.07200139408677,-91.45150953457463,21.23171600300091,58.61453657286223,-155.970358598499
125,2.083375,-261.41524379852365,78.3335116556406,-67.78924099193318,50.5513454008703,98.1772465538612,-153.34132744049566
126,2.100042,-275.88699361310853,85.18059968460656,-46.80794202499514,81.23672562385302,125.47949692941194,-148.56900184387527
127,2.116709,-288.442649382537,82.81954626298139,-39.04539757190984,110.50401929197528,135.08498273540573,-142.73342940716594
128,2.133376,-291.8056717370922,76.28574104641267,-51.0950064785974,136.17438879443486,128.6759593386978,-135.660602561674
129,2.150043,-278.35420481910535,65.64153855908091,-84.1283690408433,156.50781170057667,111.60322892504307,-125.57032975041638
130,2.16671,-241.99454068109694,46.85237985116308,-134.84292954688067,170.45873288757502,89.52587006772812,-110.6272220922273
131,2.183377,-180.19416689461008,19.86147633379474,-194.14307692328055,179.07062993234834,67.84621287198085,-90.77271899581044
132,2.200044,-96.34395953807109,-6.672218641043553,-246.7455436020233,185.7574052057589,51.84394991018807,-68.28940062770342
133,2.216711,-1.5104236260194117,-21.79093471948606,-279.07611768379036,194.08524684407234,44.80849201327019,-46.470995240031996
134,2.233378,87.22991619261074,-22.78645654701705,-290.1049033742399,205.06696615314817,45.58807832242355,-27.47675860181052
135,2.250045,153.4833480764272,-16.08790580545309,-290.2871202453553,216.60016550407857,48.97049264973799,-11.458300145011377
136,2.266712,189.0317802733766,-8.505071552769493,-288.5096982859984,225.28265747385504,48.61121092828424,2.660955713707857
137,2.283379,195.61702436170583,-1.4811804792488186,-283.79245100990283,228.75093688127694,39.62128833493045,16.253380292037303
138,2.300046,181.2221489010624,6.808293835076252,-269.98168201788025,226.7634131618464,20.044558012283723,30.620973360752032
139,2.316713,155.95564943391147,17.58421085669246,-243.85919397346436,220.9257967011348,-8.202388062299809,46.85365979019312
140,2.33338,128.6828413008821,29.69046932026816,-207.1125607767437,213.8581560460162,-39.39650454197424,65.76703731100281
141,2.350047,103.63647560218689,39.69708373128309,-163.98493589025747,208.1042248822318,-65.55926254622992,87.6152633903785
142,2.366714,80.17052027072005,44.46564008067472,-118.89965469867087,205.09713760484348,-78.93462613122291,111.59530953631308
143,2.383381,57.13320210008109,44.36240844560919,-73.37150327794066,204.9888554274092,-74.67591348961821,136.3471661615682
144,2.400048,36.41685555700019,42.304271440911165,-22.76970182131057,207.47268841198226,-53.124461379620485,161.56836844528442
145,2.4167150000000004,21.31378313792196,38.8477509665693,41.258942428873596,212.52584915924646,-20.43741212010022,188.420890572941
146,2.4333820000000004,13.390938917014898,30.148776225455443,120.87436422475136,219.89983488579077,13.586577473069461,217.58801910456603
147,2.4500490000000004,12.856369878258285,12.615992052818825,203.6123741570164,227.43190675307116,39.588110929987984,247.46158118834526
148,2.4667160000000004,20.489320599552087,-11.351590347704429,265.85019801243976,230.1314527850648,51.75462833767752,274.8716220336942
149,2.4833830000000003,36.49144638422699,-34.60624911701224,286.9935042020246,222.11736025294198,48.26719300927921,297.08018303120014
150,2.5000500000000003,57.560223073180154,-52.323717213940405,262.8968960723896,200.5245712203529,30.250122604401867,312.607700182052
151,2.5167170000000003,77.67376279328613,-65.40114907107865,208.51697710011172,168.03260098734768,0.6716895293112985,321.0262204317231
152,2.5333840000000003,92.79981542350167,-76.05187939688551,148.75692465934057,131.71886069282965,-36.46029811518901,322.95374937538884
153,2.5500510000000003,103.6219063416785,-82.53816010355561,104.61612421964443,98.8883170457041,-76.06154857691435,319.94221106295913
154,2.5667180000000003,113.4151861685217,-80.20229272713573,84.51999127597982,72.86399335533412,-111.34045826551099,313.7002058100458
155,2.5833850000000003,124.72841915675595,-66.8537722922764,86.10282467063166,51.88765196552998,-134.67474531940297,305.37331604309065
156,2.6000520000000003,138.09574421982208,-45.95354477844344,103.87997674046525,31.885741662772297,-140.6719830190185,295.4814920187703
157,2.6167190000000002,151.5393327456356,-24.648481653178333,132.92192146574365,10.629462880951495,-128.53088357768746,283.94189027235154
158,2.6333860000000002,160.15509174948144,-9.072008161557978,166.3573632913831,-10.398137929506158,-101.45346989036423,269.8634016681533
159,2.650053,157.90103181635624,-1.7436951233427536,194.78184810564926,-27.93783835858492,-65.37259864017712,251.913310811227
160,2.66672,141.4223300123033,-3.6778527465577646,211.19608473880982,-40.56856373000503,-29.45729825871877,229.31714463502692
161,2.683387,112.19192350182175,-17.4367822626115,214.45809073553738,-50.24944791526276,-5.273285616020077,202.2462975571482
162,2.700054,75.27070042783902,-44.88300235679939,207.31742339605233,-60.07265502990575,-0.8020637500833239,171.7942302537419
163,2.716721,36.90671624335255,-81.63251771696699,194.35770103901223,-70.52070321556539,-14.042030576320752,141.10284177974714
164,2.733388,2.9271701722124384,-117.37483136015877,182.4473890194284,-78.5228299561977,-34.35072367622983,116.00487259107251
165,2.750055,-22.62914904979924,-143.48646411010506,179.25699955872523,-81.30812801920507,-49.67751049198678,100.85622061625493
166,2.766722,-39.031779129282285,-158.39734202617134,188.79236412023175,-81.61932133022033,-51.15906600648529,91.3278508450145
167,2.783389,-48.837853151516434,-164.95238550192934,208.78093845990736,-87.2564872404544,-34.27252290397993,74.64322304890575
168,2.800056,-55.40721447618102,-164.92009196588367,231.95454572546672,-102.96378501521939,-1.3709424073645997,42.25950411166269
169,2.816723,-60.15178704770048,-156.99868003166338,248.6550723659587,-123.57018826958308,36.61426199421448,1.678961498836963
170,2.83339,-62.09071182475476,-138.61502960009582,249.14182978120417,-138.14615216361975,65.52086391358955,-29.427639854129186
171,2.850057,-59.60716859300011,-108.82118761660345,226.33504801436374,-140.6205781521287,77.6041075982871,-41.04726801016322
172,2.866724,-52.20046152455376,-70.0532819590127,179.33187144264065,-133.64832399963132,75.58185097756666,-38.58477155465527
173,2.883391,-40.11412669961928,-27.242092708391514,115.92341922631198,-123.1059263376828,67.75334284888488,-33.643259932790244
174,2.900058,-22.260410002835492,15.378753912303148,50.727160502128655,-112.13628358631249,60.92800325249082,-32.55365129367108
175,2.916725,4.184852219447018,56.470337615406606,-2.198249139247487,-100.22853558196289,57.97117832661139,-35.11096453488746
176,2.9333920000000004,40.708704896041056,95.69403066578737,-37.12051484192184,-85.2526231897046,59.19344786423049,-39.65097151177028
177,2.9500590000000004,84.36290417765562,129.74042472528822,-57.836959177794284,-65.72644622174488,63.064528131538594,-45.28932193486399
178,2.9667260000000004,128.7181090811911,151.824210830316,-72.38051370136228,-42.17114896584499,65.73521566423948,-50.2379903362592
179,2.9833930000000004,167.45903779660085,156.16941050601957,-87.30009851199391,-16.564539133801215,62.490579493287115,-51.266585103052336
180,3.0000600000000004,196.66537195377316,142.5276246295095,-105.47931107999352,9.491451015890933,51.31512471609739,-46.25752282137903
181,3.0167270000000004,214.83679271287463,115.2787486594774,-127.10281035596144,35.60245444838989,34.48280330084239,-36.480659922439585
182,3.0333940000000004,221.7141695707542,78.35166276735464,-151.37032905868674,61.769144679738154,16.031341184752613,-25.44269086135659
183,3.0500610000000004,217.22730051429434,33.5995480066766,-176.5216348143977,87.5335126351183,-1.260288589166369,-15.876019974765457
184,3.0667280000000003,202.6373550318919,-13.936623013785667,-198.44159582562997,112.15972542570287,-15.545938964824249,-8.628103186801152
185,3.0833950000000003,183.07781077936693,-52.38447107838077,-211.04602827836706,135.23580778736127,-23.882718811082672,-3.8372955083289977
186,3.1000620000000003,165.84244797133323,-69.83274752411137,-209.74250068690475,156.83056382008976,-21.962083872824486,-1.4865080931418206
187,3.1167290000000003,153.3193896743619,-64.49103284120703,-194.84339268348498,177.34631659751997,-5.966037673270943,-0.5234155579015025
188,3.1333960000000003,140.21395283205064,-44.71219712879373,-171.7905864113368,197.47364068921175,24.441348261129406,1.123355828194219
189,3.1500630000000003,121.3999928356952,-20.325270100373295,-148.79911752222793,217.82735938585782,63.3462484414668,4.8546088316493625
190,3.1667300000000003,100.60313527880383,2.4740771870992484,-134.0712909079826,237.91615918235732,99.37427236159289,10.239681124666248
191,3.1833970000000003,87.46661923100066,19.539048676031396,-133.06878579776625,255.45710224294638,121.37929530098427,15.830225729623866
192,3.2000640000000002,86.94109838595992,27.63960795159725,-145.6457758881077,267.2131250011819,124.40555664236894,20.52344079767448
193,3.2167310000000002,95.45348533667388,27.19816220352852,-165.0139590154119,270.80557167478366,110.77192538505058,23.641604419907175
194,3.233398,108.09053671670927,24.07816310924704,-181.2839862896833,265.96935081357657,86.72891562599206,24.258599203622673
195,3.250065,125.34274744875252,25.680327732263514,-188.0457138218165,254.5934424323235,58.33266922920005,21.350346575242714
196,3.266732,149.0949903875707,34.488148414895726,-185.65371130440644,239.9305209365169,29.21010267102688,14.62914184981069
197,3.283399,173.8909684870584,47.05415726441663,-177.30242279750854,225.56285679621635,1.1419845993071753,4.774390859070226
198,3.300066,187.06464811794785,59.865744554736466,-162.7762797707005,214.38498184054873,-23.816532537816798,-7.1570614445952945
199,3.316733,179.32062200010859,73.43655013587241,-138.52969241801802,207.4971830923199,-42.50351399784246,-20.262394571479113
200,3.3334,153.1318721708861,88.57359816259901,-104.18822368068055,203.32120751953772,-52.34510255702942,-33.80411115618017
201,3.350067,118.91216702253489,101.38268041917377,-66.15601859886596,198.08342167337128,-53.56976656328558,-47.07233086054362
202,3.366734,84.10345773896873,105.48809542338337,-33.46671109709812,187.96331655054666,-49.01589397953605,-59.481670396299805
203,3.383401,47.873657790341994,98.53267680260566,-11.516405092069133,171.15839561716388,-41.17825836016577,-70.7015806369762
204,3.400068,5.619118312028629,84.37896278430206,0.21018862744117328,148.07953832104735,-29.601623038202277,-80.16182161192935
205,3.416735,-43.45191332463987,69.25356711932166,6.719926641177674,120.06870947028287,-11.904169169416324,-85.89424135467007
206,3.433402,-93.46292194065913,56.79761557454002,14.608050733637516,88.26800642276986,12.456325921080637,-84.20021615201506
207,3.450069,-136.04575927013855,45.88824609657982,28.804024501809806,53.36494409731011,39.971691107606915,-71.51069224594407
208,3.466736,-167.24829117492817,31.684873280964837,50.94916877927598,15.899760122824961,64.75903095072162,-47.241821074416805
209,3.4834030000000005,-189.4844729218285,9.089833068793228,80.29193281743346,-23.236990660927965,82.00354736579155,-14.879188107886261
210,3.5000700000000005,-206.25990492987,-23.35230802021302,114.40503982505051,-62.349507565694545,89.84213649502738,19.664894247933272
211,3.5167370000000004,-216.68004659727492,-62.040810331193136,148.48568174595636,-98.83880146423319,88.86421034831781,50.6600925672603
212,3.5334040000000004,-216.52854081955354,-100.1219744388253,176.39380198504634,-129.8421534367974,80.82908269791173,74.14781555657476
213,3.5500710000000004,-203.49441117406548,-130.57221622690938,193.80875730624996,-153.47158581777956,67.88372002970544,88.45820229981648
214,3.5667380000000004,-180.03505782035307,-148.94828206670746,199.09690726539932,-169.62548221797908,51.79441116431143,94.5305515885616
215,3.5834050000000004,-152.01690723244732,-154.61017300021734,191.66655144224703,-179.52130333451208,32.88336010244064,95.51777805058393
216,3.6000720000000004,-125.64831005159155,-149.0090488574334,172.49985851219097,-184.4020254089799,10.177862549103772,94.56203334569327
217,3.6167390000000004,-105.10362179296627,-132.5485957763076,146.44675263487258,-184.78118605394758,-16.464229168864197,92.2178601287086
218,3.6334060000000004,-91.76817816258153,-104.69830043003105,120.82652861165141,-181.0115174753018,-44.83298288016038,86.69289686607834
219,3.6500730000000003,-85.10453277434948,-68.14418544606002,100.46812184254286,-174.26515040195196,-72.00875086514009,76.90477223522997
220,3.6667400000000003,-84.1671119922208,-30.97965836877752,85.45490830802665,-166.43985710827317,-96.97399314621302,64.62146920129014
221,3.6834070000000003,-88.19780765609175,-2.8393974207098758,73.86346179133344,-159.09246300934373,-120.10678508351901,53.30690072713779
222,3.7000740000000003,-95.63767000170638,10.749985805979776,65.15741262181702,-152.8053400330653,-140.32508386938787,45.36809708035109
223,3.7167410000000003,-102.9300194064792,9.978607673276517,60.50613623137266,-147.5812272887885,-154.56858152118784,40.807650801635255
224,3.7334080000000003,-105.44520500816566,-1.226118941334259,61.135378814890416,-143.55926760475293,-160.7361236244309,38.29133656943982
225,3.7500750000000003,-100.9046315646073,-17.390865305401235,67.23082953318111,-141.36452186654768,-159.80915025376183,37.00640756124521
226,3.7667420000000003,-92.19448273723387,-33.23205027959911,77.44836883618461,-141.9223919955758,-154.00453712873008,36.77270380183499
227,3.7834090000000002,-85.87487846042626,-45.383691030510185,88.40038432908963,-145.64059865151472,-143.55765525981397,36.357281680169876
228,3.8000760000000002,-87.0570000466297,-52.905989785145266,95.86069390894275,-151.46540640058424,-126.44781945484876,33.160206227230596
229,3.816743,-95.5353938681188,-55.66966424471958,98.5386200707064,-157.12048477724596,-100.89783167604719,25.633509746924958
230,3.83341,-106.3455073647024,-52.61000028605541,100.00994536450364,-160.7947027225183,-67.50203317301018,15.011713875171427
231,3.850077,-113.1890688542241,-42.63783684127372,104.55304635870857,-162.45250873039143,-30.222998729293586,3.489440264442876
232,3.866744,-112.05163131886094,-27.315136081089314,111.07506181252009,-162.9789471907993,3.3708882470798147,-8.639157696646823
233,3.883411,-103.53355890225214,-11.199668375892415,113.07298134927109,-161.95244666934434,24.536562280223457,-22.707784851756813
234,3.900078,-92.24914884636885,1.2885744190890218,104.68818608885289,-156.7842487970275,28.629508543440306,-38.47278492318269
235,3.916745,-82.91760151936353,8.497955576181107,85.37934787648845,-144.54963159575647,18.161407645299583,-52.28552534734107
236,3.933412,-76.25072869269914,10.977090440898053,58.92090137360488,-124.43310568371064,-0.025062493411170284,-59.426330967418096
237,3.950079,-68.42070106977076,10.095526217765642,29.872510923618357,-97.92246394143932,-19.63044531943173,-58.2761491467517
238,3.966746,-54.534463291104124,7.865527801690266,1.880564291154231,-67.00392270455689,-36.431859544924905,-51.75404090109374
239,3.983413,-33.101427342011974,6.330829835041035,-22.562280510547684,-33.01844242466031,-47.46634345671782,-44.82089133127454
240,4.0000800000000005,-7.404427185162963,6.079023701353107,-42.98758418675616,2.7342967474833815,-51.54854732212834,-41.159821928646835
241,4.0167470000000005,17.968256247349714,6.447911271102016,-60.975699747218826,38.156045696571525,-50.11381792879298,-41.88051649222507
242,4.0334140000000005,41.7136502832386,7.611138015424486,-77.87820443946487,70.6629477744188,-45.61614238056483,-46.08685510606978
243,4.0500810000000005,65.55199659663214,11.004491401624447,-93.37426845655827,98.32899173314837,-39.318719340651114,-52.11612080077231
244,4.0667480000000005,89.60062882193007,17.432628906364176,-106.9180018339546,120.81082793301957,-31.66930224268172,-58.747780288361014
245,4.0834150000000005,110.49712942310876,26.488679121318405,-118.94027295751101,139.1962478893995,-24.080328637167177,-65.71515866016357
246,4.1000820000000004,124.90897151488139,37.73816290381947,-129.95637083315594,154.91357853923145,-19.114063609817677,-73.38717269080014
247,4.116749,132.99264684176075,50.21414871468794,-139.9628224238075,169.30139504895345,-18.65996380624901,-82.5023617880046
248,4.133416,137.70050402156613,60.848617926130146,-148.95025115642784,184.5230045330288,-21.781930156422888,-94.27930682361148
249,4.150083,142.26415564854423,66.18029239393502,-156.6618908997498,203.72252263884474,-24.31478187714616,-109.89736349202568
250,4.16675,148.71650446291017,66.2027765351282,-161.99622615039817,229.10143543322758,-21.423451640293585,-129.22902864450344
251,4.183417,156.90842870307026,64.52422037369054,-164.06829947016016,260.3237559175306,-11.190172226341117,-150.49139625188525
252,4.200084,163.83197254600395,64.79463728943247,-163.80312571330202,295.4407426659858,5.163800742653822,-171.45086982990094
253,4.216751,165.20244936440366,69.21008893248819,-163.17762649950126,332.8057073462085,27.178792978511346,-190.39494032579907
254,4.233418,159.24503947720135,80.35192708180294,-162.7279289507181,371.66077354334436,57.49894783745839,-205.6342892159361
255,4.250085,148.6449498512786,101.21768080244243,-161.31845597762702,411.23677527032436,98.20538353431292,-214.9159281170103
256,4.266752,137.87304122827862,131.3288112474679,-159.24350736307645,449.32415561291305,145.2661199237848,-216.2200847179382
257,4.283419,129.26815697960063,163.68120346258604,-159.89138820199935,481.32481526394895,187.9770588416938,-208.9932021877824
258,4.300086,122.60790551820934,186.34617469527694,-166.1320601951774,500.7763036374752,213.67053457011147,-194.18291117456613
259,4.316753,117.17562823343826,187.18665471987194,-175.16600718800535,501.477779021105,213.59806076319362,-173.35761753122972
260,4.33342,113.17011639427224,159.71025808600893,-178.30716495169713,480.16511936328396,187.79655966232673,-148.23417972469738
261,4.350087,112.77140833811819,108.32655514241547,-166.27095575989932,438.52808326111347,146.85804219714728,-120.69989226325899
262,4.366754,120.51018879066879,48.207796402081826,-135.17430927309044,383.6753258460852,107.1261209320416,-92.52332352110429
263,4.383421,139.6306085705473,-2.982165562451719,-89.41812423636146,326.19888210983214,80.71639880018145,-64.91064267974409
264,4.400088,166.0953952617298,-35.12162120771221,-40.37368322724649,275.9515038365003,68.8988577521294,-38.65869645759618
265,4.416755,188.22519948307132,-47.90448741883238,-0.9628308452578551,237.59491586998757,65.28384884876215,-14.519148015270968
266,4.433422,194.0783409866856,-45.010414787007555,21.23944393795446,208.73324582065197,64.56565800707425,7.353164429523634
267,4.450089,178.60175505280162,-28.873319630185826,27.10729566974007,182.1238113507575,66.71426408954026,28.58893092201096
268,4.466756,144.32662410880656,-1.4810988666292801,23.167636243055586,150.81641353146404,73.23098666917635,52.38458814872674
269,4.483423,97.60860337730017,32.779229328499696,16.93843011372673,112.46897551251088,82.36628396381653,80.96618005440776
270,4.50009,44.901055836264334,67.96830534180552,14.305571753293034,69.67791547659716,90.32397648214537,113.22984356998937
271,4.516757,-8.516078876107201,99.98276758472363,17.973315603823515,27.192043417441255,96.16816289875756,145.6213200284247
272,4.533424,-58.12814181884163,127.38764992379066,26.181660376174264,-11.386974254188416,103.01830113824036,175.4040505241062
273,4.550091,-101.25054231763318,148.75688998664685,34.51085983506875,-46.34929211612139,113.81617208612788,202.63551894775117
274,4.566758,-139.38923498575906,160.24046613334153,40.85800354951107,-82.4952383847019,127.13434956303114,229.08276604995314
275,4.583425,-176.6745494964266,156.248724186811,47.435166706571145,-125.20537048941002,137.32301349033892,255.25508494967426
276,4.600092,-213.56369196811193,132.61729271742107,56.63887386322536,-174.37938463799438,137.717773867308,278.02331801623956
277,4.616759,-243.75920969920193,89.45392970071799,67.17672691371213,-223.5438937143316,123.79539674220831,291.5991546211464
278,4.633426,-259.25330430557386,31.470934434106386,76.27580884472519,-265.9754144525416,94.94622046249835,292.0738264321719
279,4.650093,-257.6960765655242,-33.67533625072808,83.75092305483646,-300.40872866044907,54.87015512237197,281.1249621981417
280,4.66676,-244.59992115677323,-97.11343212093055,91.55878003695115,-330.25324471046525,10.509726710749067,264.77107684323084
281,4.683427,-229.50164969073487,-150.48037994433128,100.29143552594593,-359.09408567914033,-30.79088083780122,248.82264418740948
282,4.700094,-219.68708467812456,-188.3407420611369,107.97235459418017,-387.83539876030903,-64.92718874281952,235.93653074549172
283,4.716761,-216.10159087645522,-209.73783594629805,112.28843612410019,-414.5680788198333,-92.36878110747054,226.12818787093067
284,4.733428,-214.62563959735098,-217.43174493402944,113.01048548368114,-435.9840742638102,-115.56404358084824,218.2099433763564
285,4.750095,-211.17729474764735,-216.3016879485735,111.9763085438058,-449.8203568241852,-135.7122310702596,209.76615337819294
286,4.766762,-205.41749015305274,-211.9780499761588,111.26634271104993,-456.82189061770805,-152.6676907191946,197.03322604165442
287,4.783429,-199.9947319146438,-208.74679350980927,111.78346489291172,-459.9458420235894,-166.83367587379766,177.2908995105414
288,4.800096,-197.2781764832941,-207.6955221998811,113.19339402834196,-461.6436842373312,-179.97678169198866,152.26003210215714
289,4.816763000000001,-197.2887100433317,-207.53924540378483,114.4889760626165,-462.36959392280914,-194.47561640657352,127.82753715804563
290,4.833430000000001,-198.34069181620393,-206.99394826581113,114.56983623084588,-460.84160674596575,-212.06236414591962,109.63596312010506
291,4.850097000000001,-199.09362836280172,-205.2423813387263,112.8095427389747,-454.60919454004306,-232.6431755419465,99.39832153189491
292,4.866764000000001,-199.6006588095562,-200.46151973927246,109.13629447747508,-441.5122190986942,-253.63578194695992,94.75421833918874
293,4.883431000000001,-200.16828523734517,-189.35271666897043,103.39238780348848,-422.5610709933935,-270.4218454984757,90.83699102359117
294,4.900098000000001,-199.5541826452333,-168.65371440628556,95.08557042791642,-403.25828429631036,-278.1286579869939,82.00174768158405
295,4.916765000000001,-194.9076923615202,-137.02833121729344,84.4392132273191,-390.39273372723187,-274.13405156569127,64.38204093431295
296,4.933432000000001,-183.4323220317681,-95.97647518709161,73.5047944638138,-386.085442359217,-259.7883893095577,38.867554125597565
297,4.950099000000001,-163.97382192816025,-49.74444145686947,65.39341948357215,-384.55987187106905,-239.82961856509723,11.685394826070892
298,4.966766000000001,-137.66802896243527,-4.616305496140025,61.71999145010872,-375.83770036537794,-219.4842223906672,-9.520585237119688
299,4.983433000000001,-107.59206071042783,32.655662640665305,60.558989748198414,-354.4036454813158,-201.12803241672444,-21.744436302721795
300,5.000100000000001,-77.34197402968132,57.56392560688995,57.1590153595768,-324.57369938111464,-182.97841193663885,-28.72795525391708
301,5.016767000000001,-49.10605136088301,70.21596497434757,47.198606958976725,-296.31615196458205,-160.98005682467647,-36.301896079713046
302,5.033434000000001,-22.38362721221474,74.89199861338025,29.811802004560846,-275.9924046073006,-132.5210524894116,-46.32176464773298
303,5.050101000000001,5.855612173372901,76.81421910713927,8.1139593340739,-262.2408928642475,-98.6586437957393,-56.23321690253551
304,5.066768000000001,39.284562296483976,79.1144345766858,-12.25188888366828,-249.7605676054509,-62.48774017958206,-63.32562281030766
305,5.083435000000001,79.2551133845798,82.20577183502081,-25.31438244978616,-234.57436475992108,-25.50715417799585,-67.13895030311019
306,5.100102000000001,122.97810985497804,84.7729997257967,-27.57355570811645,-215.54396909262675,13.403427440142604,-67.98167491934014
307,5.116769000000001,164.99452273107073,84.5819759134375,-19.957870712592317,-193.084867995777,55.03158002725234,-65.51690969344143
308,5.1334360000000006,201.1895934429387,78.92334842379506,-6.193524907663967,-167.56281623312336,96.81150047463635,-59.674444011583276
309,5.1501030000000005,231.52190650104114,65.96124644939636,11.091630455382408,-138.12547333904268,133.5529532101023,-51.66723761508051
310,5.1667700000000005,258.67943407180815,46.68061357817385,31.203350757249034,-102.64162031971611,160.96569745689453,-43.43851755362121
311,5.1834370000000005,284.7099231498685,24.941650891604848,52.61827849305706,-59.40816330988477,178.32003092925794,-36.69646759516194
312,5.2001040000000005,309.62891158773334,5.387043746401304,72.17089811753615,-9.057281126974072,188.47646946491705,-32.407054801667044
313,5.2167710000000005,332.5577104476738,-7.6243639758037745,87.69446179444097,45.888388522126746,196.4811417876972,-30.025573718562654
314,5.2334380000000005,352.96278362914904,-9.020680348347943,99.17248774943187,103.29848005976925,208.24542087459116,-26.458143852324426
315,5.2501050000000005,370.61912999761023,6.441926727076538,106.47586668137983,162.1330493344302,228.63588051720245,-16.504245248821768
316,5.2667720000000005,384.84418487486846,39.49048857352183,107.97729945196762,220.43108913951608,257.5138027892202,3.840708731439965
317,5.283439,393.91731743525673,81.40024944420838,102.660802647065,273.8598235475389,285.9039043196031,32.919815349444974
318,5.300106,395.23016214635476,115.87986344922012,92.46828638891725,317.70387985118504,297.9088698715678,62.01603043517177
319,5.316773,386.0319387143978,128.47549232478346,81.33666193519369,350.29567915894324,279.69753988509456,79.40671979692485
320,5.33344,364.3347202157104,115.50548027921187,72.37267838441016,373.5821267105606,228.68838280021484,77.4027417966401
321,5.350107,330.3977377149396,85.38548341732786,66.85447391457281,390.4582064328845,155.4790311269628,57.420927532204146
322,5.366774,288.6064342800478,53.08179374181098,65.09764882960849,402.89783170592943,78.27934642043675,29.737978599519632
323,5.383441,246.91602069641937,32.331116365142876,66.11218715613998,412.7849328716686,14.332327617288353,7.780616370934134
324,5.400108,212.0374931108768,29.542068360943503,66.26417932146634,422.48501302564864,-27.25812800031109,0.3633731833772327
325,5.416775,184.190852654368,42.687424915628014,60.68580596814502,432.8858835107539,-47.32586541849858,7.587727026117193
326,5.433442,157.1462152064195,65.71840106245551,47.30148533588596,441.35412337059734,-52.122004916373186,23.366317011862925
327,5.450109,123.66170154513331,93.45477176867658,28.58767292186944,442.8452851789601,-47.49940206289841,41.21272554778654
328,5.466776,80.94992761772369,121.58416703756063,9.101374565971254,433.3450477177973,-37.06741654469901,57.92195147432096
329,5.483443,31.87693632860417,143.92954727382815,-7.728382462104788,412.2856094365456,-23.427419519331995,73.61815803669523
330,5.50011,-17.71801723083128,153.47957222067507,-20.24070002759584,382.4308476359771,-9.014991039730727,89.8307401297844
331,5.516777,-62.47854060502347,147.37629665948643,-27.315554312065373,348.1214231370285,4.275050419685479,107.24027085415649
332,5.533444,-99.4997483431076,128.9348286258849,-27.8860652685322,313.0520121236452,15.70206063138276,124.36913584338639
333,5.550111,-128.65997522111894,103.44449088322673,-22.167983833348735,278.66670802161286,25.609257325191294,138.4336948907577
334,5.566778,-151.9921268966828,73.32316198579261,-12.81690819421715,244.2507013641478,34.5009018052687,147.6931685134936
335,5.583445,-172.49417292906372,38.6281424390735,-3.865060321994712,208.44830692044968,42.400878265900765,152.54627646828982
336,5.600112,-192.86570896422978,1.1140366266432822,1.8917619257084395,170.575379600495,49.394353124669564,154.4335362181369
337,5.616779,-214.72070291450433,-34.32918830016745,4.359413032838289,131.01032186747938,56.20131011825063,154.47051294191968
338,5.633446,-238.20370755519798,-63.04341352668203,5.19705259461459,91.20597652846256,63.42628662895611,152.85211029350225
339,5.650113,-261.77582004090704,-84.7060263574807,5.7147871633990235,52.928377463901526,70.49837746433161,148.8217307966706
340,5.66678,-282.60543877775433,-103.10068142694925,5.717388871067177,16.27581256855631,76.00937405507719,141.7246492709668
341,5.683447,-297.9472797014764,-121.78518622242873,4.272319790144951,-21.059694073863415,78.98153552831951,132.07054323588034
342,5.700114,-306.7739663747549,-140.7437713097655,1.2744461235761801,-60.724346670912134,79.43431559907808,119.9186419951022
343,5.716781,-310.3679574700568,-157.28962304395628,-2.293594119730397,-99.90880536651383,77.93943137903563,102.32219317167247
344,5.733448,-311.24405099719223,-169.43130288179663,-5.63797367088338,-132.6421175924678,74.64990753774612,75.10082893952298
345,5.750115,-310.9101121979049,-178.28696793892675,-8.809424653460571,-155.71313807573995,68.18350176144563,38.27415757708222
346,5.766782,-308.3795275982672,-187.5552119988124,-11.668848758628334,-172.01889501387416,55.81782117771921,-1.9260089830282965
347,5.783449,-301.63877709806945,-200.1838333832413,-13.363522831519735,-187.17375962485752,36.158122217977684,-37.620094075840235
348,5.800116,-291.07814166553914,-215.12792594921444,-14.094987358362332,-203.9063031469389,11.801112690520535,-65.39958752977911
349,5.816783,-280.46816953712846,-227.64748969064064,-16.64120738499313,-220.82168841961936,-11.836927863092049,-87.54998085631752
350,5.83345,-273.6799454740058,-232.80762983711486,-24.49612457650501,-235.4441225309581,-30.926597639118818,-108.1026985646993
351,5.850117,-271.05432700228937,-228.37797035374274,-38.594096677025924,-246.5579631369903,-46.2912403838389,-128.96708851694223
352,5.866784000000001,-269.5159457613763,-214.83550187756538,-56.893327576540486,-253.72269727331349,-62.27638563569239,-149.70410198489878
353,5.883451000000001,-265.77250610328963,-193.656182316132,-76.8483958619029,-256.1662205553537,-82.65878477835821,-169.3236267532992
354,5.900118000000001,-259.2637582890546,-165.93382569637578,-97.29470413236776,-253.0880444823341,-107.04470216537402,-187.18593193613583
355,5.916785000000001,-252.26189945550686,-132.3180041335732,-118.03189199761172,-244.76142804296728,-130.9778321194472,-202.77265567327396
356,5.933452000000001,-246.7491212435492,-94.25356176773096,-138.48259768702061,-232.82240941527914,-149.9738404246271,-215.57533802499012
357,5.950119000000001,-241.28768393752352,-55.13415810281486,-157.30285817452352,-219.42511619030014,-163.30847318504036,-225.12111526962326
358,5.966786000000001,-232.2581600682222,-19.46228350719264,-173.1350524343634,-206.15838076880215,-173.20295179848856,-230.5760667611283
359,5.983453000000001,-218.27321066853762,9.593217061694881,-185.31572371638327,-193.57730271683053,-180.73653240370675,-230.66893991368585
360,6.000120000000001,-201.40558534108646,31.636159628681984,-193.79595687233956,-181.68930918914612,-183.91562445284902,-224.78128609527232
361,6.016787000000001,-183.56448985563355,48.26407371667612,-198.68809454631563,-170.86705491489136,-180.05985253540848,-213.9870987498271
362,6.033454000000001,-163.83640261010652,61.564525428676234,-200.0260592924134,-161.98373105810174,-168.9463906655622,-200.3802528778732
363,6.050121000000001,-140.36899120854483,73.46382196986141,-197.8780746884985,-155.52538283651876,-152.8144494687638,-185.50233617196912
364,6.066788000000001,-113.01208195092565,85.549651308031,-192.60352498145528,-150.94124060146123,-133.91944281672235,-169.79926714632202
365,6.083455000000001,-82.85850660815913,98.43927300864395,-184.80276684052745,-147.03040483565962,-113.08515899161189,-153.10356534221782
366,6.100122000000001,-50.67059414886788,111.10309334032932,-174.99527633417736,-142.5765210594864,-90.54006016585227,-135.0128955683577
367,6.116789000000001,-17.477910981092023,121.04983125315266,-163.77000456514253,-136.45711792311408,-67.14836536578993,-115.1186470002154
368,6.133456000000001,13.928455717527806,125.43451164053184,-152.35095227043544,-127.65306256675127,-44.335200492721974,-93.59209059694162
369,6.150123000000001,40.087770989262914,122.83781162457237,-142.21973998989608,-115.53539143125867,-23.200078810375125,-71.68750773288507
370,6.166790000000001,60.25263822769878,114.95957401063872,-133.36609177287684,-99.81602258052075,-4.057319851198854,-51.191878786841954
371,6.183457000000001,77.90902004896617,106.17276571005371,-123.16150603126076,-79.93263258472814,13.148867712739392,-33.030504014790786
372,6.200124000000001,98.03270149972724,100.21382973405261,-107.94236561467355,-54.977696521203555,27.964613656757372,-16.586907682883645
373,6.216791000000001,122.65646322917196,97.20253648878924,-86.2167936611289,-24.8446174523583,38.96746173401327,-0.6770647671205219
374,6.233458000000001,149.3379069072824,94.33454352449738,-60.104382910230356,8.71504591541869,44.431638226264354,14.83329803856953
375,6.250125000000001,173.93370859033732,88.97240322761884,-33.456248712851924,42.52344883019732,43.69862816487172,28.51319897502541
376,6.266792000000001,194.37556044397428,80.60311263374126,-8.876106991504837,73.58586102477358,37.94865651771663,38.65559005151831
377,6.283459000000001,211.49988965862445,70.71615213046314,13.183311794665702,101.23439826238452,29.843458161297733,45.490336659635446
378,6.300126000000001,227.18994651073044,61.80892882573214,33.30583638979165,128.7501191143822,22.60290866588262,51.99507381641419
379,6.3167930000000005,242.92317410786478,55.96519366465352,52.387838273606555,161.50565981464132,18.756647949261687,61.566404714934464
380,6.3334600000000005,259.50627140454037,53.28625061054767,71.40020726914068,201.01318602130038,18.68365534338009,74.58518918902438
381,6.3501270000000005,276.5537877220834,51.73005247475747,90.16371069655878,241.36551294045637,20.25895896030836,88.25177649383795
382,6.3667940000000005,291.913384017856,48.88778411612266,106.64875232965792,273.98355972460706,20.611230374028686,100.14544985621144
383,6.3834610000000005,302.5580739001041,43.59880378782987,119.05366305563544,295.37275118195896,18.356588503062586,110.62959057366575
384,6.4001280000000005,306.73247977373194,35.78340749744339,128.2740543993545,308.20949036640684,13.895886786365606,121.16298633041762
385,6.4167950000000005,305.4506781509324,25.697708689616707,136.96609875066918,315.9810739653831,7.902671624109095,131.6790512514392
386,6.4334620000000005,301.8873226434372,14.095174007832949,146.50556438383816,319.1856817286363,0.3404211480839745,140.5036620715324
387,6.4501290000000004,298.9821695898688,2.5850663428379588,155.9565604038468,316.5636343443284,-8.566409430694904,146.08202089014412
388,6.466796,297.165191261598,-6.943492809356997,163.61025368101429,307.96192937807155,-17.017147121198256,148.44133377875977
389,6.483463,294.0413600560726,-13.21706517922652,168.37620499001554,295.24396764715704,-22.491825024171483,149.25031538129923
390,6.50013,286.5576337684128,-15.73863687154715,169.8307653190209,281.1378323194266,-24.098558704914943,150.13252873675964
391,6.516797,274.4021527865776,-14.682518998821543,168.0602563425271,267.62438451465766,-23.505814248151097,150.8876136293219
392,6.533464,261.2309412398925,-11.23375918248933,163.73090964658843,254.99528409841326,-23.653859859514665,150.1634873329102
393,6.550131,251.22741085366806,-7.313985296330452,157.67535059438356,242.0615094943961,-26.48290849699216,147.6834091602612
394,6.566798,244.47285935927167,-3.697180403843045,150.31785078895706,227.3299515044423,-30.681480494275974,144.5588834862508
395,6.583465,237.24142405971727,1.7311051764250034,141.8093972877531,210.08141842079573,-30.925410282072033,141.5383115784808
396,6.600132,226.70468648045932,13.057343857364499,132.26579469930311,190.3363807178979,-20.487546416333696,138.32946790815413
397,6.616799,213.55552106826877,33.047979865100146,121.24923911218472,167.9768471395911,3.7419066364815814,134.64166491699524
398,6.633466,199.95876633888219,60.02553920610448,107.5616116662289,142.29243194741994,37.92196137302052,130.3434607803445
399,6.650133,186.8505371203509,87.0810632460633,90.73115908914042,112.81354148884405,72.5664644987315,124.02278531693358
400,6.6668,173.96626927154418,104.34362501152484,73.01129216955673,80.50428989902632,97.46787372584667,112.76991744780544
401,6.683467,161.00323147428014,103.56967517827033,59.17021458597411,47.286475483339814,106.66825747511477,94.65717527545709
402,6.700134,147.42256205648033,83.02344096702348,53.518290474700265,13.94955944637925,100.83012815157036,70.90827524406214
403,6.716801,131.97282281944376,49.84554764634903,56.88005329241296,-20.758661147825908,86.74414203037765,44.5615052535391
404,6.733468,114.16123404205126,17.552785087567088,66.2373885825517,-58.301004298515174,74.42739448857692,17.37316528678609
405,6.750135,96.13245788475979,-0.9651342754608194,76.75825500885037,-97.88841350029901,72.24670958552151,-10.63628644682243
406,6.766802,81.39482095621685,-0.4836243909827669,84.04749929045445,-136.1861847357737,82.19790934568879,-38.64126446769721
407,6.783469,70.95277861550537,15.025840014389072,85.20889939506539,-169.3709657899918,98.897659344191,-64.00376846857846
408,6.800136,61.552667937860335,37.13549896722111,78.71473287515448,-195.47138662603118,113.35041512443658,-84.96618403029441
409,6.816803,48.4032910729814,58.84246809334945,63.8633361911739,-214.7180984881688,118.17055674844111,-102.95607646832617
410,6.83347,29.363603982344145,76.59394123207743,40.839847159636236,-227.642124901879,110.22413595972762,-120.71950047554272
411,6.850137,6.1187138979549545,88.78299312729334,11.48870136936861,-233.38924594684312,89.90418865338481,-138.78920774004905
412,6.866804,-18.481983574081813,94.28002387015596,-20.549360528758253,-230.47302918567487,58.94474285555242,-154.7407528453735
413,6.883471,-43.31604065354453,92.56527687530136,-51.00771359920384,-218.89903471434152,18.963665786464706,-165.4977726558812
414,6.900138,-68.68975510361611,83.88370095361458,-76.37169965357532,-201.00539789173916,-28.169512233203328,-169.90409602949862
415,6.916805,-94.0579347013102,68.1744896126826,-94.90834015837967,-180.34332926728402,-78.95769773019977,-169.54652937884657
416,6.933472,-117.37432305172554,44.58420403161611,-107.39081893421232,-160.07345629812068,-127.93675367682408,-167.56092809760102
417,6.950139000000001,-136.48886427172366,13.890900376076143,-116.09591020457879,-142.22842126995994,-169.0752352537492,-166.4248700269646
418,6.966806000000001,-150.12475067988248,-18.385497133442918,-122.0603577191788,-128.08738840579838,-197.38827673736188,-166.4272131184905
419,6.983473000000001,-158.12324993650046,-43.517674763682194,-124.39310270749348,-119.001836654018,-209.52450568540544,-165.98718492026563
420,7.000140000000001,-162.25290239384762,-55.829802040331145,-123.04055337155381,-116.51709825308097,-204.05904817082927,-163.3981695549886
421,7.016807000000001,-166.2737945567867,-56.901959765898255,-120.44519558888155,-121.4258101712246,-182.28054429808043,-158.36661945044216
422,7.033474000000001,-173.65963490492524,-53.29748359387336,-119.33691649816956,-132.91289886914046,-148.55158615619337,-152.16661780966606
423,7.050141000000001,-185.11901957083393,-51.14747719040287,-120.12524488003118,-148.9748370578472,-109.06588602153698,-146.70241303187652
424,7.066808000000001,-198.52445641721283,-53.223702428040504,-120.97503671178279,-167.5991128013158,-69.54353716182816,-143.28236589151777
425,7.083475000000001,-210.48273866373893,-59.97337239332701,-119.20565626771437,-187.26089915377707,-33.64332573390968,-141.45594727031582
426,7.100142000000001,-217.72790356355736,-71.7682217218472,-112.19182150790502,-206.3699334209851,-3.110078143888593,-138.69579297602144
427,7.116809000000001,-218.20189282571437,-89.17018961838421,-98.194680134154,-222.78215694802674,21.018586377247416,-132.19136920089986
428,7.133476000000001,-212.0187263971584,-111.02888153323033,-77.57271240836468,-234.33008175205876,37.50030522313521,-121.89996887379003
429,7.150143000000001,-201.39053577110502,-133.46116470204186,-53.18004369629843,-239.58247453510018,45.106680430400274,-111.19077125630389
430,7.166810000000001,-189.051215740353,-151.78214302798546,-29.051444639208277,-237.5326636182561,44.04344347159676,-103.31022737929877
431,7.183477000000001,-176.5834903133616,-163.09455597036825,-8.465659602130327,-227.05329995539134,37.435342999066734,-97.45039389961111
432,7.200144000000001,-164.2453139171398,-166.40246571538987,7.0103043945631285,-207.9541412102364,30.7807903733196,-89.31718498305605
433,7.216811000000001,-151.89973059840995,-161.30181376503214,17.37771341932956,-182.59978472944567,28.949445219180312,-75.32803873631059
434,7.233478000000001,-139.64761468465093,-148.16706676288752,23.807491369843262,-155.22870892151133,33.43414076783035,-55.20042238299947
435,7.250145000000001,-127.7398204801344,-129.35265684930994,28.197244043094575,-129.35514045226745,42.357199996961846,-30.8875445393617
436,7.266812000000001,-116.12589028912204,-108.72896606682194,32.43678283537547,-106.40172720725278,52.28191822695084,-4.75028169401031
437,7.283479000000001,-104.07808341292953,-89.41111543923084,37.756769817679185,-86.27061551462035,59.84620739875588,20.795648927365704
438,7.300146000000001,-90.23838621345115,-72.12320927589752,44.777598140576266,-68.00521796058693,63.16463980191732,43.297765994529186
439,7.316813000000001,-73.0828418623753,-55.68400361553708,53.98035742142065,-50.19743876994731,62.912981755455576,61.08460328556323
440,7.333480000000001,-51.681022925377725,-38.5946876255241,65.63581474478026,-32.06711793719457,61.58922808928525,73.98008615034678
441,7.350147000000001,-26.613155039757107,-19.956698737490598,79.04088738366963,-14.409738584979788,61.110648585723794,83.18438466488374
442,7.366814000000001,-0.3210541081692613,0.3315018213732801,92.20099465239895,1.0255904287925897,61.32500096005164,90.61948927068215
443,7.383481000000001,23.9643927856573,21.03054951427371,102.79701629328193,12.912311311746839,60.65887568569589,97.8218725332674
444,7.400148000000001,44.28905507150509,39.15813665954608,109.65669910354295,20.867401323346844,57.60818803235804,105.05179068599202
445,7.416815000000001,61.24325546794881,51.10494301205521,113.26130393733698,25.48144742402414,51.702745166132416,112.00549842089364
446,7.433482000000001,77.16063349517566,54.590052930972604,114.9415047840526,28.57358443096657,43.523325211961485,119.29093719222037
447,7.450149000000001,94.06518399618862,49.643074437786225,115.7875162840543,32.63662394871988,33.99047427947875,128.02755849814724
448,7.466816000000001,112.34544825719365,38.60779927032357,116.15419412227149,39.20398357206159,23.879392846253474,137.79890668196583
449,7.4834830000000006,131.01699079323814,25.663532812289365,115.65957795877037,48.176886731274635,14.068513994474074,146.26869031075114
450,7.5001500000000005,148.76345394926335,14.914869018791236,113.53461502219969,58.83312092877206,5.5091515107531945,151.58423241769464
451,7.5168170000000005,164.7761589977415,7.643977136428197,109.47408196814496,70.59255055753148,-1.5727194323190024,154.49642058137673
452,7.5334840000000005,179.0533641949441,1.9855333539529139,104.38875627123483,82.75475898123388,-7.779145574153557,157.28465873331245
453,7.5501510000000005,192.0190052162471,-4.140341289667845,99.98958929077894,94.53413999128293,-13.21708818755322,160.87252059855334
454,7.5668180000000005,203.71584274006807,-10.378440607450301,97.44861288724792,105.64916750395325,-16.61079519315742,163.93219000357
455,7.5834850000000005,213.51219868008081,-14.370363089087077,96.64516908899259,116.24123409873879,-16.44678578738492,164.92535482493702
456,7.6001520000000005,220.7904187246432,-13.79836465138683,96.59725321721032,126.09017671004293,-12.472931734790425,164.04217240160455
457,7.6168190000000005,225.76521489752804,-7.148861472373969,96.12577801355877,134.4114580985788,-4.929947956400599,162.5994734177607
458,7.633486,229.27069806081903,6.878960873145678,93.99656572495097,140.46670217066722,7.23936834431826,161.25373911708562
459,7.650153,231.41079101595886,28.86856577775072,88.94941032181642,143.98236971491568,25.311004810673804,159.51578351075926
460,7.66682,230.4472832550107,56.45760330653774,80.03625312192729,145.03485427990935,47.11733144486717,156.6024008015543
461,7.683487,223.63728770719842,83.37303573106416,66.89254495305872,143.93666430090101,66.16768389348931,151.90566125082677
462,7.700154,209.53909441153414,102.14587383448294,49.73185037014482,141.24315853423684,75.95374791131087,144.41667154775726
463,7.716821,188.95769315436917,108.64197945973481,29.588206980763445,137.76973255409524,74.69439906319757,132.15227317666913
464,7.733488,163.46527140185285,104.5410427435666,8.778068643517855,135.0773804693829,65.28973346148524,112.74314620485632
465,7.750155,134.03749025306016,95.79823563302588,-9.653778694594143,136.16011105613927,51.59466644532134,85.13617376042066
466,7.766822,101.65458588002824,88.48962006442491,-23.90966048524642,144.4910178827742,35.91836992094877,51.15159349629478
467,7.783489,68.01341894330196,85.8108100473195,-34.91553136147642,160.82940491765896,19.82729564453367,15.382095718575993
468,7.800156,34.35182837333407,88.42426408168927,-45.36042071483387,180.73607741995517,5.950609813747064,-16.68663349923986
469,7.816823,0.02125949799272897,95.95095823111367,-57.15113184591641,196.07636172742343,-2.060278121984421,-40.64328647505101
470,7.83349,-36.45530573420443,106.71101373144921,-69.8639153175092,199.68017797288977,-1.5420032504785923,-54.00241383840723
471,7.850157,-74.57914245585177,116.80171005300029,-81.41120236510147,189.1288492348115,7.417489202083705,-56.64824144458326
472,7.866824,-110.78631756009042,121.02815867377376,-89.82518251398096,166.89307114144523,22.123386473652793,-51.31301540746711
473,7.883491,-140.5429570816966,115.03854802117547,-94.35392682464425,137.59116727959727,38.378457672381614,-42.9739167620834
474,7.900158,-161.37146189356082,96.57621633528476,-95.26364955692102,105.13012485063638,51.15598127337191,-36.77406605189776
475,7.916825,-173.83854536666723,65.95508922588905,-93.15414418682703,71.71994314595361,55.870348753115685,-35.976476418584916
476,7.933492,-180.0510280366091,26.506699460756657,-88.6528213312497,38.736560667101635,50.98560447319461,-41.24589861116164
477,7.950159,-181.72516252542937,-16.052664317810475,-82.60857063565207,7.861404822470418,39.294585212170084,-51.049384427738815
478,7.966826,-179.94440096348922,-55.93284057464212,-76.48118447858056,-19.032754675781693,25.700809238975065,-62.59217499968053
479,7.983493,-176.38337654614122,-89.3265524022336,-72.31355759310946,-41.02994035242875,13.728098618029142,-73.01043371732345
480,8.000160000000001,-173.73363820398416,-114.5409618673584,-71.74365697612443,-58.74361406387708,4.077195405815393,-80.44377995982131
481,8.016827000000001,-174.23491565297456,-131.26665028926323,-74.72803351557123,-73.57227495819721,-4.4225984077186835,-84.57934666969717
482,8.033494000000001,-178.16728522025645,-140.4255654327573,-79.57854737012528,-86.70222993931509,-13.166502977913474,-86.5085935357636
483,8.050161000000001,-184.38942424529486,-144.00215033586002,-84.61971163960243,-98.97648035543578,-22.692218771822283,-87.93403007491148
484,8.066828000000001,-192.10286277116842,-143.9420258163417,-89.67636348754478,-111.12156104132862,-32.44410596316812,-90.18861644089438
485,8.083495000000001,-201.3762188277679,-141.02765007438785,-95.77779096282917,-123.46681493390446,-41.372217973864146,-93.86028182206783
486,8.100162000000001,-211.86436249751372,-135.13047006434047,-103.70002638284427,-135.5543775772109,-49.0743472627838,-99.19208119463606
487,8.116829000000001,-221.6814195330179,-126.40855578531449,-113.02240092223263,-146.19272691423026,-56.44586610937111,-106.48517885039499
488,8.133496000000001,-228.127863473945,-115.88490600301128,-122.22176340932569,-153.75869459887457,-65.00151990766027,-115.90801151935463
489,8.150163000000001,-229.5209002120452,-105.0957678791357,-129.27566377821816,-156.7846648654454,-75.56724270573645,-127.15635367835631
490,8.166830000000001,-226.02435898917724,-95.73279294224537,-132.4924788831005,-154.93534305456416,-87.73547490223478,-139.52715319503997
491,8.183497000000001,-218.88664107787716,-89.45881748196763,-131.47343049192776,-149.57847428670271,-100.31134492653753,-152.12588450398277
492,8.200164000000001,-209.61225382125014,-87.19623316217428,-127.67831708313848,-143.324454806518,-111.81051626957546,-163.78290098570474
493,8.216831,-200.09449331548433,-87.71506022048972,-124.02446153867632,-138.99208435417046,-120.11358834156675,-173.00697274546843
494,8.233498,-192.5743338126634,-86.3521637151702,-123.54413569649977,-138.38063398119868,-121.46064964986475,-178.6311364730317
495,8.250165,-188.2401023178323,-75.69693542642707,-127.6995015295206,-141.10098108778254,-110.8623978620052,-180.79497524674616
496,8.266832,-185.74461329540532,-49.99533685088571,-135.20775061929464,-144.5570954390407,-86.02579100269314,-180.68203363129481
497,8.283499,-181.7758464056587,-11.285430550914727,-142.2211929438951,-145.7258418946834,-52.342526595254824,-178.64436515325636
498,8.300166,-173.138562890838,29.277360860059375,-144.17473529642263,-143.41101429181288,-22.288384450174227,-173.21812337404413
499,8.316833,-157.93929649851697,58.42487470658587,-138.26261393246503,-138.8442241769701,-7.19043824527637,-163.0513905077302
500,8.3335,-135.75812025967923,70.025931295725,-124.60157675031462,-133.9126316590196,-9.119649072261307,-149.36642955431677
501,8.350167,-108.43583789144904,67.37067502470315,-105.42265294823433,-128.78922360360195,-21.29426571255624,-135.05306828541114
502,8.366834,-80.34788505983835,57.58138483770044,-83.67476052164146,-121.73532754290339,-34.764883896543964,-121.20469524227553
503,8.383501,-55.861897456568826,45.71564925013922,-62.21252299682328,-111.30041733370217,-42.92982262744927,-105.93487102636426
504,8.400168,-36.02061958874936,34.190712150384634,-43.15918687574201,-98.00343337111681,-41.639603033525916,-87.11481121687014
505,8.416835,-18.591456122686395,24.984356240117044,-27.25620944073409,-83.50117913615476,-29.26236290045292,-65.19170880104248
506,8.433502,-1.2222250714857226,19.719177194234966,-14.047865744818566,-68.70925990127459,-8.09006480412258,-42.67107246179809
507,8.450169,16.234238656092842,18.193382301197815,-2.824324908455515,-53.26504555055985,16.253568831232503,-21.644842610009977
508,8.466836,32.31698323464457,18.784360403060568,6.884741058515586,-36.50878843810388,38.19352502783259,-2.6457092231844546
509,8.483503,46.00747963634314,20.30306741489428,15.469624028796833,-18.331084866400243,54.7784354969435,14.433575778959629
510,8.50017,57.8015880045466,22.505108389795524,23.234620169356795,1.1145677053200296,65.25285281126821,29.141105949753218
511,8.516837,68.99120027619318,25.26936255466873,30.082152603170478,22.07421863280711,69.4846792446097,40.41743973444311
512,8.533504,80.14594142421188,28.32044531204086,35.40423364615666,44.9494945192561,67.66668496095419,47.44779637158331
513,8.550171,90.26516592083318,31.652094646283683,38.423637956687145,69.12204532904315,61.067099539151755,50.41459912830625
514,8.566838,97.42815451801391,35.52549552698802,38.802584926771544,92.25118252065121,52.09162095614175,50.54733566680174
515,8.583505,100.58558394749721,39.95760867776722,37.13689123625452,111.16712588541492,43.31122730954387,49.58479945399658
516,8.600172,100.91011109874495,44.6503652051607,34.976033572632566,123.7670259449327,36.65911437396929,49.08690792309922
517,8.616839,101.13123412548123,49.45214064891604,34.13699067420396,130.23821505201806,33.22146121843069,49.903576416280806
518,8.633506,103.36604230507064,54.27961594173526,35.46433568385278,132.54195968902312,32.91118517942781,51.99380152674564
519,8.650173,107.77344489206138,58.322401259980836,38.13017135655952,132.72335716935194,34.112572764775315,54.71223195823354
520,8.66684,113.14561034246523,59.76941648936951,40.602455220663536,131.68591816781512,34.255266054974065,57.338025754834845
521,8.683507,118.09649035528528,56.78739171560089,42.30216506207341,129.28684035304582,31.319303979813217,59.41513461939727
522,8.700174,121.57846605509611,49.09524596365168,43.75378284745828,125.12050965659112,25.11626795918895,60.800798215741565
523,8.716841,123.11810939139988,38.72925359471637,45.181132302291616,119.18796563220529,17.41478855458142,61.63302777182528
524,8.733508,122.90837217041437,28.905877116303508,45.6533856926897,112.13066399677894,10.939044856772078,62.32538352471754
525,8.750175,121.05877646567207,21.73560073578297,43.86814877186451,104.72721976709636,7.955400693261945,63.45973739172457
526,8.766842,116.61672999892778,17.144248205995808,39.46098440650554,96.99181659765586,9.028201799849068,65.34890671287086
527,8.783509,108.06771473335348,13.963022421565631,33.27276768107285,88.15144696851101,12.307504032253739,67.43511991736258
528,8.800176,95.22442930766965,11.480153885512227,26.39523912788139,77.70031039970645,14.337973204578464,68.43915502224075
529,8.816843,80.19426484840369,9.772389753926157,19.27660936235161,65.95603967272694,12.716347652027075,67.54548437433522
530,8.83351,65.94217186545168,9.173447866045787,11.94765212556324,53.51574053345024,8.108651176487333,65.08282869015783
531,8.850177,53.95615085109768,9.853243310903498,4.835232113217786,40.890759249890316,3.062847120664593,61.75209062854925
532,8.866844,43.582521766906474,11.630275182824196,-1.078434126807001,28.698296620753705,-0.6961917337924719,57.9787699357354
533,8.883511,33.243441072309466,13.934397910971139,-5.001266066752832,17.351806022538533,-3.0688418117091336,54.333333951127294
534,8.900178,21.69627424299425,16.07518116879309,-7.112549634214756,6.408472070371469,-4.628366212470134,51.388070541384764
535,8.916845,8.553349021037011,17.455978950971883,-8.433251925920976,-5.113527049431876,-6.17092847494864,48.65428835322528
536,8.933512,-5.409221460222907,17.320617332129515,-9.715985809678841,-17.62538183800408,-8.680813781248247,44.873414798924045
537,8.950179,-18.33119237146784,14.728015644648906,-10.48956183205383,-30.545383288575458,-12.485908147268365,39.89177112744609
538,8.966846,-28.288320456229183,9.3637149388627,-9.518060146715932,-43.004909614427895,-16.53145097780134,35.195328703327924
539,8.983513,-34.73039563790441,2.1860877938991865,-6.26986213434881,-54.76152408739998,-19.315191329693285,32.066832502610026
540,9.00018,-39.041502156856055,-5.123780941817229,-1.5264622993525792,-66.24062689036117,-20.613453997962775,29.952574741683666
541,9.016847,-43.501645149075955,-11.266752262128545,3.6076712197351855,-77.45952086549357,-21.829538654013735,27.160345902096147
542,9.033514,-49.52963099037975,-15.900323993150227,8.789009834601897,-87.12781362552931,-24.509635272516558,22.8697187235722
543,9.050181,-56.93976071651818,-19.468817553509528,14.178082090605752,-93.52995437047807,-28.649124965520578,17.98349825483715
544,9.066848,-64.60922154293075,-22.59252089596911,19.438447213235133,-96.45970397671786,-32.5180609092614,13.766970849139467
545,9.083515,-71.41011321233579,-25.526236768589754,23.51004083717535,-97.71152800608554,-34.170726359463025,9.942357998321206
546,9.100182,-76.70020949946037,-28.187878715140947,25.55373800679172,-99.45438089876706,-33.21563766295853,4.938454482782921
547,9.116849,-80.48529186292447,-30.547830426054972,25.923401213382434,-102.42596687039006,-31.226835904063176,-1.6773373867901231
548,9.133516,-83.18003711691912,-32.663298658343926,25.92062733374258,-105.64492282810758,-30.45149812380872,-7.941658715069185
549,9.150183,-85.11345773020511,-34.322837324308374,26.546955595197957,-107.42040287896158,-31.985481249395335,-11.59366137591084
550,9.16685,-86.42248951783027,-34.981669240108076,27.63121283839867,-106.54883122604976,-34.97577666381611,-13.01338900830893
551,9.183517,-87.3222448428156,-34.15982018709481,28.145724006358577,-102.94376753011306,-37.394144680302205,-15.006204558838935
552,9.200184,-88.0250043612182,-31.761081679296332,27.181703928935374,-97.50869455095668,-37.62603071719727,-19.45288305167303
553,9.216851,-88.11050983447305,-28.134986066382673,24.621976056405266,-91.43416437962466,-35.590238690103725,-24.91548504420524
554,9.233518,-86.13209559421168,-24.18937223113113,21.141090632082083,-85.45111525474749,-32.45207243933153,-28.118051826734764
555,9.250185,-80.44848670327609,-21.306023764196148,17.753847795944605,-79.65584891903796,-29.22355631423659,-27.46717268034802
556,9.266852,-71.00597923805016,-20.50226273610848,15.219880302205121,-73.90982170195096,-25.906586307110768,-24.429426800787816
557,9.283519,-60.04011930301321,-21.41273540757153,13.608641128805084,-68.11264720151954,-22.193354437373173,-21.399566480523987
558,9.300186,-50.35045148768503,-22.380531194470898,12.337609317513373,-61.97167586317454,-18.308596063797445,-18.956167564051707
559,9.316853,-43.00852116652004,-21.667636386309972,10.603120301886687,-54.8794842451688,-14.43675025325382,-15.806113184355386
560,9.33352,-37.169651664510354,-18.52998388409126,7.838450407431026,-46.52858256919109,-10.001650452533525,-11.060254460819039
561,9.350187,-31.475752921216525,-13.455240019391567,4.140548827552145,-37.669155397060095,-4.552467183676494,-5.623914451496004
562,9.366854,-24.864060367725045,-7.787918818403231,0.4819568441078623,-29.740970112573272,1.110112689689017,-1.0092211434317806
563,9.383521,-16.72815331412767,-2.9994388439078694,-1.9602001615919613,-23.32021302598549,5.76510954559356,2.4746203046904913
564,9.400188,-7.345112925399212,0.20870972204267685,-3.035427255199444,-17.153446814065816,9.537132692086836,5.490092359184143
565,9.416855,2.152553430060478,2.430730884625495,-3.743482128998064,-9.317376793531778,14.00323067236955,7.952099184563485
566,9.433522,10.802766193513149,5.080268857216953,-4.97175206768524,0.6507956049641759,20.385440805579524,8.68295111252602
567,9.450189,18.557266113418233,9.094143707039425,-6.731231595459548,11.355675046726336,27.781964974261353,7.0697028315095665
568,9.466856,25.950948319274865,14.014582765486635,-8.676935412087662,21.28864118609154,33.20435368386147,4.137761333439015
569,9.483523,33.36095692171173,18.377233370067504,-10.553484752183682,30.13726757851753,33.68942024084331,1.4810138549175091
570,9.50019,40.35909314164174,20.924217044254306,-11.961404610871123,38.05968534641961,28.881967543425063,-0.24344308069292397
571,9.516857,45.65670622398579,21.464369846206697,-12.400802650656043,44.673137430417654,21.625589123328382,-1.3865318183198982
572,9.533524,48.35703383298744,20.826957937572278,-11.810134228414583,49.656298124111046,15.805762878327727,-2.388842534511929
573,9.550191,49.49393733856286,20.10329053615873,-10.680157664296601,53.878698047124985,13.505843660372143,-3.2049344716914665
574,9.566858,51.49097974518784,19.740375693016368,-9.522256746730646,58.96354347373405,14.143359945703136,-3.4855861475387986
575,9.583525,55.64066850133155,19.29153699717306,-8.413890032037687,65.51074482032891,15.938694467261602,-3.035711126705412
576,9.600192,60.713834509124055,18.13383955020842,-7.070950342686768,72.22967198770968,17.61838736232421,-2.053638237472473
577,9.616859000000002,64.36052749319136,16.313590944554488,-5.283682141242425,77.17016988637474,18.625325344922572,-1.1404358142567281
578,9.633526000000002,65.28209388233637,14.538250437299062,-3.2329651099900127,79.50329230340014,18.56371272394926,-1.1166796137811372
579,9.650193000000002,63.70558719169452,13.469990841610281,-1.2831113567281673,79.66063278443801,17.367991345816957,-2.478056746694632
580,9.666860000000002,60.40187095333447,13.191612239429832,0.45787141659726344,78.13804029471986,15.830888842901112,-4.808933420168981
581,9.683527000000002,56.027316381120585,13.299555267489719,2.0587746584321427,75.04349654223995,15.126435995937705,-6.947900183308942
582,9.700194000000002,51.36418798536077,13.367122722848961,3.2390612288610408,70.78352401994343,15.530325733017285,-7.941750591349795
583,9.716861000000002,47.519990398600186,13.250986593595817,3.4154252801435603,66.28939699741039,16.05353967021613,-7.778759702608713
584,9.733528000000002,45.238041626219434,13.008879860828692,2.5095658391405973,62.2026791256356,15.658049789506322,-7.163579126716421
585,9.750195000000001,43.726690856310086,12.685176457109417,1.2633410697235887,58.309506655816904,14.438293017779216,-6.72251124310987
586,9.766862000000001,40.60100648597178,12.247105768225257,0.46000566797204395,54.06194147418448,13.097553906203164,-6.518268377352461
587,9.783529000000001,33.95030459790722,11.568016879378945,0.25692149534220055,49.29832377065411,11.643454490108923,-6.18920434625719
588,9.800196000000001,24.732041966124534,10.395350067640976,0.5435136847169759,44.14630186977794,9.53656264021197,-5.307908818339808
589,9.816863000000001,16.261608657995108,8.516958103406763,1.4186312623054418,38.63561181364803,7.078837890601829,-3.6885862290510647
590,9.833530000000001,10.887698851094624,6.0016360702604,2.882212876255152,32.9308384856583,5.452172749514488,-1.7112749054123637
591,9.850197000000001,7.8832722543457745,3.112914677805235,4.404653422288174,27.562242090455648,4.9594994807974375,-0.2770238413747206
592,9.866864000000001,4.967071086295171,0.09581866402555844,5.240154983628232,22.697806783006495,4.289839772491517,0.04100223568014649
593,9.883531000000001,1.0649243622953528,-2.666843721101653,5.14139328371619,17.52024034199991,2.112410004597671,-0.2573694781383741
594,9.900198000000001,-3.155844852614608,-4.452425436719569,4.562896127394879,11.238951970973357,-1.4155385899053576,-0.24518327452648297
595,9.916865000000001,-6.9890414712349775,-4.623283940437259,4.105830784890474,4.47550294576765,-5.095448725813367,0.2579867218288331
596,9.933532000000001,-10.853094820228021,-3.3379969432878456,3.8687442276837976,-1.3832681267560893,-7.733692631198117,0.94888730749689
597,9.950199000000001,-15.393453329259719,-1.608215679584999,3.4334950242067706,-6.084011134706124,-8.435462379259178,2.1726212287245286
598,9.966866000000001,-20.12809661740381,-0.6603137605907643,2.481132796364286,-10.576061384815038,-6.960894039307138,4.5586277950664265
599,9.983533000000001,-23.757706381693854,-1.3655067449193343,1.3790499412023025,-15.02967612732424,-4.445933717747222,7.458642189301416
600,10.000200000000001,-25.58444895928277,-4.017428460784802,1.0171889571329342,-18.10230998306791,-3.0678069642309334,8.985558356424496
601,10.016867000000001,-26.10460077079707,-8.155856162969314,1.8444074373580246,-18.975949272594406,-4.43129886236968,8.0480514804978
602,10.033534000000001,-26.581268634125557,-12.548026036025139,3.136129908312495,-19.261854876907126,-8.38224392953156,5.580250101114413
603,10.050201000000001,-28.336174626876698,-15.821723142332033,3.5969147208966215,-21.665125014790195,-13.14567662381183,3.4644054552959442
604,10.066868000000001,-31.68398147535398,-17.46119266112688,2.8046101492892443,-26.735080908804168,-16.3221358237727,2.802767865860225
605,10.083535000000001,-35.13203663973894,-18.015809150589103,1.7247516361509,-31.82950867551871,-16.270304012896815,3.3452356451319045
606,10.100202000000001,-36.35911974767221,-18.118964724762552,1.5939164334388285,-33.744155933590136,-13.100766872767554,3.926488173801957
607,10.116869000000001,-34.418459463646634,-17.56554670504186,2.55060776212592,-31.963580417818893,-8.368718165577679,3.187399385510619
608,10.133536000000001,-30.570101929998316,-15.768103234756762,3.626649887466144,-28.965504798298237,-3.9236886931077493,0.5067371992334219
609,10.150203000000001,-26.857997849661537,-12.93486711314284,3.9198774188391314,-27.575908114064415,-1.0875230069895596,-3.3107316020646866
610,10.166870000000001,-24.30858077382843,-10.188271882805493,3.4356550652002307,-28.408616295556676,-0.33109723309627104,-6.672755146203152
611,10.183537000000001,-22.58197660219957,-8.441359962966313,2.78562038125993,-29.845950298365345,-1.2091186050312888,-8.823910955836016
612,10.200204000000001,-20.912775796597217,-7.6354053460915665,2.396984355655958,-29.96887672646261,-2.7590008796072554,-10.385850930617101
613,10.216871000000001,-18.975750705497553,-7.185479199772898,2.199825123593322,-28.02579877318634,-4.170803866894989,-12.05832663156292
614,10.233538000000001,-16.823919847084667,-6.700783934648676,1.9379961163719557,-24.31331137674966,-5.035900151879396,-13.429962364159923
615,10.250205000000001,-14.302556215736736,-5.983357829494863,1.5600781035696643,-19.43042581932272,-5.131276563436655,-13.637862410038187
616,10.266872000000001,-10.922311717915168,-4.627678542933737,1.2247523723509361,-14.003073973661525,-4.284837855686666,-12.841181204545103
617,10.283539000000001,-6.504483119022797,-2.143106250633262,0.9799921610851189,-8.83102561742202,-2.500948927999644,-12.321709022285415
618,10.300206000000001,-1.7844216408476274,1.3416365553481147,0.61200073046039,-4.875334184443242,-0.10786644106598442,-12.937754881222236
619,10.316873000000001,1.971036434281323,4.756756914378242,-0.02115192885107911,-2.7704017937792096,2.296149354405932,-13.894467119629002
620,10.333540000000001,4.097314971070986,6.764356877285605,-0.6223396839189559,-2.1415944540021594,4.180604122293931,-13.517039778414013
621,10.350207000000001,5.183172494092725,6.814640257604006,-0.723342290273602,-1.533753686357111,5.50414756296931,-11.227172181710925
622,10.366874000000001,6.547233130141237,5.522359722637381,-0.3015754528812893,0.6076358350287565,6.663452131005561,-8.27465943478981
623,10.383541000000001,9.150160810031517,4.023884321533393,0.19868673617795068,4.665396034813733,7.805578874689952,-6.309906750083339
624,10.400208000000001,12.90585368698449,2.982784613134023,0.4836625758999348,9.55783397790048,8.35543787022294,-5.656027319726351
625,10.416875000000001,16.775691036492248,2.231084635811314,0.6941114452334364,13.710187631211749,7.5451814377549775,-5.25453213405451
626,10.433542000000001,19.530278595662466,1.4138007863469093,0.953334399269169,16.288864654698266,5.447409232798272,-3.9635932291424436
627,10.450209000000001,20.62753650248231,0.9542124065160835,0.922041915213236,17.540418874662095,3.3877049513517417,-1.6228646108920124
628,10.466876000000001,20.380284497026448,2.023658661548314,0.05754339499537364,18.10569949957505,3.168568804632198,0.9683721694018451
629,10.483543000000001,19.316127747142414,5.049473805323866,-1.657489991716902,18.272393726899516,5.4998199282122435,2.87195942857385
630,10.500210000000001,17.75072347929122,8.437351685503106,-3.3412847919335493,18.081954766207822,9.05378474831697,3.8073397572314125
631,10.516877000000001,16.214435669498904,9.611957847720594,-3.813993087784511,17.973282217934774,11.432938333997193,4.272607058513888
632,10.533544000000001,15.764482351519149,7.564123072227378,-2.8270115284031254,18.764638281636003,11.213336639190475,5.034910698018588
633,10.550211000000001,17.076021322456405,3.7818072742506943,-1.5973171124590593,20.605427213457194,8.815654390637892,6.594873317390078
634,10.566878,19.24615775586705,0.5152797268025702,-1.7444928218822988,22.203668141019783,5.676002800215289,9.02284500602043
635,10.583545,20.231714042206136,-1.2488716536349,-3.5900894407348316,21.72449354805765,3.1952064400313533,11.959601618590957
636,10.600212,18.677571079742577,-1.8869505129817332,-5.834149520715528,18.59724263081768,2.177861672110999,14.586763268191433
637,10.616879,14.840388813232668,-1.9541912254973206,-7.11039692949255,14.040162832734891,2.345613920872472,15.899256395062269
638,10.633546,9.780621579124158,-1.5757341640030391,-7.530248189508306,9.849790479174061,2.365298030932218,15.417440205450076
639,10.650213,4.440389131811346,-0.8064195614433447,-8.323314766815068,7.216535582425008,1.0696895600341814,13.65946499428974
640,10.66688,-0.345546476387099,0.03215154874111953,-10.177657129509049,6.522391895516128,-1.2696994032001911,11.744986930289961
641,10.683547,-3.792390017553452,0.5763308951677564,-12.435018866853252,7.24152211269704,-3.2825274308511556,10.48469648762751
642,10.700214,-5.631497429478836,0.722938014563845,-13.916956213053748,7.704532350228385,-3.9486398775920515,9.838658520340879
643,10.716881,-6.336359017520286,0.5324572435759126,-14.046239356803923,5.867533173846034,-3.3116963984429915,9.166841155686894
644,10.733548,-6.685636684007415,-0.03568474077306705,-12.927458198587725,1.0589429252477693,-2.0135565278854104,7.923049811542574
645,10.750215,-7.19166181251113,-1.0816418941673334,-10.734796201772943,-5.244842198604848,-0.6820113418370046,6.165297254123015
646,10.766882,-7.8864912510808,-2.4416134384778845,-7.581712579969857,-10.675792013717146,0.274222563861172,4.547708078698822
647,10.783549,-8.58073916395927,-3.6201719874607563,-4.005577067484997,-13.845728450611201,0.7408935070912044,3.817324598656764
648,10.800216,-9.356994782517472,-4.228323902021147,-1.005469874023089,-15.023182786372704,0.8969993222016059,4.078985018477491
649,10.816883,-10.67024055006424,-4.412095563086181,0.8398811713120857,-15.45578072511632,0.9628570418932775,4.3697447184495175
650,10.83355,-12.792499039134947,-4.675334709087124,2.0636675641011086,-16.226872436782568,0.9176148368811443,3.1423108322430098
651,10.850217,-15.278058848376762,-5.269475739144426,3.6633697049214806,-17.463323143542198,0.5086730448987187,-0.414318234577566
652,10.866884,-17.209932674939456,-5.874583759329829,5.822456390858006,-18.438938625471096,-0.5064447295966226,-5.366200825626617
653,10.883551,-18.04100633713924,-5.92888965680303,7.71585036224566,-18.527199085102772,-2.0959845603009617,-9.579437213736128
654,10.900218,-18.127312542706456,-5.200136244521772,8.625548374905504,-18.0738530760843,-3.8436108175806,-11.483529067341639
655,10.916885,-18.361130288510942,-3.9568714366262006,8.848688804026713,-18.185365777460813,-5.170504758460503,-11.228463282521796
656,10.933552,-19.28307536549716,-2.6153241313728812,9.351094245867813,-19.606922992077838,-5.742836593312502,-10.123880566389547
657,10.950219,-20.6121986282682,-1.348576237898588,10.770912625210912,-21.937124228148267,-5.585424545155599,-9.266392663942254
658,10.966886,-21.566805580358206,-0.11781618319154591,12.897839598404547,-23.960059978043518,-4.8267983551992195,-8.927913224168385
659,10.983553,-21.43873018136878,0.9928653604659807,14.942160152088764,-24.577785784930768,-3.5708173360917064,-8.978320299454175
660,11.00022,-19.92983007742763,1.6411413433450868,16.13706259570406,-23.450186619626333,-2.0940775869074835,-9.337251793585143
661,11.016887,-17.354394716884585,1.5245654420958472,16.18208628288742,-21.124426759704935,-0.9296286337601628,-9.837404332001023
662,11.033554,-14.704882605413848,0.7873903698122325,15.311222674008114,-18.854783327033367,-0.5478251299724689,-10.003106567977124
663,11.050221,-13.236333881865729,0.04663809976827049,14.013112721556606,-18.04627397119326,-0.9673498137221389,-9.311824287888237
664,11.066888,-13.661120755776093,-0.06334890536602544,12.670803347752052,-19.22094939036597,-1.6967323588303604,-7.655656345361278
665,11.083555,-15.598721965579504,0.6009017502021585,11.40070812217656,-21.139721392105947,-2.006838603228665,-5.417485812670858
666,11.100222,-17.75220545411726,1.670388395735583,10.099876173440343,-21.30919904371747,-1.3963361764379116,-3.16798401676362
667,11.116889,-18.742268230096165,2.702059336194126,8.577377207519561,-18.13032926488522,-0.1054818072954044,-1.39616411622545
668,11.133556,-17.994023470331843,3.474625227026756,6.708674222038399,-12.753991170739187,0.785391010884338,-0.3444925476084078
669,11.150223,-15.874749092943844,3.8519132527620554,4.515642848648307,-8.281221000684344,0.12444930730816184,0.21785786230559556
670,11.16689,-13.040941355717587,3.6012229489515946,2.084964922402847,-6.85577289602565,-2.1883899997775265,1.0237270648671437
671,11.183557,-9.905817306838731,2.4761709293326013,-0.5125848500934399,-7.837880377349169,-4.995245211021117,2.7170307151371684
672,11.200224,-6.696774240975842,0.425448468673975,-3.0744498318761257,-8.764072857762558,-6.977661651170823,5.03353617363348
673,11.216891,-3.6000304211156635,-2.190712427524866,-5.083459054176367,-7.576864035280847,-7.773252222423829,6.842616400066925
674,11.233558,-0.7994391390113647,-4.4578077090019885,-5.9839202557374005,-4.028992876207026,-7.694905030574628,7.332726306329179
675,11.250225,1.2849633205443434,-5.176230177797914,-5.884516475513658,0.37153964697264885,-6.537300452522928,7.012174779348131
676,11.266892,1.9682221307651488,-3.7039271163380327,-5.795386901300803,3.580242628013094,-3.477370584221846,7.128735916018422
677,11.283559,1.0745333400590105,-0.7964774878387262,-6.737712784617168,4.605432789914046,1.2357058427866905,8.116511806729855
678,11.300226,-0.3369714709873717,1.5378389672677437,-8.560014215801877,4.2755475099826645,5.060733152023288,9.013614298887425
679,11.316893,-0.677821101751181,1.5042260372135283,-10.011704325413918,4.508704857334249,4.98203304426459,8.563768877579308
680,11.33356,0.568054760385171,-0.837172641812266,-10.150788900063613,6.573305024985615,1.0028875529429666,6.7396936969810435
681,11.350227,2.4801833448389146,-3.5963328352743424,-9.324706172277457,9.753517177370224,-3.179407468154169,5.019368821044127
682,11.366894,4.151663173539178,-4.922665891039355,-8.526195953500727,11.859100791368409,-3.791945851560335,5.037641337927106
683,11.383561,5.838217340424845,-4.568920903664257,-8.232629641648685,11.40738992623733,-0.7506112617454791,6.891629485596307
684,11.400228,8.117081065793275,-3.4531900125006985,-8.327992585801036,9.266532447201605,2.717233500834618,8.762117227811578
685,11.416895,10.479796187260646,-2.2709830644902578,-8.706547154179583,7.9068819741528555,3.5324323300908507,8.280528272607098
686,11.433562,11.696989440572736,-1.1250601905156217,-9.228920246580628,9.062995920392485,1.1600649575351345,4.541041576124386
687,11.450229,11.538409186706232,-0.07325953950506603,-9.260218567127378,12.286394548178638,-2.7213036857518995,-1.0197096494990356
688,11.466896,11.3560860022982,0.8969095151662327,-7.993420363280763,15.716412005063255,-5.6647196399846,-5.853577449316847
689,11.483563,12.606019892160333,2.4447459933653537,-5.453009816639853,17.911889501771384,-5.562902062356054,-8.481637585248624
690,11.50023,15.096365986739666,5.496734157136409,-2.756039461570324,18.658587004707364,-1.65720806580308,-9.309917711510197
691,11.516897,17.11084032779316,9.778817293235168,-1.0362347375285252,18.3238868655562,4.539683902688857,-9.488506413484316
692,11.533564,17.27161419754247,13.210875355750979,-0.31589386674859804,17.169006882969946,9.711736124834646,-9.529479744212157
693,11.550231,15.869904019410665,13.449366010600539,0.24031068890047025,15.501139829054651,11.124358406471876,-9.159758047978729
694,11.566898,14.223544669536892,10.148544606032818,1.1794471354019846,13.92692206220546,8.878893738288754,-8.055951364789784
695,11.583565,13.242770745345048,5.414744917571334,2.3037674134430013,12.994236860550366,5.550116218878376,-6.359500770023041
696,11.600232,12.945449817181728,1.938317546020388,3.221353178141566,12.72483578085512,3.662989304962575,-4.53119099712699
697,11.616899,12.865239562593148,0.8676480084094045,3.8520353292919127,12.70979471546963,3.856976216786742,-2.9232014508399327
698,11.633566,12.428906653798318,1.4824825855111987,4.301880827160424,12.555001848473186,5.259055902342005,-1.6340842885891989
699,11.650233,11.193220762339159,2.4281107411538745,4.5682332213174215,12.08172883187606,6.822540319241717,-0.7598182362855034
700,11.6669,9.123017787208946,2.800845389677513,4.528391389355862,11.171140025196541,7.913352058388156,-0.5897011648337745
701,11.683567,6.579625436177706,2.2542420594016948,4.099625181741438,9.632264585771054,8.0653346379644,-1.3392888968928696
702,11.700234,3.9155398094413862,0.7448682449161184,3.337071795637299,7.354899364193533,6.875152278632253,-2.737979444849856
703,11.716901,1.2292330410147092,-1.4271696426205605,2.404007830584045,4.538300536510695,4.409364153732488,-4.163698873158957
704,11.733568000000002,-1.4219249231024822,-3.5303777052342866,1.448202023817187,1.6794521987859503,1.4913315621114585,-5.253479214971552
705,11.750235000000002,-3.799575083863013,-4.773501295022587,0.519759233383541,-0.6439152141616012,-0.7853989426496681,-6.091544413466507
706,11.766902000000002,-5.654809929745447,-4.96264021843222,-0.3362529408872533,-1.9902353164745687,-1.98441346747871,-6.676251569039788
707,11.783569000000002,-7.0065107939166875,-4.693032046941765,-0.9396188266113246,-2.236924425928483,-2.605839369700301,-6.594166667454329
708,11.800236000000002,-8.06997856770704,-4.721842537263255,-1.0492087671840362,-1.6891413744798403,-3.2714160196911353,-5.598347870678589
709,11.816903000000002,-8.92245027228426,-5.171686137552877,-0.6079928389237019,-0.929392536716045,-3.825151380606807,-4.271774204726394
710,11.833570000000002,-9.380254660483324,-5.497987786017296,0.15684992291260078,-0.453372376647871,-3.5603941744348218,-3.597138205440373
711,11.850237000000002,-9.276329181475573,-5.201283193815738,0.9019928820183676,-0.4376981585893193,-2.2286652230872974,-3.813202997967611
712,11.866904000000002,-8.812036248024576,-4.3373702096234155,1.406564909188294,-0.764512398837934,-0.4109434524942531,-4.1457454366688395
713,11.883571000000002,-8.513759631271155,-3.2779396386472026,1.67013492076814,-1.128103917810355,1.1390146784560926,-3.898660553573338
714,11.900238000000002,-8.663053844505717,-2.267260404730429,1.8605985105037637,-1.230305778345802,2.1013079600472007,-3.3407680561916067
715,11.916905000000002,-8.697264141527235,-1.4260032150033328,2.192174719830183,-1.1476937346570968,2.4560264341458113,-2.9830718152769338
716,11.933572000000002,-7.423876447114765,-0.9192173892342022,2.7659138809546238,-1.4918486360940197,2.266755375067583,-2.3684705444238237
717,11.950239000000002,-4.203298960648212,-0.7488238084270209,3.432526563967275,-2.8793361397574397,1.9024870409623975,-0.4693147533874459
718,11.966906000000002,0.0904633892938625,-0.5206676828799197,3.8302810538001624,-5.092088634866012,1.9647379311733206,2.730497305966503
719,11.983573000000002,3.6416412167725043,0.20103805383326057,3.655433042848921,-6.983742980770547,2.44984130961574,5.9220257361550495
720,12.000240000000002,5.309228038480565,1.3737662998902378,2.9702656907855207,-7.4043924981922515,2.3581359246568074,7.93063670692686
721,12.016907000000002,5.506744452125432,2.597486522522344,2.2796102891445083,-6.138764521294276,0.8169977394423267,8.784770289851775
722,12.033574000000002,5.6213029055325725,3.5855783534484527,2.2577946063171894,-3.9169673055339755,-1.6020541007904603,9.134156675126999
723,12.050241000000002,6.811384990655179,4.173592016949387,3.228116359853066,-1.7245673586775616,-3.359147555897043,9.277083683747529
724,12.066908000000002,9.180987095400333,4.077061527137744,4.774465565461961,-0.214304002327957,-3.657870529002939,9.134801864050807
725,12.083575000000002,11.798708024517882,3.137492009534554,5.932872690140087,0.4524576498140209,-3.07253245830755,8.751060542537015
726,12.100242000000001,13.505092627092692,1.7757869886658382,5.896286520753575,0.5260121781581246,-2.503332892846646,8.376098990327487
727,12.116909000000001,13.797447993617489,0.7846000410545099,4.576165800972461,0.4873138034634887,-2.1653914083410846,8.185027458882765
728,12.133576000000001,12.986143153484573,0.6146569536783549,2.5447412783457324,0.7531065422441172,-1.7948166704503925,8.183983626354772
729,12.150243000000001,11.642465654343779,1.0867276326127602,0.5234911432891993,1.4330129240492007,-1.3259532943161902,8.306623620697561
730,12.166910000000001,10.052057286853032,1.717882096659256,-1.1426845722007002,2.39050434412382,-1.0100211483730561,8.354752557578404
731,12.183577000000001,8.215960844943815,2.0939562714411544,-2.636365091251002,3.4924041070821508,-1.0945040655120315,7.89030410456976
732,12.200244000000001,6.288569935711272,2.0238626902622645,-4.263642171131211,4.634617030558452,-1.6509016467804778,6.504256573905135
733,12.216911000000001,4.819020929933176,1.5914640992037148,-5.888416165248018,5.512726760473385,-2.5972514600864907,4.330159530428256
734,12.233578000000001,4.366558936774318,1.0805375516387175,-6.921321081733327,5.661722052156207,-3.6627755881964275,2.056445128670002
735,12.250245000000001,4.9376473148736935,0.7148524425593942,-6.896169392485472,4.970034608770775,-4.366955939357954,0.21633656055963307
736,12.266912000000001,5.965175293383194,0.4363093845086653,-5.904389377062406,3.98188723372437,-4.238533940261334,-1.3547705206919698
737,12.283579000000001,6.741217192868046,0.025053617776547216,-4.500464705871638,3.3971527988904278,-3.11527379840521,-3.0959657939699214
738,12.300246000000001,6.749320549746573,-0.5116252577301699,-3.3639941309791306,3.348739450110513,-1.1793055198530153,-4.880288960796767
739,12.316913000000001,5.835150528648758,-0.7993876395231461,-2.9553031534180736,3.4011676568892293,1.196015477373842,-5.905938125107388
740,12.333580000000001,4.346999530341245,-0.5476209028490282,-3.227329696805418,3.1779103878238306,3.482728300307982,-5.516736787721461
741,12.350247000000001,2.9612659008141207,-0.1338691649324717,-3.6600497895926614,2.790841340065176,4.987319776334488,-4.02487721776901
742,12.366914000000001,2.0971153260855737,-0.4626447072727631,-3.7319151176683025,2.712068900528179,5.110007625214699,-2.578523905339287
743,12.383581000000001,1.5527585082829065,-1.9789883065908298,-3.3335660373328375,3.3232032158871476,3.859470625173966,-2.142801754882568
744,12.400248000000001,0.834148613493555,-3.8516538071635575,-2.648933399879124,4.434555698536188,2.13308284694181,-2.7019774130320506
745,12.416915000000001,-0.2985131883268898,-4.422317487677548,-1.8350605679848502,5.1100973304438195,1.2856861152446424,-3.551342333123573
746,12.433582000000001,-1.7360345213059594,-2.7421800632378392,-1.0624260896841733,4.143117466975966,2.1529877405179345,-4.189695210123761
747,12.450249000000001,-3.3143224997684153,0.34832913070495763,-0.6907845362714751,1.032365736752644,4.3456770380347765,-4.698664101288099
748,12.466916000000001,-4.958846293054256,2.894473352217938,-1.0101905708384058,-3.316871299622106,6.460196909625186,-5.343650045970589
749,12.483583000000001,-6.496027146928341,3.5808209250997884,-1.7822254044986647,-6.921703194312027,6.9792999114394725,-6.05375437106607
750,12.500250000000001,-7.538923374071514,2.5957959608193333,-2.3221029587242765,-7.975446961247062,5.125023474709828,-6.398790553548343
751,12.516917000000001,-7.750505780366669,0.8949073966743354,-2.1127422547725843,-6.0496576036176775,1.2593037163566714,-6.042036751049137
752,12.533584000000001,-7.155125271350643,-0.8468767068805579,-1.2070392388015492,-2.371190970135861,-3.1919911046917653,-5.100504586528825
753,12.550251000000001,-6.101035110565405,-2.3518700391011462,-0.05729666928142506,0.9273826504327578,-6.397480234438378,-3.92779089899164
754,12.566918000000001,-5.006095868635372,-3.3075661314986693,0.8832131202780005,2.1052874122801954,-7.250120261748595,-2.575515216078206
755,12.583585000000001,-4.187122066165143,-3.3581242899031793,1.3804928012507702,0.860897045155921,-6.102779681817083,-0.7124372570729716
756,12.600252000000001,-3.796483726510485,-2.504113196960693,1.416351545437455,-1.6865439033481984,-4.276218940917721,1.7608510601391794
757,12.616919000000001,-3.7946168309706456,-1.2040454959573446,1.1333752418280323,-4.095463759334255,-2.8388841976905526,4.180409393615992
758,12.633586000000001,-4.004630685737568,-0.023658346276752784,0.832524042663048,-5.660685594841192,-2.0155049937502305,5.499434715568723
759,12.650253000000001,-4.257359171752263,0.6812310179112384,0.9159916522239521,-6.436048836372142,-1.6235349380624833,5.297760227390011
760,12.666920000000001,-4.487856937303695,0.8195005883044625,1.624799887854224,-6.610860715356054,-1.5962692967883065,4.2742062460962655
761,12.683587000000001,-4.692768885912635,0.5550693627585724,2.750017756027623,-6.2323261669144046,-1.8884770168543028,3.578849323812695
762,12.700254000000001,-4.865398037260476,0.2216945638547972,3.7254700827747054,-5.393847172352061,-2.254640394474559,3.688236983703897
763,12.716921000000001,-5.0464845842996295,0.0007097762336829017,4.092167282679036,-4.310707623037561,-2.504311664515913,4.096616949640252
764,12.733588000000001,-5.3684940834989,-0.3217953395405842,3.8417866874889173,-3.1567798593831293,-2.8000064824344078,4.088384359315075
765,12.750255000000001,-5.867345085638648,-1.0529646771389967,3.3546390598993328,-2.0693699905623855,-3.3002500135836605,3.5564817219977183
766,12.766922000000001,-6.2369240337252085,-2.0618432149152897,3.090162727256221,-1.3697326813507522,-3.589529328388853,2.9588741743132116
767,12.783589000000001,-6.011969095480107,-2.807162253868383,3.2666278608905155,-1.5029177686377966,-2.951137023684896,2.685878391614495
768,12.800256000000001,-5.124221509864301,-2.926309613687147,3.722940962354846,-2.5091338433898995,-1.3197974381058202,2.645940846382127
769,12.816923000000001,-4.081813290429514,-2.56286269684208,4.093801853109586,-3.6779342499255536,0.4451493323588015,2.433589320405641
770,12.833590000000001,-3.4590246896808083,-2.0742322931339285,4.144215262153453,-4.071027034141014,1.4054032650777275,1.8751672078039499
771,12.850257000000001,-3.3835478124486658,-1.644848818172375,3.9153112517885043,-3.4766731969340094,1.3727586710331174,1.4020930300359327
772,12.866924000000001,-3.6369304707852823,-1.2558767629365373,3.5749030350855824,-2.6433575396205233,0.8544209725837715,1.7444871738835805
773,12.883591000000001,-4.0587738354895935,-0.8587706995117071,3.209585780424696,-2.502133862181506,0.5043373266566336,3.156230149061683
774,12.900258000000001,-4.689867797898725,-0.499144878317768,2.8020673512051726,-3.3010636446655184,0.6279300436746906,5.078285444061824
775,12.916925,-5.598865070252577,-0.32804854555059176,2.3742267135749677,-4.512736257751408,0.9062841917159783,6.653512389602204
776,12.933592,-6.6040241568087374,-0.45286858115121775,2.0766756655110883,-5.388962481979707,0.6321275874486452,7.360199505318601
777,12.950259,-7.082306630227808,-0.7313597939200964,2.0689354554524586,-5.465540007250386,-0.5375907143483811,6.998653526408652
778,12.966926,-6.18884892298181,-0.8034594270453137,2.2823439723430594,-4.636962218399852,-2.1406846416594165,5.400639226182463
779,12.983593,-3.6104944020485927,-0.3872150283726744,2.3342677085998176,-3.047735957748963,-3.366832931938884,2.602370088493947
780,13.00026,-0.13147460163243052,0.47680465367742664,1.7783334160446351,-1.1332251451026667,-3.8155950834792307,-0.7342290491870176
781,13.016927,2.8621383830338893,1.465759539941678,0.5471150042686175,0.36686218939448145,-3.7032940421761364,-3.3991907705205735
782,13.033594,4.473514472325087,2.2830827897645225,-0.8559078837337342,0.7941010517299641,-3.432107365225925,-4.348642218366947
783,13.050261,4.716564596185686,2.9373014196267766,-1.703770330883357,0.13626013303069337,-3.049141092375191,-3.4904591380629832
784,13.066928,4.107230551120654,3.592163526767452,-1.6361790367779423,-0.9558456240847371,-2.229579835474845,-1.7688162601685333
785,13.083595,3.2342750995685114,4.151261209118391,-0.9111075444404954,-1.8761333294545435,-0.8800959390734595,-0.2746085662602089
786,13.100262,2.578308805463916,4.2376502560075044,-0.15715655398748646,-2.668475058717609,0.4447156244044529,0.773602757060309
787,13.116929,2.359519469770132,3.6338559583101837,0.033519971634673906,-3.777794128145333,1.0374565560551428,2.002561897203585
788,13.133596,2.4988555225119997,2.5236137865448947,-0.6188376800346804,-5.323334145206722,0.8718275906036077,3.858393903517024
789,13.150263,2.748884077840207,1.2552278440324964,-1.9502190850830945,-6.8158170422561515,0.6250160246809515,5.8484565205557315
790,13.16693,2.776451656370937,0.02006487062057588,-3.401662910116548,-7.567299253932345,0.8596351061386213,6.952102979277734
791,13.183597,2.2465583713018047,-1.1811826536043002,-4.343762305060708,-7.191276476125855,1.4628528653899793,6.654660485802643
792,13.200264,1.0756692957269274,-2.3070035507392177,-4.500903944449698,-5.652613925701601,1.9346898083322812,5.327574447265544
793,13.216931,-0.39628620038672524,-3.108997560350552,-4.1216797262999405,-3.1266968231650214,1.9343805348866,3.6004904748410023
794,13.233598,-1.592739366330264,-3.3250619810028548,-3.8024463128490855,-0.17019644697019043,1.4058838197286314,1.7073828080910953
795,13.250265,-2.099241812591747,-3.0231605735111646,-4.123281680387912,2.1545792273220608,0.4102881526070928,-0.40574201134476295
796,13.266932,-1.981197395717448,-2.5902706121166217,-5.252221194141643,2.913263948642869,-0.9073117886850042,-2.650706573338221
797,13.283599,-1.798801537237169,-2.3672933246067007,-6.750960928606211,2.1343886054491703,-2.238260714142857,-4.675323071238118
798,13.300266,-2.2256667971918724,-2.4239639362121794,-7.85315415830452,0.5800893925341808,-3.212504210996972,-5.9938862546020255
799,13.316933,-3.5276566988490616,-2.6267924987938036,-8.051254651929575,-1.2837826883029035,-3.613850942440515,-6.176996950105639
800,13.3336,-5.341023327451129,-2.727196496560633,-7.398264120626077,-3.5779809089330037,-3.3233348078157654,-5.0915512064718165
801,13.350267,-6.894299100286043,-2.4240698473557654,-6.272303754331144,-6.1887371225354055,-2.105608919584164,-3.0678104206458574
802,13.366934,-7.515338170328067,-1.5544976041067124,-5.005223188973357,-8.084464965900159,0.14391231067438393,-0.8598422047978765
803,13.383601,-7.091707034779345,-0.2802774105506746,-3.770624896960051,-7.77085355945313,2.799549697842018,0.5494576896673764
804,13.400268,-6.023873853252422,0.9501214207092588,-2.639182440475909,-4.520883537049701,4.574442587789516,0.3122069714198301
805,13.416935,-4.691287064665903,1.5831153591774736,-1.598921952411414,0.7325479112720523,4.5512243115533195,-1.6930335537474326
806,13.433602,-3.190965878353119,1.194027302875051,-0.6002456967553755,5.733490625298506,3.029629949250144,-4.503540428474231
807,13.450269,-1.6452467540577684,-0.15909164076232837,0.3351974899017918,8.406816178150644,1.1926862062487218,-6.634565502625904
808,13.466936,-0.3353851539147848,-1.7372198146799227,1.1252030953027745,8.236306556310694,0.054330990652698585,-7.245761482980189
809,13.483603,0.6438460172500874,-2.5319918346799053,1.7631005015970322,6.233429811979072,-0.16766053403163206,-6.744359293834055
810,13.50027,1.4468126871231262,-2.0221942933765935,2.3039908687130053,3.8243317765526044,0.1686183978283667,-6.297332434642555
811,13.516937,2.0359067127311743,-0.5054984163060038,2.722585427709843,1.9712484317825676,0.6782438235206173,-6.772755007683704
812,13.533604,2.089442624456564,1.2105832418382496,2.980004422984906,1.0514537927954004,1.1995301882903222,-8.005353270224841
813,13.550271,1.5219185431814963,2.3625898877794747,3.208378294280706,1.0600232262392761,1.6937491573782082,-9.047446345361143
814,13.566938,0.7497220811100664,2.6540754546765526,3.5814578907034607,1.763647300957797,2.143118643794546,-9.12175262981914
815,13.583605,0.2547349102159101,2.3456959968345674,3.990886827021147,2.8564045942850695,2.5889028973837718,-8.142528860274854
816,13.600272,0.15714835361244284,1.9902666144411583,4.080857696975509,4.160059396325197,3.1287520751908917,-6.380667737600383
817,13.616939,0.4458554650193362,2.0421200411194302,3.666873960259485,5.625022985213032,3.743157990082282,-4.133624703919822
818,13.633606,1.4125311505095866,2.578618211381697,2.9933041137398093,7.062741386515238,4.098934780617846,-1.9006494581691888
819,13.650273,3.4737464912821108,3.2233024855323125,2.5028396959408195,8.065190836185472,3.6276897672322086,-0.3841745438724615
820,13.66694,6.485898199985931,3.3783897961935114,2.3410985751029894,8.378499990381602,1.9932686206566008,0.05090565508621925
821,13.683607,9.4730357995419,2.739640526178655,2.118092681060074,8.20883068724984,-0.3893974125697396,-0.2362984252919964
822,13.700274,11.247573558744019,1.6465922725956088,1.270686304936064,7.937558420832304,-2.3568240753578005,-0.4432262773356337
823,13.716941,11.318946230700993,0.829692677210812,-0.305990585695476,7.589766923256031,-2.7013330175199854,0.07718965863971117
824,13.733608,10.157741029841548,0.7486320517993124,-2.1026442964188874,6.784865640894233,-1.0998950705013355,1.3858311259308627
825,13.750275,8.670992344949218,1.1782560021222082,-3.4738640579553075,5.282773176829638,1.4997432387954894,2.912339441754873
826,13.766942,7.537423129572579,1.4743310715801041,-4.144791919029983,3.433732922233524,3.4940033353108184,3.885832879624319
827,13.783609,6.95169355865446,1.2884574506871767,-4.269329720762991,1.896926774978766,3.8627611647245566,3.9855804387847025
828,13.800276,6.780000050222908,0.9686116543892455,-4.155810873467307,0.9612553067235514,2.89997435737658,3.537760846197405
829,13.816943,6.824637667401775,1.1331743238005159,-4.011224336140708,0.34724797998435625,1.669774066131306,2.970753504289846
830,13.83361,6.939935623737297,1.8962461612455725,-3.8927273939168696,-0.35302757489516123,0.8024084826213068,2.2197175921359187
831,13.850277,6.991574650862473,2.70698858808543,-3.768884729794796,-1.2516863699248333,-0.013546409091455658,0.933538782037141
832,13.866944,6.859586458053229,2.965863336956859,-3.488223489081622,-2.151510763071067,-1.3284015931542965,-0.7330668798526743
833,13.883611000000002,6.567685907338266,2.5889149502479545,-2.7247968901868096,-2.7633248717404997,-2.9380452159211763,-1.8898016807808424
834,13.900278000000002,6.319612725030428,1.892846825770231,-1.183058443268922,-2.9272432770614145,-3.884052515658344,-1.7606046704092402
835,13.916945000000002,6.2848981262952455,1.1462431972958842,1.019076480332259,-2.7159925049595346,-3.503405170355143,-0.5918748934720779
836,13.933612000000002,6.358950908550636,0.43591816085677587,3.3021078620304527,-2.3240964479798563,-2.194596171331579,0.6150839349050854
837,13.950279000000002,6.1889895211681125,-0.12914745882945117,5.099152834102323,-1.8634693673995557,-0.9197319592362472,1.1970998883588304
838,13.966946000000002,5.452359436143752,-0.3371584603542248,6.320296095675476,-1.3305490502216946,-0.1589691133249245,1.340239488543035
839,13.983613000000002,4.1623567121084415,-0.0734220624630626,7.241891330534705,-0.7183747819689058,0.35552351816360417,1.5318653485342602
840,14.000280000000002,2.753756402907473,0.48106301670500173,8.002453855491208,-0.010967755366450976,1.0009326613393847,1.8298256030051183
841,14.016947000000002,1.8383919641440716,0.9006126771346783,8.380081585692352,0.933796274036255,1.7230658269078307,1.8203349423250135
842,14.033614000000002,1.8495078687237405,0.8339246784938382,8.138782176933002,2.3430599236498697,2.241688704910241,1.1738859219597149
843,14.050281000000002,2.850480550004574,0.36504959947529514,7.484460225205463,4.281178050097633,2.549367523704438,0.10691699394729873
844,14.066948000000002,4.437938632517555,-0.013855902383094532,6.962463406360075,6.453226919977807,2.9168984396286417,-0.7399632430075516
845,14.083615000000002,5.704404161401531,0.07169293179624606,6.799633709593544,8.276273656478043,3.4117652969483654,-0.9009093940637656
846,14.100282000000002,5.631567651592118,0.4436614407278875,6.513134370181241,9.207653364056432,3.6898775042019105,-0.573922355580986
847,14.116949000000002,3.9542845171627734,0.6187441818944366,5.381443234466447,9.121398648592843,3.4431353870011394,-0.42441210429991805
848,14.133616000000002,1.6210403228561239,0.45072041760771636,3.225247199390757,8.407070140857078,2.885252924349177,-0.8015306814500958
849,14.150283000000002,0.11005072579943054,0.3515157034508809,0.5349011886255499,7.629718192290239,2.5057965044631447,-1.2611966332351565
850,14.166950000000002,0.2251339344387948,0.7979880118397051,-2.030312699363982,7.063632101919872,2.373893714017952,-1.0872871520543979
851,14.183617000000002,1.6297789837057652,1.6765456633474496,-3.9798310962297982,6.60157048636845,2.0117502427249643,-0.22114179572749504
852,14.200284000000002,3.3836555929166066,2.2509942198750017,-4.96062387036893,6.063064636360698,1.0838996090264115,0.6602976410135126
853,14.216951000000002,4.6865507732933525,1.9100515849374384,-4.811456644157273,5.440784942061829,-0.047341211304572084,1.0532401091080912
854,14.233618000000002,5.168397243115717,0.8994841401811975,-3.810536947522988,4.834041793603328,-0.6816255799145872,1.2067257778724017
855,14.250285000000002,4.766548484783664,0.11871841645024916,-2.7031721979141463,4.312595535671525,-0.5593431651400755,1.5113887349620103
856,14.266952000000002,3.5682804084406263,0.15383056769962877,-2.253042622944352,3.9368983961369888,-0.0859299894899852,1.695696485708381
857,14.283619000000002,1.8061159643077196,0.7163391865241622,-2.616836920107145,3.7352474525720702,0.1102118399532383,1.2658875832211067
858,14.300286000000002,-0.14590467659918602,1.1384136991306022,-3.1617572610392974,3.4359573485290555,-0.3656679498649308,0.6851618291262201
859,14.316953000000002,-1.922472820414531,1.1882829050551214,-3.0317138632721474,2.347404168365891,-1.6098989363876548,1.2987177582544822
860,14.333620000000002,-3.324441547163694,1.170707977157257,-1.9430736623454443,-0.0631539766916866,-3.531177976116508,3.639037451276841
861,14.350287000000002,-4.307341860520396,1.3925240076494294,-0.2990185433192946,-3.299697482576245,-5.789615720264842,6.373539787614943
862,14.366954000000002,-4.892891178393057,1.8333605389161898,1.45314838517026,-5.893395531883825,-7.687721444085373,7.5726058849199
863,14.383621000000002,-5.2146498170404385,2.2692223572114028,3.2359184588206347,-6.649742135724746,-8.468126721408186,6.759911230049577
864,14.400288000000002,-5.641064977159777,2.4105553421353427,4.968136816089217,-5.720302534916309,-7.922781695711253,5.194623758098413
865,14.416955000000002,-6.61806030618805,1.9345786665044147,6.1981844462443485,-4.305674402317636,-6.549927322335481,4.340114832532107
866,14.433622000000002,-8.197106179013492,0.6980948043447176,6.507123028198966,-3.4861432100020378,-5.0309159489973565,4.528953214439534
867,14.450289000000001,-9.84985868452518,-0.9816499112646224,6.047145850684084,-3.4362619287464553,-3.7759432305714418,4.983396018470069
868,14.466956000000001,-10.920382273772024,-2.4365062588178925,5.328695716688086,-3.551520242132784,-2.982215521745836,4.681185766314735
869,14.483623000000001,-11.161945467369534,-3.137946303280386,4.6238626580291005,-3.155531990693837,-2.7044646561145784,3.1719331123761614
870,14.500290000000001,-10.712993134469688,-3.0609937404172616,3.825211837173425,-2.155621406261384,-2.6325978517993667,0.85504057233089
871,14.516957000000001,-9.67249185048755,-2.61555593991855,2.771233159553847,-1.1350144365885952,-2.0987484326495656,-1.347250218572112
872,14.533624000000001,-7.938381082539484,-2.29982816053182,1.523731766892505,-0.7986945617790966,-0.6171187551755274,-2.605763191047087
873,14.550291000000001,-5.563023618832444,-2.3870401463418762,0.3581014038086592,-1.2383634159834878,1.6558927439800366,-2.701032162098152
874,14.566958000000001,-3.0823817317060933,-2.8230192723764116,-0.4538144398215758,-1.7555787897916775,4.082503768240261,-2.2101368658908003
875,14.583625000000001,-1.2424885139395723,-3.3010940468190784,-0.9033361406282916,-1.5413888236941897,5.947481439703786,-2.1296555549626914
876,14.600292000000001,-0.45214796595931905,-3.417926379853292,-1.3249946283802065,-0.5208339153726032,6.641415505091674,-3.0267431572135584
877,14.616959000000001,-0.6387489211300272,-2.9358683848989404,-2.1448671317432746,0.6282384313794348,5.878273448206661,-4.540473302017137
878,14.633626000000001,-1.4163398543912062,-2.0788129204590584,-3.422053584178755,1.2306586232282495,4.089743818375375,-5.842920971017511
879,14.650293000000001,-2.1707052757584306,-1.4761920363324978,-4.610015403931605,1.1785902175523355,2.3649513507850966,-6.430501095799769
880,14.666960000000001,-2.277130907265429,-1.656464083639955,-4.954971476784534,0.8238885005907597,1.6072919117225355,-6.281483081242394
881,14.683627000000001,-1.5966573073541808,-2.650054865301352,-4.28903123664353,0.5566626630982007,1.7710210540910407,-5.513008206803914
882,14.700294000000001,-0.6446027196896598,-4.083560403683201,-3.3275273562498,0.4902959417222034,2.1171975957690687,-4.307457964399661
883,14.716961000000001,-0.08407853702115031,-5.458808788529852,-3.067241049390273,0.421672413984145,2.0950743105355993,-3.0973177607687465
884,14.733628000000001,-0.1729091516847054,-6.265437226585467,-3.9447790647199192,0.09323139298678695,1.7417131621851514,-2.367261328243333
885,14.750295000000001,-0.7490643997983644,-6.017168017231402,-5.551496113640436,-0.4888533954184888,1.3448395471576413,-2.1294754005558785
886,14.766962000000001,-1.4696275932792169,-4.496126716450245,-6.972246459878267,-1.0637024922249065,1.0289713774281397,-1.8739724036472607
887,14.783629000000001,-1.8775630113667525,-2.1784131843309753,-7.364162166931752,-1.4480683562452457,0.7111589361544465,-1.1796151624753883
888,14.800296000000001,-1.4915114909730165,-0.2575023315443916,-6.4623512714973845,-1.7682497895134137,0.2682664655260141,-0.15636918807338762
889,14.816963000000001,-0.18779771909652337,0.18372925723508415,-4.7775934816529295,-2.3283316609758637,-0.3236203741411189,0.8263333189340847
890,14.833630000000001,1.5147208646670252,-0.8362929633941178,-3.2892691707731574,-3.3063376550786767,-0.9306955407241226,1.5913650443493998
891,14.850297000000001,2.780491969646854,-2.2349867556340213,-2.748299762167191,-4.60440465530988,-1.3082314573016376,2.171053975131139
892,14.866964000000001,3.1019384859530827,-2.9043348235585147,-3.1404605680045368,-5.957912255439143,-1.2506142254041956,2.608953377686305
893,14.883631000000001,2.5416608242904912,-2.5583397410680737,-3.811647362148811,-7.165658310090447,-0.7400787578064556,2.933910781147425
894,14.900298000000001,1.4796725432240758,-1.6717573595649056,-4.0801629357766664,-8.215455545099786,0.023138060982245745,3.153973654647621
895,14.916965000000001,0.3160432288805733,-0.844491165346795,-3.6985508506968054,-9.192777338305321,0.7485998888492873,3.131763073577189
896,14.933632000000001,-0.6929682977495526,-0.2711790767371526,-2.866148552510296,-10.121072241082285,1.2473793843300112,2.6427167788516908
897,14.950299000000001,-1.5281514016214552,0.2491976063345021,-1.979172589245633,-10.955562465954465,1.4886895715877955,1.6861766030589695
898,14.966966000000001,-2.294521199459518,0.8700974145105546,-1.3085916634039039,-11.65626648954876,1.4692120989013904,0.5782989224872961
899,14.983633000000001,-2.8930233894030963,1.4085561049075066,-0.7257243737709512,-12.108609687500987,1.082259641047288,-0.3858282811460789
900,15.000300000000001,-2.963793229390265,1.5559724532854289,0.22753950157292457,-12.022887911574752,0.13651305464679564,-1.2344054146403272
901,15.016967000000001,-2.3865166801625866,1.2371214355864457,1.8189379256292324,-11.166228158280521,-1.468536265090248,-2.1470284180079884
902,15.033634000000001,-1.7018437386023837,0.6567486313864277,3.7384927307688294,-9.766968100581776,-3.457072954764048,-3.048108088143138
903,15.050301000000001,-1.72300218049234,0.09580585372055783,5.437778866516997,-8.491460084936453,-5.04258519950098,-3.5738327816431283
904,15.066968000000001,-2.756482866050447,-0.21399153627999773,6.763019846162953,-7.924056969051629,-5.3288327735750425,-3.549609407063503
905,15.083635000000001,-4.449386273519253,-0.09642861699540028,7.942134474639017,-8.182692522243181,-4.0733753603125615,-3.3301897703710326
906,15.100302000000001,-6.356811762493107,0.49100543437812666,8.955909803593816,-8.994609694267732,-1.979707117683701,-3.4177295825245535
907,15.116969000000001,-8.355620282168989,1.326996298349865,9.312086501797456,-9.882852984974381,-0.06964783623156645,-3.7812224969882795
908,15.133636000000001,-10.353098978415751,1.9720212402265815,8.672766549548426,-10.273477221948372,1.2072422122331499,-3.7949851080887713
909,15.150303000000001,-11.762233897676875,2.016019854147427,7.461988701250094,-9.724119580265885,2.0928699444762136,-2.967201113532238
910,15.166970000000001,-11.644879713814223,1.3017976417410335,6.493478039340448,-8.164452647790517,2.751052682474794,-1.711019581590652
911,15.183637000000001,-9.653205402879399,0.006361312777793671,6.035105482256316,-5.827680717447802,2.7510480509101773,-1.274963016621521
