Frame,Time,RightHand_Accel_X,RightHand_Accel_Y,RightHand_Accel_Z,LeftHand_Accel_X,LeftHand_Accel_Y,LeftHand_Accel_Z
0,0.0,-90617.1583682792,107073.2818889387,8833.391389538534,91692.25628568005,102753.75587535428,-1325.6063563038729
1,0.02,-78478.60550702966,92718.46340401673,7650.847986200809,79395.87037060932,88977.56009786644,-1162.380194101068
2,0.04,-58388.771167536586,68958.56095296712,5691.523801281838,59041.68454083323,66177.38625191123,-890.835778799215
3,0.06,-36836.66272382515,43464.91531804781,3585.837486087603,37199.386103328914,41717.46147591884,-596.2323675502272
4,0.08,-19436.723295980923,22876.601132506836,1881.8026557059115,19555.779703507273,21969.37760804486,-351.9628175865703
5,0.1,-8490.941406031914,9918.538515753105,806.977861020366,8446.888586444156,9545.91274590666,-187.07341371588527
6,0.12,-3074.5983662557232,3501.5672762658746,273.795013477463,2942.7561854106157,3398.5105603311868,-88.54080800331525
7,0.14,-959.5601204821187,994.3457458903106,64.72350162716812,791.8206298853526,999.5475243814876,-28.4886335405229
8,0.16,-302.9709858964926,218.9782601777963,-2.2757494937787675,129.40913632169196,258.40797792244877,13.388322806883169
9,0.18,-132.87173149526453,25.76470961112263,-23.668863625536506,-29.64973972230265,72.56924483274615,45.43873268384367
10,0.2,-85.55792872828803,-16.496619715933065,-34.40079241963608,-55.70278155489791,29.43306588957428,69.64187084241982
11,0.22,-61.75054087418842,-26.96878459664184,-42.24352293952849,-52.32831264688909,15.77267047060995,86.62773069634473
12,0.24,-41.858919592586155,-31.26710851834943,-47.55653571368025,-43.58338457401551,7.997999800320253,97.31651374938733
13,0.26,-23.923850266619826,-34.03413900324686,-50.225779738839265,-35.760344200771996,2.3039966137427372,102.93591850867855
14,0.28,-8.829948167057289,-35.09715658216671,-50.80701561112979,-30.358193703929004,-1.2662999898010696,104.93855960238409
15,0.3,4.028545395574412,-34.00124178794133,-50.23057199948635,-27.305416899241635,-3.334010525507992,104.97405668564495
16,0.32,16.226371271965082,-30.265576116318435,-49.36655820996218,-25.104955382676067,-4.942909121942045,104.58231376276588
17,0.34,29.16929525308544,-23.966327764145845,-48.99015727563075,-21.817228780497757,-7.116801485605121,104.62938066976172
18,0.36,42.9886325116793,-16.136472246949666,-49.70465483476136,-16.398946810676488,-10.319720338525867,104.85136469619184
19,0.38,56.190416655671825,-8.46075268578306,-51.403312491370656,-9.583627650866783,-14.103149254802712,104.02228192991281
20,0.4,66.448161195358,-2.410196412894221,-52.6514153223887,-3.4504933842809997,-17.394096291674884,100.81703734760089
21,0.42,72.08238758318282,1.4162714149228612,-50.92994486968891,0.18043237369927967,-19.382695525944197,94.72313114118346
22,0.44,73.04747656487082,3.2473405522835503,-44.01874266428304,1.0288162908220075,-20.148971592827426,86.27227558703363
23,0.46,70.63993569690028,3.6922070663696775,-31.552669974160615,0.030814759286754395,-20.30522562747892,76.53169677433101
24,0.48,66.42426576736219,3.4406777141392584,-15.488800453750084,-1.958786853317262,-20.096838293576276,66.36204568653436
25,0.5,61.48099595052541,3.193628453284531,0.8693127946303654,-4.704161462007736,-18.9981033876413,55.96854092416753
26,0.52,56.300001640662494,3.5499820757605955,14.62669658252679,-7.878354668747992,-16.149928210046355,45.03683060562169
27,0.54,50.79347777293853,4.7686140091469325,24.68157458626744,-10.41538759504012,-11.1483688007181,33.318496309784685
28,0.56,44.207123298970096,6.636522091742364,31.67794915836133,-11.05972393982444,-4.526424001467335,21.014612804163892
29,0.58,35.35341476804268,8.649887131234722,36.49989096410675,-9.516707286404683,2.466302595774014,8.43567975985108
30,0.6,23.34311369628847,10.390595810768495,38.891830383946,-6.85181344978141,8.637167252213668,-4.585563263912681
31,0.62,8.269009671692725,11.720792748147197,37.92629442075387,-4.827515716682,13.45678689126575,-18.453080060406315
32,0.64,-8.740457359400416,12.590214864333301,33.835244943691144,-4.8874056733783044,16.94731293975391,-32.634500361320704
33,0.66,-25.98106642298964,12.768753509070201,28.85700025321801,-7.32252684947737,19.141499058332425,-44.936204815791
34,0.68,-41.48813021826369,12.0052518686364,25.917150406169167,-10.778997163013656,19.777111424466998,-52.43187974163605
35,0.7000000000000001,-52.82575027641568,10.586658113997698,26.612790304824728,-12.375579340479053,18.43988219784393,-53.42391535271982
36,0.72,-56.92872396795683,9.625653495023304,30.604519145997497,-8.628470983746336,14.90068084895972,-48.681171557752975
37,0.74,-51.132914474730626,10.495171202817087,36.62634314311814,3.0138418790833503,9.411319471600892,-41.02799201930601
38,0.76,-35.37435494258402,13.667607591219278,43.53125433581033,22.503951647874345,2.8598354421336234,-33.92221603070655
39,0.78,-13.514267469612466,17.955932908033176,50.15480421784517,46.303719270634666,-3.3663995509359017,-30.1565464231863
40,0.8,8.15567856350572,20.973681517182186,54.60801439021158,68.45187204492984,-7.907596165153278,-31.044514308811216
41,0.8200000000000001,24.345950733082148,20.591408545839037,54.56295623935241,83.54821988012532,-10.091011833549743,-35.847426881359326
42,0.84,33.14911647039159,16.231821480205816,48.81925892942728,89.49739443491733,-10.218878787333564,-41.726675917898405
43,0.86,35.650830882296056,8.959499678136524,38.488993678962196,87.74997848254563,-9.194548431683675,-44.967741871398694
44,0.88,33.86132767666879,0.4695777960819024,26.262955531020403,81.24535283178872,-7.700671994622654,-43.15623542660197
45,0.9,29.093362359349943,-7.918628382009791,14.364807108100585,72.25470050540574,-5.574738306603317,-36.6245762975619
46,0.92,21.7809906934474,-15.462023022450014,3.1666889456700966,61.6909004688404,-1.9939931970667684,-27.981055462821693
47,0.9400000000000001,12.28276623469098,-21.668335139731592,-8.42320405862162,49.65539098029324,3.615247759398697,-20.31456248134424
48,0.96,1.6345386148719365,-26.115789038924444,-21.47247375965466,36.25492488822508,10.801958034392364,-15.53746521992303
49,0.98,-8.459335812116912,-28.60338269315543,-35.91521041355345,22.086911573901613,18.183007343842117,-13.746802163263911
50,1.0,-16.328004853992358,-29.364241766742488,-50.56743399184437,8.272806272911433,24.211366821775577,-13.545687274673913
51,1.02,-21.093016160103744,-29.040948165992717,-63.795792573636305,-3.8725579797336254,27.83563492511199,-12.862342839512472
52,1.04,-22.86638605797624,-28.356967740915465,-74.0594626269708,-13.364048608070277,28.618425779057038,-9.890393534221069
53,1.06,-22.321901978111253,-27.717541334791044,-80.16062202526518,-19.95606286580385,26.578773903333087,-3.812555371315694
54,1.08,-20.194186719619136,-27.023480097253376,-81.48939301454229,-24.125652962520423,22.16422771065016,5.022497043338302
55,1.1,-17.176135880147612,-25.765626176045664,-78.3099647774356,-26.669146813312068,16.314292743116567,15.399831762743652
56,1.12,-13.98053322929264,-23.338356078907033,-71.73644944718725,-28.326446567208865,10.283499545870264,25.591657842878
57,1.1400000000000001,-11.14363367818163,-19.45888646665569,-63.164952664068466,-29.674884391579486,5.133964881328005,33.695552855135816
58,1.16,-8.751325219076772,-14.412639923001096,-53.55758968939229,-31.083778870726814,1.2189837805440118,38.22672526152053
59,1.18,-6.578524751558365,-8.881626225619137,-43.31037120510712,-32.57323929368661,-1.9047442634263372,38.760709285930375
60,1.2,-4.625537446885313,-3.526350713449334,-32.79345674026683,-33.83074810523766,-4.976872552946251,36.00139833981541
61,1.22,-3.4671869545094607,1.2808087487160247,-22.722237588390186,-34.56567162110389,-8.29025606416476,31.19241336479341
62,1.24,-3.9577557113762962,5.436106577626968,-13.691157955703462,-34.8773873241804,-11.371203617848003,25.519843582678405
63,1.26,-6.50390214806201,8.956305202979648,-5.389261003164886,-35.19297263515833,-13.425313991975163,19.986864946498663
64,1.28,-10.585313877162747,11.872424618920103,3.3946355187741,-35.80373372472413,-14.10644956862194,15.511322040442515
65,1.3,-14.969753502691724,14.232408864635769,13.729135729432084,-36.47533713176355,-13.824137036222805,12.761695401463928
66,1.32,-18.431715337378954,16.15180127340919,25.45666806156781,-36.51050972272683,-13.341618139400472,11.74829007233888
67,1.34,-20.397349897174735,17.771128285100303,37.1491346292208,-35.20256030726998,-13.15285365643874,11.643360844900677
68,1.36,-21.04890058194192,19.10639098739795,47.095358565600876,-32.29201277611462,-13.224644876273466,11.120751230956138
69,1.3800000000000001,-20.900169245371917,19.97278920268688,54.35688280339507,-28.05778217824941,-13.19965269276658,9.02569558331729
70,1.4000000000000001,-20.328633204520315,20.1049359426962,59.018753809982854,-23.00814704004351,-12.732963197967983,4.97621426757326
71,1.42,-19.490437974213283,19.35936283236572,61.67921419523138,-17.52396187489897,-11.66258637330576,-0.39755702615023164
72,1.44,-18.502042759991355,17.802897633708263,62.89150868453692,-11.835742356752919,-10.007105853500596,-5.707951425130467
73,1.46,-17.492225053422175,15.628431430374455,62.99256369004853,-6.269270754563486,-7.919434514153611,-9.483436921108009
74,1.48,-16.44887158843516,13.02120656644508,62.17623531556859,-1.3187702377453943,-5.619608323574079,-10.867615337463176
75,1.5,-15.130400722557335,10.145399742206887,60.553696061373515,2.64318099097855,-3.2877235873634256,-9.889346729936822
76,1.52,-13.181159936456105,7.237684363388658,58.08955884490062,5.674651335077902,-1.016068326507112,-7.26717408771337
77,1.54,-10.313742955552662,4.597911547576285,54.47022966336031,8.213425194929282,1.0985246781328486,-4.037605802825072
78,1.56,-6.403805146529264,2.397480153799533,49.14982940626053,10.776055084877168,2.858813581088671,-1.174182883296016
79,1.58,-1.5035443624929883,0.5231218704711955,41.723285161149406,13.7415985661052,4.0460508983177945,0.7591910941723989
80,1.6,4.112880601007223,-1.3357670532118495,32.346038630170085,17.201486643176885,4.6010524926782885,1.7424631238552761
81,1.62,9.86742368113685,-3.442117883929183,21.769575617989045,20.701143613244035,4.680332759466496,2.06178485292881
82,1.6400000000000001,14.942266912046541,-5.842114576187613,10.97730334291178,23.14932858418223,4.504987157418888,1.9012303208699817
83,1.6600000000000001,18.591828258205098,-8.379758826236996,0.8281241195192037,23.35317214940121,4.133348265090449,1.2047852156904872
84,1.68,20.498044531743567,-10.820275151536903,-7.984647281804194,20.95896076248649,3.37038508175289,-0.006779998386426261
85,1.7,20.84266345534496,-12.934370767125692,-14.801966591669363,16.860431187822346,1.941974225094231,-1.246188737451845
86,1.72,20.02116315494632,-14.459223927375554,-19.032644466598438,12.525313895600457,-0.14513679144413527,-1.7166628589436543
87,1.74,18.324378375067766,-14.994920287070245,-20.394571200824693,8.941047641819669,-2.347490094664848,-1.0563645605958678
88,1.76,15.979881534685187,-13.997326482585752,-19.1486031010958,6.358085353840091,-3.7551718240864567,0.08556731984635935
89,1.78,13.417835376721463,-11.015520106415137,-16.23456180051823,4.8944514746152405,-3.6827505363735087,0.30539552812402304
90,1.8,11.180224355541537,-6.134016691517839,-13.238305232832754,4.840915715753661,-2.170395897729941,-1.6543467115494854
91,1.82,9.407682533402935,-0.265637315523585,-11.888680660895917,6.049598879278048,0.12596370752184044,-6.087681022991198
92,1.84,7.6519753645573605,5.103119677408753,-13.03798088777502,7.382495521810264,2.4906122696943997,-12.142857279628982
93,1.86,5.397866667607899,8.644544279005935,-15.883181143324673,7.3161826946027055,4.5162994777624155,-18.284299599978937
94,1.8800000000000001,2.617803784158297,9.828977419855882,-18.33648455645503,5.1378259201882175,6.052384941931024,-22.976789570382103
95,1.9000000000000001,-0.2671899076270625,8.979887727405703,-18.42335408251676,1.3310219193282353,7.046091133011732,-25.21298509807454
96,1.92,-2.7503018043652903,6.83120899335977,-15.597240188156643,-3.064986037716203,7.511820845357866,-24.83211406972898
97,1.94,-4.500951716605647,4.058636595439689,-11.01547991205473,-7.160789571522349,7.551671245144159,-22.576032688660163
98,1.96,-5.493547208748211,1.0820366443312806,-6.735471502071894,-10.39650139839273,7.3161480891523,-19.67603694834501
99,1.98,-5.949498904460235,-1.8832677931546122,-4.545177413294704,-12.416419471084588,6.893182896148334,-17.14314665661314
100,2.0,-6.026844525745035,-4.6369466651018865,-5.179635693767626,-12.936221070790832,6.22557458303733,-15.374591007163783
101,2.02,-5.609191794118966,-6.8225815614357055,-8.15318031237236,-11.705708258415516,5.226104177734775,-14.299286169274918
102,2.04,-4.538352301921659,-8.005217226570068,-12.094679269312564,-8.634073774885824,4.0241542667226256,-13.645810404953243
103,2.06,-2.953652217783283,-8.021097813966358,-15.452774034706723,-3.9797599206296503,2.9810983899165593,-13.025485027456046
104,2.08,-1.2229911670087312,-7.215476096977474,-17.239421753556556,1.618626667093278,2.3766515483033555,-12.01048814747587
105,2.1,0.3858204588883013,-6.21405440106706,-17.325417245836636,7.290668234663379,2.186277471070334,-10.393799527120667
106,2.12,1.8127368862838267,-5.459991396649839,-16.23821025125013,12.143771155061472,2.2461806586605473,-8.427462470111928
107,2.14,3.06119144197776,-5.0685543060088705,-14.867492516439643,15.518872902994406,2.5141819410365938,-6.707890825625941
108,2.16,4.113328933743417,-5.087224994934294,-14.210677499072649,17.22704020994129,3.0459980365128487,-5.7098548908146975
109,2.18,4.977377617043794,-5.667896083094174,-14.949877731367513,17.55402954898158,3.7662032390138074,-5.371523279164943
110,2.2,5.679123580929716,-6.8360555350097,-17.010983055646154,16.980542013867584,4.368292167016309,-5.134749959151052
111,2.22,6.1720181490872115,-8.203475468682063,-19.592587052549497,15.865367104591105,4.4989922440728245,-4.391307897985959
112,2.24,6.3547927139089895,-9.100512719904964,-21.70370639728803,14.340939970388579,4.049711634378194,-2.88045067028151
113,2.2600000000000002,6.207542801838573,-9.03617507222668,-22.707299434913836,12.42733688981437,3.202461037552584,-0.7204176834852463
114,2.2800000000000002,5.7940285840674095,-7.9927044520474695,-22.49519985197754,10.20679275488542,2.152916644368288,1.8093429087301534
115,2.3000000000000003,5.073271908151549,-6.308602451670857,-21.282963769106516,7.928834787489254,0.9086917174588809,4.505188517534481
116,2.32,3.8098080606413878,-4.335867013814098,-19.165733487680118,5.986954269416874,-0.5294504395187787,7.430512268446259
117,2.34,1.744494790995578,-2.2088763061341243,-15.777073833052299,4.688930991321286,-1.9166394034333194,10.919186357972277
118,2.36,-1.142684272830068,0.07148900189303523,-10.493504945831395,3.8764437327422394,-2.8964879911541472,15.183294340637314
119,2.38,-4.487034357231629,2.3840546721987703,-3.1547184964794,2.815317819785923,-3.366512687033583,19.80428191250506
120,2.4,-7.612949298043777,4.451880178871605,5.357015658948891,0.7352365479778007,-3.5666178724229773,23.76613967599214
121,2.42,-9.85851957321245,6.108734803377665,13.31044713424235,-2.348997905048372,-3.7716565051618334,26.146962888102365
122,2.44,-11.009424559208828,7.479291077715104,19.061159108483146,-5.4564275210855175,-3.9441637796026834,26.783092068943304
123,2.46,-11.489068017007838,8.802327904434705,22.047495429753077,-7.470730826463658,-3.7044639801207166,26.250169711309713
124,2.48,-12.039249256115049,10.113681194411052,23.074071220499494,-8.221956928598406,-2.6651929962196457,25.285831125415392
125,2.5,-13.074824344194788,11.118725021670379,23.63855217364338,-8.676439725182902,-0.8731587908857306,24.346454867534685
126,2.52,-14.303135918435997,11.333585259965663,24.763869390729518,-9.96320357607052,1.032752282662826,23.679932748189117
127,2.54,-15.020145526601556,10.396828572764136,26.175589181626414,-12.244854886539995,2.149072447668349,23.50368525607057
128,2.56,-14.758094784038137,8.364396532167017,26.492221710325627,-14.625984736170775,1.876785354335675,23.774763122187032
129,2.58,-13.557793088342493,5.753408411390219,24.39703886365565,-16.012740570159966,0.26347635877233344,23.875137953824726
130,2.6,-11.679544686395062,3.2884341161130974,19.92321968799028,-15.79424547556657,-2.0938834142246305,22.918565605504416
131,2.62,-9.276577810100822,1.578764976937484,14.744635728925527,-13.780392420190012,-4.4013227234531005,20.54095137260793
132,2.64,-6.465027498716486,0.9357739087446806,11.08871219213172,-9.945508326088685,-5.9722044980975655,17.265428823405955
133,2.66,-3.6215126267213575,1.3161786043047092,10.073430425115433,-4.586615720234649,-6.366798239321501,14.020119993792942
134,2.68,-1.4467804796230719,2.323029698736476,10.86011445442324,1.3375608460796191,-5.457432228594454,11.368730827096874
135,2.7,-0.6098974498387342,3.3227572608193756,11.330628293660403,6.364371655012328,-3.4951047474122836,9.193788222149871
136,2.72,-1.284329249481345,3.7296350512812877,9.64569145640667,9.309348089897814,-1.0745506775715998,6.940659437992007
137,2.74,-3.0407724185644716,3.3148612361301444,5.392442960264621,9.998471503272992,1.1208017495316278,4.029474499086957
138,2.7600000000000002,-5.166189213101918,2.303239820996427,-0.4020270005033915,9.27754459283223,2.6330332746293377,0.13999817825777128
139,2.7800000000000002,-7.049441993281867,1.1725085161033517,-6.092524144280446,8.375638853436183,3.3100582602413926,-4.630025448269251
140,2.8000000000000003,-8.370807969414773,0.32046071407021304,-10.279094568709576,8.18058733389856,3.164189389076015,-9.724247065213618
141,2.82,-9.155781696516542,-0.12978669519193642,-12.244629333457748,8.843105748877864,2.2825325896707236,-14.359119045005444
142,2.84,-9.73679334984865,-0.26886869343574454,-12.040125571220752,9.881551805971625,0.9031974948950137,-18.011029997596047
143,2.86,-10.537056827668351,-0.21871964432157281,-10.346750256922531,10.663253068554823,-0.5199899585799161,-20.729009819321938
144,2.88,-11.75114566930875,-0.057599622237125794,-8.076616784301132,10.794448076462444,-1.4814979416727652,-22.90812487230163
145,2.9,-13.17723606138974,0.08610349569033121,-5.843793697803514,10.154022832772545,-1.753045550618349,-24.715525243030072
146,2.92,-14.327289710640011,-0.011244940247428337,-3.644532521755739,8.840621285565348,-1.5282351483371373,-25.703891281923806
147,2.94,-14.679100494665827,-0.46139785249197374,-0.9370482117146743,7.2303455328822315,-1.1711551842056007,-25.01677949008412
148,2.96,-13.856803505996925,-1.0098236288200562,2.899237703494847,5.889915424725169,-0.834141171896204,-22.12166152657464
149,2.98,-11.686209677659143,-1.1438764086660722,7.917075790330731,5.206096642661785,-0.3919255157283852,-17.467150569841987
150,3.0,-8.209378613142574,-0.5533134244732502,13.23575806891916,5.079276514234819,0.24607620713785944,-12.441862170868248
151,3.02,-3.6655087544079494,0.5335353514741945,17.369430448925968,5.05763054665643,0.8252889009518216,-8.628194714423053
152,3.04,1.5786358577013706,1.473531229320705,19.03536373649404,4.792943411203281,0.8283711387187327,-6.912437339281829
153,3.06,7.008799793395189,1.661038997001911,17.823948552963426,4.263822833600409,-0.042454387612238464,-7.103392023399493
154,3.08,11.85225360352231,0.9286469007145637,14.380303083655978,3.431027773212687,-1.4467116461079241,-8.351076306993244
155,3.1,15.244303784179479,-0.41383637461144424,10.07316545396215,1.7908254151772458,-2.568517657608332,-9.94682529740325
156,3.12,16.824901660154506,-1.898525211794091,6.262051437736207,-1.3802839470668118,-2.77557120358661,-11.669308908271724
157,3.14,17.17631329373115,-3.2246874222624653,3.518120444578938,-6.167968433558279,-2.124462259316478,-13.451432573334815
158,3.16,17.38963782708818,-4.282687021615995,1.3341100858613613,-11.5927695985804,-1.265611809038583,-15.058596860381513
159,3.18,18.041005313126597,-5.014417469343748,-1.4199241197352144,-16.2312457465172,-0.9013604546838434,-16.314067076707538
160,3.2,18.74561285633049,-5.420921323975291,-5.596492192521422,-19.211915884186958,-1.2588936200829608,-17.420055925409947
161,3.22,18.799645983998303,-5.652040744132297,-11.044407505558553,-20.542367601393074,-1.964735195342354,-18.68491177527117
162,3.24,18.028587981011704,-5.891248755766828,-16.60155320817316,-20.690405588532663,-2.4123305303769493,-19.939728620175465
163,3.2600000000000002,16.864528832736056,-6.121941885029422,-20.91748227495411,-20.155027762277314,-2.2984342192702756,-20.55305847867038
164,3.2800000000000002,15.824145857169896,-6.148700722878694,-23.45588403282547,-19.404763812436663,-1.8106890173139927,-20.115311857400705
165,3.3000000000000003,15.14408882990507,-5.883687142850896,-24.683212485271266,-18.90549469456784,-1.333653433349296,-18.877665024219226
166,3.3200000000000003,14.833352612805628,-5.492198218149615,-25.278014756721582,-18.984750761653586,-1.0849418208781976,-17.424867781164398
167,3.34,14.86908634590173,-5.201725485164249,-25.32542470860111,-19.61686238497744,-1.0451084672177744,-16.074081197021837
168,3.36,15.257560815700792,-5.044480809042115,-24.37738536457877,-20.33200561940312,-1.0879135752807618,-14.668826770888678
169,3.38,15.94440466156334,-4.850962713533284,-22.15278007984147,-20.40900918692233,-1.0860406358169306,-12.886256739935067
170,3.4,16.776910846814246,-4.469845907233168,-19.066051682510828,-19.30068924203899,-0.9597392898520334,-10.715086515458536
171,3.42,17.635119274796207,-3.93822846507547,-16.16231963809521,-16.935069379668224,-0.6998516548543299,-8.609027154846935
172,3.44,18.520871326718385,-3.4174084237255284,-14.491672414330164,-13.610813076513569,-0.3316702411085718,-7.040551317487186
173,3.46,19.348785619636054,-2.963825049759196,-14.18102634052412,-9.71447286006577,0.16519864674088003,-5.832768891156064
174,3.48,19.598556157977804,-2.363848641847784,-13.891444083074482,-5.657738056395849,0.8741278359849376,-4.062202990242724
175,3.5,18.30760212066373,-1.2466727420645851,-11.521758679573676,-1.9494684378648162,1.8509098275911648,-0.778196205950354
176,3.52,14.619208420173823,0.5401001084730691,-6.022468321246663,1.0019009818608389,3.0187587333547032,4.144825854005773
177,3.54,8.514791807642709,2.644791974048842,1.2530280837095853,3.317651850557536,4.1571492570031445,9.817060452767628
178,3.56,1.1135567775561988,4.3684535226198316,7.183749181284732,5.737598890089244,4.979205268850078,14.839864587464934
179,3.58,-5.760927960901865,5.142898595469899,9.229469586114652,9.079834698110435,5.225832840700041,17.99324448572239
180,3.6,-10.533506329909624,4.871734077162505,7.564606814546091,13.542996625168751,4.759211234233962,18.789430228315016
181,3.62,-12.740462113391107,3.909671852125808,5.175992876206486,18.524157565788556,3.660482572942285,17.866520086275447
182,3.64,-13.189844362752787,2.848155173981781,5.752731161326077,23.052910009365423,2.2647935576393605,16.99146253034437
183,3.66,-13.36078313166696,2.3003076763701626,10.974453690379388,26.290572544729354,1.0850439645203056,18.290297904951622
184,3.68,-14.526906337946247,2.660485049212702,19.30555622359303,27.593066070658033,0.6710022265094778,22.898984740718873
185,3.7,-17.07268527056526,3.834652310330123,27.15376032343069,26.36900380483636,1.4011726891347396,30.039681839876796
186,3.72,-20.26475725106154,5.2069242236922335,31.3013723343384,22.328306910573446,3.18818544907468,37.423924617311634
187,3.74,-22.64788538747574,6.060611194639759,30.691896774429132,16.106888827455982,5.346163984073794,42.70743161343053
188,3.7600000000000002,-22.95883787730437,6.1366504119761025,26.546410893339004,9.51839782092055,6.940960069965554,44.753570697047834
189,3.7800000000000002,-20.984007658677083,5.708623657185657,21.165636013686502,4.754274101260594,7.393814043237744,43.81111463431495
190,3.8000000000000003,-17.653135004683282,5.078648299538819,16.390763711244176,2.8011181899392668,6.696491501715601,40.86389595765164
191,3.8200000000000003,-14.242157849675234,4.169896098608887,12.637287556534574,2.5573409337456434,5.1181569296755,36.99847760257134
192,3.84,-11.474011043284108,2.8082002640253414,9.116043551188636,1.9721564704224206,2.976746410192381,33.21607023650674
193,3.86,-9.466528678085066,1.3318401597211116,5.040542294295552,0.22958290465629733,0.7912334135595642,30.423407135709773
194,3.88,-8.376427798363444,0.5936524452939109,0.5996676190369244,-1.6338978210783566,-0.6080394559737092,29.196002105556904
195,3.9,-8.617495984120529,1.1173216098450642,-3.3211059064634103,-2.4012409272746673,-0.4427148606153055,29.394775562001943
196,3.92,-10.262866855341949,2.3593862016684946,-6.206127265944436,-2.3979946342392306,1.444600787011092,30.125226894450655
197,3.94,-12.588112068590284,3.0929081590347267,-8.542288091901241,-3.2812187406372235,4.418902877848781,30.158327244638656
198,3.96,-14.513264399456109,2.626520860034595,-11.600379617238199,-6.587692663158455,7.434985566204896,28.247420567688057
199,3.98,-15.39919826633282,1.547460994626105,-16.82293073111671,-12.809981921176757,9.585070073104749,23.003969539827505
200,4.0,-15.344643957657965,1.232931972559684,-25.238877998226993,-21.432792035240713,10.40802532966161,12.9602646223239
201,4.0200000000000005,-14.928364021534064,2.702633359443773,-37.034747911111936,-31.180269913791975,9.87582859569585,-2.5397588703272107
202,4.04,-14.751551090665998,5.876033336914869,-51.34835016817816,-40.107330845601936,8.177154969806258,-22.170145236620847
203,4.0600000000000005,-14.944976754852076,9.708385975480022,-66.28930895249559,-45.934454388278795,5.432191142287346,-42.3287604390199
204,4.08,-14.808697853353864,12.938917685435552,-79.17445390710277,-46.776366789214975,1.4911672277999737,-58.205870056263926
205,4.1,-12.98547706162519,14.842422335495561,-87.10304187013992,-41.70768336114121,-3.918433431811731,-65.82297363609746
206,4.12,-8.430216339100967,15.436975283093354,-87.9497287370399,-30.927928442560855,-10.555664924814154,-64.08175011872741
207,4.14,-1.6102406326891594,15.091786740947633,-81.47546512843451,-16.00626430750188,-17.06837823061187,-55.51611349049308
208,4.16,5.391521234910902,14.056964223571217,-69.85750507475397,-0.039326265926882265,-21.401493043622036,-44.90110374609787
209,4.18,10.471043354360503,12.383628517371658,-56.90866037388952,13.37166784007918,-22.27819489342066,-36.400528152964846
210,4.2,13.433285536813145,10.122150143992108,-46.03323427720856,22.26678215693852,-20.384982105726216,-31.217854642493393
211,4.22,16.18090578286892,7.468494005772037,-38.32848498520746,27.58936330503248,-18.004148260581047,-27.38073622522306
212,4.24,20.867426669003653,4.791354050746902,-32.484252793299575,32.051839872460754,-17.484589215822936,-21.560301209757917
213,4.26,27.86855106904454,2.6128850542334243,-26.249054931259636,37.67241918007211,-19.952856700643235,-11.166949869282215
214,4.28,35.43263981687117,1.567051663125476,-17.413089474932917,44.386019759034944,-25.168614416370772,5.1093260869535495
215,4.3,41.12409825340508,2.295354529231899,-3.1732827486537425,50.8234378418977,-32.47743023804661,28.462741141652106
216,4.32,43.658653044804524,5.10221048785687,20.621071356121362,56.0824386561518,-42.076058726662,61.074790743126854
217,4.34,43.47790949317515,9.310461938365263,57.77204411843432,60.40837653902397,-55.36215393586174,104.9025013196615
218,4.36,41.43186149491294,12.87818520090969,106.94081462410547,64.01398939661951,-73.55796876141586,157.44518521402642
219,4.38,36.80318122816564,13.168331264984692,156.77607738372083,65.5317236010146,-95.26382862517801,207.06069846214785
220,4.4,27.124944669139836,8.942306242814313,186.60028331949025,62.479579484627074,-115.00463077662077,233.3605604174157
221,4.42,10.900181124606604,2.103919000559708,176.3031133202149,54.26047146083648,-124.73875357340914,216.6688273328706
222,4.44,-9.02343406831791,-3.001407531482937,121.19120357081961,44.89625943690452,-118.24366710071034,152.47762392627646
223,4.46,-25.537954661748216,-3.2367635623218005,39.51637949075001,41.725363017696885,-95.3992084960273,58.524983453901214
224,4.48,-32.42985639448213,-0.2455482858683924,-37.18709318568261,49.86805605970967,-62.27480973340024,-35.14157736685539
225,4.5,-30.649274028697548,0.3757628712545653,-85.57185690562281,67.05968074319233,-25.98716772812594,-107.01468581127827
226,4.5200000000000005,-28.80755811238882,-5.538879921671187,-104.6429645673592,83.96180902270856,10.990794620312547,-156.493043021369
227,4.54,-35.76976203393071,-16.33265553930617,-109.17123235441214,90.36571443942937,50.62218235484173,-195.2579453904104
228,4.5600000000000005,-52.28681942842331,-26.198255288065315,-110.88404223948602,82.24542241920432,93.30004106362725,-227.88478789376404
229,4.58,-70.85763615950223,-30.97585534118872,-108.88613225592619,63.51188309849738,133.9117864311709,-244.36659546943207
230,4.6000000000000005,-83.6232509179226,-31.45931646162133,-97.5998768997201,41.15595693122212,165.17302443646005,-232.46433197255834
231,4.62,-88.4378611087005,-31.124441755175475,-77.83619023198932,19.100437551736732,183.15624726236433,-193.07683437321163
232,4.64,-86.78366851910484,-31.712109982736777,-55.2344357437088,-2.871747844218837,187.7019695049718,-139.71166791075606
233,4.66,-78.74574445910027,-31.544508910506778,-30.966485592332823,-25.13143412273981,179.16869260384033,-85.71405634322169
234,4.68,-62.99159512750167,-27.59817750224037,-0.41669521111421837,-45.161265277187624,157.77619896108268,-36.931402965305644
235,4.7,-40.803103638393125,-18.69807227569629,38.52393306115233,-59.27704125682372,125.80413305869232,4.79073089097133
236,4.72,-17.161471996778452,-6.866870278602335,80.58383549888751,-66.11388717867779,87.87059322946982,37.38062773753886
237,4.74,3.0376809187380607,4.078477948613106,117.98203890592623,-67.18601764639209,48.45112417521399,59.797751401897756
238,4.76,18.602212518800513,11.203924389117919,147.05100534260117,-64.65899045325499,10.47063092800408,73.60939919794127
239,4.78,31.676729890925863,14.008170126169706,168.6759915759768,-59.74488450059945,-23.529971367658163,80.61710483529187
240,4.8,45.11887948121438,13.751037716211378,184.84002262308155,-52.913170802869985,-50.34457283576608,80.52730820901857
241,4.82,60.56214500347693,11.636901634612851,196.8821316364851,-44.49286102456517,-67.10244709361908,72.82789181931632
242,4.84,77.48438218479295,7.729320456145567,205.86032721916666,-34.991758340536535,-72.92966194030684,60.084174679497195
243,4.86,92.87627429142479,1.424561594149611,212.3146974014663,-25.6400831303986,-69.31832496563013,47.73258396451952
244,4.88,102.34477002348643,-7.171531764483252,215.10465049372684,-18.777264562852757,-59.16178374328303,40.38168732618087
245,4.9,102.8709623632714,-16.27684033602631,211.03505716069878,-16.9835509139639,-45.53573007434386,38.60019678594393
246,4.92,95.20495733295496,-22.863598102227588,195.8296628141114,-21.22362292086169,-30.886727229478733,38.87890711092636
247,4.94,83.42075899439905,-24.419691090455792,165.73932746337638,-29.898501412500163,-16.601678249134814,36.238670718545166
248,4.96,71.48147888008626,-20.70125318117332,119.39431006516132,-40.226191176606,-2.813918204512941,27.387747589726736
249,4.98,59.73416639753886,-13.840479382293374,59.46357040015354,-50.922935064941726,11.31209307212849,12.459190787116514
250,5.0,45.04440111412802,-6.618232057344377,-7.384945684881295,-63.28116667247457,26.468218621001427,-5.687695535800024
251,5.0200000000000005,25.0648663108565,-0.6033855466268356,-73.26429823467912,-79.03339420791121,41.73520385352563,-23.87362386634453
252,5.04,2.4829039846118914,4.047561026469965,-132.4902843165645,-96.96679556780774,54.12949384616086,-40.06684947139444
253,5.0600000000000005,-15.536523632797287,7.231839393243441,-181.6885188488904,-111.96198286013626,60.01171585799017,-51.74137577263578
254,5.08,-22.777615656897932,7.713184852131973,-216.47922364663984,-117.83099845778007,57.542701508136,-53.20406139706837
255,5.1000000000000005,-19.2965985717567,3.467477820053476,-230.38798631812512,-111.61045510818604,48.308825488496886,-37.2114422476312
256,5.12,-11.555157648819122,-6.745898160980231,-219.90766400741768,-95.52299403881209,36.684939963151734,-1.9544766556569755
257,5.14,-7.2373124615336755,-22.06883217625246,-190.69325744167628,-74.77127178033665,27.1478678803342,43.754345530156954
258,5.16,-9.94838561983452,-39.697874550596815,-156.43680367678127,-53.138860174361625,21.58646866354762,84.67807096894464
259,5.18,-18.92720930809417,-56.27401127506617,-130.2182395677419,-30.66472851397513,18.824436483242035,110.09512187932165
260,5.2,-32.8159792560958,-68.99586165392978,-117.03529485011882,-5.503717151015955,16.302334626556842,120.4576776361598
261,5.22,-51.629174404644075,-75.41250118757148,-114.02978366388986,22.704293898079392,11.743019823084238,123.29166444722873
262,5.24,-74.20431655616504,-72.80844809652606,-115.69081513044043,52.06719082536113,3.506639115825581,123.8083713864665
263,5.26,-95.77642251597655,-59.053724466326514,-117.40516518689485,80.20101128941738,-9.267241999850372,120.41105814208551
264,5.28,-111.12992609622079,-35.06295088256056,-115.75903760154193,104.59387373979709,-25.51075934404529,107.94964811222368
265,5.3,-120.61773703877978,-6.249471990654002,-109.20899802946744,120.43634671583762,-41.30128245164832,82.79590185661473
266,5.32,-130.44941479520492,19.762288638036974,-100.25710176539847,120.54214641801079,-51.50466455202567,44.47146746541637
267,5.34,-144.9739834875399,38.067731587846595,-95.1717910494936,100.88186195635046,-53.50043493475414,-4.932286314921628
268,5.36,-159.8918728896428,49.23549544016993,-99.33169321176358,66.71488558651714,-49.10392011797937,-60.672795440857236
269,5.38,-165.21986308370705,56.90483975387624,-112.70241549997846,30.972747750889845,-42.34993917474883,-115.51796339171852
270,5.4,-154.41519979184915,63.12760493931659,-129.8736340553948,5.4458665740873915,-35.955822081659925,-161.934551653111
271,5.42,-128.68675367736975,66.56163472688569,-142.88865108683495,-5.658220212305462,-30.591385499374496,-194.74444742880132
272,5.44,-93.10283187298646,64.56661141335753,-143.33703430503812,-4.254689581220543,-26.64899022146796,-211.9108828373302
273,5.46,-51.53745706683207,56.02730841077039,-124.23434876533769,6.258556979744924,-25.015854658836904,-214.11778596138495
274,5.48,-6.49294057086054,42.19463584224289,-83.27753915730335,22.430617980857605,-25.837978510294914,-204.6286521558293
275,5.5,38.38281596146569,25.70773076944286,-25.31786614731417,39.45167945595979,-27.644685212127456,-188.54187322494022
276,5.5200000000000005,77.89410248594842,9.33893715754321,39.08134595168035,51.429128398100744,-28.278671408337367,-170.46343646921656
277,5.54,107.39698297534562,-4.62737221046142,98.03733321953945,54.11104959411159,-26.254957256664866,-152.50888346421337
278,5.5600000000000005,124.67335734374137,-14.577507884080736,142.2090493341374,46.84984940597487,-21.09004448406457,-134.84467034474693
279,5.58,130.4553017831294,-19.795458443349396,166.8396133613807,31.67687711410492,-13.131430411601308,-117.60434437305152
280,5.6000000000000005,128.51087486507552,-20.533011047057165,172.8495421564441,11.30878949381357,-3.852334761534756,-101.32686398612978
281,5.62,125.44074823439227,-17.380347576786903,166.89321821668796,-11.075710715820211,3.9544103250324163,-85.47063983792447
282,5.64,128.83492700763904,-10.472666599057309,159.06393868646103,-30.764286019565503,7.356834068758234,-67.32752301947698
283,5.66,143.33780758549935,0.031927439639273913,158.250746647768,-42.33124347746967,5.56148255919018,-43.165848973327044
284,5.68,166.98183465278245,12.290665195650881,167.78761005973635,-43.11205068441653,1.1309646175852701,-10.65838678455213
285,5.7,191.26128634910006,22.27788992036607,184.65071862634704,-35.65631277054213,-1.4942478518382702,29.7352670131923
286,5.72,205.62888409802156,25.937679171703294,202.4687230765061,-25.858952128949312,0.9504331992946318,75.07122460484766
287,5.74,203.12803660175604,22.098186524314343,215.04878774013628,-18.56117362710708,8.745420299184733,120.4398446468814
288,5.76,183.18195030326524,13.10246573006006,217.60795713182256,-15.150675489759896,19.885839733423968,159.0522374199043
289,5.78,150.3536592236754,2.6277388548840657,206.5887136015944,-14.845596764543249,31.8046857593676,183.51062096360496
290,5.8,110.82213040659977,-7.071627291786599,180.42320158605952,-17.269144637242633,42.12558311371271,189.33106025693093
291,5.82,69.23736119699286,-15.98770760842857,141.29541007438795,-23.092740763139215,48.30601502866747,178.4954376881366
292,5.84,27.470383274474468,-24.719284791458065,95.78469283760624,-32.09581809168773,47.57232319757817,159.37228136720952
293,5.86,-15.116995250851744,-32.32182196214513,53.08664215143824,-41.30415958074165,38.01063580896617,142.11240304512086
294,5.88,-60.58851756673964,-36.039968708424546,21.673123252877986,-46.018986112447834,20.010248931990134,132.78534402293602
295,5.9,-110.03876754692477,-32.92501346754382,6.26867634764394,-42.69136177136292,-3.315977587743414,130.77214394666734
296,5.92,-160.15476570576473,-21.278800828688844,6.4078788513003655,-30.07024049884876,-27.006704077734376,130.8463471671144
297,5.94,-202.3186869056288,-0.9379831793947693,16.60765723831352,-7.87317864568685,-45.689082977878925,127.10172692695666
298,5.96,-227.88412634597418,26.656507960884678,27.6797426846934,24.198329500851806,-55.01297260499237,115.28640991390517
299,5.98,-236.6223902713955,58.17954599778673,29.318039985102324,65.73919392804567,-52.767709588910165,93.53672690414464
300,6.0,-239.60723131112428,88.92083021206692,14.263616824121044,115.3799711019746,-39.14167069274589,63.69680956483646
301,6.0200000000000005,-252.48008305957484,114.27404154656115,-17.529154541305665,172.2539465780191,-15.948199168383441,33.091051813456765
302,6.04,-285.550865827964,130.93011742206892,-58.071813651687634,236.71372109503932,14.348978607135981,13.673010312503607
303,6.0600000000000005,-339.57106594193306,137.28414894348163,-95.27240984223943,308.11661917242907,48.86915909930713,16.704115551869272
304,6.08,-407.9439109558465,134.00130544170798,-118.90489406775632,381.917222234267,84.0269239621733,45.31059030763451
305,6.1000000000000005,-480.14923385730685,124.62143081166916,-124.54471035778815,449.9535017186565,115.79935945617483,90.18693831002113
306,6.12,-544.1242947423866,114.49107490413078,-113.94533837551086,504.06771422626923,141.01387526439888,132.6769585145191
307,6.140000000000001,-589.2414738294233,107.9087455288572,-93.35150711534405,539.4542151247351,158.73726571436043,154.2472974660041
308,6.16,-609.6981916005557,106.20363555128796,-71.42083528264868,555.2162821484567,170.38088205333895,145.9210058260722
309,6.18,-605.5726995632435,108.72986675197964,-56.541258632242176,552.9642093641373,178.33364442058243,111.34134950077365
310,6.2,-580.5543147556749,115.12330910120119,-53.20980393063207,535.0993670330307,184.36568720917177,62.70185182373049
311,6.22,-538.5274019503213,125.91398793037297,-59.49795533088986,503.4163948928816,189.01807731854234,13.677041154298127
312,6.24,-481.8959004103884,141.1938535919667,-68.28679495975379,458.75795452223815,192.15819433443735,-26.088442537826772
313,6.26,-412.65778902162504,159.44003072966328,-71.76864769588926,402.4199612009513,194.01570812531043,-52.91534760321782
314,6.28,-334.48882209050475,177.8761406851752,-65.66952077169374,338.0400114879234,195.6058687025058,-68.0659945751497
315,6.3,-253.16688720217638,193.73261796485843,-50.598780024442554,271.5084935197785,197.91771195746136,-75.4472482337216
316,6.32,-174.8411434963163,205.0992944120205,-30.91020322463032,208.48563159247817,200.6151539502963,-79.36376541032459
317,6.34,-103.86645932764183,210.73999251125457,-12.517868141399367,151.72720888520848,201.60167544449644,-83.15774549729811
318,6.36,-41.439854472555666,209.1549322533967,-0.18928017625147042,100.19655344579579,197.6835104702364,-89.17126729030778
319,6.38,14.806682800073826,197.960134932374,5.095425913169829,49.84619202195795,185.3918320972706,-99.36584248214531
320,6.4,69.84872204870315,174.67981135472252,6.595490158407986,-4.8726085629087486,161.43323635433907,-115.00967805224437
321,6.42,128.71654389752428,138.73625814228814,8.34687054203573,-68.86270715963177,123.39846912941942,-134.9301068781944
322,6.44,193.52429239428847,93.01635827706781,9.938907645484024,-143.60578549467334,71.23664137383057,-154.08606434640018
323,6.46,261.94716072133394,43.49534089336332,4.850436548230629,-225.2677077774098,8.429539369309259,-164.61023493123048
324,6.48,328.1943007806219,-3.4056416718161593,-14.758797003694857,-305.6594630511984,-58.749362497625285,-159.26078417494983
325,6.5,386.0891574940082,-44.62186100220736,-50.28743412379022,-375.7810080443051,-123.60237763571135,-135.0775573682974
326,6.5200000000000005,432.3238984811978,-82.78313888383094,-92.9004735913268,-429.2784070383393,-180.82236483277816,-95.12007140800421
327,6.54,467.3444053675497,-124.44482593332114,-127.22915430776158,-463.65218498528213,-226.48720713570316,-47.58729935344981
328,6.5600000000000005,493.18473763196033,-174.7802989026338,-139.35289494424964,-479.3975258332073,-257.3235881536983,-2.768165906687207
329,6.58,510.7032962896884,-233.0705068959166,-122.71588608971426,-478.4305081489617,-270.9210812970309,30.93060601789002
330,6.6000000000000005,519.1519660737628,-292.66997131637766,-78.81580445079159,-462.81250361520335,-267.0548343242509,49.95444063713468
331,6.62,517.8053576268717,-344.4901696361716,-14.82107157411788,-434.3576626674325,-248.77112855124165,55.826902668526415
332,6.640000000000001,506.86527241048526,-380.43512370366034,58.26251062098451,-395.246852062146,-221.82839288542098,52.515445388402874
333,6.66,486.4612599286079,-395.194271109592,126.39655348139972,-348.9497704496116,-192.38851736220903,42.91638045331064
334,6.68,455.6076976752739,-387.2440612730051,174.80693976332435,-300.4862849469216,-164.56206122829104,27.160807547238072
335,6.7,413.21443041630914,-359.47767287380884,193.10862893121367,-255.6470523911711,-139.8292559849575,4.031555502304531
336,6.72,360.6621394888441,-318.42088705620415,180.48929618728346,-219.34362387744255,-118.56735023940006,-25.701629903759738
337,6.74,303.2845710712943,-271.4866018052569,146.23379883339666,-193.69492021712043,-101.70835056325824,-56.87203594583933
338,6.76,248.77317388406172,-223.8387857257519,104.13328453337797,-177.06429080910524,-90.56846810536503,-80.75353415507782
339,6.78,203.32319313010692,-177.2244037828661,64.81751151813644,-165.0161977545691,-85.01342200857701,-89.0689034152302
340,6.8,168.46968062771757,-131.30882761995406,31.880571274112043,-152.54638684367933,-81.89761626854289,-78.64307710398583
341,6.82,141.00630618522203,-85.84270043669318,3.864586737786964,-135.86665343627314,-75.61889664126247,-53.51477620778587
342,6.84,115.77895659254223,-41.81973402159616,-21.099586811471028,-113.13277144885771,-61.10437102635494,-22.916729269557603
343,6.86,89.03461161367645,-1.2087864843121725,-42.61981466317409,-84.98055988417659,-37.58310154726039,3.6874628271972147
344,6.88,60.041556985956184,34.083546398459546,-58.97098759638026,-55.05630206864511,-10.256133086910394,21.273341779953313
345,6.9,30.356073771682475,63.18702785048924,-69.59876679689137,-29.243820584968496,12.064769323313909,30.623530195707385
346,6.92,1.9174770403332242,86.43558760843258,-76.21360233195078,-13.011782793073234,22.14321388021121,35.85678282532836
347,6.94,-24.22119203368532,104.51502534601511,-81.39637198104731,-8.485826922618177,18.600095847312645,40.38987606158814
348,6.96,-47.69918753635933,117.40435722519655,-86.09644478355855,-13.321788479810976,6.334760094242805,44.428770319289924
349,6.98,-67.85188654576659,124.17932565807953,-88.23597641183757,-21.948215069352262,-6.752539307932754,45.42980840016445
350,7.0,-83.21511189784155,123.85860056957719,-83.69148214231404,-28.419126784801144,-14.308265171114533,40.561297381323044
351,7.0200000000000005,-92.24690557534285,116.60386142492128,-69.28651555955616,-29.47699568429674,-14.704621387181357,29.053744388114744
352,7.04,-94.62071361264248,104.30396409520489,-45.91632241409374,-25.959135005185914,-11.138553000002297,12.975658313729108
353,7.0600000000000005,-91.66903091398495,89.9230297579721,-19.29999530131212,-21.36953635530601,-8.682840128462574,-3.6306786842371186
354,7.08,-85.47636433767799,76.03212668316229,2.7861819344249916,-18.71962223389273,-10.4981782732291,-16.46141475224735
355,7.1000000000000005,-77.56272824533735,63.683086230148504,15.027570449840814,-18.355831447117872,-16.058127794549332,-22.68094562229669
356,7.12,-68.2488321028296,52.31303383091426,17.396260820238158,-18.398314369221744,-22.336264800711756,-22.019624551199
357,7.140000000000001,-57.03280952025032,40.562836032063686,14.27938975203968,-16.849815648804828,-26.432683003224664,-16.717090852668143
358,7.16,-43.70429871775624,27.508388017645842,10.981674736707015,-13.216121745137634,-27.36638419385224,-10.310020201749559
359,7.18,-29.347000210359873,13.500335043836406,10.429434146639988,-8.50648026709922,-25.907287842166436,-6.033149147437811
360,7.2,-16.15203855310846,-0.06433430943438245,12.185606813591281,-4.165474790806553,-23.183693401765517,-5.680678945069186
361,7.22,-6.002357774917181,-11.780165739193425,13.914319112293882,-1.1345296765541648,-19.768622260267396,-9.180174044170716
362,7.24,0.9009216615514621,-21.193731301861217,13.874277513879912,0.3093333083765606,-16.047839257982357,-14.793470355253532
363,7.26,6.187779316448683,-29.039857577111114,12.604813540893563,0.2070224221085889,-13.022930478750938,-19.877003519577737
364,7.28,12.082342702710532,-36.44849168471182,12.648935931259786,-1.2853666507616086,-12.34180181205918,-22.028982830465228
365,7.3,19.568257887014944,-43.465326854644545,16.502068913762358,-3.778863225650916,-15.391930970068108,-20.251598971492683
366,7.32,27.411809730261922,-48.333094072575975,24.267296441451016,-6.661215773464412,-22.19541720286299,-15.569078787780885
367,7.34,33.07575285301989,-48.69643647676167,32.83007892056475,-9.494865027053644,-30.954545134345075,-10.554432964143226
368,7.36,34.749425841747595,-43.72867441456144,37.28549645782468,-12.354909472643945,-38.722767093091136,-7.875729061650245
369,7.38,32.55654001481747,-35.0264570244903,33.689604184296314,-15.605839001169524,-42.89583496857662,-8.81875997502417
370,7.4,28.05604393903876,-25.550658781471565,21.394486534854327,-19.288149867510427,-42.458088252032724,-12.748520412009913
371,7.42,22.895861813631342,-17.764270343266592,3.6571216842087235,-22.670015490624017,-38.04961999237032,-17.743833285826533
372,7.44,17.868882207620103,-12.461240639372484,-13.849370422256328,-24.358965258243202,-30.943750124892496,-21.881208508830603
373,7.46,12.887699338384165,-8.93715351270997,-25.95229685959761,-23.00244824135487,-21.97668152438707,-24.213342122380993
374,7.48,7.672479964070331,-6.04787942285594,-30.566883415701405,-18.048785104489355,-11.419101442967392,-24.753468809996928
375,7.5,2.4775910657056084,-3.051645470777225,-29.087708807147944,-9.825602054317017,0.30906795606812243,-23.680623027609844
376,7.5200000000000005,-1.9560686224587007,0.46978003242603716,-24.476226195665912,1.0209900780263301,12.116227935449551,-20.689238153953163
377,7.54,-5.315032139373907,5.149895112604662,-19.041580739977434,13.851959910364963,22.602079974476027,-15.218362928690096
378,7.5600000000000005,-8.386039611554526,11.754642408559253,-13.804062282615313,27.707560802042092,30.892470470033608,-7.349391665508641
379,7.58,-12.423402074131534,20.20270032965079,-9.19026644089516,40.93174510584814,37.04655760094811,1.605871753713123
380,7.6000000000000005,-17.77836916904044,28.73316707389953,-5.532418338719461,51.39453608512534,41.672675863079284,9.532379512594629
381,7.62,-23.375065473527684,34.40356434565019,-2.8153430398454677,57.17775637454014,45.1842213529126,14.688228947609403
382,7.640000000000001,-27.510579030565964,34.77112646203993,-0.47446717259251703,57.196244264497984,47.353494201757414,16.746672268467027
383,7.66,-28.863091697660362,29.32182064733461,2.1479497290379577,51.49752376952174,47.43910317659217,16.962949530339348
384,7.68,-26.711967978684207,19.44372953896508,5.206130534526583,41.24073383837823,44.67094123349881,17.29187674857161
385,7.7,-20.65816370051818,7.210401076475238,8.392929239613846,28.298997275783734,38.64105819571128,18.94585238565805
386,7.72,-10.641529565577805,-5.703801122155823,11.479829420608525,14.572212220518068,29.37548341123119,21.37949247520087
387,7.74,2.5936923522130453,-18.10913183278996,14.509461812380085,1.5062988515922338,17.340530423609565,22.550015674587904
388,7.76,17.16625506501976,-28.80802402207749,17.369772565620607,-9.851139776441691,3.603186399197054,20.39733417739407
389,7.78,30.424073609479066,-36.486382846374084,19.432106857766758,-18.649551291397255,-10.176879456487512,14.506555547804275
390,7.8,39.88935303441388,-40.25882784647208,19.77472031965165,-24.420397243775724,-22.23816273168094,6.779933284226992
391,7.82,44.12706025424753,-40.27248286194603,17.687206304996153,-27.529254150812566,-31.378893839253386,0.7229711600006468
392,7.84,43.10230916517558,-37.716633051660395,13.108809728344074,-29.220814470076064,-37.257362780252826,-0.24337954137300777
393,7.86,38.10352321045543,-34.19728110053383,6.984786444688945,-30.788292479840308,-40.11223306099887,5.319183660382541
394,7.88,31.326095656954905,-30.952303859613657,1.1512151803147996,-32.36770710609417,-40.078571459991025,15.781809836715587
395,7.9,25.016627614241465,-28.383471930532426,-2.727786500335829,-32.638922019267845,-36.75890560520497,27.09311966624608
396,7.92,20.447003894525793,-26.066131936556395,-4.509810201461967,-29.97686580514381,-29.749711084610915,34.91796638335042
397,7.94,17.51289239763687,-23.12679678034231,-5.802477581512444,-23.90258351393026,-19.740994577345283,36.770166477629616
398,7.96,15.3474291131548,-18.78664046443219,-8.683821507381655,-15.369706580957335,-8.81478823374609,32.78248515638031
399,7.98,13.229740422770012,-12.820786088905459,-14.014622278914997,-5.927313574874586,0.6442249720065802,24.992993653907206
400,8.0,10.803101231219998,-5.645194557273637,-20.729829979610933,3.0856505818375597,7.340028753657778,15.960202444288813
401,8.02,7.688858867199966,2.008868333590275,-26.566820588963267,10.682717906877906,11.391419832078608,7.636903107607683
402,8.040000000000001,3.3632240342020023,9.462363792510494,-29.454313501530407,16.060160443440157,13.555728109383175,1.017986392132709
403,8.06,-2.487700379911329,16.2365129999401,-28.45405551081266,18.643296166016825,14.374136934108888,-3.551543301283628
404,8.08,-9.706555148151416,22.16116679765021,-24.004188844126332,18.38926559283344,13.97390424871872,-5.988415557669116
405,8.1,-17.73401983079342,27.48221299600437,-17.77695106139514,15.972348819801821,12.380230378515396,-6.508919338743366
406,8.120000000000001,-25.713620754714082,32.58201287565406,-11.99936319068431,12.524017257231627,9.798769793741275,-6.012880999486937
407,8.14,-32.568283693735864,37.28158668063959,-8.187900191573654,9.002100578794627,6.607557899013545,-6.139305507946354
408,8.16,-37.28352459167743,40.48459841343588,-6.351727026132613,5.678389322965103,3.1711488289224556,-8.433646349398078
409,8.18,-39.32000474635841,40.75608751033535,-5.6174392134439675,2.217892549669836,-0.32543783890558625,-13.050322598576917
410,8.2,-38.71695848923491,37.30589133366615,-5.4479153080774205,-1.769451969182306,-3.872655864900844,-18.192610730946644
411,8.22,-35.76457148223085,30.426897905205713,-5.863781923415988,-6.3038376955431925,-7.410976638873155,-21.013911460924916
412,8.24,-30.75009570819554,21.284729938029145,-6.633817686809529,-11.019103101154688,-10.563734835085176,-19.49403178324429
413,8.26,-24.164102379162024,11.553280775166625,-6.932896521640712,-15.273888734386691,-12.61606799598898,-13.99826337107816
414,8.28,-16.91215031426716,2.9464501579376803,-6.126124412368025,-18.199122982011943,-12.82980262445162,-7.301844470604139
415,8.3,-9.951178937522588,-3.5115495666957464,-4.456924644112297,-18.89521257098898,-10.911763437531722,-2.9042562423688345
416,8.32,-3.7668314928837496,-7.939329572616445,-2.5515732606022516,-16.883028885484396,-7.301318575006591,-2.892485501657621
417,8.34,1.5016799683489581,-11.085899812047131,-0.5779817191375158,-12.474681521850316,-2.9958277982424417,-6.96914572737993
418,8.36,5.575224825040624,-13.348640209996622,1.6439010887915235,-6.659748066535139,1.0279949375411743,-13.02993391528177
419,8.38,8.181041646814885,-14.56166396497872,3.955527425714364,-0.5297508033237802,4.32058462117703,-18.391346230321215
420,8.4,9.727225997387581,-14.701910603923036,5.859984497597436,5.2197714852161265,6.9343071439048405,-20.791597269664898
421,8.42,11.300343281354543,-14.338272065458092,7.218989869739136,10.226184181997997,8.970714794845634,-18.96854802522236
422,8.44,13.677360423028567,-14.11892197724777,8.50337580485429,14.133394566909985,10.291713912845548,-12.86641898637697
423,8.46,16.514464329216878,-14.018149005097769,10.223843723283654,16.67614950346075,10.75551741430154,-3.5068368301542168
424,8.48,18.6246197695012,-13.365667316944212,12.467026130986955,18.05603381579145,10.646631885049512,7.268797303318955
425,8.5,18.919089630092977,-11.63340746823516,15.183413078054585,18.83200849933028,10.708680093683869,17.02998812820371
426,8.52,17.074896020901384,-8.992973002057923,18.51764804038055,19.26356714060276,11.639512910613254,23.22005771939353
427,8.540000000000001,13.544825777229583,-6.031206974794039,22.354566006794588,18.986691102778362,13.502052381587447,24.060887481225265
428,8.56,9.137412868303759,-3.1541864208476484,25.662350544198294,17.511356891659,15.611153867290614,19.491144079628132
429,8.58,4.5058435142925655,-0.4085545668001521,26.81753767742586,14.912825600098166,16.998384207195144,11.44688330772225
430,8.6,-0.13486532133430748,2.280473147082087,24.846981579761366,11.83892057619387,17.019753206993595,3.1032124319085552
431,8.620000000000001,-4.770279566463115,4.784476789353426,20.27651114052651,8.873334414763239,15.615100734846207,-2.6797405206606104
432,8.64,-9.018916813483516,6.576665595815543,14.742679082291204,6.129812175214173,13.175105368221534,-4.751771015553625
433,8.66,-11.963655940632183,6.884256477904642,9.913074770562599,3.5241794694897406,10.286223087370256,-3.8617767865541435
434,8.68,-12.735139420047165,5.2597115946036945,6.754216756903686,1.16776902371299,7.464231527038747,-1.5880534015261067
435,8.700000000000001,-11.297692109685332,2.2143518266715887,5.429556481685879,-0.6847874136205894,4.8945388097898395,0.9326893161288444
436,8.72,-8.644920183944816,-0.7124979378993315,5.443717424814453,-1.8804408627224538,2.4448963561195187,3.428109078035691
437,8.74,-6.156190669542548,-1.8001988309342247,5.881303168272874,-2.3702773672816537,0.070073200314866,5.971233705283351
438,8.76,-4.62357742701838,-0.39448672245129246,5.8918540298504904,-2.1334770700125736,-1.9283543200587752,8.224776075275507
439,8.78,-3.852281086341013,2.5973524082685286,5.183746679687383,-1.3583975506065422,-3.2722498316938404,9.207081957537184
440,8.8,-3.174759765069311,5.448904197293281,3.9212646071164374,-0.660940070013603,-4.21660594255102,7.8638308874042835
441,8.82,-2.1828909855921164,6.761490065635819,2.0252535136528644,-0.8825707536162992,-5.391706145993582,4.071536299419416
442,8.84,-0.904001654624149,5.999769658702492,-1.1439258878001137,-2.5596651124305447,-7.125903561239883,-0.8235997169734985
443,8.86,0.48894898762092787,3.328087549045388,-5.9594382151869585,-5.588180118958512,-9.083208108248272,-4.629907131041471
444,8.88,1.9291463641994233,-0.7636896713911496,-11.401957044926235,-9.295495111866597,-10.507478988876578,-5.722695004020835
445,8.9,3.477678169216922,-5.6609111386978554,-15.297664182668484,-12.678218281133582,-10.662388390990358,-4.073671787978054
446,8.92,5.1643264719005915,-10.531044800944194,-16.006264945396442,-14.644270459174487,-9.150780526808493,-1.1910224729505452
447,8.94,6.816075069764308,-14.228555641109189,-13.719158856385228,-14.385859418204516,-6.1589865718412815,0.8062511935379826
448,8.96,8.150519957293266,-15.710155312722641,-10.0616431276598,-11.837908075092916,-2.57215740157009,0.4221524567223416
449,8.98,9.069317222543894,-14.786954682266407,-6.7399571554787805,-7.787622897341704,0.3290042495473826,-2.2768341203026585
450,9.0,9.70634805583704,-12.300520251467248,-4.658269979897146,-3.369411947879615,1.6200735934006911,-5.7051042431507
451,9.02,10.141825011307194,-9.432658821597613,-3.907615251868918,0.6356984958164825,1.416260886077671,-7.9310617848259515
452,9.040000000000001,10.224210630582231,-6.995670427491969,-4.101510838708677,3.9811147970929044,0.843386691926792,-8.036294363639819
453,9.06,9.774609119203738,-5.375515384753008,-4.611950621488846,6.516077697063999,1.1864717356299972,-6.473651690903351
454,9.08,8.878461627675795,-4.70936548445488,-4.7334139569215505,7.847368370791319,2.8615084624237834,-4.343041362215478
455,9.1,7.850041576099505,-4.746730733135388,-3.9408344066245355,7.665054361671032,5.095089440819616,-2.5672036637938334
456,9.120000000000001,6.963523848346949,-4.769384986484225,-2.206903038175749,6.268772792795174,6.561672839701014,-1.6534759010236082
457,9.14,6.359580106038197,-4.1221496236960675,-0.14847615429973726,4.469321459305956,6.339145811193541,-1.7331094042202797
458,9.16,6.121089202328806,-2.8761803928346787,1.2433066527612553,2.9177882916344053,4.365231889878128,-2.4369212537057394
459,9.18,6.160817046390155,-1.6892467416404864,1.2637655777688528,1.6715537250091774,1.215976512170027,-2.883169511186461
460,9.200000000000001,6.007349806031809,-0.9646796165636503,0.08884127306867429,0.4112235406994473,-2.3444693204677467,-2.1980182180438526
461,9.22,4.964064073773418,-0.3519153812379783,-1.213502871059629,-1.0696335203903864,-5.631845149777684,-0.24162579139848064
462,9.24,2.5806978378434255,0.9158642490120749,-1.349696564356208,-2.623371663692607,-8.107154123187929,2.1984239698076364
463,9.26,-1.1238174477189145,3.382913906817864,0.19843121905872108,-3.873053401510961,-9.40249336102765,3.9396819417665747
464,9.28,-5.78693503744087,7.036711599706858,2.5622267527685794,-4.4905780015179015,-9.406953469010297,4.171695632050015
465,9.3,-10.776947089026974,11.276357415627363,4.079139265150253,-4.408666613336003,-8.364579184963151,2.9081915981467876
466,9.32,-15.167113381473557,15.021707953733028,3.8816694291846643,-3.8627354340291418,-6.829814512626269,0.9551059298221536
467,9.34,-18.00948981321543,17.144566670378598,2.828347031488486,-3.22526390564823,-5.414926577384116,-0.4929489830095879
468,9.36,-18.945735021171746,17.251082732182038,2.540387981431052,-2.7454859328937644,-4.500198524008135,-0.4760011874648662
469,9.38,-18.54181105417741,16.110698399304006,3.616402935990295,-2.471565588145655,-4.134645890289436,1.1127728411862252
470,9.4,-17.85879078600626,15.0398989038665,5.17745261529145,-2.444807597394192,-4.139133012280811,3.3489938995428776
471,9.42,-17.590701562014765,14.716000086388277,6.112878916061471,-2.8610296705682807,-4.250058336778089,4.882116082657594
472,9.44,-17.570898118241033,14.665912256249706,6.23273938422545,-3.929383126525514,-4.235195110445805,4.961427610177772
473,9.46,-17.041896442706133,13.895606808093351,5.947863161045202,-5.608196667309777,-4.043761587243816,3.929327396570655
474,9.48,-15.30758771617907,11.800744415835908,5.326827321548167,-7.551693467707027,-3.9056470049442233,2.7157177818884115
475,9.5,-12.125574087279443,8.3820160812178,4.096951525961,-9.269596941155916,-4.12919667042061,1.9908252478539397
476,9.52,-7.708019279107533,3.9338669003333493,2.43462082461855,-10.287407763125898,-4.669039188416422,1.904618046052315
477,9.540000000000001,-2.6569550175693477,-0.9965010264360163,1.1316360941561747,-10.250237236963432,-5.0055571785183055,2.4089283525899337
478,9.56,2.1187614046680405,-5.381566467115787,0.886594184777721,-9.00570596269424,-4.609518631763155,3.4463995702650894
479,9.58,5.762043409489607,-7.978946787574249,1.8696421384259032,-6.645156263487667,-3.4746986487152194,4.768383665132085
480,9.6,7.930165927635819,-8.182311786686185,4.01984458549181,-3.5322244433486896,-2.076617227996584,5.841693957315131
481,9.620000000000001,8.83060183954748,-6.529986528421839,7.17517961246565,-0.33417758791484153,-0.8838808634937465,6.123009600268848
482,9.64,8.802691378108069,-4.236220243782426,10.540030537314777,2.126382317872271,-0.04280898708566586,5.403358507116659
483,9.66,8.012085552596307,-2.3005426538295684,12.482306848369046,3.279752260437173,0.5795002776555277,3.8916580900675415
484,9.68,6.583904086894398,-1.116112162340835,11.533741153008846,3.1288306527247265,1.272209100549182,2.0646823434510306
485,9.700000000000001,4.827847332615162,-0.6797021573060347,7.639435358946759,2.1539831302557606,2.3643574693367015,0.399863261330919
486,9.72,3.1299669583981835,-0.8594216064318674,2.1161116110695977,0.9881767521007092,4.012452231159121,-0.9600750660067526
487,9.74,1.679371765955476,-1.4428839379320573,-3.4868605755988713,0.23424293052120615,6.050842667233283,-2.387828400439376
488,9.76,0.5159980506210804,-2.1781378176430874,-8.123804639580053,0.4436315314203725,8.140176535115762,-4.502686266983003
489,9.78,-0.1187568740542776,-2.9640327460954805,-11.133756593274235,1.988062089418103,10.021006675437818,-7.5758554642384555
490,9.8,0.27809734023475974,-3.9303431883608324,-12.11687689460486,4.806681123088543,11.508105929555565,-11.161243875945207
491,9.82,1.9699874235631634,-5.173502523840958,-11.138471352567475,8.394373849130078,12.37115690567676,-14.305864970601496
492,9.84,4.482478230677418,-6.461668102525293,-8.702642592672774,12.133167179597653,12.505687896436585,-16.117024081579473
493,9.86,6.7776199946166304,-7.335460696495717,-5.3484204171604715,15.501681382007277,12.18046132906956,-16.247435911641702
494,9.88,7.964275272372498,-7.45947278446922,-1.472992294390993,17.884850811711843,11.781486766674547,-15.073512686921738
495,9.9,7.85656837115351,-6.843796889220965,2.3257409194027336,18.404577820710145,11.221342385895266,-13.488012675680846
496,9.92,6.977868608428141,-5.886551645569436,5.054090660504125,16.251715612669315,9.85974361082465,-12.325732519037754
497,9.94,6.088261230594842,-5.247304466284087,5.93273347288468,11.335088998349352,7.17381326531264,-11.78180361877142
498,9.96,5.606450001228266,-5.451661169018017,5.215227412311512,4.59702537092258,3.386611925239555,-11.326660668432984
499,9.98,5.450981013535627,-6.503926736450446,4.0983477642831545,-2.3731044198805105,-0.6817928367876611,-10.126150484057053
500,10.0,5.423088764971523,-7.95453051960276,3.813512863206483,-8.103576968558944,-4.281402021428454,-7.529013422725509
501,10.02,5.48193896582398,-9.237307352059183,4.925015485915486,-11.73973611688907,-7.0923255298744765,-3.4054613382075125
502,10.040000000000001,5.477529644270255,-9.813436432011603,7.173708339753443,-13.039177868582145,-8.977609732434594,1.6665050110108437
503,10.06,4.993180664883693,-9.233865803408083,9.552857375910328,-12.149634166233428,-9.700551007202339,6.572647647196867
504,10.08,3.8491284928979823,-7.382828106694943,10.737452321997031,-9.445809568384444,-9.15760714053084,10.26361962490152
505,10.1,2.4957203051464285,-4.617426860833919,10.01052374271846,-5.459362138149125,-7.738818454425617,12.326275305060111
506,10.120000000000001,1.4896296769829542,-1.5068863440756726,7.930032464363961,-0.9117928716357305,-6.09558859565342,13.043448624373534
507,10.14,0.7409603814091529,1.5239248660873403,5.858523836990181,3.2063639575281697,-4.536038534929897,13.007911639807723
508,10.16,-0.3768023073519643,4.249514842968549,4.678801548705111,5.808760871317383,-2.889348054190714,12.688398065795443
509,10.18,-2.2933591426727915,6.506596931978625,3.9241394966243015,6.312286884737313,-0.8974052397481345,12.213446757344752
510,10.200000000000001,-4.897157761339065,8.17222428874944,2.098747004737335,5.174356233574256,1.5311745157973622,11.413210949480312
511,10.22,-7.745185406942543,9.252805315006242,-2.1025410754172134,3.6354645518297963,4.346420594582594,10.050276215285304
512,10.24,-10.233713640294019,9.87526549764251,-8.574419078976632,2.747322799265424,7.264194544037396,8.110496777930825
513,10.26,-11.629366679918096,10.140195026295164,-15.436158204524318,2.6351910623040284,9.607477340507756,5.94872675955418
514,10.28,-11.375528461078561,10.016054034507228,-19.956174976434845,2.684936299834389,10.526296233219151,4.106553315142355
515,10.3,-9.548545310115484,9.399194468271778,-20.378968105314605,2.346404995562475,9.531541545130082,2.9165940674584383
516,10.32,-6.8247826999461605,8.228809674111012,-17.246442695228296,1.7042044158084448,6.775593996658403,2.290576326390828
517,10.34,-3.991540439268188,6.530714127894308,-12.88973970677527,1.3136728047859532,2.8890160947893673,1.8723671816706802
518,10.36,-1.7281698112461827,4.462564634686046,-9.558539479096375,1.5213530449843786,-1.2585520491608648,1.326227750872056
519,10.38,-0.7191027535254864,2.415711548780861,-8.08904016205656,1.982694166993268,-4.679371624159339,0.5330025549014776
520,10.4,-1.3863254369719602,1.0187081156085638,-8.128545659648871,1.945062731247728,-6.533451199807411,-0.3520042033592825
521,10.42,-3.2601832464609877,0.8827134016871951,-9.079866253913359,1.0408654767936898,-6.6016890964874,-1.110616624293386
522,10.44,-4.9887137945911135,2.1694321857060723,-10.539577406962419,-0.3146375448117279,-5.475330981085639,-1.9360147533230163
523,10.46,-5.313167397698156,4.284753326374375,-12.081526695958287,-1.400027282762019,-4.130180165899924,-3.4977312082107255
524,10.48,-4.004788489482255,6.041479847248452,-13.035062165396813,-1.9898786062433096,-3.29650489759068,-6.02991000818028
525,10.5,-1.820830742861311,6.3332538812506565,-12.64645982127442,-2.5928759687398126,-3.2214293712911957,-8.365692817182211
526,10.52,0.30992402346470993,4.805678476120912,-10.503133758592671,-3.9440496616641316,-3.8743918599480747,-8.497303271295227
527,10.540000000000001,2.036661187121729,1.9171548425900415,-6.975688359133639,-6.341187937827142,-5.232490759692661,-5.4811870079373
528,10.56,3.723802948477063,-1.5878057931626397,-3.2970581383604873,-9.428196795899858,-7.3708290572609885,-0.6231105482334132
529,10.58,6.0074722643140195,-5.226193898116535,-0.899684863799828,-12.577659990468812,-10.375074518353038,3.423546240354585
530,10.6,9.187187767123874,-8.882909435158963,-0.3719340952815675,-15.534206794473619,-14.222890899593988,4.720876413127893
531,10.620000000000001,12.852816730080411,-12.462937264368371,-1.062634945740936,-18.639921585430955,-18.630533762624633,3.330935658736444
532,10.64,15.884425326102932,-15.487753878479651,-1.7523170098939242,-22.238166795928876,-22.809989757962146,0.9304183152659793
533,10.66,16.866779427579495,-17.138376032513072,-1.6109795290675728,-25.787099769709403,-25.422977492953663,-0.5964190615259961
534,10.68,14.892059379034414,-16.76546853078792,-0.4660594074737686,-27.725232048150932,-25.13023774197317,-0.3668625049610915
535,10.700000000000001,10.293269518676052,-14.29814592330326,1.6519041857217132,-26.351246992290672,-21.438642102998255,1.191688916090493
536,10.72,4.582803255522698,-10.163715522632133,4.841822815288378,-20.878555940104185,-14.974846520606029,2.8217845231051952
537,10.74,-0.5177672780867812,-4.958064425060573,8.9029845532686,-11.847765348439628,-6.940921807893552,3.2488443061371526
538,10.76,-4.113931651403764,0.7330806705793991,12.638159778879817,-0.8838056184078857,1.530804803759573,1.9602857416806505
539,10.78,-6.323253622824932,6.255260330709639,14.08176508592405,9.854489688433617,9.547967125215786,-0.37847258049570714
540,10.8,-7.660608602110489,10.78026400566247,11.961214403464416,18.372123981358286,16.394868461285423,-2.217401103685162
541,10.82,-8.476539761614605,13.544945679787737,7.05894897965187,23.56770375776661,21.617397818748543,-2.0957904865553574
542,10.84,-8.966387482696536,14.394969831188586,1.8642661944453938,25.604744460638006,25.126224499301316,0.3671120184830796
543,10.86,-9.359141991801252,13.976675716576501,-1.361471491935889,25.542311471841195,27.038391674970974,4.224024335399539
544,10.88,-9.773383197827263,13.196307019788533,-2.2065057122670684,24.48295804859761,27.391949277340316,7.819187471666373
545,10.9,-9.965466658365838,12.513480550660537,-1.8875573499925955,22.98787096356706,26.112855039532803,9.760111999798164
546,10.92,-9.498996594898161,11.79089207028024,-1.6868097032254685,21.09613508215123,23.27580297706476,9.611285029506025
547,10.94,-8.268317928328017,10.680514934309594,-1.7974036925591061,18.578558416024546,19.258260522404463,7.944968440846174
548,10.96,-6.705428765262036,9.010570335008552,-1.5273283574353806,15.050052771094006,14.50166973818109,5.7909769694918465
549,10.98,-5.294791937037049,6.822670642463983,-0.21563296665850318,10.095630395100473,9.1606834930018,3.9292287317390953
550,11.0,-3.9492978389440934,4.171551781126718,2.2533076727368484,3.6634967378736354,3.163829725110687,2.521783044074022
551,11.02,-2.0879556538742543,1.0017522430778547,5.593198008179662,-3.6077431808676477,-3.3223591045748178,1.2366982519031273
552,11.040000000000001,0.6416048949514289,-2.7450318045662905,9.386095508073486,-10.69237811014408,-9.678575387578794,-0.27599725457942287
553,11.06,3.9818650622157254,-6.9803703853097225,13.150738794483447,-16.866236374016324,-15.18580062235792,-1.8465825006315661
554,11.08,7.569245495743537,-11.554983310205749,16.41792789922015,-21.93142580307446,-19.404515764841893,-2.585882296434354
555,11.1,11.580982986608365,-16.43866806532308,19.007778636263016,-25.84967869846502,-22.14650891508745,-1.2818508384990848
556,11.120000000000001,16.605733997727626,-21.643960154386573,21.281601147013568,-28.506643636917392,-23.391669280485846,2.7935274660464464
557,11.14,23.006689272093986,-27.052378142050863,23.938379146348538,-30.023126842977256,-23.463889381578035,9.33091281838408
558,11.16,30.72316815929448,-32.61070930104179,27.31006271395126,-31.275503794635554,-23.13808183217794,17.321630099119425
559,11.18,39.73171328294369,-38.74950740307893,30.821995479478435,-34.03196598793214,-23.408132113546046,26.065087330016155
560,11.200000000000001,50.467262675357645,-46.30297537993499,33.46390129538872,-40.35632238231238,-25.146176714224552,35.81115557388536
561,11.22,63.58395824006098,-55.744027967464724,35.1938294966001,-51.54971601901368,-28.810749046677323,47.454131908363976
562,11.24,79.2440032745059,-66.46048331451433,37.93910784044023,-67.46036889374409,-34.15741784874671,61.81327671100857
563,11.26,96.68638797138618,-76.83447977521234,44.90980041258044,-86.77694680948142,-40.209788827794476,79.20746113432375
564,11.28,114.65005184800425,-85.2006997747619,58.594787877266384,-108.06538246547774,-45.72952613820132,99.34309448318082
565,11.3,132.3927590952946,-91.01744365189819,79.13903271103148,-130.6907750237322,-49.78872188942317,121.29018928255329
566,11.32,150.1545141959175,-95.0721441213914,104.21863299878387,-154.88519403505518,-52.00477846829987,143.59392452267457
567,11.34,168.12852378277233,-98.0806866428461,130.03311126107408,-180.94833065314515,-52.56616066177911,164.61677053351804
568,11.36,184.77362493658015,-98.99329080513436,152.4773777562669,-208.27987452317893,-52.0947028753655,183.04694261209136
569,11.38,196.64490808525466,-95.33678176961641,168.05786869719486,-234.9369216170243,-51.05773770014645,198.42394934004005
570,11.4,200.52783844440185,-85.68664607574956,174.65663817725962,-257.8769885528643,-49.06932673653423,211.41459982487606
571,11.42,196.00477350768483,-71.47588186034727,172.3544043644947,-273.75889738921865,-44.978836378817576,223.46539315676029
572,11.44,186.12335155892953,-56.12137484381675,164.11916265944322,-280.1680836970829,-37.688521323775596,235.653291887682
573,11.46,175.7887297504795,-42.69999328861083,155.43153820882242,-276.8435923627625,-26.61756400153456,247.0962530285592
574,11.48,169.19818807606887,-32.41530344576831,151.87313994434584,-266.02238315112993,-11.546076691429178,253.92698812164707
575,11.5,167.85982276316003,-24.398328830821995,155.3968412075789,-251.34313981148216,7.18187787515699,250.09612942607765
576,11.52,170.1618989490123,-16.319873702133957,162.29369984387986,-236.13730922258253,27.709062964930766,230.4598570354061
577,11.540000000000001,172.51829622212435,-5.594977467296484,165.42010678541624,-222.72386244748435,46.14368593693446,194.63497138924077
578,11.56,171.1902580197184,9.162165993043658,159.0833052400286,-212.99653206626425,57.80199817387667,148.5099997358062
579,11.58,163.86159923091776,27.2942384379622,141.84039250077802,-208.73913767784438,59.86658011788619,101.39816058865061
580,11.6,150.70431923435225,46.35776538522507,115.08386922400007,-210.57267896270685,53.314715078560596,60.61981130868008
581,11.620000000000001,134.60079071286572,63.124204809027475,80.42480374447247,-216.7552745140647,42.223632829466254,28.02168415247905
582,11.64,119.80847782046455,74.7648794254396,39.3734702383549,-223.69237205432978,31.030717671558975,0.9860312253812138
583,11.66,109.49182880294589,79.9317821246955,-5.272603514604814,-227.84838058082812,22.18978848557328,-24.081079256871963
584,11.68,104.17824186792159,79.4881728273827,-49.00226543568558,-226.99071083173314,15.687336513392804,-49.39792071741336
585,11.700000000000001,102.36909353021753,76.43384920804627,-86.80208359088695,-219.8791093501497,9.942345387807448,-75.6232479999923
586,11.72,102.03504515275733,74.64899821795248,-114.68362527134583,-205.67639960016743,3.3095713955381516,-102.31294837212317
587,11.74,101.25446023730979,76.92665149713511,-130.54604698161847,-184.2894586899117,-4.332535953643046,-127.9377171333241
588,11.76,98.118628405097,83.77458476190999,-134.55439513208032,-156.95226024043436,-11.19977485022346,-150.1921988171222
589,11.78,90.97934584353172,93.94065916935186,-129.46865022923404,-125.88220854616583,-15.53844841545093,-167.4629254432013
590,11.8,78.9526471301095,105.5830038627103,-120.56964135687818,-93.65085188778573,-18.33394138257835,-180.50719502214065
591,11.82,61.652296931400315,116.30445791550945,-114.1840971099142,-63.67154252452269,-23.322889848279225,-192.19578515597482
592,11.84,38.2373221625406,122.33478099284946,-114.68764972943306,-40.82129629905013,-33.07980967701002,-204.56974549923714
593,11.86,7.602976917396301,119.12193122359156,-121.78317120271913,-29.28774189256143,-44.468577325369466,-215.5150322351031
594,11.88,-29.08225149460145,104.26476047627693,-130.4807042820299,-27.647607102867298,-48.51730211460081,-218.9138645705802
595,11.9,-65.66442056258153,80.33344281149155,-134.16634970417616,-26.314801486895327,-36.21645142650935,-209.55921220484606
596,11.92,-92.14994033618653,54.161597294081346,-128.24189280644526,-12.150806652238549,-5.8337740382977685,-188.9523835882165
597,11.94,-100.27524913641739,32.51700315714665,-111.46115661876351,22.513710525604132,34.5786971512492,-166.08890250140607
598,11.96,-88.80130824121059,17.944352607239267,-84.95828288538074,74.91604303887465,71.40135912701037,-151.75785493096024
599,11.98,-63.964059777840504,8.32299434898519,-51.41052249943573,135.03519764188158,92.67402495453108,-151.24339724358543
600,12.0,-35.897825923731894,-0.17445357050636812,-15.486291008323281,192.02819902877954,93.43283495371574,-161.57653883997608
601,12.02,-14.90027409106387,-9.821208743309825,16.15380185883764,237.60160168635508,76.81881211505132,-174.80639918441375
602,12.040000000000001,-8.905354968612247,-20.10719189153567,36.95375879441582,266.3862392020835,51.24561006403998,-183.5475479486867
603,12.06,-21.02653225036687,-28.54427487349723,43.294283466824695,276.86245704302377,25.539872671051597,-184.23860358985183
604,12.08,-47.86085568353222,-32.36239877485076,35.26834897672549,272.82970745225987,4.898711219828656,-176.90069167430718
605,12.1,-81.33192829759736,-30.180049297727255,14.960463583529027,262.2344250317801,-10.083556859191596,-163.4141539321619
606,12.120000000000001,-114.07336383344222,-22.979939288606808,-15.368461078155455,252.884030323265,-21.368049549542892,-146.3335173228368
607,12.14,-143.7499376307199,-13.750498392152274,-53.252625771088574,248.80881096963856,-30.5411251916233,-128.37453410685924
608,12.16,-172.22619244668437,-5.807059380540113,-94.90878013679128,250.35135207643208,-37.25510830007595,-111.8552150291003
609,12.18,-201.09946553094574,-0.9424038514511128,-135.0181112545312,256.580282633346,-39.8278089667829,-97.98650132224462
610,12.200000000000001,-228.71455416526103,1.1584109067702781,-168.16331483553017,266.6254755904078,-37.18108130488456,-86.5238527053497
611,12.22,-251.33728020709054,1.8985877325672171,-190.9378075579089,278.96717864367423,-30.44762512071164,-76.18694000051494
612,12.24,-266.42380386694356,2.1904222670205686,-203.06207469730953,290.4637414304311,-22.88606530182648,-65.64871595114653
613,12.26,-274.3242021679172,1.656079805325189,-206.53741885572026,296.9237084295391,-18.19944415910874,-54.19857327625283
614,12.280000000000001,-276.9968917091006,-1.0079915298391153,-203.39718328056279,295.32576425056124,-18.781104881547616,-41.194229018494894
615,12.3,-275.3030380879425,-7.153627056364363,-193.75152918084936,286.0216570029462,-25.21845548990252,-24.74611240095155
616,12.32,-267.6084109882754,-17.525743108767145,-175.67090623178774,272.6415087316557,-36.83733666390348,-1.5753160784466802
617,12.34,-251.22222733054016,-31.959002546002047,-147.1964685693386,259.1961914050338,-52.18196839180183,30.653656430276854
618,12.36,-225.6629379121958,-49.128567714638365,-109.12201541000348,246.85867996309156,-68.9317124460521,70.06378261201931
619,12.38,-194.87858058565246,-66.25948820979852,-66.26439885543013,233.52325603758473,-83.68387997456679,109.67556341107957
620,12.4,-166.10431864125968,-79.32406625573157,-25.74373878978258,216.38224083990644,-92.25793737421006,140.5112989077682
621,12.42,-145.67383809943877,-84.44977336234447,7.044418876835107,194.80661938664502,-90.85829622830931,156.90656184988035
622,12.44,-134.52859537794882,-80.21266666607477,32.03849923406638,171.1337541677496,-77.86090633088945,160.2575147817732
623,12.46,-126.61781188543736,-68.9522165285355,54.39127978658499,149.53782456015543,-55.16043141219026,157.87398233242993
624,12.48,-111.81561925443367,-55.39170325238182,79.36581241057682,134.46253899517214,-27.552943307984528,156.49952682310123
625,12.5,-82.11631192908364,-43.31475138691939,105.61617157662067,129.06024989352855,0.23173436508278833,154.9260204716376
626,12.52,-37.19041295904695,-33.2578926945488,123.56212071588392,133.25995462906982,26.715207684219937,143.00549452214824
627,12.540000000000001,14.628071819763072,-23.34929089224904,122.15450478261481,142.38037651280948,53.93494813526321,109.78922182043756
628,12.56,60.52928220737508,-12.237605919213095,98.44660987431897,148.40246269795878,84.40842704857812,53.89713011666295
629,12.58,89.64973527989396,-0.9514523447171015,60.406788224562916,144.18197328506596,118.0288154868069,-13.991290269858935
630,12.6,98.0783386296705,8.14894351634766,20.787686394784398,127.59090182017422,151.59560483484006,-78.07165911074806
631,12.620000000000001,90.18254804042812,13.873532852879071,-10.426162138332431,102.10923375066469,180.00706536021323,-125.72313765595027
632,12.64,75.77186943385621,17.29908350407556,-28.114607879826238,73.64672589500304,197.06620783700436,-150.51330486260946
633,12.66,64.87211541981107,20.594706859062235,-30.18034383088754,46.732282294201354,196.25113606780926,-151.31215226395676
634,12.68,63.42814070506034,25.179131502094616,-16.93101164828883,22.975853643394966,172.86838380475174,-131.62426771246035
635,12.700000000000001,71.46795690182472,30.767050835809492,7.509167438595501,1.3541984519313162,127.0395026773889,-99.19008770621429
636,12.72,82.25534913028683,35.51502360037028,35.320090112290245,-21.95077077142475,65.38211678431553,-63.41454253835218
637,12.74,82.46482903517291,37.37932216593539,58.592271962791706,-53.555117117303325,0.09975285868318728,-31.060041101601474
638,12.76,57.54944036871096,36.89596271631593,73.57194848554724,-99.01446103299853,-54.25926524297418,-4.064242732748632
639,12.780000000000001,3.244772101966621,39.41907387601566,81.22672653235597,-155.30902660692763,-85.31899349990726,18.237372678872156
640,12.8,-66.47006673751146,52.900320126972794,83.69057508041816,-207.56532887452283,-86.94608334847482,35.322698535429424
641,12.82,-126.14098258555548,80.79971406983024,80.59795563846208,-236.86529161800746,-60.97249359888887,44.67681756198167
642,12.84,-156.28124110940175,116.32617337978313,68.98392373575028,-234.05575918699964,-16.228616693547387,44.318164729957786
643,12.86,-154.65280800592976,144.56997226307251,46.341973112626434,-206.41546597612512,33.77768185466408,35.17524127263324
644,12.88,-132.4727939183594,151.41813408797742,13.993524046804037,-170.90141360981727,73.95774309411128,21.49262065262306
645,12.9,-103.16534591493661,131.88388096071168,-21.424490075711066,-141.16090013092074,92.30189201445552,10.14085797997188
646,12.92,-74.91781227001341,92.14249173125317,-49.76513349202961,-120.20842707902509,85.26251041806253,8.410630556226753
647,12.94,-49.96142671263941,45.27455246030678,-62.69296041750192,-103.15735846684164,60.0187664726269,19.26547480213715
648,12.96,-27.399344913540894,4.475568262689929,-59.164145904247626,-84.43708513593799,30.58487423040138,37.534936016631605
649,12.98,-6.3794216374520705,-22.21632686318494,-45.889489369800266,-61.875716614467656,9.737234786694358,52.703056928422406
650,13.0,12.417098758224967,-33.6154220148927,-32.07569326949296,-35.99771434996583,2.4518064464529443,57.21035780823425
651,13.02,27.728305731687534,-33.94131879541383,-23.50906557717728,-8.315437831935409,5.085930157155603,51.991439172225355
652,13.040000000000001,39.45651066621635,-29.89134706980417,-20.774128928368953,18.589664617452474,9.882383599307246,43.820975480347286
653,13.06,48.66701379346742,-27.606713168358667,-21.52213557822847,40.5343953657205,10.824126531928046,38.06913287839681
654,13.08,55.82849627127297,-30.395453805496572,-23.402573146881807,53.17236467832407,6.7445319651779005,34.605392206604456
655,13.1,59.76406702085089,-37.960485381115156,-25.028135748184695,54.999424520279234,0.3581520051741762,30.148804408424553
656,13.120000000000001,58.806537612752486,-47.43409989367862,-25.32348945596599,49.00831776871265,-4.982124941112422,23.145108663501194
657,13.14,52.95006632825153,-55.46345823178663,-23.28789733884357,41.14018427224114,-7.9092566392218675,15.365309941463401
658,13.16,44.69264930480638,-59.93571462991291,-18.83395535452328,36.80285621837763,-9.383490497042535,9.3401046877018
659,13.18,37.57417614332625,-60.45276685161138,-13.344026731578367,38.201591132604406,-11.161687571395918,5.534126492455543
660,13.200000000000001,33.74572921104078,-57.7567007334691,-8.811249208370599,44.03253178655829,-14.1731748031441,2.2745791611615473
661,13.22,32.920222860361314,-52.89166257821917,-6.168516833347403,51.09144964845156,-18.239899785292412,-2.29702785390357
662,13.24,33.44817120787,-46.6934645639785,-4.357131035118567,56.26979210872355,-22.900026428840913,-8.530332930368989
663,13.26,33.91287485664018,-39.70536912119101,-1.036196964634144,57.70985062761699,-28.021484637948596,-15.05461040528987
664,13.280000000000001,33.547130740837375,-32.296260180164644,5.73889313075933,54.99528552649812,-33.568783827079145,-19.813807788072012
665,13.3,31.74816279280155,-24.729847028337353,16.410769797275165,48.870265305377224,-39.078256528144394,-21.34873815030688
666,13.32,27.981429391743617,-17.13250542999996,29.992536464132957,40.72339714155528,-43.56208792897537,-19.41713708973709
667,13.34,22.25926204881024,-9.520135458944791,44.51172645810365,31.93613046367999,-45.885587264347805,-14.815714418482237
668,13.36,15.32938741305425,-1.9826841392560837,57.19491685907687,23.425276593659913,-45.194639221610196,-8.937239534556877
669,13.38,8.272419156945592,5.165164615448637,64.94173084423159,15.567153183698853,-41.12899895252742,-3.4463177291301768
670,13.4,2.046421870146374,11.520309016545323,65.58093392186487,8.33495028906524,-33.91712021399095,0.09464320832615725
671,13.42,-2.7347419717812387,16.899038355138128,59.099367592586106,1.4895651680994288,-24.451426544864496,0.8476535306405324
672,13.44,-5.986944816334958,21.410462639674186,47.6967433301062,-5.143006340925542,-14.191556169851673,-0.7366923824400837
673,13.46,-8.269564854709072,25.15751513262859,34.6703410733424,-11.294137372178533,-4.756819791203882,-2.9765796767459203
674,13.48,-10.541004829586859,27.900173260890504,22.95373710145239,-16.03934098611478,2.618036090052906,-3.869510102322158
675,13.5,-13.656631268077554,29.092257849162557,13.979134619226373,-18.161514698315173,7.437109277556815,-2.4092981483830958
676,13.52,-18.105016414506665,28.33075532999115,7.387299847316323,-17.035537288993822,9.974669257927891,0.7225030183354879
677,13.540000000000001,-24.181143537747115,25.77772761651882,1.8313312246472153,-13.229669316614352,11.048613262980002,3.8374336642496623
678,13.56,-32.150432975559966,22.036956229540934,-3.8203892245451443,-8.129631068772142,11.58037567022349,5.6781232593535815
679,13.58,-41.905490118445925,17.55623562099504,-9.956321001970773,-3.022702907173908,12.043321125504626,6.114037741201225
680,13.6,-52.39035506995249,12.223595256550043,-16.43963491332439,1.299807200913685,12.1394565567294,5.601249036193699
681,13.620000000000001,-61.66982341696401,5.599612898103618,-22.804314517799405,4.198059165841295,10.994129948190164,4.468887411241829
682,13.64,-67.99373546646217,-2.447368590857419,-28.116089342893225,4.896705472688067,7.734111601063411,3.028223319697817
683,13.66,-71.01810143477105,-11.150208278130522,-30.870151003985306,2.8131178215765456,2.1079753978930644,2.1912258050904763
684,13.68,-71.94156642106974,-18.582775823855886,-29.298277924973117,-1.8746872092175857,-5.031837007726441,3.642595026318543
685,13.700000000000001,-72.34187710118294,-22.041285230249628,-22.14280838221778,-8.039065964210778,-11.587627978434668,9.128333295280155
686,13.72,-72.86124570291618,-19.29025856077709,-9.633442110811568,-13.996254944081567,-14.839290854683686,19.23021169670032
687,13.74,-72.96060888440425,-10.171621272695324,5.874477298270861,-18.379514514006985,-12.92689012769091,32.4000236719563
688,13.76,-71.69177767950679,2.690709866431215,20.090954184211704,-21.054011195804655,-6.348031711962501,44.91054449589251
689,13.780000000000001,-68.506456341331,14.9776688940688,27.995915955268746,-23.242447501767764,1.8297933360571927,52.03108981497732
690,13.8,-63.49313038965947,22.959956286211614,25.940888232804365,-26.474606328724505,7.5177964339540555,50.30606808358982
691,13.82,-57.139577398203585,25.322957015266844,13.92116641553292,-31.209348921432422,7.887694943143349,39.97188742353404
692,13.84,-49.89538091509959,23.273623064484795,-3.583397485295407,-36.398295555540884,2.614115559319773,25.647475309972958
693,13.86,-41.84481694560107,19.04033836296939,-19.68726516735015,-40.27400283335037,-6.731312116213044,13.898952108491544
694,13.88,-32.836083164138685,14.106485597258375,-29.547824825385675,-41.661904757812394,-18.06968584847087,8.608907616998735
695,13.9,-22.98582857288226,8.702971078302298,-33.88171725452675,-40.948187526133665,-29.379113602551428,7.655905949531503
696,13.92,-12.837309979920382,2.906387336155631,-37.754804602602725,-39.84834278815035,-38.45320796279873,4.593480285799952
697,13.94,-2.5905507031405803,-1.9902412529569933,-44.682324769506565,-39.58160070764007,-43.31838171172082,-4.849647360618716
698,13.96,8.922259170080679,-3.6889078973397518,-51.63538514631272,-38.85997861243287,-43.684118914079136,-17.24154536011992
699,13.98,23.864232337719855,-1.0206147687918645,-51.00844400098476,-34.39127252253472,-41.825977961096264,-23.36993569838917
700,14.0,43.19796565901086,3.9884296318121026,-38.24554648087216,-24.288071077429485,-41.646046291961696,-16.531719944914048
701,14.02,64.91276154175952,6.622188756954041,-16.432366344795625,-10.79375753232399,-46.792987255913815,1.9702174644333796
702,14.040000000000001,85.24036059019993,2.6231365497840047,7.93509784711944,1.0806130822089015,-59.46885540507286,26.503748288737164
703,14.06,101.8676821833792,-8.915410808094283,32.50263119582601,7.479612176245592,-80.18512821638592,54.38973138053325
704,14.08,115.00520179119701,-25.620889593833034,59.30546824458972,7.567532747448331,-107.3840075787187,85.84401418111945
705,14.1,124.28927839177902,-44.076138350941505,86.60158113913697,1.866875811615257,-136.2297228357698,115.71934114336739
706,14.120000000000001,125.18045792082702,-60.99532297066719,103.74944857221277,-9.22441247537675,-157.82711104543813,129.07619272297356
707,14.14,110.55767773999463,-72.22676579384614,98.23788099421581,-23.205107671646,-161.31588963964276,109.81841503575546
708,14.16,77.71148884777561,-72.33583779901069,68.27956777382914,-31.983117337397665,-139.09384118713703,55.3211447488878
709,14.18,33.750310013675346,-57.42948651642635,26.32589634936336,-23.37787061122905,-91.54248594516397,-18.675713725233777
710,14.200000000000001,-7.011201322722119,-29.388494338455523,-10.634255528376656,10.74838375105131,-27.29201633972415,-88.3792227432055
711,14.22,-31.869822223561513,3.2095736613314045,-33.48171109836844,66.38237957188167,40.86776333276016,-137.06344492334694
712,14.24,-37.0500030460758,29.29333008041302,-44.5415806092505,127.49751037399284,101.04231822681373,-161.6597534756395
713,14.26,-28.302167759482153,41.2630654958001,-51.23743858966361,175.0459612515657,145.57322765099445,-167.9915898726858
714,14.280000000000001,-15.900981310326836,38.099873053146354,-57.4358513866067,197.3698506075073,172.30052098468752,-162.3077466906892
715,14.3,-8.629103915102753,24.377198664955493,-61.0281368064585,194.42746030354527,184.43204396967636,-148.16433931239595
716,14.32,-10.299129729696656,7.188699489798008,-59.76344049036946,174.3896776189883,188.9856460221626,-130.31372491562098
717,14.34,-19.168845787706978,-6.847051917975174,-57.13238756523492,147.03270548643815,192.80424836887113,-117.62955228129636
718,14.36,-28.882215394376686,-13.49088305185115,-58.444236000878405,119.65453806848232,197.02592085709813,-117.07378813060066
719,14.38,-30.984293276904705,-11.32504873891522,-60.66551910514018,97.09481682518151,194.88400200524364,-123.74851358623397
720,14.4,-20.686192410746923,-1.233073544610816,-50.708543287595916,81.92831049659662,176.95819722189952,-120.79532922362179
721,14.42,-5.179527002071046,14.146039157162338,-16.91781927790869,71.79849742908037,140.59905342005607,-91.93297964327043
722,14.44,-7.999011812913594,31.940581414191886,39.52513277954132,58.56415048377278,95.4269712016572,-33.1034579639603
723,14.46,-60.57089295139746,53.76664713474759,105.98688231595503,36.645508803639764,61.0025030940449,48.1419640206765
724,14.48,-180.76314650853436,91.29761240281672,167.88414225791428,17.13895655285235,59.321369143580775,140.64824026104543
725,14.5,-354.2563019301882,164.1972902937984,213.7789973555678,31.438922812767316,105.85891766664797,234.21200643171932
726,14.52,-538.1252441085875,286.22621383019805,234.57859278410268,113.70072685443422,201.2011273291592,319.73407741884506
727,14.540000000000001,-685.6211178417166,449.59114300668557,225.277989782404,273.9046190891337,326.6533546415673,390.87661852777677
728,14.56,-769.4156860820124,623.567508725032,190.57862680028643,485.17154663411077,449.4140127097658,446.5201235182765
729,14.58,-786.727132425656,770.741914048566,145.29841265289417,695.148624839452,538.7083068030595,487.91171479125035
730,14.6,-752.8561598919404,867.447284544717,105.994914113107,850.875977386348,583.6801314212146,512.5615014035363
731,14.620000000000001,-696.1116657234477,912.4666965530189,82.05770354502559,921.5158791218817,598.3946200777849,514.2012030366776
732,14.64,-652.8369730818954,919.313204176796,72.77301218490453,909.0329011217759,608.5980854609523,489.336241568177
733,14.66,-652.1602601453585,900.4262853383641,68.43323932283283,841.9544544385026,631.2951939009854,440.553937368442
734,14.68,-692.1248293360507,856.7398081331355,54.663695978358845,754.6267196846172,664.1208414243857,372.77387442072245
735,14.700000000000001,-728.4352577654345,779.1819256170418,21.792212987006238,665.0895349689395,690.7917215061686,289.4689512607233
736,14.72,-695.6906818102995,656.7135618800248,-25.8909406068229,567.2213018412838,693.7598309408395,193.68376255247404
737,14.74,-550.6630279626474,482.7793631607358,-70.19929556003757,441.25274665001945,661.4869932322865,90.51807056873477
738,14.76,-300.76668493209536,259.5204507809742,-88.69757495160121,272.0448852585841,587.5276850920104,-12.41935582177889
739,14.780000000000001,5.666636754474576,2.0289782931094402,-65.90811869201244,60.598814473821996,468.11676044713107,-105.81552022218102
740,14.8,312.15192667938226,-261.0525596372916,-0.6699555858745754,-176.90647666877632,303.25563707964284,-179.6321470392322
741,14.82,578.3915176035781,-495.705804275529,91.73009396439039,-417.05294783001125,99.58678769949519,-224.92516068172867
742,14.84,784.0610909493982,-675.7594960788624,184.58710404697996,-636.2535095263182,-127.9343226241047,-236.7924795045277
743,14.86,922.8990752696125,-791.0382571062057,251.82220211464875,-814.9827203843283,-356.37825024361825,-216.9985112212538
744,14.88,998.7679089332223,-845.7524134263715,280.3640037514505,-941.2309590232388,-558.2513982043182,-174.21151028360782
745,14.9,1023.7155214034783,-851.7180501182756,274.18208263537736,-1013.1594040554068,-708.9501479239507,-121.25438098831295
746,14.92,1014.0644158843998,-822.770044298143,248.1063714163171,-1038.8201150636792,-795.2654742303346,-70.66874536261196
747,14.94,985.6854640321474,-771.8866462629201,217.91659556816484,-1032.9890467183398,-819.1703876876975,-30.25283487119144
748,14.96,952.5157132699071,-709.3562762959884,194.53030669288503,-1013.463557770841,-794.4816346081384,-0.10804618933776666
749,14.98,928.9325605667672,-641.3719431707975,184.71293555394797,-998.244446352027,-739.3239633417111,26.891719627843074
750,15.0,932.7901389228417,-569.6068104571568,195.18324984077617,-1004.0696361521623,-668.9050713452472,60.919240241131156
751,15.02,986.4059871296829,-491.48477769581314,235.75786846733536,-1047.5786011653258,-591.6462261371677,110.82515149847802
752,15.040000000000001,1115.58337273523,-400.4280869270789,318.9878619196668,-1149.5456704943604,-509.70929323985445,183.275191218523
753,15.06,1347.76939867737,-286.76166255552243,454.9214973361144,-1338.8841237116064,-422.3079666849061,282.7518709904809
754,15.08,1707.8947013111904,-141.42874271348825,639.7099411143823,-1650.767638027455,-328.3513532931938,404.2666608830714
755,15.1,2206.997973821799,35.65717819790752,839.1320042025789,-2115.2887248014626,-227.43218789328392,515.2638291053444
756,15.120000000000001,2817.988053273798,223.611643521257,974.5871075854534,-2735.373516928975,-123.62949686083239,537.5897354817994
757,15.14,3438.048425385573,372.1495353472691,926.2143692656288,-3450.3959435057204,-35.91052216347994,356.1252995207775
758,15.16,3852.1551480942576,409.32513580808006,569.6793556920333,-4086.7160489373646,-8.389328285731892,-117.12110465347644
759,15.18,3741.2867720191284,274.35220454505406,-148.0987092439148,-4327.6284681600155,-101.35946465021335,-826.2427485237738
760,15.200000000000001,2806.86985343973,-32.200173518314685,-1124.6234244282439,-3781.247485049926,-344.1820051541512,-1481.1273536246947
761,15.22,1025.7654264301034,-414.2552757727734,-2083.4349311230408,-2212.163363379136,-663.2275907631736,-1641.4549602952507
762,15.24,-1146.959026593464,-705.3681666279325,-2682.7375788719073,152.14377963481616,-857.1916091454015,-1037.4506324652948
763,15.26,-2929.2718562251835,-758.3588664048953,-2706.0743873341285,2538.2899932898026,-707.4494580935253,97.54137859402039
764,15.280000000000001,-3733.8402431938407,-540.345608882893,-2188.7776809713846,4014.416028557128,-196.23284161953416,1086.7869570768105
765,15.3,-3597.0868240645823,-161.1675789921359,-1372.7378031105236,4144.333161371815,373.59848738472414,1344.804408771545
766,15.32,-3068.131644220119,181.45929039680632,-535.4525232743953,3313.1175638386994,561.498591737454,887.3600978009054
767,15.34,-2699.3523305599047,307.10709748777003,156.58725619915597,2378.086541725381,181.92950036933382,256.9694192353897
768,15.36,-2664.875628090446,157.02585574705694,663.9414012370164,1979.701259984807,-483.5706607259859,-46.44319156892135
769,15.38,-2783.288259115041,-168.9302542139502,991.9056713336349,2152.4869638263435,-917.8813305531366,9.25333429364579
770,15.4,-2788.670980932489,-487.05897954869505,1130.4251663993223,2500.437922325409,-826.0626176158418,110.824110610074
771,15.42,-2561.342737877724,-666.9489056525257,1075.7920675614746,2646.071310070991,-353.4875710535607,17.685705483021906
772,15.44,-2167.781333341619,-708.1460698408468,870.1434196888174,2504.44256707581,111.7986787530229,-225.9499384360314
773,15.46,-1747.9894131083606,-690.60775413735,584.6297930690351,2220.8620570040484,289.3431799267023,-434.29765531571553
774,15.48,-1389.302535558527,-670.9218500383429,271.5100363490735,1955.564298529357,163.9995812607749,-516.1801138174471
775,15.5,-1090.1088194688534,-642.6802054444404,-47.568103184585276,1758.7982386223189,-117.23351229645031,-535.3888000488341
776,15.52,-806.541581623271,-580.2632985340299,-354.1640983659825,1593.1982801909253,-419.02588673740513,-600.2125416565214
777,15.540000000000001,-510.96166538979554,-485.3190207931309,-615.0662036629859,1405.2619826942082,-682.6523883009736,-752.1149401732521
778,15.56,-212.5238825510895,-378.6293427017047,-794.2718000349441,1164.2898702022246,-881.6949093799141,-952.6324327753734
779,15.58,58.72449603949225,-265.73293515129734,-872.9003407333171,868.9023960375227,-975.0659094178066,-1135.349654860462
780,15.6,276.59190691739764,-128.8023811562555,-855.5909732348816,544.6576402520598,-917.3178901608626,-1252.116350541225
781,15.620000000000001,431.33320525468304,49.22686356339608,-763.3433142507795,234.47147056604533,-697.2897764188206,-1283.110358482204
782,15.64,527.2391633455936,261.0328102996896,-621.2558083883359,-20.742837161348447,-354.4973465508398,-1222.5775576935882
783,15.66,573.4835712042216,475.95146282228376,-447.89593029741195,-199.03772567212667,39.70441243064342,-1065.8683901457064
784,15.68,577.1714293043755,659.4612439484472,-252.00028880048086,-300.31647815482836,414.3299815901979,-813.252191911173
785,15.700000000000001,542.6808752374282,789.9150069298762,-38.69202232150754,-339.0549262332695,720.5357968164487,-483.6848728302592
786,15.72,475.6918678897126,861.1130862408264,180.54127326311877,-336.4511398576461,936.450432557008,-119.12788046928554
787,15.74,387.1511038722157,876.5781245344259,384.01080728345306,-314.5321179229188,1061.8831402826352,228.7786268742849
788,15.76,293.4706493950736,845.7506912639831,546.6764450478264,-291.2589329278789,1110.6516824643857,518.6388132608554
789,15.780000000000001,212.6121350166042,783.1847082200727,652.3514004969559,-278.4108874166031,1102.8535204911332,730.6760866541053
790,15.8,158.5918920867822,705.6739565998973,700.8355230899622,-283.2490478177838,1056.9142761058283,864.8468361001285
791,15.82,137.88123651359842,626.5894450559349,704.0984248429829,-310.46921831575514,983.7279663212163,930.932811476469
792,15.84,149.51978964874644,551.7969685250016,675.5369929020753,-361.07625015310396,886.4905817466049,938.6804158869213
793,15.860000000000001,187.6372176407812,479.7493353309317,621.8746241861145,-430.05185323103615,765.8006674276886,893.8833076174863
794,15.88,243.67879748187625,404.53545924017783,543.720312932418,-507.0078492734218,625.0867245190118,801.4159839613008
795,15.9,307.426043358188,320.14173232347537,442.46981351160474,-580.1846270087974,472.2481726049773,670.9122652265152
796,15.92,368.18187226780424,224.75804919886156,325.892872328538,-640.1794278964626,317.6565102228667,519.0084915480201
797,15.94,417.0925604447042,123.03415620632576,206.92291388921134,-681.02524690022,171.10175351122456,365.64038757391836
798,15.96,449.357563280366,24.18542710207441,97.39177833743463,-699.8776202593046,39.68832997897964,227.39570308294435
799,15.98,464.4156401484345,-63.05357394105434,3.0683601153352287,-697.1813333739169,-72.78165838938565,113.04766539181684
800,16.0,464.03876032686253,-134.55097730786065,-76.11019443120637,-676.8640611415748,-165.21835755083578,23.659416593607467
801,16.02,450.1583839085133,-190.98207043573584,-142.38731225242088,-644.9348695233182,-238.02282593547878,-44.325348302523054
802,16.04,424.18475736493895,-235.09713140655043,-197.33382265716324,-606.5143633513266,-292.02655757399685,-95.95074473772173
803,16.06,387.93888488571565,-269.16217316591064,-241.7513148682902,-563.4464842734221,-328.1784836392286,-136.02113644177382
804,16.080000000000002,344.67333825564265,-294.33913374721294,-276.6561713177218,-514.5332350522991,-347.8008042444718,-168.1498571086363
805,16.1,298.64761101083167,-311.4886812165772,-302.7731430466756,-458.26442366472077,-352.9244673065939,-193.54731610474784
806,16.12,253.50515143577576,-322.0306657520623,-318.7322743025735,-395.87834940632035,-346.68205423060056,-210.04815859685243
807,16.14,211.1972641957007,-327.95585223872627,-320.78161606773926,-332.21499413815724,-333.62664685575,-213.10227803234903
808,16.16,172.60954069247614,-330.95300092468153,-305.39277900001565,-273.45130828022036,-319.1529443563927,-199.02120732394775
809,16.18,139.24533181978217,-331.5248571547453,-272.50350120232736,-223.5669613085285,-307.8132592085353,-168.0839223316138
810,16.2,114.29138288462678,-329.15042327093727,-226.38222306877043,-182.72284161061728,-301.92408721839104,-125.07279831543372
811,16.22,101.84542565826165,-323.4114382228755,-173.98995585491852,-148.78894784380546,-301.8769249327245,-77.69037412735113
812,16.240000000000002,104.5379223668723,-314.8493407665806,-122.98713734910646,-120.10344913608081,-307.66018878175487,-34.8998237041806
813,16.26,121.19043528163337,-304.83387221121245,-80.44571529486356,-96.9245151590047,-319.80565214698504,-5.597715746362516
814,16.28,146.33981810136353,-295.024393079775,-51.465468168360275,-81.08523695222605,-338.92334542701553,3.503441921872728
815,16.3,172.14315591763676,-287.07812672545913,-37.65307465882495,-74.86842536220036,-364.74292943854505,-9.49422881528026
816,16.32,191.3733451620867,-282.44163398185566,-37.13810996431103,-79.64486880100175,-395.762213634963,-40.735807097600436
817,16.34,199.39413688117986,-281.9795598039743,-46.70203203108122,-94.35101735023376,-429.24262937768765,-82.65795167635191
818,16.36,194.03262637838623,-285.70583700001094,-63.86854774253574,-114.81549944001333,-460.7027972867979,-127.72295788575917
819,16.38,174.41866468360092,-292.8199141009842,-86.88646167443495,-135.20593978198445,-483.26911864483907,-171.43696586532536
820,16.4,140.97096376801437,-301.71335281433704,-113.48220775872699,-150.65038125825743,-488.37757358804333,-212.98978335058308
821,16.42,97.17537762843621,-309.55866289328935,-140.72734011561894,-158.30960222541873,-468.4813033094234,-253.33813746082882
822,16.44,50.89213018125503,-311.74894663402193,-166.5106696512337,-156.26446764983933,-420.4139556109926,-292.32109825307595
823,16.46,12.253165486843402,-302.23813688821576,-190.71751125459448,-142.6636090519466,-347.15603260217216,-327.22617503715907
824,16.48,-11.47678829306789,-275.5767934050282,-214.40832748978903,-116.63102600356662,-256.73073439369597,-353.7683312608733
825,16.5,-19.730541952465384,-229.49718521265532,-237.6557685506744,-79.34071560552448,-158.72828541742481,-368.1980213499238
826,16.52,-17.479900729217817,-165.43181573631688,-258.2410577639689,-33.91124356835771,-60.38486561599839,-368.8669160167682
827,16.54,-10.71944635168559,-86.26102695714374,-272.3837415129735,14.753660948527621,35.4390471984572,-356.7194182382708
828,16.56,-3.5726271609791107,6.049352017746639,-276.4730603126814,59.540583325073,129.21192942848793,-334.5859788797095
829,16.580000000000002,1.0924413455616069,110.30827461074367,-267.8140342225421,92.11315876041496,221.8250661866527,-304.84639351946925
830,16.6,0.4276775291897206,223.98456410554593,-243.79466250977197,106.6692928036003,312.51344737627824,-266.2248829711484
831,16.62,-7.726715559431781,341.13969729697874,-201.503433369545,103.68179733204687,398.9904440025951,-212.9285123732787
832,16.64,-23.449315889594587,451.45699078373354,-140.21649574303572,89.34391610431081,478.4210631948306,-138.9284289060293
833,16.66,-44.61865210940465,540.9304979538532,-65.2956416360403,70.74034035540487,547.0651484535106,-44.99513030104677
834,16.68,-67.97175179286697,594.9800640242215,11.788940742545847,51.571842590882014,598.5521137210228,58.59646912168577
835,16.7,-90.32233024417432,603.5709511823985,80.04786143364137,32.31412081045883,623.2017394030544,158.0955581067962
836,16.72,-109.48229860221053,565.7879867493322,137.59230411690663,13.531925894698954,610.7310202380685,246.72358664651205
837,16.740000000000002,-124.5059052067663,490.8056690357092,194.26517498728265,-1.9885202656350094,555.6905767186901,330.0061150920445
838,16.76,-135.0106775723698,394.19774113181586,265.22285655138467,-10.786859379113457,461.6918876939269,421.1828878283342
839,16.78,-140.4239501604504,291.4724119673532,360.3764600301188,-12.373963533574544,340.7486185246048,531.1708842579831
840,16.8,-140.42099581243917,192.70836377615322,476.76733501495585,-11.380189301360106,208.5069809182107,660.3652975533652
841,16.82,-136.22199183186487,101.95597234022762,596.4220529026096,-16.07777940078594,80.08281804899029,794.4843327523517
842,16.84,-130.6490548960772,21.87563810031793,689.2520832102384,-33.697483966740904,-30.490554911668927,904.0732285903937
843,16.86,-125.78251020098833,-40.764857404806506,722.8489155044826,-64.71307420171156,-109.82824001154255,951.775884815728
844,16.88,-120.26219427535285,-74.94652618107921,679.7913449124915,-99.81035707850582,-148.11064326119117,911.2292663139403
845,16.9,-109.6432426491406,-72.02273466609078,572.5180819836089,-123.23068567261062,-144.1460555413459,787.618294178342
846,16.92,-90.15209982276092,-33.171823065487125,439.3841684685941,-121.73877137188964,-106.28116777122412,619.0081143204243
847,16.94,-62.005940330985,29.218489780534888,319.5991280976147,-92.69816758302149,-46.95459071375471,451.89885700876573
848,16.96,-28.79909342045298,96.43632880596635,227.8685028086365,-44.977955951070854,22.995437295516886,312.23166374595854
849,16.98,5.740946886824828,149.83584054149753,151.3213150919293,7.05560871952394,94.54870278484728,197.74163535739402
850,17.0,39.3943607078106,175.9914200350168,67.80180282969037,51.0609582572173,158.19220963505757,92.88760285448575
851,17.02,69.88253355743916,170.36248470669898,-33.133504507713845,81.03237384514475,204.78432547387933,-11.922743483330473
852,17.04,92.77946270701327,138.0348171953861,-140.12234956105118,97.38607430931015,229.01003235643122,-110.34109714703679
853,17.06,102.25675010455852,90.70841169365555,-224.72775290422524,104.47351422210664,231.87092905966534,-183.28951640632062
854,17.080000000000002,94.87326465322712,42.21234556435425,-260.36223239615344,107.37408648594419,221.44758583771875,-215.12322643868788
855,17.1,73.08342538915467,4.208260821630924,-243.0214323230707,109.03954206554567,210.35760944313677,-210.56266399588065
856,17.12,44.64440287383203,-18.056556263416887,-192.94386316639333,109.04604825211159,207.79316698420843,-192.24674011496575
857,17.14,17.872394627257044,-27.137549709672996,-135.2743891479708,104.90930768320035,212.15443058245995,-179.59017430269068
858,17.16,-2.716081190956781,-28.620189876198076,-83.02900961404842,94.64350747146747,213.9108855952152,-174.7088803139136
859,17.18,-16.448698833240478,-24.559700393099273,-37.95360693780301,78.26712279096458,205.86535790226338,-169.28150790140435
860,17.2,-23.88092779418688,-13.097918930410117,0.6353482348977311,57.834371906878374,188.21855032608363,-157.42070252979323
861,17.22,-25.844640482248796,6.205391750750653,32.471867746020266,36.530971534324436,164.83823368506953,-138.72830868589537
862,17.240000000000002,-24.647432666460595,29.04994597822513,57.59039219071244,16.931760553312053,138.5383628347247,-114.75232209874954
863,17.26,-23.972035191158565,48.588191531292985,76.34999628611824,-0.2763944693252861,110.4500393521136,-87.57744057061143
864,17.28,-25.800149382147268,59.72779988600722,87.78281780356207,-15.060036872471525,81.17366644981358,-61.17676797569287
865,17.3,-27.16733387825728,61.567099062267545,88.65493627289621,-25.248723381953877,51.05161992913571,-42.09915994140567
866,17.32,-20.740772417670353,56.72669914922555,74.47196369138986,-26.050704218304652,19.84244180269596,-37.813453658093245
867,17.34,0.10078559508485618,48.26156311437778,42.510727711750256,-13.694707552879184,-13.371992724007118,-52.69309318188067
868,17.36,35.181857059701336,36.477987288415825,-4.272045448324962,9.68327656851383,-49.77704257029727,-83.31651989109645
869,17.38,75.08867193766733,18.695201869694202,-55.25745391603856,34.678245392283195,-89.52164104316607,-116.95044134644934
870,17.400000000000002,104.60200405664172,-7.235438187065173,-95.17531909930443,48.92454766783814,-129.5076039326988,-136.72784615009462
871,17.42,110.6848478199244,-38.63681160948786,-112.37290229199903,44.63195810147367,-162.03604629389977,-132.34960785224075
872,17.44,90.81678633368952,-67.31128292388432,-107.38533055761147,24.005265411155044,-177.09713959154803,-108.88868653128515
873,17.46,55.74709255336865,-83.9290046733538,-93.67313260420225,-1.7844976602881202,-168.38047674588813,-84.68087661233298
874,17.48,22.796426494709486,-84.37221256754961,-87.19956400619812,-19.808481690777192,-138.50027077460996,-77.19051201050935
875,17.5,3.741786742758391,-73.05359951494884,-93.07444018633302,-23.412683883445034,-98.52468110588619,-88.57040526929214
876,17.52,-1.7287105502237203,-60.62497692853796,-102.93474031805806,-14.817907259233799,-62.040811218177964,-105.6236218918443
877,17.54,-0.944976372433771,-57.58554480514723,-105.87483940132081,-0.9605502596362947,-38.66344606114486,-114.27114289215612
878,17.56,1.2289679622248901,-68.04965189471352,-99.74896531108101,12.783372806287634,-31.220947541045874,-112.11379700552803
879,17.580000000000002,5.256487896705301,-87.87556427775769,-90.16463766194349,25.551632188444948,-36.88739103242216,-106.28642082501119
880,17.6,12.626040779602892,-108.19577921305893,-81.17882452555742,39.500200353951904,-49.986535256317666,-102.70787046193107
881,17.62,22.335233328566822,-121.17820457475064,-70.89728954624277,56.66667080322897,-64.54381106593353,-100.94628043107605
882,17.64,31.844129718041614,-123.65927519288257,-55.77454618442238,77.02631976030005,-76.06408347685029,-98.00444588948898
883,17.66,39.03862656672255,-117.11952077941478,-35.786158642884985,98.42296345395144,-82.54820720263001,-93.04759647879179
884,17.68,42.37165355747776,-105.48515307329708,-14.245388005700399,117.67236155672961,-84.39375817776616,-87.3430598431269
885,17.7,40.375363769415,-92.65806967203312,5.742253317155823,131.82927995901778,-82.96278530452018,-81.41775040119235
886,17.72,31.8308016554893,-80.89105455476786,23.93125797033948,138.73567628356125,-78.8307521017723,-73.12631387695333
887,17.740000000000002,15.99315809909463,-70.54504655775489,43.458354632718084,136.8176239860661,-71.3559174543563,-57.5636558798859
888,17.76,-7.334772556085548,-60.88677264304806,69.20358579649168,125.22513628231935,-59.74762283690774,-28.97788857281258
889,17.78,-37.09182574682677,-50.881051289466185,103.70268065335098,104.97369577309667,-44.034059951643094,14.944295679100755
890,17.8,-70.13732697665888,-39.736035449907234,142.74557919855712,79.6866143252943,-24.95929601056382,68.77383563898452
891,17.82,-102.21861880474188,-28.063117429265425,175.3965498169622,53.96038001523971,-3.9563733176139793,120.06638809725573
892,17.84,-130.53223667600872,-19.365213762240412,190.14975775372915,30.115867004708416,15.601617038308689,156.56428056174977
893,17.86,-154.65767595095832,-19.279178708471377,182.40764656050004,6.90373937555805,27.296229533863574,173.88835139477226
894,17.88,-174.21811975005193,-30.74994934784279,156.84366382481667,-17.773932285347723,23.803285391449887,176.41843211590103
895,17.900000000000002,-186.4036863340552,-47.84064003280674,123.21447481449798,-42.6820350602019,2.9433252334242077,171.13764609119133
896,17.92,-187.1451761748155,-54.32862359703471,89.32075315029738,-62.22968417553564,-26.68731951447837,160.88336094432762
897,17.94,-174.91883037609153,-30.947448985885266,56.34277763733291,-70.09430753699684,-46.97588288719898,143.2523356155201
898,17.96,-152.92492171867124,31.81012981786355,20.48955622736536,-64.27884624711649,-40.24191888810434,116.30055712107838
899,17.98,-127.75875353691424,124.12682516412016,-19.803048409915757,-49.32403501849762,-1.392758370111732,86.0379490311671
900,18.0,-106.41691129620614,218.37396213711975,-57.976981312392326,-34.446489755681604,57.34026287407006,67.70136203127525
901,18.02,-93.84422560288961,281.9827508481862,-81.42276115551951,-29.41338376047467,112.77195483859904,77.38919986247875
902,18.04,-91.31855714306393,293.8036632037814,-80.2104370132862,-40.33608186690924,143.18108173756917,120.01532027280525
903,18.06,-95.37202137772837,253.81360878851655,-54.84609636214391,-66.71390250979685,138.4029165699937,183.54085682867586
904,18.080000000000002,-98.14128198396678,181.06043313845288,-17.12063075079813,-100.76831642373153,102.53654073262086,244.04934910071205
905,18.1,-90.18571001471418,102.86656242300947,15.961334703544397,-129.7519003648585,49.8203443442777,277.8173397396879
906,18.12,-64.80815694309396,42.753762096247556,30.684454594486564,-140.84695056821522,-2.383066287243958,272.23929184242814
907,18.14,-21.735256156295506,11.985206446682348,22.333385662410024,-127.53999920784204,-40.1160503362699,229.5094118883133
908,18.16,30.97204223088715,5.410443045003209,-4.208869076031718,-95.54416065144792,-57.55473942209593,162.89458230444976
909,18.18,78.03752184290956,3.5300584926251126,-37.56652442041749,-63.69511210102465,-58.68382385656521,89.81054324556426
910,18.2,103.74019386143011,-15.156083396414306,-63.93210256984291,-54.39283284809554,-53.902876630800655,25.8499711694001
911,18.22,103.37691097425086,-55.02733004389516,-70.94391289163663,-75.90699491574445,-51.852006323876964,-18.741833427576296
912,18.240000000000002,90.06734600276116,-93.66640376229314,-52.870757150097766,-111.04883867387525,-51.40365023064583,-41.5777908824965
913,18.26,86.67935591563432,-96.01952861734841,-17.38117703315526,-126.74808326301108,-40.76335935544343,-51.02429755045698
914,18.28,106.44726042436334,-44.59084132903431,13.026426657363285,-100.02015070505996,-6.709623489316996,-65.36160419819943
915,18.3,140.42882549283348,41.55874768673819,13.869654347600676,-36.65430740761488,51.37804755141977,-101.7253803729302
916,18.32,165.28250575766603,117.61203133788595,-20.018305832580886,35.171555358589686,114.40470381016138,-159.87168470837884
917,18.34,163.80384051362557,143.42165116932352,-66.497070399603,87.86417361236599,151.51491114212132,-218.29878851552212
918,18.36,138.03920914471348,107.21664795355485,-93.03369418903856,110.83870816436757,138.6789541778861,-250.30592497474618
919,18.38,104.39536484559665,27.43714200394895,-82.1762041183574,109.54483095991128,74.08027008808476,-244.20904203601754
920,18.400000000000002,78.5305364980032,-61.951333274881726,-41.09154933654144,95.29769510996951,-20.251758181004803,-208.32181820907968
921,18.42,64.93292866913615,-128.9650862305255,8.541837623808089,77.73934974460843,-110.09565757143632,-161.19901689586413
922,18.44,58.11075533908927,-155.11755564595163,45.20429516293586,63.10959768597548,-165.70119431219632,-120.80805646688378
923,18.46,50.48705556657354,-139.33419493861976,55.70593546162307,54.958098342282625,-174.4528202414373,-98.9803594223402
924,18.48,38.26964536134655,-95.51742021306092,38.005162926922374,54.36986315972749,-144.01499636419027,-98.34497846895124
925,18.5,21.95277148325779,-44.997117580720975,1.542235167113096,59.81606181045542,-95.52253939162193,-111.38858157413513
926,18.52,4.263837146314679,-6.35887627893494,-36.54925781615062,67.88552711556387,-51.562029968257654,-124.75562836939866
927,18.54,-11.266665784663578,12.273863325853181,-59.794475455029875,75.01681851260547,-26.169966731842756,-127.20275474203606
928,18.56,-21.129353985488844,13.969927726425034,-60.491843636986,79.12936383275638,-21.48725392485747,-114.90424756295965
929,18.580000000000002,-23.303102474801832,7.48136686250866,-42.16094250514253,80.087743316152,-30.31689125579647,-90.98805401702094
930,18.6,-18.79328777002499,0.8671744121611713,-15.492641725555805,78.74765628094862,-41.06619138429842,-61.70407636747363
931,18.62,-11.334679214541062,-1.5648592557644734,8.875980746747825,75.36992695969681,-42.895538673887344,-32.38465008695679
932,18.64,-5.0046711698982715,0.9625755761236809,26.297432067811943,68.96996735987484,-30.129189971839647,-4.648775566906882
933,18.66,-1.9233461403909302,7.394647152874818,39.256021617357234,58.48724176233447,-3.931458799418797,23.711206106655013
934,18.68,-1.916156154158835,16.72585213707629,53.05143911946057,44.50353739028998,30.334918802224816,55.182660252553006
935,18.7,-3.5838813178242184,28.92944980104285,69.49419012351689,29.25692626686113,67.89838854312282,87.81373955245462
936,18.72,-5.160151074750662,44.50099478887614,84.21829458809563,14.694146114113332,107.18698271488279,114.40639914993042
937,18.740000000000002,-4.732765716903892,63.94950614723595,90.34162311166857,0.7465223999557566,148.8910502606476,127.63483059984304
938,18.76,-0.40269111247709954,88.42164758239201,85.31317574269985,-14.420668648775546,193.85770389780794,126.89320828695875
939,18.78,9.40840849492053,120.00005394252206,74.67790145670264,-32.76468347276882,241.82483188164264,120.48421827242392
940,18.8,25.420590511116732,159.48692053948676,69.3058714643946,-55.01029615649537,290.6573105998919,120.97944699929923
941,18.82,46.34981955915662,202.88004473737894,78.37361717696486,-80.45724633531432,335.6118670996715,137.30071480291
942,18.84,67.8257171271933,240.68253155618697,103.42211687071024,-107.58974887261661,369.51925965359584,168.83917118369888
943,18.86,83.32484116205515,261.87453152861855,137.2170135293079,-134.75351436339827,384.6027847739728,204.90287860937173
944,18.88,87.47069243132495,259.40822640928167,167.6694861677866,-160.5759989434957,375.00104458413097,230.02968891880408
945,18.900000000000002,79.01731775742417,232.74802410726915,184.22569725780545,-184.108644218087,338.34615961618573,232.64596951918395
946,18.92,60.95336171281514,186.46405456335668,182.48573601496503,-204.57013553229268,275.84797188415655,211.29143253817318
947,18.94,38.40662836087593,127.57101473087351,163.6614436486947,-220.5842767959326,191.73917691356115,173.0318526697821
948,18.96,16.900410946951748,64.14859772403183,129.6292087336559,-229.32683406504987,92.9810847248246,125.191883820322
949,18.98,1.890579923402437,4.688340743695734,78.7164300554759,-226.69578367992546,-11.143601346775448,68.55527105618572
950,19.0,-1.9790618674621872,-43.86972582599513,7.086943120347284,-209.3910169454196,-110.68945558891599,-0.8606254610347719
951,19.02,6.779551685975333,-78.95012406854185,-85.03032507113234,-177.87451311426116,-197.83364257138794,-83.46933024596058
952,19.04,24.107100151961347,-102.98860016029039,-188.36923017575106,-137.4712190180269,-268.88821935915223,-170.28065140147788
953,19.06,40.90258724914682,-120.86342262970206,-286.06277057340867,-96.2800863382866,-324.15726843459214,-245.54685205904696
954,19.080000000000002,46.86275974206875,-136.8507378017638,-360.67085768927683,-61.7623447640422,-366.39349653245694,-295.0655082147737
955,19.1,34.940266509810805,-153.73868163987964,-401.79416146067877,-38.57346599057484,-399.16327824133407,-313.171480252367
956,19.12,3.889445511484521,-173.4188402444917,-409.8690323304747,-28.12887296502439,-425.31282106957497,-304.4671552503055
957,19.14,-41.61786000228484,-196.9283153776851,-394.4179718148872,-29.06764928527373,-445.5818903819704,-280.62334047446376
958,19.16,-93.1616994281093,-223.705458008512,-368.0145211332682,-38.28858751893716,-458.1861648896381,-254.58989871153477
959,19.18,-142.44944367092984,-251.3104177448759,-340.13204942635616,-52.45240849911584,-459.7526188220395,-235.39612136119047
960,19.2,-184.60004234683927,-276.1631834542161,-315.0604184229086,-68.97235551165195,-446.76187558899517,-226.27304667579642
961,19.22,-218.3522938441247,-294.64101426438043,-293.8972367404974,-85.52737552857896,-416.5937377193741,-226.1371555631836
