Frame,Time,RightHand_Accel_X,RightHand_Accel_Y,RightHand_Accel_Z,LeftHand_Accel_X,LeftHand_Accel_Y,LeftHand_Accel_Z
0,0.0,-110058.93156837398,105501.1582922937,-21429.186476069124,96560.29718745785,104190.48533638127,28239.25215213444
1,0.02,-95329.611210684,91358.64130386701,-18516.79247450044,83578.14086708552,90192.16337870645,24418.919715146134
2,0.04,-70946.08089395639,67949.7027756736,-13703.442395779557,62095.28991670331,67025.98061991672,18099.335986584047
3,0.06,-44774.98944304909,42831.45521959321,-8550.030414499932,39055.27798081968,42175.92073437963,11326.406280475861
4,0.08,-23627.499074867726,22544.14218392556,-4397.947923482782,20463.99128683666,22116.562350302425,5867.847821097194
5,0.1,-10305.985859381133,9772.638517550684,-1788.6879202014748,8781.321950016883,9504.959185044727,2444.14068291513
6,0.12,-3704.756139306536,3445.3190901146545,-495.3694955517133,3013.1954016121003,3280.736609341577,756.5451455615364
7,0.14,-1132.8578128709432,971.4775150700431,9.735335645918752,770.5341804553749,880.4100013207176,96.6647882684158
8,0.16,-353.52832229732456,206.02240022373695,153.84421762221893,78.91364883210275,180.0880443473058,-116.82917663212001
9,0.18,-173.38299659544538,15.15534225084538,156.3432764935419,-99.26080428355256,54.12794814377202,-183.6245401315474
10,0.2,-132.29634755463593,-28.029429334102623,98.632800811999,-146.31924649031652,74.31414652676985,-208.2463452601674
11,0.22,-95.88729258199726,-42.89821390971437,7.424865743343194,-161.20176309358447,116.59832047449265,-214.1785204989485
12,0.24,-36.27901332621686,-56.02140653855078,-103.78715984146163,-161.75685890034276,151.06628721770605,-204.58146190224852
13,0.26,43.7170807046485,-72.72592344248095,-222.07568152683658,-152.78630359751358,172.18079553185947,-179.6255946064553
14,0.28,131.65776822075807,-93.00432399784904,-332.225512801004,-138.97088780276596,181.41393955445474,-137.828857559301
15,0.3,213.17502519918133,-115.5061376191279,-417.5744094084591,-124.30383870420296,180.3998647399652,-77.17211818561503
16,0.32,272.6329403467374,-137.045133775659,-464.89418283877285,-108.53076878214671,170.0155776730272,1.9670959985382392
17,0.34,294.9540669967761,-152.92969886051458,-469.64416257738065,-87.60066422011946,151.07638150299192,94.02810544923277
18,0.36,271.2757677602319,-158.5479101341336,-437.0105481282141,-56.89987225084577,124.9093051301156,188.5348448457798
19,0.38,204.78029468890463,-151.67699687315576,-377.85570694355965,-14.357557225579376,93.17679991097883,273.4053918559868
20,0.4,109.85201407420269,-133.86747798881953,-303.8451364900639,37.836818748409286,58.168038262343416,338.95385231934705
21,0.42,3.858429674229756,-109.54322901034627,-226.0763109616755,92.90083933329916,23.65148871790926,380.38971458257583
22,0.44,-100.69143373307794,-83.60013544556506,-156.103284927318,141.0026234994753,-5.750697760432031,398.4407478631731
23,0.46,-196.7713407697509,-59.708094767952716,-104.21345970415798,172.8558954659407,-27.09541912225978,398.94454011722996
24,0.48,-278.62894542305617,-39.798558234761146,-73.03012837533515,183.59363002955334,-40.12067530434821,391.6529660369937
25,0.5,-339.44104399995445,-22.736895573590434,-52.33368458718716,174.43212664203196,-44.34421819691656,387.0761883326808
26,0.52,-371.72408603178417,-1.807824083522636,-23.66053742171213,151.70031068981768,-36.517594483469864,390.6223530907366
27,0.54,-366.67991271793807,34.531868888186736,25.84062530482259,124.83907680400978,-14.470266928611492,397.18174455708777
28,0.56,-313.701412142095,94.37157256009334,93.62281398251022,104.37262156363313,15.417767565203203,392.6260192944162
29,0.58,-206.30806710532738,171.19386553101748,167.60201511593144,99.56002555250313,37.382481161917795,364.1758541526589
30,0.6,-53.79431483084624,241.84861790246177,240.36943138967644,115.91020648888936,35.8057105364703,311.3974263005043
31,0.62,113.12394064282404,279.0781764067118,312.9925749119387,153.3349322226197,6.502464155818631,247.08117702815417
32,0.64,252.59828297832308,268.94724593094384,383.58888989622517,204.99900158716645,-40.32259154954232,187.46522597304067
33,0.66,333.38486523952724,218.23338581764938,436.6016660298309,257.37027771033695,-86.65866873788607,141.39534535831552
34,0.68,351.87603928778617,147.31275298504,448.2076864151418,293.6881708099214,-116.90745230888106,106.64164152038072
35,0.7000000000000001,330.7708772648582,77.00288122456664,404.21442460795896,301.353012500648,-124.88801842115868,73.7350165070802
36,0.72,300.69653770531045,19.945648625624354,313.3823197120749,278.52941554198463,-113.75985496057044,32.960590242893176
37,0.74,280.152264295198,-20.06602178320089,203.9451104082384,234.03725965242893,-90.4335848129167,-20.18903648991673
38,0.76,268.4068422915421,-44.39448250936651,106.64998117392368,180.52932248204877,-60.27057760005095,-83.9780591758063
39,0.78,252.37717933697144,-56.481329303459155,38.65126095393371,126.99145260651898,-26.21031474478172,-153.09655806767853
40,0.8,217.9960044932675,-61.288835044215276,-0.35270400719058514,76.0653701407046,8.992193868129185,-221.28044010833372
41,0.8200000000000001,158.08292481487507,-65.38443260178158,-20.89891495841472,26.797915599852725,41.215787405941015,-281.49027838329823
42,0.84,75.38185442439605,-74.93779916005205,-35.03548120761624,-20.434948743679158,65.7138493231258,-325.4734680123427
43,0.86,-18.008256303566945,-91.87738039106262,-52.26229681643374,-61.13220665649372,79.0531539921965,-345.5026307628728
44,0.88,-104.81891628073618,-111.82315997340395,-78.02638499586257,-88.56511793378597,80.63353451856953,-337.68077217842915
45,0.9,-169.90254912708787,-126.56749212946495,-111.3090812224531,-98.70132183606897,72.82729390947279,-303.9189986502295
46,0.92,-206.8678024632369,-129.25923634794447,-143.54491812216818,-93.23179968463035,59.64124481334889,-251.38155402423433
47,0.9400000000000001,-219.29389230529742,-117.80185476206375,-162.88031608570145,-77.83518816724548,44.871347126223746,-190.39292645277922
48,0.96,-215.9616492737568,-94.5348150427854,-161.6526774371423,-58.20965390600387,31.09333057537376,-131.76973353568587
49,0.98,-204.68911945454613,-64.1905041700683,-140.62510474756812,-38.255309418704705,19.753495188785084,-84.02501301130202
50,1.0,-189.5483454376195,-32.449654822550656,-107.64933098456744,-21.19040841692754,11.481314728378429,-51.35400961137974
51,1.02,-171.8804523839578,-4.988142355613244,-73.90634215045662,-10.798939293444409,6.097171380168406,-33.35643306791371
52,1.04,-152.14363747363473,14.068891224393099,-50.21640424326376,-10.697675041504446,2.725942286633951,-26.396117884311188
53,1.06,-130.4149365795388,23.838167974565035,-43.23969317736962,-22.398543509529258,0.33590986553249996,-25.717844526897046
54,1.08,-106.06863885747057,26.803055702293634,-52.56257440126784,-44.248772386216174,-1.7194197096275277,-27.426007138373535
55,1.1,-78.11774684128113,26.757623598900377,-71.39420881899159,-72.27998250717413,-3.6561586687208,-29.45750055523805
56,1.12,-46.466586512980115,26.200852671250637,-90.94160578607381,-102.08141526377683,-5.571608926442066,-31.091477331604025
57,1.1400000000000001,-13.031658885620939,25.45902085058126,-104.72733661946036,-129.98537304163295,-7.6001353461015775,-31.795723894054618
58,1.16,18.2571642585731,23.93739086169591,-109.7451700584202,-153.06722670808156,-9.716752549764578,-30.8276539465309
59,1.18,42.60742812776578,21.663842763546615,-105.10951902822096,-169.08829887200045,-11.478768664114675,-27.83111265627652
60,1.2,55.97504290481983,19.38007030733,-90.79326996855556,-177.14988506931897,-12.107950467922247,-23.340218634901568
61,1.22,56.5599052465136,17.528473881997044,-67.97314205039363,-178.1116277932852,-11.044180924897864,-18.454767427335057
62,1.24,46.04458473096692,15.710027314974887,-40.46590171617722,-173.59204580880177,-8.709002758330499,-14.170571359511007
63,1.26,30.29151370144509,13.224336167217665,-15.323431484445974,-164.08125399860617,-6.9589966746664516,-11.146434922535528
64,1.28,18.80047160453569,9.887344233410767,-0.8780233125693222,-147.78784472289206,-8.889967406815375,-9.96792862252795
65,1.3,22.59586208659978,6.214516113593011,-2.7895622839552985,-120.97747904761127,-18.122546249620633,-11.343122260856722
66,1.32,50.83869765434288,2.860554844978136,-20.748971278687684,-79.5866661917343,-37.621289913342245,-15.712627095032637
67,1.34,106.11231025301538,-0.13181722461215345,-47.80572554050151,-22.354626781935508,-67.49635285167125,-22.340787801538
68,1.36,178.68061617612634,-3.4943242022775767,-72.26936445236055,44.35408498502985,-101.81186067839016,-28.710993303473423
69,1.3800000000000001,243.53840189600385,-7.82801858419588,-81.75240122596814,102.91169011424687,-126.93844486259133,-31.286858668112796
70,1.4000000000000001,267.08133390639705,-12.165933599765754,-68.93389506488427,127.91224285024623,-125.46952578969666,-27.712738496085976
71,1.42,224.92127713770498,-13.655341145369809,-36.3847937824124,99.14824429180565,-86.14954431274975,-18.735523468920913
72,1.44,120.05448797749332,-9.537018523034781,3.9395952150416385,16.616676656008604,-13.390458152445136,-7.710921898493508
73,1.46,-14.58117487058002,-0.045338567433461874,37.4191705723615,-95.12228961583969,72.1595004420273,2.041775785076273
74,1.48,-133.6712776220104,10.848691777778843,54.742042365957126,-198.50580724147727,143.7874415651367,9.239355085014761
75,1.5,-204.17263761565744,17.87012465428857,55.66829164337187,-262.4289894452148,182.41768213616575,14.329776048465805
76,1.52,-218.7239973367756,17.628542744794526,47.62878061845465,-275.646713842783,184.30184304255332,18.298271822203724
77,1.54,-190.61424289345382,9.98485365870464,40.92644333722772,-246.1262674876071,158.53808747489703,22.079025958299717
78,1.56,-138.5464986070288,-2.3919224927464464,42.56247533719924,-189.97171990691317,118.06080395143474,25.851606654641998
79,1.58,-75.37222733329169,-15.172611895066858,52.13705450458777,-120.81176379766825,72.02566175617116,27.83991846275631
80,1.6,-7.774672574592327,-23.965110712352587,63.46700812766871,-47.327433418927185,24.839869652683056,24.500466457381556
81,1.62,57.829485798845354,-26.078812003885055,70.72853596112643,23.159752839559694,-20.032674444212198,13.210990186952515
82,1.6400000000000001,112.26380637099754,-21.334802535782046,73.04502290335043,82.39305132779461,-57.40663936646858,-4.886524586003874
83,1.6600000000000001,146.90789594985907,-11.415666760260617,73.61197167938289,123.46776576202728,-81.87438246365419,-25.0076411908238
84,1.68,159.15064189102446,1.2516135943565672,75.8649569840631,144.41147023628108,-91.13599701939117,-41.71347438787714
85,1.7,154.12630901716588,14.107146019174916,81.35569017215096,148.7544113507762,-87.28878310335539,-51.847954661242746
86,1.72,141.2938877304575,24.808093462157956,90.34430211746044,142.7186379791249,-75.0325093313471,-55.230193250824954
87,1.74,129.10290445344077,31.745892644366293,102.7014998466484,131.76915100229985,-58.82014277719938,-53.44267229385565
88,1.76,121.64779855187382,34.365033078547334,117.43639462945565,118.96560404727576,-41.304688834812914,-48.31688977335398
89,1.78,118.6882763207683,32.915733117895996,131.80781396682107,105.50070120852695,-23.65437748583483,-41.0501071921989
90,1.8,117.88439123435552,28.011900532672954,141.9496259873753,92.20729771585674,-6.678935822420576,-31.83496793467223
91,1.82,117.17313929107033,20.486789431501997,145.2431025431771,80.55021368452786,8.531387494861747,-19.83687689591731
92,1.84,115.75442808918658,11.50326975366739,142.24980431581778,72.45374714523034,20.826164899678318,-3.85260427642727
93,1.86,113.50177089567055,2.5462916815163545,136.05332121614464,69.29206657688911,29.433274903519056,16.351188652664035
94,1.8800000000000001,109.73354450509333,-4.906545854598045,129.7272843729597,70.75578246766368,33.9963835165331,39.032421598429224
95,1.9000000000000001,102.48033758676154,-9.80896208970022,124.60593664699155,74.3051137085144,34.40323039374211,60.88440500471242
96,1.92,88.99382513639029,-11.632616559469273,120.55809799560822,75.81516415896252,30.781089572711288,78.64837043642805
97,1.94,67.47301225630038,-10.03849468579928,117.02108739423889,71.44584116733616,23.457585663458264,90.56238882741462
98,1.96,38.74427343995825,-4.541825889593268,113.35582308229877,59.688544236744775,12.716252269613973,96.58414099945355
99,1.98,6.065973534299735,5.409908344984942,108.64719069122168,42.040973455834845,-1.0881455261691788,97.60004395575234
100,2.0,-27.21671314936523,19.912518201518328,101.99189434224002,21.779610363684245,-16.633377994164434,94.64478957424316
101,2.02,-59.82014794622517,38.07196442106824,93.39309755856166,2.1014857778197102,-30.887205645801213,88.70414180520933
102,2.04,-91.63800189309868,58.206331891951876,83.57327206533864,-14.39073740261985,-40.15901993097788,80.46248114727814
103,2.06,-120.05706227964981,78.81817670669582,71.46717030562344,-24.498779848235746,-43.10205396312436,69.19193493398565
104,2.08,-137.6145314667186,98.71177221478604,52.39118342542435,-23.85802801078927,-43.044154437937515,52.06970506333987
105,2.1,-135.35817214976743,115.0022427643375,22.089986612702607,-9.491387088336339,-46.06011130873753,26.721928888250012
106,2.12,-111.05989033858168,121.50311792473833,-14.9783876782924,15.902060990486529,-54.79925425792406,-3.5972459361544784
107,2.14,-74.75232634162307,111.6040166155376,-44.083476748915395,42.957050331951045,-64.06272165181731,-28.374081731289206
108,2.16,-43.74921559052844,84.58767082591645,-52.36772794310348,60.81052054209553,-64.64229033027544,-36.767784741234436
109,2.18,-29.22941608752794,48.455862772574505,-44.12998774195804,64.66084039873486,-52.96570890296083,-28.279707594274193
110,2.2,-27.805444386968205,14.862410410865994,-40.09726022171934,58.41701657495307,-35.35636950981771,-15.266370570328677
111,2.22,-28.368609430449332,-9.453104887474428,-58.32044014952753,49.671809350273456,-20.94074383960099,-12.639390006174436
112,2.24,-26.80915799558752,-26.26610403531559,-97.79636885654963,42.572732034582494,-11.7128103761304,-25.00507906677767
113,2.2600000000000002,-31.43264111759565,-41.718295941274135,-142.9180225987025,36.136813721738754,-1.6643323437491855,-44.56332123540369
114,2.2800000000000002,-54.10336856204481,-59.86338565664917,-180.25336806853608,28.273611664686346,15.645927718520895,-59.733767022103436
115,2.3000000000000003,-99.02941760248707,-80.28741170894793,-206.56166490987192,19.3208858474151,41.402942170448696,-63.15738818076299
116,2.32,-160.3844035623545,-100.07527887192103,-223.27541115607556,11.646402656681504,72.52469202414895,-52.37349507924497
117,2.34,-226.95982701365156,-116.11201820525972,-230.45279095003661,7.873580912503534,104.5533463946955,-27.478915728181196
118,2.36,-286.6419130851664,-125.68353114258844,-228.72447454913646,10.278712261231446,131.93368768455866,8.364133783956827
119,2.38,-329.08050783357226,-126.82249972182234,-223.0729249432527,20.03530022403893,147.71690068774583,47.10358791942062
120,2.4,-348.8608835054516,-119.60392064955317,-220.2622061877378,35.084306151704055,146.05553878604064,77.8453347293179
121,2.42,-348.28018286911606,-106.95228567640618,-222.47525738824757,49.151620471380994,125.86898717828626,92.65100661778966
122,2.44,-336.1013952037896,-93.01871960347576,-225.43158663191076,54.6573694263474,91.50306746652149,90.39348236050003
123,2.46,-322.0657608105175,-79.93623779340543,-222.60817189143978,47.58936922965849,49.9477825759201,75.44355052192445
124,2.48,-311.5883472409936,-66.16700808739046,-209.71538996981315,29.661140071227145,8.101235031577533,53.97138739517918
125,2.5,-304.57610417906204,-48.33394176632892,-185.54089427091037,6.284238202272309,-27.86200295133498,31.495542056314864
126,2.52,-298.030514716377,-24.797098922004736,-151.22630494353967,-16.700241774648312,-52.606723790367006,11.712796387833814
127,2.54,-289.3771258870263,2.384046445955303,-110.59114229810261,-34.729066154943595,-63.01303120068551,-4.697677806549368
128,2.56,-278.0321825407573,28.45485487907294,-70.3411364951893,-45.01956110959999,-59.84582534269728,-20.440169412906585
129,2.58,-264.4559327340147,48.41660622541749,-37.828971733805666,-47.090339201807524,-47.706419868743126,-39.29832592650293
130,2.6,-247.59771230191816,58.932265759356326,-17.128920920891506,-42.66273141750992,-32.95610574586256,-61.97337752887759
131,2.62,-223.34971607553973,59.3594812568839,-7.049434179009906,-34.11090805085706,-20.84651843240941,-83.87709025516644
132,2.64,-186.5131390599455,52.35312003711668,-3.246318612179563,-23.027097612531286,-13.282821892166766,-97.44590381222594
133,2.66,-135.14745288916222,43.348738112527634,-2.1101725249857703,-10.860878310473979,-8.515215141071097,-96.62767028138717
134,2.68,-72.9082347522909,38.02752892275178,-2.3055275419692562,-0.3864806137193777,-3.2264757327044586,-78.86966184601354
135,2.7,-6.988287771332832,39.152888927449595,-3.370215875958271,4.990612660886651,4.507652237862087,-43.7929740354112
136,2.72,56.03749263121573,45.65278556336096,-4.485105346652036,4.290595479767237,13.888781901558351,7.71676017680601
137,2.74,112.85832290613968,54.623409675638115,-5.096856736039668,1.3979772908400827,22.565950390832754,71.81169774034814
138,2.7600000000000002,163.31016819563644,63.8416459311577,-5.586173299932788,4.448297979618831,28.890528592314915,140.05683489633157
139,2.7800000000000002,208.45344752551665,72.4144685103611,-6.310640001545061,22.364786461400197,33.2971920751447,201.30324389329468
140,2.8000000000000003,248.49892170776542,79.65827603871158,-6.146087792326135,60.38143032198654,37.89956245919457,246.4657852392234
141,2.82,282.21493814751386,83.8558419551652,-2.4912390858764915,116.82833265432485,44.74993738106443,272.4268310269018
142,2.84,308.72656190040027,82.15389141273718,7.223230757368428,183.21798028684975,54.09293740815154,282.34539845071555
143,2.86,330.7618554016613,71.92940250711135,24.238065529591672,248.11663615847033,64.00221797681505,282.9487157488165
144,2.88,356.43453014040335,53.27805912235999,48.30269946365073,302.7430355035674,71.98088833249658,280.8769842931526
145,2.9,396.88077274281807,31.26905258367848,77.46102894252122,344.8033927411278,77.71976098939405,279.1801225511777
146,2.92,460.1311592800521,15.53281362926927,107.40324718159054,378.0894214213879,85.1097323612942,275.1953676597667
147,2.94,544.9076862654435,15.723752743166404,133.77915421089503,408.02095219678097,101.88108466886368,262.9842880126593
148,2.96,639.0460283160802,35.101604239857856,159.49435107039008,436.03941927142534,136.54160093162665,241.49774593074054
149,2.98,725.5753311442522,67.47116985777478,199.3137763604297,457.2164371665276,193.2140248318043,221.6112011793345
150,3.0,794.3379004907847,101.0454628586075,270.4999794800768,463.98702984117676,266.2790288532967,221.49899310698748
151,3.02,849.4117455313403,127.20463547905854,373.4502557464842,453.70513336979207,339.53458613502875,250.39378924593677
152,3.04,901.8789010862413,147.5699811519484,483.62204257993227,432.4778131541661,394.50737207806384,296.17608079429823
153,3.06,951.6988422572335,173.6667088568028,567.7456328816872,409.8970404666828,424.51664065101716,331.72581120879124
154,3.08,978.3812908581717,219.36440164758037,609.6051654895862,389.28694123751313,442.0891592744771,335.7150636661012
155,3.1,954.4560209458934,291.8164396941394,618.6944731659652,363.94224773602525,471.02827337115093,307.8882135739808
156,3.12,871.5676371751563,386.90578355786863,612.8511137045257,322.6883548804258,529.0954063562765,265.33513784524797
157,3.14,755.5192898588515,491.6449961880678,591.7228638704136,257.5909147262373,615.2981249665747,225.5742775457315
158,3.16,656.9979544237613,592.3764374321357,526.9760393232925,167.07570881863433,709.6873362823942,192.4791006986746
159,3.18,623.2845398556253,684.0852722170248,381.8269463736207,55.5213907008613,784.0116394753525,155.40547412506444
160,3.2,667.5758967299821,773.3472390778046,147.02609013505628,-67.70179056527724,816.8178119020249,100.21390275481559
161,3.22,755.2456888671561,870.4783446646679,-137.1276121237642,-190.39491309414558,803.8702892944223,22.538256882399438
162,3.24,819.0782580700088,975.6494282123517,-395.60615689124234,-300.9455546308202,755.1060637362045,-68.1403320931374
163,3.2600000000000002,796.3120547760418,1069.6729488372043,-563.2172526046804,-389.6291543631819,679.5508502376512,-157.58860908280576
164,3.2800000000000002,662.1704458314205,1116.6554347820372,-624.2997412668863,-446.675242768763,573.4768246965023,-239.51161824940573
165,3.3000000000000003,437.6493845821968,1077.823751515759,-615.3627569229855,-461.3865049094951,425.7335391277377,-317.5635713418883
166,3.3200000000000003,171.73800913275068,929.688097232986,-591.6229096795287,-426.363278685115,235.2913383850376,-394.92349237957217
167,3.34,-84.81618628111262,676.6846946149867,-588.7354097991142,-345.2716999978271,22.301453504291874,-464.3721147151075
168,3.36,-298.5378319631868,350.85013239497187,-607.9532492335206,-237.78061093092177,-178.52839224749545,-510.2692925953344
169,3.38,-458.6645019215133,-0.6553244377450653,-626.7554292814051,-135.1382573164945,-336.22798931334097,-520.2319184430783
170,3.4,-570.5887694848765,-332.152692236779,-619.4772965236552,-66.65552932212847,-439.26684386747695,-495.56762403412887
171,3.42,-645.5259251766786,-611.6437582737583,-573.1651012486667,-46.91134551301708,-498.35990321171795,-452.2820978954728
172,3.44,-694.6561305867748,-824.1121200881912,-491.29645690483056,-73.59696038833187,-535.7807739127683,-412.8193817964319
173,3.46,-727.6038011435545,-966.9003780823474,-386.5941594904749,-134.86416631545964,-570.3186078275564,-394.6609395191109
174,3.48,-751.7491311248364,-1042.5525496741025,-271.8500552472504,-217.80144966335564,-609.6200099520647,-402.3719819413388
175,3.5,-774.6255633260164,-1053.690855008859,-156.5706462554967,-313.2433034458596,-652.9127688166818,-427.01800983728515
176,3.52,-810.1310774587909,-1000.4765237596553,-48.19357506991039,-416.70226455778334,-696.6357898885972,-453.6653856093999
177,3.54,-878.7879697537621,-881.6596060122229,47.4123308664751,-525.5576504799349,-737.1095521384941,-472.66279262997597
178,3.56,-994.2710816096705,-702.4957941712233,127.10159759499088,-633.1325402188004,-773.4695825545015,-485.08982242630987
179,3.58,-1145.8320897740434,-487.15536740841287,191.2747956659374,-722.4932827872128,-812.9894221006248,-495.56795679167
180,3.6,-1294.7996781755662,-283.9807944616421,243.97962471456782,-766.124772325543,-870.6150580995509,-498.53913036812827
181,3.62,-1390.7313038688649,-153.3544962478906,292.14755689126105,-737.8224535922732,-956.5967992043647,-473.4257446881617
182,3.64,-1394.3633601810216,-141.15101244926248,342.1317836446469,-631.6902524015841,-1062.891633167801,-397.1858336062435
183,3.66,-1290.4524793311798,-253.14604147115273,392.9955637772498,-469.6910651247314,-1163.8537977380151,-266.20484672268293
184,3.68,-1086.5282444348763,-447.70740005111577,431.14297310372535,-288.04048052849595,-1229.8048686236689,-109.32587242980327
185,3.7,-806.6088372518791,-654.112416712092,434.1198873067881,-117.12343985644868,-1238.8002478154317,22.219249230782907
186,3.72,-486.7040733640867,-806.5366387954389,385.5571775256135,26.067205046853147,-1179.2445087275867,85.78058810136434
187,3.74,-168.94375156514582,-871.3865559700089,290.70285049702227,134.15057183440427,-1048.0416967809665,77.47427084745888
188,3.7600000000000002,108.89302612166529,-850.8565024196694,177.62033612562325,206.73357335482888,-849.0805088894837,36.093507761169285
189,3.7800000000000002,322.581962837844,-765.5199906646533,81.61519569464954,250.93064446033526,-591.342169114374,16.81511445821711
190,3.8000000000000003,461.38521017692375,-634.6423966420338,26.675943368472616,277.61104860862287,-286.02361390164947,57.83664798939403
191,3.8200000000000003,520.3932519111063,-470.0618318929203,18.340266604492108,292.81547678907987,54.067195893839056,165.80835368099946
192,3.84,496.34997627335764,-282.86308107390744,48.073175341589334,294.10542427236885,409.83109245894934,323.15715542551936
193,3.86,395.04957685152135,-89.9252704209472,99.13847320198715,278.7788763042637,748.8099786498583,501.1076095063015
194,3.88,243.9923287316348,88.36127735113324,149.46442667279638,256.67244594379997,1024.4042068818242,666.9015721165072
195,3.9,93.04841047786407,234.8208580571075,176.43368810810213,252.051986074657,1188.1161293843718,789.1383583523746
196,3.92,-5.053658345440411,337.76291308007774,165.26811466851615,289.4846667161379,1210.3151695372662,846.8004812912865
197,3.94,-19.37481985326677,388.51159326868833,112.97764724997137,377.0014245628914,1095.0391296639816,836.2776112987383
198,3.96,50.93601691815587,381.6447115442106,23.299442710680996,501.8552758772646,878.9009539854499,768.3553461009947
199,3.98,183.64043066498445,320.50817836837734,-97.31157131549517,636.7161932486417,618.774146693653,659.5168385908057
200,4.0,338.57056774213595,220.92092963343276,-231.0064130033872,745.5313792649272,378.4309859356318,529.4784381932233
201,4.0200000000000005,461.9551692258922,107.4074914465364,-336.5948399486497,791.8199703821169,215.91662288016275,405.6491252473742
202,4.04,506.909640937018,7.529418865800377,-360.7951083639867,756.7468758324637,168.39259324287755,319.4937629571988
203,4.0600000000000005,462.69501184862963,-47.83781612025314,-278.637638283029,652.5113323287164,239.0954503925966,285.4313901541031
204,4.08,359.8493080295664,-23.6766095664996,-125.7025449450392,509.8465413590765,397.22551539627636,280.07714013531427
205,4.1,242.84300718635726,106.47496355093527,20.72659381050086,351.82395339132717,592.0600935732411,252.81273187073367
206,4.12,141.95001282647013,334.35759457689676,101.2278115215999,187.29347807946792,768.9281852216509,169.37106652985545
207,4.14,69.61237537415897,600.5404434084561,115.37308602228833,26.08319386458293,877.1748672849874,46.65144281577217
208,4.16,29.78354762155943,811.7257651611187,105.52247212429478,-114.79800900082654,874.8407927954936,-61.449523552262704
209,4.18,19.060587816493303,886.7408578959293,107.06890611041611,-226.3052171124766,738.7891701807457,-115.13463753804277
210,4.2,20.82929869001822,797.1085004756703,117.88781491317232,-320.93791890325497,477.7029708086335,-124.82983974472329
211,4.22,8.58266147199042,572.8576486167478,110.36435615273246,-424.41468337892917,136.6532938511766,-139.75751246802923
212,4.24,-37.41531014967616,276.6998472637267,64.78474605921654,-554.9572811639504,-214.1651082770032,-205.80493322347877
213,4.26,-116.0415306557486,-27.583072826408515,-9.92173210992846,-712.3742464330871,-504.5297650382365,-331.3677704207522
214,4.28,-209.13500467136342,-292.8594177100287,-81.60230337514349,-882.143074218142,-692.7754331518012,-482.61179718465144
215,4.3,-296.48058094072326,-492.0511471055129,-115.8439018389176,-1040.6179380017295,-781.9282641110506,-605.1584220934498
216,4.32,-363.35887653098166,-616.5528606319981,-93.9274269675537,-1153.5695388862139,-811.0047543755973,-657.553151868631
217,4.34,-397.66733466247746,-673.9505721592782,-16.543674206385866,-1179.6653500254558,-825.7880578436327,-637.801588517288
218,4.36,-390.9488742413739,-681.5474612486864,105.09509043354672,-1089.7512774274735,-850.0131469398251,-586.1794477184487
219,4.38,-349.7236139899789,-654.5889385301896,260.9728649308863,-889.9765648095342,-876.3815010086711,-561.9883777295158
220,4.4,-303.39713991968244,-597.2111282061655,447.6448241726228,-624.4901076786768,-879.3449547138989,-611.6807817400288
221,4.42,-293.03453023559797,-505.51290196501554,664.2647030109047,-349.95980569525096,-836.833337533742,-750.6742239506387
222,4.44,-346.3702900585948,-381.3614220210022,903.7115313560528,-102.16737105257238,-746.4129646253161,-965.6888956174192
223,4.46,-462.545653985559,-243.94961710953936,1147.0175368887722,115.09057278430794,-627.8819791500514,-1226.4727045455757
224,4.48,-620.2178475144973,-126.47621869268497,1364.4484698298324,309.27125418768514,-512.2820462451594,-1493.7820347175978
225,4.5,-795.5084485759228,-58.631501029488334,1518.6519804385475,469.81378144331256,-424.6060118010178,-1722.4095778808623
226,4.5200000000000005,-968.0708374212827,-49.50922161213383,1567.4953166171927,562.4449502607561,-371.6231264738038,-1866.538183294288
227,4.54,-1114.7531534504005,-85.09105470664754,1473.3116050389297,552.5982935513309,-342.75572624012625,-1890.1601678763795
228,4.5600000000000005,-1208.411953564951,-139.9719347371977,1221.6495639465825,432.900482404786,-321.05112199161306,-1776.815206197964
229,4.58,-1228.6852474983752,-191.83026409272566,836.1780169141748,229.38963264167626,-292.9799208526779,-1532.4581114560688
230,4.6000000000000005,-1171.3153503953724,-229.59145498765244,372.94820222510816,-14.276496979811796,-250.01220164794125,-1181.1264968864953
231,4.62,-1043.999010361943,-253.47609492349758,-103.48129009200457,-256.6679347732568,-185.81965973373173,-757.0350186806481
232,4.64,-854.8747434188842,-268.20853673914365,-541.7557350123953,-466.5034717822954,-95.25664184259107,-297.139839177426
233,4.66,-607.2050668540094,-272.8058824948943,-908.7068482060107,-616.6152446616254,25.758551701263876,162.98131996246735
234,4.68,-304.61402553725486,-253.68411348576052,-1182.4098967748648,-675.5148679631556,182.38221500381684,589.7883735636316
235,4.7,38.639462599229795,-186.9696579666398,-1346.669114261903,-611.7454145902102,381.46051104845816,951.4220682178943
236,4.72,391.26033115209816,-49.78340216219811,-1391.7702045961876,-413.23573258072133,625.3012221353438,1218.7455897080993
237,4.74,710.9870199545071,165.18050742851977,-1316.8585077470684,-104.07887994682835,901.7053735152417,1369.2588233997071
238,4.76,963.4755447580663,439.1435746412111,-1131.3690086365932,260.6166458744583,1179.958097587582,1395.4405222897267
239,4.78,1139.0107099096226,727.4393082770443,-858.230612199259,618.8219005625642,1417.8746074942942,1316.3629090513514
240,4.8,1249.7193489079623,973.1745721053783,-538.1815808701526,922.9187986072375,1575.6859338725178,1183.9632137026072
241,4.82,1311.246354615168,1129.3142875174149,-227.98011483578068,1145.0884634234412,1628.9371282738962,1072.046548727339
242,4.84,1332.3140796987507,1177.6909562694314,12.678481312573098,1274.4641203546666,1575.692245602922,1047.018971125483
243,4.86,1323.339065061838,1134.7420462110222,140.92048493293746,1316.3791147183208,1437.136938729826,1137.4553333251522
244,4.88,1305.8175809934323,1042.0317585376242,144.26823948237694,1288.4260260823896,1251.7446111429947,1323.7365445181
245,4.9,1302.454413629587,947.9799603048001,36.80971682434549,1205.2404035932539,1064.0889479717418,1552.2752771630248
246,4.92,1320.6226448346401,889.8597675107128,-159.48995502705492,1064.632206008902,911.8171715454064,1762.071307195576
247,4.94,1357.345690266225,881.939928841924,-431.8536503752521,857.35674887358,814.8573627535877,1913.1141965698475
248,4.96,1422.4105632511705,911.9535296775891,-779.2037651290904,595.707971968381,768.4058365353053,2013.5527535264155
249,4.98,1545.144468629091,947.7351757062339,-1204.82199520802,326.34680396749707,740.7790400540298,2135.137350032259
250,5.0,1749.593780604483,955.1972661820996,-1712.1037845933993,105.20310344685768,679.8509048473925,2394.6246423962484
251,5.0200000000000005,2021.4905187719432,921.0585196988993,-2306.174885979528,-49.874424026759094,528.5222641130738,2890.6152243429683
252,5.04,2292.048699078297,860.3852633075949,-2993.1636597364272,-195.83392341111374,237.28090887862135,3620.0675547127253
253,5.0600000000000005,2438.4654452894843,789.5079351403084,-3765.918880025572,-460.8486307535139,-240.24801781860458,4419.8751467148395
254,5.08,2295.8121292564947,675.1904007964808,-4558.127411121513,-975.0799552548377,-955.5837433361378,4960.991676787264
255,5.1000000000000005,1697.925596996473,414.17917540925663,-5153.092231942929,-1739.2936482066798,-1931.395663025175,4799.778175405672
256,5.12,580.4217067183024,-99.57199725816014,-5112.536197222543,-2518.754301484058,-3063.30867974626,3523.0422111112885
257,5.14,-876.8264506880842,-843.5341205642166,-3933.2590225002955,-2921.5740402853007,-4039.281907210768,1040.6148686579695
258,5.16,-2212.281874153111,-1605.4550462089437,-1552.3724258151365,-2702.3938772887527,-4429.358291775703,-2103.65349530827
259,5.18,-2895.9458958448267,-2113.1457884243755,1223.6726963164656,-2023.0616592346169,-3971.384847667744,-4797.552221088158
260,5.2,-2691.1072479701224,-2269.2322294760042,3120.8007614117028,-1321.5805631942592,-2819.9302446546267,-6016.070235257646
261,5.22,-1843.2258708465004,-2225.554963808928,3527.8967256747583,-885.3317036721808,-1477.7366862966362,-5581.659853938287
262,5.24,-919.1217858361645,-2177.9498314743705,3048.5616765001273,-641.4432236485754,-434.19329337721257,-4240.567652626956
263,5.26,-438.23599584313394,-2119.3920120479793,2690.5313020655813,-374.84333369493675,155.69303683155871,-2967.286804031618
264,5.28,-560.0607883150242,-1869.4647843224834,2758.624979202728,-10.18925672517534,472.92538342274406,-2248.172533757281
265,5.3,-1029.0956027823022,-1338.101924149054,2834.25768865796,371.96742475395837,761.7008499058186,-1978.906876407796
266,5.32,-1423.7241690442843,-674.1467371583229,2566.8375427179217,673.212706924227,1074.0137174121564,-1845.1877162926394
267,5.34,-1502.9583134427367,-128.8834728518206,2077.0151686879162,844.4609620368616,1272.3765880896606,-1668.1774241687508
268,5.36,-1333.4593095978194,166.95905040357607,1668.60908395677,868.3250489092384,1235.361844686089,-1451.395057263098
269,5.38,-1121.176033410872,268.28332811963423,1469.2069736230785,755.9575073655225,998.8491642948052,-1251.2497863024664
270,5.4,-980.6045310261264,312.1978997099666,1405.9553093989084,583.1858173544706,695.6116152259269,-1083.6992246025627
271,5.42,-874.1941103162621,390.18828941804185,1364.703551979577,491.45270957358804,424.6836926424318,-928.0242964994382
272,5.44,-719.8301161778456,502.2595404346416,1286.6565203225869,595.5974835508401,218.77910511537274,-765.2470784343565
273,5.46,-505.85629678190196,594.6617888462865,1160.0993141217077,872.3705076755714,96.10920137628605,-597.975044999167
274,5.48,-295.8043045696415,621.0769338100376,983.5557195092417,1167.9832124541258,82.3401935690059,-446.45420757721416
275,5.5,-148.93706313971373,572.7142919207922,754.1538732238064,1331.6289357500286,172.1219867467443,-331.10817495334516
276,5.5200000000000005,-62.97415770259848,469.7577816978087,477.938647744268,1328.619682162835,300.0005433389614,-255.5811588894373
277,5.54,7.914693239770521,340.33385482761804,178.33416841848907,1228.0102105618412,372.73900020498036,-205.4645380454121
278,5.5600000000000005,100.03215751289855,206.20371086550205,-107.6844155662504,1110.6751496738582,333.1391776237771,-162.79516355743272
279,5.58,210.08888592326173,75.78228184916112,-340.1648277667574,999.7132556538646,194.42555381109494,-121.19069560319556
280,5.6000000000000005,302.81120309548373,-54.88344485560006,-485.89593759681185,858.7078504537517,23.98457625128666,-88.98992435685041
281,5.62,340.0691414113239,-187.7115619070395,-526.6797504819831,641.2089769667308,-98.9155883318706,-78.20668050879021
282,5.64,309.7071185341774,-302.4731613155122,-465.7311209877189,347.05923451121123,-119.45741156154064,-86.4629361142149
283,5.66,232.29643022380145,-352.7411669688131,-325.9274152320661,38.67356455384444,-23.645482763137956,-88.04238942569644
284,5.68,140.31491336867012,-288.64869280085054,-139.00108557235558,-197.2200477358491,163.5066168875505,-47.48922014491758
285,5.7,54.321824773535006,-92.77628809555276,62.96658843072231,-306.3583366441446,390.59558216654386,53.29352310183525
286,5.72,-17.742933485173218,196.42485638134553,246.67191775093303,-293.2439363399245,596.7204189113451,201.03215129398697
287,5.74,-66.64916178682674,493.2323606713776,376.9708814010593,-205.4206623849982,729.3789172651759,362.9650250299755
288,5.76,-79.62925669235335,704.5912959003898,426.8075627530949,-101.17638404654976,760.2726899773427,509.5788205626134
289,5.78,-51.96360083595884,774.9100239984641,391.32257297858143,-25.545805003711372,691.9012481705628,626.4780251156557
290,5.8,7.405115134166136,703.0783271155228,291.65120827901063,0.13316692808460928,549.4934509924872,710.3023640152076
291,5.82,82.97185576410833,525.344920727167,163.66099634668677,-21.979921620240688,364.4927651609971,759.4068235358416
292,5.84,160.06704230121846,286.96099716182545,40.723091121246895,-76.15735730214573,162.82531219249987,771.0108288200988
293,5.86,225.60250829845438,25.2884555757077,-56.69617360747944,-147.97060484759817,-37.14123339062583,746.2741510905137
294,5.88,268.3805079779192,-232.60448213101282,-120.62040584811108,-232.6521144014882,-222.75607383533406,694.7423903782324
295,5.9,282.71533278239934,-466.23132308610354,-150.5802966609205,-329.9784739605901,-386.27380383305353,631.447506263611
296,5.92,271.3837156691763,-658.6862447163089,-150.22368246746964,-431.46416467284644,-524.1642897322203,570.8850543699164
297,5.94,245.08288348827082,-796.4976386277319,-126.09524337254337,-513.1759433063204,-635.0033507861074,524.4898348574652
298,5.96,217.30452074964637,-869.8772929035711,-88.86346507529686,-544.9402047277626,-715.7167447196958,498.0983159079211
299,5.98,193.2066956619995,-869.5251293129554,-56.72086116732281,-513.375921376582,-755.9955155847972,483.6579595763965
300,6.0,160.98654869334058,-783.0631501067071,-52.816363380846695,-436.64609784730965,-734.1902514043338,454.87664583353364
301,6.0200000000000005,102.88045411047736,-600.4447079519439,-88.66218608326754,-347.9355021696974,-622.4957252749646,383.71052502904195
302,6.04,22.8117101536847,-328.6208709570045,-145.56210685258793,-258.5152668728266,-403.7902037303121,270.51992280647715
303,6.0600000000000005,-41.963058752643,-0.42569228975064544,-180.3082314029374,-142.40299445598663,-88.92829211370409,153.68338802828873
304,6.08,-46.58032442690427,334.3176872195993,-158.97761710587332,35.55397616654515,280.74044853064726,81.07246213471126
305,6.1000000000000005,22.044587926379872,627.5909463933726,-86.4883078539657,277.0759735894298,647.7211110172766,71.68581515347142
306,6.12,132.85664572741473,845.6359517430036,-1.796099639341037,537.8127161514805,956.9334909016504,106.32541333179924
307,6.140000000000001,234.63103108840542,970.8548088777641,51.9171407891411,753.3690807486748,1166.7604957461672,148.2399319659338
308,6.16,289.9422648852035,999.5963651215528,51.37922758823964,874.0143526083391,1253.0832855196845,166.52579789613478
309,6.18,290.59367179256475,939.7337803183163,-0.9565905656094404,878.9521996615213,1212.5276917284182,147.44862271459857
310,6.2,249.40251329933182,807.9941223316421,-82.25506617332285,770.3220843778954,1064.926719758142,96.18002738814418
311,6.22,183.969303008926,627.630352661701,-160.9079048613806,565.1894947163039,848.8820528885062,29.80517433677604
312,6.24,108.76262214354247,425.5644331052125,-212.97135694876962,294.833295160312,608.1336212616086,-36.99104997536472
313,6.26,37.02708847622819,226.3763805886686,-233.65800240601766,4.291692333203859,375.29691555454303,-101.40351686478996
314,6.28,-17.802567698182315,45.41540802109725,-233.01403677697417,-257.49086466426814,162.99605435875515,-166.79353811690945
315,6.3,-47.81557569728918,-111.94697765002485,-220.66950043651735,-455.62721789529223,-32.85335219009706,-229.60756212975264
316,6.32,-57.8103747940992,-243.69925666808874,-196.59756115112822,-582.5354034606576,-221.584287520669,-275.8505179048685
317,6.34,-64.41882160155521,-345.26020845278805,-156.19711698051373,-654.9627171202835,-406.5915394535565,-291.8731053071013
318,6.36,-86.33229483894225,-410.8701828525052,-101.07370861986017,-698.1065618349771,-580.8836327886141,-277.7230807896616
319,6.38,-132.67865803535946,-439.09108322965676,-43.152607035140775,-730.4931655280311,-731.1045461113838,-249.53417234745015
320,6.4,-195.87371453031756,-435.1250742954327,-0.027372259075946204,-757.3892319965828,-846.7159689657653,-229.61960916772486
321,6.42,-253.2657740575322,-407.8883248292489,12.607052801227702,-771.5182353481708,-926.769476428635,-234.021645041749
322,6.44,-280.2702620637755,-365.13963869638906,-12.55584982088332,-759.7901411102899,-977.775665256034,-266.61496684315637
323,6.46,-268.2929821349844,-310.3055391950563,-69.8116890764776,-714.4122818075809,-1004.4522781662605,-320.6828034020369
324,6.48,-230.47873631585472,-242.9756866242367,-140.36542982082403,-640.1477290037585,-1002.4765616722975,-383.9101557015335
325,6.5,-187.01377606108727,-163.06762423432684,-200.34636264644712,-549.662572527255,-960.0981509400326,-443.6805218124093
326,6.5200000000000005,-144.9816147283658,-75.65028349263486,-234.05140195392264,-451.42866942310513,-866.464728720854,-490.91036225323097
327,6.54,-94.32900985720387,8.028878927732208,-241.96268262900375,-342.58665950217596,-718.5387454022418,-519.9525551356055
328,6.5600000000000005,-20.86416133292076,74.81733877581638,-235.59295205393977,-211.19341450242885,-520.6658479531495,-523.8749112630483
329,6.58,80.60517364221012,116.24258392986921,-223.94457187045975,-43.039393922786644,-278.74815743443247,-490.66932934876
330,6.6000000000000005,201.45688176529552,133.19184862385197,-205.3286103804388,168.39205861889874,2.5813568242889176,-408.391013910218
331,6.62,317.3201902247013,136.64022677285485,-172.05734876482126,408.08990636160513,313.6874681570434,-277.93075490602007
332,6.640000000000001,390.0183939614216,144.15466042376175,-121.58172958026199,633.2493638008366,629.0444400953113,-120.0267973962984
333,6.66,383.0241692803481,171.8296030405461,-62.414516362737615,789.8819413914531,904.2086560645525,33.98445712058712
334,6.68,284.6416216917871,223.2351033130769,-9.530474441294876,843.214729183548,1088.5726500403225,160.87449748439602
335,6.7,116.27099761002214,282.7964007029679,26.70223776010755,792.546862588712,1147.9968597760203,256.0834351548955
336,6.72,-81.8792928477618,322.3727052604536,47.55111285830388,660.7818069132184,1081.400130600833,327.2703707758229
337,6.74,-269.4709531763984,318.72506888978523,60.90553516546022,479.26506961510233,918.7362048518626,379.90074092528164
338,6.76,-413.990983806283,267.1190319286387,69.92961389986304,283.5585216094546,702.4292429209739,410.651660015702
339,6.78,-493.8327651194279,180.25042824510854,70.26778669939597,110.40849595920886,467.4238795391957,413.405224586779
340,6.8,-504.31707453297656,77.2777079714781,59.70170141899786,-14.778567001250138,233.57114880207504,388.6993082407
341,6.82,-459.8005229179285,-25.36687877302972,46.967326885718784,-89.58019910334944,10.260779956071874,346.22420684652707
342,6.84,-384.1397437232051,-116.71492930710079,47.81626426230419,-130.3319893506511,-196.68471813374953,298.631172113773
343,6.86,-296.975136877931,-191.18284211537554,73.21063682309273,-156.24506517790147,-382.56855593289066,252.85128579146885
344,6.88,-209.0741586617646,-249.62069378873503,123.04242255104643,-178.5347495832287,-544.6014967986152,207.4398865873784
345,6.9,-127.67600169290708,-300.4581121242662,190.21710205476887,-200.94903740773952,-682.5586583250097,159.8492213008297
346,6.92,-60.732474542992406,-356.8891729372131,267.3158975530863,-223.91599389580588,-798.0637843453138,117.13329312038582
347,6.94,-12.827280342307262,-428.7253416445444,346.08397492667734,-245.67780094264577,-891.8398884014331,96.98214299766964
348,6.96,20.55156804985929,-513.5425915046949,410.8445890247612,-263.89321633872476,-958.3163255340686,114.43236308926136
349,6.98,48.46335944590236,-594.3544171489905,438.2153659215292,-282.32179915226357,-980.0595029707561,166.9603896857335
350,7.0,72.30946993842873,-646.1560908653005,410.8505123081131,-314.0968080736965,-928.5545288039441,234.76390165491455
351,7.0200000000000005,87.06213846909338,-645.8480343437167,333.70673893952375,-364.93122413084956,-776.2351074680852,295.5630946421293
352,7.04,104.13432579966009,-578.3326433206025,232.35209482122133,-402.86255859599885,-514.8573234754527,336.226496121983
353,7.0600000000000005,162.5568786567791,-437.63959275262687,130.92744510649823,-357.6946321610233,-166.11837251600173,350.1390714008215
354,7.08,293.2162223917287,-227.26077234215097,33.00789303036538,-176.06093551391052,225.03856485442188,329.9517701110737
355,7.1000000000000005,468.45267589346776,37.42893160289047,-71.46747104357,118.16635037417502,607.4615972932589,271.79189774523536
356,7.12,609.2486487621788,326.2322034155953,-179.48667809123012,433.69446549028135,935.9823723528038,189.95638669905725
357,7.140000000000001,653.5851519736561,595.2081204530007,-260.2483089991963,684.0232746150969,1174.5279918591946,122.03038085697075
358,7.16,606.3633718506583,795.7528133375589,-273.2105741826674,838.0104441066478,1298.4753012692927,109.51761328351381
359,7.18,518.9234658741107,890.1286318719642,-203.50584069846263,905.3016176788187,1300.3205496827331,165.20260407135385
360,7.2,435.49534693051004,865.1238431526996,-81.63631014823908,897.9067427033789,1191.910191788186,255.20508590285257
361,7.22,366.3563410723144,735.3467777567854,28.244760087466723,817.5677087072427,998.04868444222,313.2135468020938
362,7.24,297.3573843622403,534.7148858634611,62.36171645859699,666.5078783409629,746.7456597215644,280.01789800177943
363,7.26,210.5908126468537,301.99020538451686,-5.468136193896555,456.11081156460426,464.31152382971277,143.12915808913783
364,7.28,99.73386207001334,69.2987393813769,-145.1067256958873,207.40275676342122,175.98926892824267,-52.64034639593734
365,7.3,-23.664816404307153,-139.91878498224446,-287.34553634251927,-50.51614064259844,-93.99521325464787,-235.92977237959195
366,7.32,-136.24239689734839,-306.09905353919646,-369.9950569779424,-285.94080170473046,-326.8981920341406,-358.5610288212887
367,7.34,-218.80390943776456,-412.1543468637259,-375.9540615195259,-476.7618230004611,-514.7287879415132,-421.79111247241275
368,7.36,-268.82900941162734,-449.97691778584885,-331.66931245580065,-620.3456327212707,-659.7267870270351,-459.8906872020617
369,7.38,-298.63169478977665,-426.2213292346442,-274.779842315789,-730.121670392436,-767.5720369064477,-503.6317568488299
370,7.4,-323.7959583747275,-357.74613178155386,-226.25592487244654,-821.7476804793223,-840.930960344481,-558.3074206431974
371,7.42,-353.4088344470344,-260.2316935139116,-187.0885241550845,-900.3207825606416,-878.6823464983568,-608.0601379771662
372,7.44,-385.3935172218054,-142.20777551980586,-150.4448751127819,-954.5757764517059,-879.4839287705024,-634.1517110079105
373,7.46,-404.9386627342607,-9.701995617886185,-112.218777367928,-959.2076850018143,-845.4250080438484,-630.2958683179802
374,7.48,-390.0383138909648,126.29095626424763,-73.69710815397653,-887.9626942612526,-783.2059640760763,-606.4981692950012
375,7.5,-327.8400672684893,249.96424804655203,-38.6646721393629,-734.5217386099544,-701.4624513351959,-581.4289282799948
376,7.5200000000000005,-230.12778478208423,348.5142889525297,-8.333273002810836,-524.8064599789054,-604.0146325772683,-568.7545673265433
377,7.54,-129.22124350188767,417.740423937242,21.753439969526134,-304.85955181340114,-483.18044792908734,-566.1059558232638
378,7.5600000000000005,-54.1496950024561,458.6145173394343,58.46228968271075,-110.22279399769765,-320.917357604946,-554.5700085170386
379,7.58,-8.802664894709906,469.42396018657683,102.2966058468089,58.655134155977905,-101.36611768875423,-510.3192960522432
380,7.6000000000000005,29.479297691382843,443.0207880453514,140.71369794838108,235.61041131137475,172.09583649121026,-421.73194817749425
381,7.62,92.33109221335104,372.3537276967961,151.40750055632378,462.27983094083874,468.6031501357858,-299.77579666281724
382,7.640000000000001,196.00320743917814,259.08192026629183,116.352622455067,750.5458753240197,738.7070727583634,-171.29168883543858
383,7.66,322.0077282407702,118.16609921184991,38.34431851624839,1056.1823106587085,935.8958219606579,-57.96914973326413
384,7.68,416.1932482055398,-24.94734547815798,-53.18208157167958,1286.6211000359212,1035.926555436115,40.68446781810166
385,7.7,416.7844948652912,-143.14641270644614,-115.61127866359874,1349.4033656732063,1040.6380422326436,143.84182536541604
386,7.72,299.25856949247566,-218.14350946665297,-119.30531780947697,1213.4960919147197,966.2695057886356,269.4183496608508
387,7.74,101.16080305336448,-248.0625028339643,-65.362593967003,933.5872084360374,829.7348922058025,417.34681300635145
388,7.76,-99.76371768086999,-248.69521811419884,21.322561428330303,612.1426805963138,645.3229550399176,569.472266055185
389,7.78,-238.0855734850157,-246.4839604926816,114.81120462175512,330.2013050489719,429.87588330900667,702.1306897371796
390,7.8,-298.7476967882757,-264.8242883497816,201.44067283157966,106.764461382865,204.68985517050677,798.2433928787596
391,7.82,-311.1153539634828,-311.0225060678604,274.1892841518465,-84.25954169941856,-11.000552085086788,850.797129581687
392,7.84,-312.12650024066244,-373.0847073524467,324.55233466725366,-267.1092520098853,-207.40486514302592,860.0964172442343
393,7.86,-317.1892045007161,-428.4419235560006,347.1374109818024,-436.5505346368857,-383.44409340838484,830.4477048448291
394,7.88,-321.3999613452808,-457.12104967422533,348.3889618830074,-568.7023047365442,-539.3901593697699,766.9841722585168
395,7.9,-318.1490484559603,-450.5115621008,342.6771090281734,-647.8075678147534,-671.6611465096627,671.7898036180586
396,7.92,-307.7884968307781,-412.885972496358,337.45957922198284,-676.5921861320476,-773.9519196390689,543.8315938962924
397,7.94,-285.92270278870427,-356.97597016857424,325.01404188897004,-660.2464622330456,-840.1730870657902,387.470746676192
398,7.96,-228.02160162802886,-295.5306407352164,289.87212753704097,-584.4792505914061,-862.5188526576577,223.35561842942585
399,7.98,-99.27519799370293,-232.55965122498603,223.38277104857985,-421.75613285325886,-823.5929886886712,86.7061121221056
400,8.0,104.6569453708191,-159.4811180368289,133.1864633806883,-173.0108948548044,-690.5779006166606,7.709778797648582
401,8.02,329.00111718667347,-58.07689118585263,43.55609402076752,102.37273942931293,-425.1262849327162,-10.13980370525902
402,8.040000000000001,493.0958872073701,92.03620140797578,-14.291235935220456,321.05841398704854,-13.835928280291995,7.486739359404379
403,8.06,561.4135305145307,302.67432859367136,-21.67649664701423,447.0601917674427,499.7451549872957,24.56763885548392
404,8.08,567.1992010594772,563.6206061411997,10.514286270585627,511.960937440405,1013.715428165694,17.56011171562816
405,8.1,560.1956362088631,833.320566830879,46.6721692858023,560.0086529643555,1407.0030458459787,-14.213035559024732
406,8.120000000000001,550.0919277273983,1045.038013841663,52.779004534927886,592.8125566154071,1591.3312224079878,-54.709233069685084
407,8.14,512.577461554041,1130.9594309959048,19.19441579295857,575.9313860320822,1538.8891968972725,-87.39432421720498
408,8.16,433.1863913141216,1052.350742611654,-39.88927240400956,480.7794819696819,1276.0797557578558,-109.6842076268496
409,8.18,325.4379037266139,818.4721206434521,-105.81320801689458,305.6848172572978,861.6039445926908,-136.05326415177174
410,8.2,210.6682359015284,482.7597653645425,-174.52114643474818,66.88498341035594,367.4761591634443,-188.06829568328303
411,8.22,96.118955799552,117.79854257814061,-257.73907611775826,-213.69239340009892,-133.72078053670833,-276.81053609864216
412,8.24,-22.837104750232637,-214.42645324794648,-364.3750738547981,-508.6883776900603,-578.90622141271,-389.95461842463425
413,8.26,-144.8922060019624,-477.09901342090836,-481.6319146485684,-780.6756023399294,-921.8702768224796,-496.7854777254688
414,8.28,-251.45496665966672,-653.4956995751982,-577.7226408081958,-984.8159642955517,-1136.0651407528412,-570.1887550552815
415,8.3,-314.79014454195345,-735.3914574009627,-623.944113049135,-1083.5094448741697,-1213.8972305427274,-606.9091323791656
416,8.32,-319.65526466441963,-718.7202557622381,-612.911209482844,-1064.670192750365,-1165.1468994469958,-627.9214873312571
417,8.34,-276.61971418652433,-608.4940446504363,-556.7496799578465,-946.0525491738993,-1014.9290848569021,-658.1867862242528
418,8.36,-212.2763998337253,-426.1908901459202,-471.04016127384955,-757.7872158851084,-798.9198883648597,-700.2929924015241
419,8.38,-148.25345888263317,-211.8111423853993,-362.0241553609096,-518.1305820332304,-553.5105211240866,-720.4720833356612
420,8.4,-91.96167391805986,-16.109002212248292,-228.6726428006595,-225.24045476425843,-302.6036296695137,-661.0112774966078
421,8.42,-43.8160110479237,116.20020578845062,-76.10801249840557,127.99690834822047,-49.671181718209446,-479.30885731897735
422,8.44,-7.859977402300663,165.40968390495811,74.28514188593165,527.9972792764435,214.34508937605995,-189.9454308503522
423,8.46,5.320198951453634,147.10349100677797,190.19546394809953,923.8500885108372,488.39493792692383,129.43910579157864
424,8.48,-14.093544307536707,104.89929236882057,247.4337330142763,1238.0171522819594,743.5867383351108,385.1961095494354
425,8.5,-62.043691441956526,86.57541857045338,247.91061642455878,1402.5712454481618,931.5343541956158,531.3175949139928
426,8.52,-114.27479117535957,116.87089767571902,219.7073242973153,1391.699993270768,1013.9014594025689,590.2556095638436
427,8.540000000000001,-138.00692584106196,184.4609005232623,195.186123926592,1222.603873833678,982.4890951266829,616.606717506156
428,8.56,-114.02208494185385,251.1371923578964,184.94398889641874,933.063063887166,849.0634357186996,650.228050212208
429,8.58,-48.442186724057834,275.70384326157625,174.4244622211175,564.0687724468513,619.8237418066606,703.6726108704685
430,8.6,33.39856830427054,236.3802468893784,148.40742812545048,153.95868815726925,285.883200078854,776.015185450702
431,8.620000000000001,100.307586772694,138.23977741026812,116.86433878427924,-268.14038880867025,-160.00761655618209,860.0004121499969
432,8.64,125.9453846301392,2.2589976661109255,113.68360805431632,-686.9890070276081,-699.1969657792524,935.3226407941572
433,8.66,93.71158995359167,-155.6081329671036,169.47865399432,-1091.5605113234506,-1276.9193326179516,966.1135625511525
434,8.68,-9.334301283980174,-338.93708506770963,283.7480124861635,-1458.884906625878,-1808.0547088879316,912.4372460305132
435,8.700000000000001,-209.3497587266564,-565.0236866767804,419.4741195471573,-1752.966684899931,-2186.4980288353627,748.0355962627305
436,8.72,-550.0791339712285,-838.2615367119014,525.2509245432661,-1933.4076896891472,-2290.5413834054484,473.3750881990467
437,8.74,-1052.551786069282,-1117.667816295471,567.5200722447066,-1937.767816210493,-1991.3782300269115,113.50715904938015
438,8.76,-1643.7940235067442,-1302.5892879998923,543.4088807642979,-1641.588383951358,-1183.800263757725,-306.04886255254706
439,8.78,-2133.4179649086545,-1258.620190126937,464.604590264452,-882.2574865744448,146.57757812353987,-781.37830879903
440,8.8,-2296.605772573721,-884.6939394006838,335.9571982491398,402.763464577327,1842.5906281961743,-1301.2881309865602
441,8.82,-2004.1246312162907,-185.2913120252726,150.28821530364525,2048.151952172007,3552.8530355938647,-1776.4179848490317
442,8.84,-1278.349524240442,704.6267252640278,-103.91200305226707,3711.6174482615033,4828.123384538696,-2021.5180669091023
443,8.86,-248.09421395456584,1561.051660943212,-424.5863724555129,5043.696931750979,5304.398729085275,-1844.2561133537342
444,8.88,911.0776716116379,2149.4089976796226,-767.2101019391293,5753.038917950593,4854.859169608096,-1156.8946700383153
445,8.9,1990.660875144366,2299.512191297858,-1030.172079800464,5543.65559986894,3614.6596405828477,-14.716035020201986
446,8.92,2757.347718717765,1957.1531163414563,-1089.9839843567859,4166.310784508163,1886.7627061725711,1373.1392255029257
447,8.94,3012.209540507094,1204.9207358780086,-877.0257246782086,1695.9083389371626,2.5656236695945154,2578.1871863465667
448,8.96,2683.2295460930736,240.56825366421623,-423.4521563101747,-1254.0438403835687,-1803.7779347929268,2956.22054390762
449,8.98,1879.8064882924039,-691.2747419494003,176.7683087441598,-3754.64792685455,-3447.116686650148,1979.9180026133065
450,9.0,865.6106884519108,-1387.1662800151018,847.3094447737069,-5148.300991588608,-4892.1134128599815,-176.21348718534858
451,9.02,-27.643408879139542,-1744.3998908461463,1521.3474691342144,-5451.166350207492,-5965.138062289057,-2421.2511394031976
452,9.040000000000001,-502.2077102285306,-1766.483072930118,2045.1234285646271,-5152.999815420653,-6340.797028383508,-3412.225684399713
453,9.06,-401.99371209919013,-1533.470773805434,2180.9529547361967,-4650.302587470629,-5812.15780348913,-2641.3456463896155
454,9.08,191.21923620177924,-1167.7810905766303,1796.5471040884593,-3953.2740107359514,-4529.692898063197,-833.8761487140061
455,9.1,955.3928882299609,-799.799802511889,1023.8891110048974,-2929.7186405895854,-2894.341465621028,773.0380522738548
456,9.120000000000001,1483.2017311088753,-524.131059584535,160.95280183495015,-1674.595167747128,-1269.0555678353549,1452.089250416741
457,9.14,1508.1830073822975,-361.17280041165355,-570.4733210503382,-518.2955176082747,147.21742562596214,1295.116658787022
458,9.16,1027.9573726823646,-256.46633380276194,-1125.3669296338255,271.75206238331583,1263.7316785258993,776.0806386101688
459,9.18,257.30412389426436,-123.75195225287038,-1531.8541332670177,699.0983624221572,2049.688046856971,264.7518495595881
460,9.200000000000001,-507.80291568858746,99.45788360456947,-1768.5933732544927,975.233903866938,2540.345874687337,-91.3329251226436
461,9.22,-1021.2538303257746,418.5540206171713,-1769.9575319487772,1320.7672341466048,2822.7545194651384,-269.24400478901384
462,9.24,-1178.436125394384,784.8263705249142,-1515.2859848863172,1809.870353973874,2986.5085489143257,-298.2057173342513
463,9.26,-1042.949050179228,1125.195112247738,-1075.1259064073404,2338.5758371044717,3081.2711052575014,-229.99027536342217
464,9.28,-782.8810850757903,1373.0234701903564,-567.6207501560814,2716.248719985805,3102.233697651579,-99.0024222967424
465,9.3,-554.3175070524532,1482.1078003154548,-89.46375378120965,2801.9587318402246,3004.0127955776206,96.93066399178372
466,9.32,-424.1582853830865,1429.8827110335014,305.49387920103936,2574.9573550000564,2736.003954979891,358.9190944469001
467,9.34,-377.90699162197046,1221.819725760319,584.3384923329247,2106.7430483351645,2278.1941983204874,636.672759038029
468,9.36,-370.86734615753426,894.1649270062885,719.8737322777217,1500.3175059992332,1656.6691485600777,829.3834488273744
469,9.38,-365.752757247688,506.6273409068673,700.649448244887,855.9675949530301,937.9035219139145,839.470921628076
470,9.4,-344.8723143572464,125.81379371535114,543.9891311216351,256.1591645047726,210.46250072454393,630.4285771038142
471,9.42,-308.9836966767069,-194.62221268731355,294.64193953922046,-251.64830339546265,-442.69233049242104,247.85616822790686
472,9.44,-268.28111515076137,-430.8001957548833,15.248852358206758,-662.2542531671336,-973.2577489103406,-202.57968763683192
473,9.46,-232.42656052702927,-592.2840463054483,-224.40616023223572,-995.1792451174616,-1377.8944511801105,-601.7236641681426
474,9.48,-209.41874501966942,-705.6124379472876,-365.0532963279495,-1267.791950244732,-1678.9591458455743,-863.0487796788425
475,9.5,-206.95287063979382,-788.7444595811983,-382.91537083356707,-1482.2316882126838,-1893.4044101686188,-958.8592680315151
476,9.52,-222.39259686535564,-838.9422706800913,-303.7925684566975,-1627.0339598557364,-2018.491160312995,-919.2193803802775
477,9.540000000000001,-230.86574098886086,-841.559009886721,-188.88322825509215,-1683.0988860949217,-2040.9719496256143,-809.3662747544427
478,9.56,-197.0376367029278,-784.9945184355688,-100.50146020942691,-1633.7188173991544,-1951.2919413168277,-698.1552241892714
479,9.58,-109.55234753174227,-667.1072037014294,-73.57651794512167,-1480.6283835137885,-1745.9311381618286,-629.4451046476383
480,9.6,-0.7493263528371585,-494.8111464933628,-108.72083125808966,-1252.1700760859155,-1421.0051338551143,-605.3888548732677
481,9.620000000000001,78.95950859352548,-284.9701036648578,-183.73290920205818,-983.6503802082157,-972.0859188781722,-588.4112882566375
482,9.64,113.26285450567232,-64.5496574803868,-273.2907776112871,-676.1239379839146,-407.24220823768417,-525.553520237393
483,9.66,141.3649803473726,139.96981647477116,-365.193892188943,-277.09174259779854,238.0557399760571,-388.5934057241665
484,9.68,216.32457502753834,322.5225509425147,-460.65164677382444,275.2800292798393,902.1064356691662,-204.12710992531274
485,9.700000000000001,341.9417061030383,505.09919188132733,-556.877849599537,964.8211913391169,1514.3664968864555,-40.66116281834675
486,9.72,461.5025827888518,714.7060864115685,-629.5854601644351,1651.845710229553,2009.6727802584696,47.833168383937114
487,9.74,508.8648856411544,945.2414465522863,-636.7664133891549,2131.945914353294,2329.9885580054192,72.51101395686476
488,9.76,458.63242688758237,1142.6900315821658,-544.532946766175,2257.2588052240367,2427.5034562047767,103.10594005161764
489,9.78,329.1188351178333,1229.6242457462554,-352.29723496083045,2013.980836590952,2277.760861236384,212.2669365622727
490,9.8,157.17624283798068,1146.3402372009573,-94.05130888864895,1501.9144720968952,1888.1627843405536,426.2950856337508
491,9.82,-22.109559520437955,877.9998830753228,182.78076244718872,856.0458818944666,1290.10119381229,717.4768373300226
492,9.84,-184.9035447123684,457.7499875388887,437.19195055229227,182.6134721484121,527.5881881591688,1024.4651305861942
493,9.86,-318.7784925618257,-47.61756299059777,638.2494518589483,-453.19365028567665,-341.22482954198,1274.5425844510296
494,9.88,-414.05071387708836,-560.5488054123332,764.3707102843491,-1002.0077753473386,-1235.0726776937454,1403.4533531142024
495,9.9,-460.18122773205715,-1015.3151128507354,813.2875919269873,-1407.998443961853,-2051.8477684285394,1378.43154811016
496,9.92,-459.8076448079291,-1370.2188731300248,811.8788466524377,-1616.7561647262223,-2688.7242757823233,1212.6067736532204
497,9.94,-447.05716019200605,-1604.6015349506454,802.7115806468244,-1607.6122094974749,-3064.2240807627604,952.9116235159133
498,9.96,-482.26271148425474,-1706.8166423083035,810.2675307220014,-1420.2677474612703,-3120.4036210288873,654.5581404124642
499,9.98,-610.6388173447331,-1663.707111328194,819.3068886065014,-1135.5354673898942,-2806.4164423051734,371.845467059283
500,10.0,-808.7748394387706,-1457.5718207140326,788.3574862708854,-796.1418281138199,-2073.487656685828,154.16129191456545
501,10.02,-977.7774802979679,-1073.3866564120112,686.1028045095103,-337.57085901213736,-907.658077374939,12.195330146568761
502,10.040000000000001,-1018.9599019594889,-516.9143141789621,518.000588637832,357.65450265312194,611.4560668529598,-116.57671607999582
503,10.06,-925.1473603461706,165.5597807152063,318.3756072990989,1300.3774760224405,2270.0675242269267,-325.82679464304334
504,10.08,-763.0815613987484,883.7622069301813,113.78404569362927,2326.733059810301,3737.594706873603,-631.0671332563536
505,10.1,-544.5838634534546,1523.5031863452841,-103.58415683656636,3240.144278302958,4651.037838778417,-915.7959822165071
506,10.120000000000001,-157.6284164589721,1975.6301982951804,-359.9933626803943,3981.1023798649658,4745.351985016845,-1009.9673167425333
507,10.14,516.3929657357874,2153.243807685155,-655.1909627715768,4553.774843059953,3983.0862329900037,-814.8125365699859
508,10.16,1410.7487700349698,1995.2347018739533,-927.9504615456829,4762.0574939097505,2608.627943901346,-334.4721055791258
509,10.18,2225.2505384522583,1477.7215294773928,-1061.684700545912,4141.964444070278,1056.4805271719974,370.7182639537168
510,10.200000000000001,2583.621494989621,649.9385764305634,-944.0197492086683,2323.1553130703305,-282.99298309897745,1144.6192029958688
511,10.22,2262.259261686471,-332.5964681263638,-553.316761719793,-481.02165972957687,-1312.2847280634157,1596.316733500597
512,10.24,1328.8392484858916,-1233.8694688284504,14.895366647346538,-3415.3719454385014,-2258.973146617591,1170.9185810991205
513,10.26,123.11970777973528,-1831.8608701288588,627.3232813039534,-5517.956675966681,-3353.0199524610853,-348.7991298797764
514,10.28,-893.5934183638594,-2013.5361362727467,1192.102849301959,-6361.671871182032,-4410.614162865168,-2331.487272368884
515,10.3,-1339.64799343695,-1801.366453801402,1618.3334376199655,-6177.005258896701,-4869.147295342487,-3529.8538622749447
516,10.32,-1075.134174767295,-1316.9706212580818,1750.0716819680438,-5408.679968494567,-4353.9192977461435,-3081.8375641958864
517,10.34,-261.1801925608678,-726.0302802734694,1454.1376781113745,-4283.260508859816,-3092.6585934033337,-1292.1745686433537
518,10.36,713.2518229878704,-183.7757697468336,792.6844704240723,-2848.9162654003326,-1654.5432948996176,665.2578351455678
519,10.38,1417.5844659789775,211.55997189973525,29.46965780387319,-1272.6683743603398,-427.9150521647723,1770.831893035145
520,10.4,1582.8575623145443,434.5996268151433,-568.1434777103077,98.69564056248447,511.00410239034056,1827.7237622549248
521,10.42,1195.1021772058596,510.4486380926699,-902.0708882880176,976.3818271780295,1184.4416378491073,1284.6612386715062
522,10.44,444.2584310739223,484.2897764925776,-1033.2232653365354,1328.0699131431688,1589.0377386843206,669.7938568331089
523,10.46,-384.7014562501813,408.78999477971036,-1059.2776612957964,1349.7831183558758,1752.0805324985326,251.27676761729884
524,10.48,-1005.5031233620881,340.24934828744045,-1020.2741533547,1319.5295795146951,1767.938449339972,51.948199965793194
525,10.5,-1229.3347558315058,331.2886601653433,-898.7649061997718,1452.280812602987,1745.7319996162691,-6.149017129730723
526,10.52,-1064.980690306242,420.9175544135476,-690.2712155951868,1787.962131916384,1754.2195243444212,-6.333821739921852
527,10.540000000000001,-714.9928455294671,614.2168502974558,-450.41403920675043,2175.08497315947,1806.649518075696,-2.9722660635000797
528,10.56,-417.84593159503476,854.0125845166697,-252.13742686781399,2398.035377670579,1864.0377081590568,-8.240586092534972
529,10.58,-276.03100250421113,1025.900029390807,-114.16628164042875,2345.4642958269787,1850.721058418539,0.6938934444122715
530,10.6,-237.96847852236954,1022.8669668657941,-4.61840129356975,2061.4845928672557,1691.2351674143843,45.54003297328194
531,10.620000000000001,-209.65416450612787,818.6678217610809,97.02311237707752,1667.498674002923,1353.8066767913788,114.45863419158194
532,10.64,-146.20276739203553,478.0409364414994,177.36964898462494,1269.1576285427636,871.4169606828067,169.4410060896011
533,10.66,-57.13836950233968,104.68026631671584,220.3364846984237,919.0117387973455,328.3763555536025,175.8556265408827
534,10.68,26.328827758953352,-214.8875400244613,225.07183780311533,616.6841750525882,-178.3886404531773,115.24126237256468
535,10.700000000000001,75.05410472142012,-436.11849262893804,191.90197268427914,321.3289193164362,-581.8112589939649,-19.50939470987426
536,10.72,75.35609359463567,-555.7994841095959,117.97844631314771,-22.525732499272117,-865.2573521072733,-223.5154063641006
537,10.74,34.69513350264459,-597.9388111589855,13.48872264705556,-452.00109674895486,-1050.2620637721327,-470.7485185626444
538,10.76,-25.800162210223952,-592.8110899271844,-92.56848928678141,-963.8414678269912,-1168.7817852814514,-710.7521207029686
539,10.78,-84.07930220566604,-561.0349963123507,-167.02622869058138,-1507.5233604264308,-1245.8598073389037,-880.1851810560887
540,10.8,-122.04555717769153,-512.3466726695722,-188.27051355956036,-1990.3079750740815,-1297.3646611893403,-928.9607638951799
541,10.82,-126.07429704883815,-453.06012242348663,-154.09477755794973,-2304.5252478629636,-1330.4604927343703,-849.1217662498757
542,10.84,-92.15261595443681,-389.8815668268382,-86.20012527868569,-2380.2144800263127,-1343.161312601226,-682.3021005216189
543,10.86,-28.750148717211232,-328.3250494041416,-26.22410121710344,-2228.2673694612804,-1329.525922603218,-493.43785145937244
544,10.88,52.76449375165204,-271.8429665354474,-15.300328031161932,-1929.9448245555766,-1287.4683949742746,-331.6003852010757
545,10.9,150.21627108421632,-222.3083750799413,-68.25424870392561,-1578.0122906372421,-1216.3413147921583,-211.4899718553053
546,10.92,266.4863149801914,-177.40905624655917,-165.16644224581825,-1222.9049888749366,-1103.0696808542714,-124.2246277554173
547,10.94,391.7146527549669,-126.34463115774837,-267.07510862128765,-863.1114207741454,-913.0897494129546,-56.13055385220239
548,10.96,495.8949899078642,-51.02693008894046,-339.87373009361966,-467.8989686038719,-600.5677061718336,6.477327764721091
549,10.98,545.31828275468,65.19660048851983,-368.5657738940934,-0.6097940447044721,-135.18688325535095,82.74955201811328
550,11.0,526.1263360081055,227.45043009639244,-358.53942105966536,563.345621869267,469.99244875470566,189.60446178088932
551,11.02,448.2216954082629,424.3370842366539,-327.82904467588594,1208.2929269878366,1146.4956718896235,314.78188222077114
552,11.040000000000001,327.5420845954459,630.0254476056281,-292.2604464487685,1846.8570005654592,1784.028534429423,405.1986507156737
553,11.06,173.252497447635,811.6572605421379,-250.9243150213466,2327.725570870618,2265.3462391731723,406.534475554054
554,11.08,-0.7334684216051826,937.2404640211091,-187.57589499807585,2508.768266747871,2504.4225964987036,324.8838973034304
555,11.1,-157.4482631614165,980.6743427694345,-91.610893999319,2350.495495643828,2469.6405631101115,233.08818722224316
556,11.120000000000001,-245.1171049082812,927.2148391142696,22.21112879688959,1944.70725034346,2185.019305882576,203.49897705953242
557,11.14,-233.33304359865835,781.8942929528354,118.53634361828131,1449.135945394213,1712.6507520179962,245.8822928123571
558,11.16,-141.1374467377065,572.7848213215824,167.4868574957751,989.1330052279707,1125.654214086535,318.8330682061227
559,11.18,-28.83497021806179,339.87400250793735,166.55294882785495,604.4235463474588,484.8421113039471,383.8657847347064
560,11.200000000000001,36.524552868045625,115.45471524763589,139.63667204888566,261.01621823161395,-170.53583140485668,432.3635094043741
561,11.22,13.060247634134953,-87.78741763727275,117.6441147000364,-102.46098387621244,-817.1131080849583,471.0903631220829
562,11.24,-104.19000719915275,-273.9290135289409,118.63886270127159,-531.3951144460431,-1435.046717573979,501.05746873405974
563,11.26,-292.13575375545435,-453.60191148381335,142.22147952274648,-1036.3682691138647,-2000.29653666767,514.6606229676153
564,11.28,-521.0327388229323,-635.7816116013156,179.86783203945083,-1598.8194810778787,-2484.5859605581004,507.03199016157873
565,11.3,-774.7682665706132,-823.8432112567791,229.32959494874186,-2181.9009451222123,-2850.744471952332,485.22105059883893
566,11.32,-1052.3385976576947,-1013.8574046574265,297.84178723721163,-2726.131153244467,-3032.7654140491913,463.67625593443927
567,11.34,-1344.9524874602307,-1191.9852560240258,391.2275835740408,-3129.684318517781,-2918.716319182964,447.7742810197391
568,11.36,-1612.5425090163408,-1327.3370345790722,499.76208516875624,-3235.364681289123,-2374.47713658573,414.52325723545584
569,11.38,-1790.4923370471865,-1363.4456939433896,591.1918861060207,-2852.3413706694155,-1319.3000869101534,300.1943847404606
570,11.4,-1817.829422367763,-1224.7049631507934,616.3240789127501,-1828.4519104143542,189.217952917484,17.41999303920818
571,11.42,-1647.8917349111919,-851.9008470961414,533.0628962469286,-155.87646084113493,1925.5967097099353,-473.37439219822755
572,11.44,-1239.0459900078567,-251.16721916624027,341.9790734221767,1957.597093322727,3552.048848867931,-1074.0361562207315
573,11.46,-570.0506681247577,485.0195293605947,99.68903580934465,4131.250380100955,4729.936635819664,-1545.0658961825013
574,11.48,306.98640664255504,1205.9340660022135,-115.05285387646266,5950.1551807458745,5229.510140575458,-1632.6776897075013
575,11.5,1233.8863876629866,1752.5480988073696,-250.80485212791575,7057.746234085136,4991.454200853053,-1212.1735609156935
576,11.52,1990.3514110697956,1990.1991278189075,-292.7157083387475,7126.153929372613,4115.338097488008,-304.17208835316137
577,11.540000000000001,2393.2572542807525,1823.877542256747,-236.63318128415506,5865.527930088745,2785.636882785474,988.5667599505957
578,11.56,2374.4895558002336,1225.8789262264117,-88.97758968701628,3258.4990470134508,1187.1810249846376,2421.4258784382623
579,11.58,1984.4162954976864,280.0641461508583,101.25270112064243,-151.63433767999916,-554.1823641619814,3426.519506990119
580,11.6,1339.0893910005025,-801.3711166306679,260.33994951616495,-3354.2191298909797,-2394.6987495740987,3205.4842128951227
581,11.620000000000001,579.3810004256081,-1732.4989906271976,382.64166229990366,-5450.701188492102,-4288.514364856256,1384.1274580563754
582,11.64,-117.73711847197941,-2259.777474172324,562.6605546860768,-6215.781050186357,-5972.761724058,-1305.8859008485342
583,11.66,-527.448973145285,-2251.816993710925,855.4702717643618,-6056.067648781949,-6890.215095475005,-3303.6479220534006
584,11.68,-456.28925481578295,-1735.9456083068012,1119.7059775314451,-5433.604780261401,-6541.411067677317,-3485.1890998765693
585,11.700000000000001,99.57791346854751,-890.6209896350122,1096.8586445221222,-4443.862049730797,-4978.446287589565,-2116.741631420483
586,11.72,873.0017747988675,8.699191660147875,678.0996240122931,-3003.684322767929,-2817.72063177869,-439.8739230585537
587,11.74,1454.4585827033939,699.0435070545791,33.22496814978547,-1281.9957804862624,-748.4552934636044,542.3769207327875
588,11.76,1554.7455722545396,1044.458146395215,-545.6597185640057,268.65781534344035,860.1215265980429,724.0773529382863
589,11.78,1173.1637803150115,1070.3751679185011,-882.1040097518644,1292.4101319307529,1939.8677642489838,562.8952810118653
590,11.8,541.5131161952996,903.0681925785273,-991.6713393547774,1790.1050308687063,2551.369345800402,438.66975159891837
591,11.82,-61.01431774768059,683.6371937773011,-983.1708521430078,1998.3371938778569,2809.5259326666724,398.12866445981706
592,11.84,-450.71422103685376,515.9016038953949,-931.6328026970959,2135.8500201818943,2862.1501114519447,316.32532644312636
593,11.86,-581.2316935235144,448.9776708489595,-840.0503137691196,2285.5905039274835,2835.4007538548744,128.88706491339985
594,11.88,-523.2922323708023,475.4607893513188,-688.514026468774,2412.7545011264965,2778.3054386175786,-100.41791400500439
595,11.9,-408.5263488436309,541.5015683049544,-488.418018277614,2427.759360358111,2659.3826289359713,-262.2667220137577
596,11.92,-349.73450940094244,574.214846891311,-282.2555927977157,2256.6969307008076,2415.0283328700048,-302.10451804496404
597,11.94,-382.3542340464025,521.4610727458291,-110.75117213079663,1894.1195532578126,2011.8917297928097,-246.1958974006114
598,11.96,-465.2295095627999,380.82183195874995,4.105980217617439,1411.7189685311591,1478.7105169218992,-158.430112068016
599,11.98,-524.4366514661593,194.3096092052057,56.581253521764964,924.7419888130255,889.7482342569451,-87.263190231391
600,12.0,-504.824701357446,14.595813666406372,57.41963635723075,532.9982948528933,324.30444103160573,-48.31616082934785
601,12.02,-408.01982698172014,-124.44086073777636,33.64082643518513,261.3233142363672,-160.9967285432804,-41.12896804282896
602,12.040000000000001,-293.07997417283934,-212.45091548493846,13.400812867486145,43.0980384260571,-537.5733597964538,-67.95799741321662
603,12.06,-228.715471780325,-253.94436068024385,7.2620868618887915,-231.2199857634053,-802.1374920035614,-133.34937681042956
604,12.08,-237.46803816490785,-262.5412743764616,8.359436577530007,-641.4494631576551,-974.0838622031276,-230.35763234861992
605,12.1,-287.94126619676246,-256.5233410920406,10.681486343676568,-1196.3553266341842,-1088.101022777288,-327.336504581435
606,12.120000000000001,-333.83360206910334,-250.0926315508632,24.95771749702822,-1828.4898590513203,-1180.4117108753762,-366.1450956519826
607,12.14,-350.1349712859776,-246.91084095937322,75.61898460689385,-2404.8825285284825,-1275.5327198125856,-285.96290618070714
608,12.16,-337.2579741993633,-243.63353559128012,176.78483318649518,-2763.113368233522,-1378.6524363816245,-73.7736225198547
609,12.18,-305.07981938274327,-238.34703367768498,304.0004141410851,-2787.950101080445,-1474.8151469970426,197.26444350587724
610,12.200000000000001,-257.38547138965833,-233.30494842537172,392.8935832870186,-2488.7306558296204,-1537.8158561416317,391.7265957935481
611,12.22,-185.2628053015733,-229.99302574918806,378.89451930373866,-2001.9472082267607,-1547.7176762090876,394.4450974799795
612,12.24,-71.16857503322206,-223.61884409301496,246.9021865536313,-1499.358307291217,-1502.108413983049,188.66146469647097
613,12.26,96.57216718346346,-203.29217175997633,42.30593440075701,-1075.9827169591586,-1403.6972088938564,-127.46676886554692
614,12.280000000000001,303.9858293718087,-157.5775548559177,-165.19119989144662,-711.4053584942761,-1230.3142685105038,-391.65496095097274
615,12.3,501.68879235517034,-80.76832326690513,-326.0932880104185,-319.5873332099458,-920.808914945386,-464.0078200221445
616,12.32,624.0803344558257,24.46788943492006,-427.24351545535836,176.2496499093098,-406.82361996391273,-307.96530466437565
617,12.34,632.5539316321951,148.68610011749422,-479.65274514225786,797.981758264523,319.28328227477436,-20.912655633305
618,12.36,543.8163680938917,278.28472580920857,-498.79800805080924,1492.886519367595,1153.2428610621896,220.07710922793686
619,12.38,413.9876863298476,396.72796565178794,-491.13003465961447,2130.080462458687,1898.6550611904993,278.4738159021331
620,12.4,298.11056361645603,486.06460968551744,-451.6240658063406,2539.9433429936034,2357.9165993178012,153.88947616406602
621,12.42,222.72273787895435,530.7280017739533,-374.38262274286535,2603.0633348697356,2431.551059455817,-34.58664717440787
622,12.44,180.85657106169074,522.7356045369404,-268.156922138078,2322.4209151986,2156.182922414501,-156.83340540556003
623,12.46,140.458775418197,467.12271168710214,-159.79612815009932,1809.8613844992926,1664.9445712114284,-160.5738548889519
624,12.48,64.5294832804369,385.1505711515455,-80.86026509301499,1206.961516867018,1110.6904045629235,-71.23903846975313
625,12.5,-60.459848943745264,308.905278722063,-51.1812419646353,618.8841477330011,604.9796036368441,61.53384551815256
626,12.52,-206.21847274622837,264.7054166384728,-70.55535321482395,102.82149311418566,197.88499439616754,202.95405009040465
627,12.540000000000001,-313.95412700077406,255.29306454994278,-116.44908936496992,-311.5637659307114,-111.05402065569578,336.14524160154605
628,12.56,-333.10443324020775,255.71882677614553,-147.2204312823484,-608.1189328256964,-352.9231553351832,449.00849212433286
629,12.58,-257.812569573105,226.4115177825937,-118.02622560614884,-786.4924230033597,-572.171764217505,526.1059756583388
630,12.6,-130.07469436889033,132.08207052483698,-7.575632859585525,-866.713427719234,-811.7169976159943,550.9905183797975
631,12.620000000000001,-14.0191750523575,-46.37244712487742,162.8174880799832,-887.8452701545848,-1100.1627307133535,513.0622165730042
632,12.64,24.051345223228935,-309.2730863387625,335.7300450143095,-905.8693629424106,-1443.83634485231,411.667505188067
633,12.66,-82.31793401162518,-640.0870120219478,448.5634716800969,-988.5603755991173,-1821.8970478442388,256.87510771181474
634,12.68,-384.0588946883183,-1008.9107522460106,470.00861162293415,-1189.743569172168,-2176.6037405671846,70.48559876411151
635,12.700000000000001,-867.0788844353744,-1374.531193187966,417.51175889021613,-1496.2274868385869,-2395.4654457511183,-117.92762446205158
636,12.72,-1413.0846131522685,-1678.6581645151982,339.68845123154495,-1777.6295049934024,-2303.341926682114,-292.2848720820671
637,12.74,-1838.409542249361,-1835.071774450621,273.8423316333707,-1794.463532192035,-1704.5539174229325,-478.79465030264697
638,12.76,-2004.3711267741642,-1736.6358055804162,218.25661978559563,-1298.3148914823973,-494.7419428579708,-736.4347683075555
639,12.780000000000001,-1893.7918209668535,-1301.6759793542676,150.98682839719874,-185.0256281770913,1212.498399392819,-1079.6520250506014
640,12.8,-1563.2738556274226,-541.7125052254904,72.36235473357773,1413.570303360145,3052.2427408820568,-1392.8348562336769
641,12.82,-1030.8193703068446,406.1439350709499,13.391369808659228,3190.605080417766,4527.33765838819,-1452.8652688759475
642,12.84,-259.89179810808486,1321.1066200512334,-2.7694256417990317,4810.758440439131,5227.0359640256365,-1082.3563411993382
643,12.86,716.7385381820902,1986.3428018750506,13.077615749637019,5956.975287327553,5016.476401489461,-287.7802513115533
644,12.88,1695.2385637108155,2254.6184762198845,48.83043470771454,6247.848020807432,4070.791686113189,770.2522436482966
645,12.9,2377.6644323618993,2063.4521835189275,129.93904133769468,5279.1021031605305,2723.150628942299,1900.6778949697255
646,12.92,2557.9191367319027,1432.9980266295943,278.95253467073223,2960.5239133246287,1245.4514308248454,2863.9185264860434
647,12.94,2221.349810423911,480.11880167431696,436.41374236078764,-160.91254022297426,-276.0431763709858,3214.9178537888465
648,12.96,1501.040447211618,-571.7005234657158,495.3650084934067,-3080.5136280785105,-1905.5501275045665,2401.5711272779486
649,12.98,603.4200978738293,-1435.2519044761423,460.7274998743647,-4985.87074011549,-3667.65882809178,338.5146742334042
650,13.0,-218.32785468982894,-1863.8415029615812,500.676225570479,-5753.318043625416,-5286.972982392988,-2105.7485172057286
651,13.02,-693.9093119212512,-1760.9825552497532,739.4062771180543,-5789.171776343685,-6158.08805285265,-3527.0839982523494
652,13.040000000000001,-632.9992059074456,-1224.4959299249663,1029.3796069390164,-5433.9088669113,-5785.223411040743,-3143.2385278419283
653,13.06,-56.32755037105221,-495.9867449589166,1045.6607320972832,-4635.168684193748,-4309.139814728378,-1476.524553366409
654,13.08,752.7765242543619,160.18608339296625,628.8397006265297,-3244.9284595861495,-2439.2852636553876,207.6613879263018
655,13.1,1370.428587345909,581.9713015016719,-42.032088532136555,-1483.921629125446,-837.1878839840233,1039.52380389461
656,13.120000000000001,1486.0431692485927,756.1876967996911,-631.7941191075373,88.35432441547471,293.9922117109883,1058.8774158479343
657,13.14,1095.515186362833,758.7947943719143,-935.4599348197112,1054.543897193444,1062.4208522856754,804.6899438028781
658,13.16,466.89597862414723,663.9215446297994,-973.3425618854778,1444.2573859381926,1580.808696270743,668.7078506463104
659,13.18,-74.47283276375444,517.5403558890355,-883.8837042747064,1565.141922507929,1885.862302118915,668.1743380036178
660,13.200000000000001,-343.27870521506696,369.54750755278957,-782.3882938837777,1675.9898230977903,2014.9044981666448,639.4593808836349
661,13.22,-348.13625836536835,283.3122756288439,-701.7359802662434,1851.2959718900993,2039.9227016713273,486.19871895122924
662,13.24,-226.42768788556054,297.0701347231318,-615.6820463595856,2033.4315971283283,2027.7324520505495,248.24767884722795
663,13.26,-138.13438005732394,390.42470954532746,-491.89261828685966,2123.0690108032886,1995.9211594716498,23.305212446994872
664,13.280000000000001,-177.89655646613681,497.25982276634375,-327.56998019253456,2044.5759626424492,1909.9659998883799,-124.70963087061413
665,13.3,-342.281496490648,547.9166675863665,-150.5678468547075,1781.8283930314938,1718.8088507090583,-192.4526097742699
666,13.32,-555.371302856607,503.3774388842392,1.110492185496092,1380.5891782009376,1397.2492727067038,-210.36939747338715
667,13.34,-720.0353138926555,363.6386893020033,99.30365427255788,922.0674261869591,964.536661214792,-211.3198043194853
668,13.36,-765.1601070420779,155.08754575161402,135.04420321705786,479.24331821600094,472.9890501080813,-221.2977153490663
669,13.38,-678.6006813256004,-87.18557928627925,118.8817216946332,74.38776360941976,-18.777893494789556,-261.1701646229297
670,13.4,-512.1365490731209,-330.0145614972614,74.67904119081835,-327.40273970274205,-470.4436227542225,-340.05607409676463
671,13.42,-347.20091974406427,-546.1531135737366,29.0914201710298,-770.0074381537497,-870.0221640329395,-443.3598794766686
672,13.44,-243.6821613564339,-716.5356307817817,1.2361792229360056,-1241.8963036187777,-1223.8009094667577,-533.985021623856
673,13.46,-211.9788514069028,-829.9143757194576,-4.017572098075458,-1659.0735490933303,-1532.4042764695043,-572.6902827821273
674,13.48,-220.05225903827255,-878.2602626875275,2.0514690633960617,-1912.5576007942734,-1771.6212925824152,-543.3501272920806
675,13.5,-216.90674728319811,-853.4544012120367,-2.3273856102456136,-1937.0120591838818,-1895.2316050364261,-464.75161392140353
676,13.52,-157.46452138107537,-750.9287464456386,-33.58110203192473,-1745.4753733851533,-1857.9388094786218,-378.29408159686085
677,13.540000000000001,-25.13128389028762,-575.8509526743342,-83.93699099137557,-1409.2117227901988,-1638.0009063640496,-313.04121096146775
678,13.56,157.05861469699633,-343.04513521373315,-119.4328542583878,-1003.5723724894235,-1242.4803891776123,-251.32776264809937
679,13.58,338.18942329886465,-70.86986522159445,-107.73127161935368,-562.4104828573204,-699.2826520692558,-134.57870458647776
680,13.6,467.7533489252852,222.19418808997975,-54.8954701948318,-74.71086879983804,-52.46781726082348,77.73653287865271
681,13.620000000000001,518.2571499883758,514.7231721042021,-8.257462719045222,474.8546281707755,634.054833347431,346.1386034552412
682,13.64,489.8215104569982,779.7616017247019,-14.656550883857193,1053.2390466850998,1276.1996618724177,558.6093710445934
683,13.66,404.8824249403498,987.7015884112977,-78.07801096067618,1560.2233255073481,1783.3398352421468,612.9247192569092
684,13.68,301.8710776777156,1111.4439759907327,-162.34617630039202,1869.7818817569996,2082.346391310448,493.86607554536727
685,13.700000000000001,222.27697846271613,1130.148112307918,-229.25453357711012,1906.4121174267339,2139.788078979146,272.5541932201826
686,13.72,187.8021268153965,1033.8171668807245,-265.98769524093956,1692.6286565014843,1970.8219549472874,45.627117807339204
687,13.74,184.70092552988297,830.2448547826566,-279.054475342933,1328.0318564762701,1630.2527326963727,-116.38462865655147
688,13.76,173.91193797475495,548.5730519597126,-273.4535361925376,922.9258292023442,1191.9095432633337,-181.11065345423393
689,13.780000000000001,118.44331016477548,232.32695187460592,-243.21967784077694,540.1412710616992,727.3402190977902,-145.9240496559947
690,13.8,3.0525156145205727,-76.15927234863814,-177.25605607409176,180.83776795857415,289.2152909917899,-26.96875377242391
691,13.82,-161.39620221515028,-348.764919040058,-69.98494745188135,-183.14298425472504,-99.78055936362878,152.0638353524262
692,13.84,-338.93713304267,-573.4478677849372,69.01504025520713,-558.4440908993296,-449.51631344690395,365.0948229709298
693,13.86,-478.33888711404495,-748.5518777937759,209.06237908244387,-908.1314769491373,-792.966471550889,575.5989270651236
694,13.88,-544.4546456938655,-879.3305436909482,304.63965991467234,-1184.3263775182468,-1165.3627798661005,726.5925080722793
695,13.9,-548.789902225507,-977.4736916612796,318.2149445986694,-1378.7731061875202,-1576.7197846533177,751.8596481335205
696,13.92,-535.5141607509784,-1054.3830990190781,245.14413805439565,-1526.6551620161792,-1989.1771401057104,613.4531152416371
697,13.94,-539.146541082362,-1107.2269499411614,120.91478482363053,-1660.170891041572,-2315.92376555307,339.6063928019828
698,13.96,-582.2929378771163,-1113.4516120187059,10.697320107921911,-1771.7298421659207,-2446.5111553474944,28.468961495142167
699,13.98,-709.7218311462262,-1044.858841094759,-8.88659762795453,-1810.020891923584,-2280.615149639793,-197.96057623416783
700,14.0,-970.1073113543878,-886.6632216748577,118.99449487465985,-1673.0934157448023,-1751.584919110627,-275.3309512537879
701,14.02,-1330.6668765595969,-636.9106502237869,387.32008532329223,-1202.9312460408205,-844.4998665853495,-260.9886363932993
702,14.040000000000001,-1637.2595846111449,-287.4465697049157,706.5822859264297,-247.59142133621788,382.02863400254756,-304.61685096760164
703,14.06,-1695.6168481641453,180.41419059180194,947.9924639797599,1204.5514472079678,1787.1094891991654,-509.4855245946801
704,14.08,-1399.2770445683946,761.5320062318867,1018.2447134029301,2934.218759704534,3172.982120981222,-800.813255859922
705,14.1,-784.5186590999463,1380.9755120157147,897.5640135652554,4553.165979810328,4328.469230877942,-958.3245920005382
706,14.120000000000001,13.018811026100149,1892.40575299465,623.7196444711115,5670.639622470763,5061.293326386865,-805.6401446550781
707,14.14,836.2684860062695,2135.3054297038007,264.30627806011444,6003.652588222521,5227.445738878455,-350.0151837999081
708,14.16,1554.4139704857266,2002.3052004599917,-96.05574107795434,5372.3376475288605,4773.734657340508,283.8073901237252
709,14.18,2063.4678758013097,1468.4910180933502,-375.21640021168895,3713.9785847485055,3756.848517435496,1002.3515764979114
710,14.200000000000001,2266.7117429374807,592.4695848812219,-535.5728803247448,1224.4964834152556,2279.5254072323532,1720.3937921993788
711,14.22,2082.791791642959,-477.2015459747663,-600.7118653951444,-1524.2908566998078,371.5809874322569,2175.7798749667536
712,14.24,1511.524868830467,-1500.808668369329,-584.3584727137645,-3755.4531294589797,-2004.7796358318726,1933.2219000164432
713,14.26,718.5256200504696,-2198.0101784658177,-395.4172744444098,-4931.928431062829,-4666.297264946371,783.6677179428735
714,14.280000000000001,30.97850822724996,-2357.5312932470574,101.15499902211982,-5089.538446631827,-6885.606444998491,-837.9678763704899
715,14.3,-223.82604592947098,-1944.8810563464258,847.986768251016,-4686.016895625951,-7638.658757515506,-2014.9945438709792
716,14.32,56.53749305718628,-1131.5245406480692,1473.3563601503456,-4084.9403008628915,-6489.793621066374,-2084.852721720848
717,14.34,663.0739998265499,-216.80266081909113,1535.686369463439,-3254.107946116559,-4158.043505138224,-1206.3735235445572
718,14.36,1215.3324109915604,518.1187551493234,933.9955024026118,-2034.8869312925349,-1946.3406193096928,-143.21046638189523
719,14.38,1399.845456218493,936.1703704044215,24.10803558633779,-592.2581179763768,-631.95402885404,467.2676034409015
720,14.4,1122.889873400171,1068.3556316959643,-696.1174866269957,590.5655163287488,-65.51681505464626,562.7603559466195
721,14.42,516.3624344760595,1031.1153822736867,-982.4478872602739,1161.5098418553466,297.03051774902883,466.61340134801515
722,14.44,-157.85943868315675,922.0102488611533,-931.0986296789717,1198.9741759912213,767.9204627028291,441.74803977524147
723,14.46,-645.4889484578393,783.2742547756316,-763.7838324790264,1049.4667058808282,1317.1612748918692,493.5733507461181
724,14.48,-820.3652180227484,635.0025529782416,-614.4568965152613,990.2329668262669,1807.1332009439109,491.4626096530564
725,14.5,-723.5685508301749,507.9797928422048,-504.1005004988896,1080.7057091297534,2167.8465631369686,353.5035787433908
726,14.52,-501.3713047034166,430.8948176977027,-420.0877816189004,1229.7956472913665,2390.9205628864815,105.74663845540239
727,14.540000000000001,-301.32137422165044,398.8849084291268,-358.13382040187406,1314.7131708654506,2462.7325168995067,-169.38597461762794
728,14.56,-206.26737673326204,372.03520736034477,-311.4130109680458,1254.320735658598,2353.3490498025026,-399.1493741995183
729,14.58,-226.2522686929836,308.1494239063172,-263.20609053584116,1036.638110706696,2058.9538887222925,-547.2765726016421
730,14.6,-315.48867062507,193.07924164139752,-200.09218688476065,716.0992275639005,1628.3038735072273,-607.5223524559664
731,14.620000000000001,-396.4123754175595,41.696460629082644,-123.8916511991381,381.6713344289051,1138.0152427321977,-589.8084631029452
732,14.64,-400.5172814194523,-121.51096597914997,-50.29505297913482,103.88398852653177,646.6970986691249,-513.3142497333469
733,14.66,-313.4228998264958,-278.175289105006,-0.03677938446352513,-105.35624250750541,172.51503147962754,-404.93048674312774
734,14.68,-181.89982300219984,-418.8207033227724,10.810088394317827,-284.233052480828,-295.59128611885666,-295.83332712644005
735,14.700000000000001,-71.59479959590544,-540.2940319732168,-19.71968891795542,-472.62267847844294,-771.8239209170267,-212.532756416946
736,14.72,-20.680095638950377,-644.1926029154697,-72.30548670997649,-674.398336766018,-1251.456726915668,-165.09952612253988
737,14.74,-31.063610031916525,-733.4100677550839,-109.61551024375207,-861.8237166469886,-1702.0564086450688,-141.76883733051707
738,14.76,-83.514925203185,-804.9802689761339,-97.03852890141539,-1001.9242050842277,-2071.512161939051,-120.99959950543791
739,14.780000000000001,-143.45454479946568,-845.042482720934,-30.512966715024522,-1071.4530845470738,-2306.6680175947085,-97.97769369647418
740,14.8,-161.79626205709025,-831.5135732780263,55.36285941542795,-1057.2172920294631,-2366.157251986033,-98.38269002040676
741,14.82,-96.94066570308982,-742.8024201797406,113.4272041220161,-957.9214541476142,-2218.7635302229864,-152.75231858915694
742,14.84,50.109151009178056,-566.9253408844606,122.78606868369059,-788.5811122094615,-1839.2600745573714,-247.32813255209902
743,14.86,227.93365139646215,-306.8385325596853,101.14402921693122,-571.8244562637099,-1219.0181820310195,-306.98985180907493
744,14.88,369.1934201189007,18.580728414787668,78.1243165550527,-314.60995804352603,-391.05385797741667,-244.09672650293152
745,14.9,433.74428132484456,375.73203505052766,59.77066334965,1.3612692206753394,550.0943388917902,-38.30956104285987
746,14.92,421.76175663923084,719.2696802885805,21.914093256351855,389.16139418883586,1455.5017165796075,226.80346100180256
747,14.94,357.24565284468497,999.9860077246525,-63.84328175631826,807.7926950633042,2162.3449906396595,411.3294547638785
748,14.96,267.93244799470017,1177.247305125886,-198.7746215932799,1153.8445903389938,2551.1024718174463,417.9004404888781
749,14.98,174.6673986147935,1229.0673118953296,-346.8939057591293,1317.4072917035344,2587.953137992321,260.47272231459095
750,15.0,86.15259499837177,1155.5197275332337,-453.5800824395059,1254.3693068356433,2327.2957091596213,45.682846581438426
751,15.02,0.21952027072584057,977.3683386260229,-479.6048035111544,1011.3752468110936,1874.8822780056678,-109.59629922254877
752,15.040000000000001,-83.68909620283603,729.8253468443047,-423.8693871217623,691.5567054158023,1337.4664477215865,-146.88167130879395
753,15.06,-153.32807077255774,450.19675249163095,-317.3162235893125,395.5651222254702,789.7300975516014,-73.9041255978436
754,15.08,-193.08937214808196,166.0648757706933,-197.8144628926005,174.8146446310767,271.1850215987775,67.65296616574757
755,15.1,-207.26081293769138,-106.92187089509007,-89.77295557916888,16.850499671186313,-197.90877933703098,230.82510778520196
756,15.120000000000001,-227.26286606628793,-359.47293417772244,0.5582871250206765,-133.0065383043848,-602.6639543462156,374.63498295005377
757,15.14,-290.0539158473792,-584.4308522850577,79.60409284595015,-326.57302702349614,-934.017890502183,471.39135335470917
758,15.16,-409.8845188403111,-776.5258877605802,157.8911632830069,-573.1439962825903,-1197.9465375499453,514.715184451896
759,15.18,-572.7145323752591,-931.8796849732489,241.91750082341713,-834.0305829401807,-1417.6248547431533,515.4194205209734
760,15.200000000000001,-753.6064818565923,-1046.4259400909116,330.62653977657715,-1053.005040725327,-1618.337686875222,482.9770927956954
761,15.22,-929.9066840476488,-1116.8965954203984,417.62079207783347,-1191.4267685697969,-1798.907132004287,413.98757221818835
762,15.24,-1076.8716605773852,-1143.651326234421,493.32810915912887,-1238.7940704411806,-1905.8891651234799,303.1084688113873
763,15.26,-1167.8706643061032,-1128.071485108846,544.9486997555157,-1199.441610899327,-1833.0695998027068,160.61761938466339
764,15.280000000000001,-1194.056484406483,-1060.6256742623411,561.3687067029907,-1064.3188086352843,-1459.8949838785168,10.208172824367487
765,15.3,-1173.1325495246326,-908.5306624466493,542.5112136047029,-773.9692292981772,-715.2462103474743,-134.84080398469408
766,15.32,-1118.4427665169674,-620.7350634667517,498.42779667653235,-212.24138231206848,369.9635146250715,-288.90285631950087
767,15.34,-999.7704536676542,-158.96040980140734,434.67148164350056,715.9708206297717,1650.613567530043,-473.3614776388347
768,15.36,-749.7894152847041,461.1189975819132,342.3890866043356,1959.970814625945,2896.8729280929338,-665.3908656776471
769,15.38,-316.897071425019,1150.0273038405924,205.29570870701468,3282.81469977893,3849.4312108021154,-773.506426362585
770,15.4,285.1227228825952,1762.297805835862,14.219878000176362,4357.69080507027,4288.127884791638,-682.0464703869121
771,15.42,967.634719987062,2138.7467769118994,-219.23307314149358,4882.501109340296,4107.337475172855,-316.8069997532855
772,15.44,1592.2104828459746,2151.1735761119044,-449.37196244222514,4606.474745270599,3375.2717327516702,347.8105781513633
773,15.46,2003.6305013415144,1741.7064514811455,-597.8312708823852,3358.24067948386,2326.787644322112,1298.5954576730169
774,15.48,2059.1016807711167,954.6457901919503,-594.2546559032469,1204.887450597827,1238.2022760418436,2373.059362811883
775,15.5,1671.2478447252502,-57.12703302798461,-433.299752810284,-1363.2709280394893,198.68599911404905,3079.2777093808045
776,15.52,880.4867191651344,-1070.4052686577218,-170.17130547535493,-3504.320919770718,-1037.6945331268319,2688.557182516309
777,15.540000000000001,-84.50836190072259,-1858.8708706570994,160.8963149892411,-4465.83501247843,-2818.6234234093827,801.2672591182538
778,15.56,-850.5191969299957,-2249.7532347026445,586.8225272840001,-4123.527915683969,-4997.101866637841,-2034.3266781233415
779,15.58,-1083.0435868977752,-2158.2245069519536,1095.6744873596394,-3111.407720099712,-6636.836539076686,-4399.082565650853
780,15.6,-696.3732010012633,-1615.3236553556126,1505.460961693943,-2295.194639248052,-6651.282644937964,-4956.8499519310035
781,15.620000000000001,90.4252641127619,-777.8925748220578,1514.2855598567294,-2025.4753927078862,-4878.782643970733,-3505.6177581770967
782,15.64,904.477356486849,115.02292628826376,954.3726937760573,-1951.4581836233724,-2335.1144441932547,-1107.551885222294
783,15.66,1435.8795549315807,836.8026502114424,6.678700081758592,-1570.0650255324401,-303.07885757218946,839.1623180489562
784,15.68,1552.607644225941,1264.2353849833225,-880.5666497654704,-818.1985547530351,683.0189813306987,1646.9412887754868
785,15.700000000000001,1293.1344768902568,1404.0557716092305,-1330.2676838974319,-56.232756970306525,944.9320295761604,1551.748340240513
786,15.72,813.2831399345575,1341.0998797205407,-1296.7342090805655,386.75628172815516,1043.5466280592925,1145.4467206817794
787,15.74,317.21386703237323,1160.5962899466595,-1002.841775608009,498.0833824576624,1261.3747069083206,798.0925866653042
788,15.76,-34.444402102485896,913.9830827095756,-688.4114326306806,472.5547505577258,1568.7853167209298,553.0607235753038
789,15.780000000000001,-193.38100645973483,637.4608053707805,-456.8597153482472,480.07465209396054,1841.6196727464862,337.00000090691924
790,15.8,-210.0337908463928,372.3385894517294,-297.54626331620375,575.5528600674024,2008.1787007772277,132.43740015464468
791,15.82,-163.93823554729826,153.36299622568416,-167.77935528946307,735.4018899797127,2054.2705910467494,-15.007111863154648
792,15.84,-115.82746867405443,-12.008065610696338,-45.47025426598538,899.613752324927,1979.1088160535314,-69.26471520339243
793,15.860000000000001,-104.00964103472396,-140.61304628643262,56.01570258922032,992.4071746775705,1774.6901419256037,-46.26050482299452
794,15.88,-148.6202101923093,-251.3773995024219,104.17475501408106,953.9762204057231,1435.1122432145357,3.3312371892048347
795,15.9,-243.6055992024294,-349.5829300958193,80.15322848522467,777.5210829988562,974.601201934995,33.05418669713063
796,15.92,-353.90067316588113,-429.13426920917436,-3.3184239849106323,515.0671260770873,433.2722096447567,20.759052493294643
797,15.94,-432.5411837671396,-484.5096260260152,-111.21612351018273,242.7212465288016,-136.31763980191784,-33.55299766760934
798,15.96,-447.6861529443771,-519.9840861529033,-202.97299224458436,14.747144288414695,-688.5768537955648,-114.38434813334864
799,15.98,-398.64632632467703,-548.8538478001608,-242.80270786145397,-158.44095254562868,-1190.6396160746776,-197.6978622869891
800,16.0,-307.44449871643974,-582.1359259218453,-213.84415854129247,-297.0416452266645,-1612.1577344800357,-265.7088223634884
801,16.02,-192.74643348754756,-614.6107128726128,-135.56537204280517,-418.7815379148332,-1914.1212422410276,-320.1323845315832
802,16.04,-53.94234481757146,-620.5801110142947,-56.19910888408198,-512.5452393944208,-2046.150755290169,-371.59509662576625
803,16.06,113.19584077494105,-564.7300982306162,-10.459539111216614,-538.1356859352686,-1949.3774808515295,-410.6825115436457
804,16.080000000000002,286.46954754280944,-420.3032528466901,14.52980550198243,-451.44523282836076,-1568.6725511357872,-401.8930305206492
805,16.1,413.87852441313305,-182.5134168857811,58.71038621954166,-234.46032779799324,-887.485663955722,-322.9331393028315
806,16.12,448.3927303579155,127.30677660085426,132.28713835649916,90.7070114096179,23.443737785939078,-208.80078435074583
807,16.14,384.1414444178572,464.0360320120502,189.80035593822714,464.61125285568687,989.0696906349567,-138.137583426093
808,16.16,255.2494643162782,765.9849095107256,169.1394134890046,800.357181748652,1783.4734484883284,-161.54000742681689
809,16.18,104.49070923105367,969.4268526106794,54.32230739380009,1003.916241545511,2230.862125486946,-246.5551925807648
810,16.2,-40.462241925043244,1029.7161726498823,-105.44981171926142,1012.0658584106027,2281.1161195591694,-300.9743833982563
811,16.22,-165.78955091124067,939.5032302004216,-235.95743284771083,829.3843154749122,2008.151362996232,-248.07752681340594
812,16.240000000000002,-261.2155470114247,732.1317765696965,-290.98105022811933,529.4692275474729,1546.7530014555073,-78.61012033331168
813,16.26,-317.7153348648958,466.83514178756366,-272.1788032467032,213.2180184992723,1023.5826095434381,156.21360877777352
814,16.28,-330.9512013991506,203.82435096392578,-213.4540392990794,-42.572135851590566,521.6351602250322,386.14327059109456
815,16.3,-303.6096982285237,-17.202645473722857,-152.4185004103954,-210.4261484043614,79.37615144842782,557.4958917310905
816,16.32,-248.73967195012006,-184.80830642979174,-107.20737848927871,-307.22030699051464,-294.2293256556465,644.1949287694067
817,16.34,-192.76569815199227,-308.7942101356015,-69.35984462678294,-374.6730071408778,-605.3138315539254,640.594249329249
818,16.36,-165.8093008391277,-406.532327263678,-16.238114905586297,-453.25411602172625,-867.0888890094923,552.5787066159406
819,16.38,-178.6235835310797,-492.5618557557102,67.89425466246448,-555.414918802863,-1094.1355986406875,396.66054707311775
820,16.4,-212.31864602511118,-575.0612858039703,180.1816350879706,-658.6534148770611,-1292.5284906577253,203.91778501521105
821,16.42,-240.42247314698858,-655.7003164567351,301.9424328514159,-731.7723171662244,-1447.0907866482253,19.553218485426935
822,16.44,-256.68182526390984,-727.22092638465,405.6343599636168,-765.8548924569112,-1515.7791775243813,-108.65551211266983
823,16.46,-264.91004926635753,-766.7199313723363,460.1084896642148,-764.0248625346644,-1438.7132637400055,-151.86295412719238
824,16.48,-241.98437490622962,-732.1125273224422,440.3544946523749,-697.5607490222378,-1159.8591393584488,-119.01766484947598
825,16.5,-139.31171588922734,-576.6967084522323,342.39250222743493,-497.4574989408763,-655.9841633181995,-54.54982601113756
826,16.52,55.159732721935015,-284.7024271413934,188.2885020743277,-118.64944583115619,33.41438583379785,-9.012066333692935
827,16.54,269.41315207034404,98.05738543455945,11.662253262871996,385.35219749643767,792.3520478332327,-2.396914074097751
828,16.56,392.726036292088,473.04216930100677,-160.6259338510642,867.9399281139889,1454.4669556987944,-10.721496935495395
829,16.580000000000002,375.7994113135861,738.7818377765017,-310.36062574892026,1177.5959916544953,1868.0622203967469,11.910781035860651
830,16.6,269.3105048859003,842.7653840540372,-419.28645320539977,1244.198930386639,1960.289171695419,93.53795662652144
831,16.62,158.7910275343646,796.3887304136508,-467.74701785953874,1094.2326660894541,1756.6626468986792,220.26641022244502
832,16.64,79.24101247518192,650.267928434857,-439.94183610797677,804.8099207245675,1349.2167504143913,348.45635322753594
833,16.66,4.177614532843471,457.5406454708645,-326.5073371619603,453.13565626798345,841.2453392429925,440.29155245476824
834,16.68,-97.76421954984278,251.03311018456432,-128.35678081428944,97.60860795105245,301.3166891352279,489.38256976470115
835,16.7,-217.93995125813575,38.947130677274515,134.7494299990897,-219.42973292655893,-253.1350687805264,516.8424338134171
836,16.72,-320.87694059862736,-190.0896068871179,422.74187163979843,-474.23799164994585,-836.3805738482462,544.9281843773542
837,16.740000000000002,-390.1236949308238,-458.255176519393,687.9614454303352,-674.5719591593693,-1449.7017246497448,568.402960485652
838,16.76,-457.527481527228,-782.3970789980023,890.1787340474835,-861.108342898639,-2037.3496689186595,545.5121386481437
839,16.78,-590.4123782760346,-1147.898575777343,1003.9782216600836,-1074.0520921635027,-2467.35136042443,423.4945568409679
840,16.8,-838.7496343679387,-1483.113230756062,1022.755061595295,-1285.6731097996505,-2545.9588010240223,185.1765546928999
841,16.82,-1169.7569025643386,-1656.2914579562137,958.5566092116219,-1336.604859843013,-2070.1928404809814,-132.01325430577847
842,16.84,-1445.402086869141,-1513.861401880435,828.2835064472824,-949.4021994462081,-926.570496581895,-478.2479329260532
843,16.86,-1483.2967263403893,-957.4582351946694,635.0987757234698,124.25586231668899,785.7479360949568,-847.2634810731961
844,16.88,-1160.8814209152256,-22.514025230334084,370.6216237327951,1883.0634356974624,2693.459985904943,-1253.5296768209744
845,16.9,-475.82146462652844,1096.2945152953855,39.326721720546814,3952.161986969635,4246.268851002121,-1628.5443890032102
846,16.92,458.6385658565504,2095.956115570155,-321.5961029267409,5660.227231657485,4957.917212357988,-1759.9822089241452
847,16.94,1434.9961619685855,2664.9573906012492,-642.194021563115,6268.76701794208,4633.874937116812,-1375.8959092316559
848,16.96,2182.444986582427,2593.016009266208,-840.2896421152009,5277.149893399779,3424.911337935154,-349.2889257253607
849,16.98,2454.0414215777264,1863.5072378404782,-865.4718220836162,2736.0736571988414,1684.3248550892151,1082.3247205558146
850,17.0,2155.624805431047,687.6338264707402,-736.8037258951426,-627.3144134129122,-256.8668082229415,2260.004165331658
851,17.02,1414.2842516452185,-565.9224952683636,-511.63386689948493,-3707.0520282293337,-2215.567814388264,2425.608701569072
852,17.04,521.5750076242429,-1529.5707107736362,-204.6625422592789,-5636.984184029916,-4052.52282530064,1350.5362121984276
853,17.06,-196.15958072462954,-1985.2376322065636,212.48243647996946,-6229.523101403936,-5461.433565194902,-313.2747540553064
854,17.080000000000002,-495.9379676014438,-1911.986988805891,695.0346924965431,-5845.487310738934,-5997.771967194657,-1481.715635693026
855,17.1,-304.26887160098295,-1439.757503007253,1064.8074868156934,-4900.573090766422,-5435.2358490840725,-1538.5566469636633
856,17.12,235.1326717482952,-777.5610382711573,1135.0468326280889,-3580.928328221282,-4029.0581174048975,-752.0296267274487
857,17.14,811.2513599065117,-148.54679333148025,882.2128219011049,-1996.586488754292,-2328.070328274189,156.94170415592794
858,17.16,1115.3982248686264,277.7909457937024,460.3252200763805,-417.7381006801544,-778.8794576835699,699.7402868009524
859,17.18,1015.4111169198445,442.19460457112064,63.414605672970126,787.3110094961111,437.4227216389221,856.592357603649
860,17.2,592.0091272518077,401.3302746045938,-209.64018998634242,1415.2910092765392,1307.9539462542507,836.0426055539766
861,17.22,42.77134246396952,276.2453604869268,-380.7700575097948,1553.041686987304,1876.4849891896172,784.7868842726377
862,17.240000000000002,-430.38997072790454,181.6011040863914,-513.5050966350336,1462.263933225835,2211.6123556210146,716.2610629725993
863,17.26,-690.9123073036833,177.9527226033884,-622.6418519599579,1383.935726366427,2390.6340162176593,591.8884094402292
864,17.28,-711.1615939537954,265.53891244125236,-671.8994368470754,1415.8238088204942,2472.0066918902603,395.4062587848931
865,17.3,-578.958134112812,407.11380650827255,-644.4117750323788,1504.491142787875,2477.6227180307214,148.72900790903472
866,17.32,-432.64282281992723,551.7134524396859,-576.7219974987663,1529.4176561937902,2392.5433647181385,-99.39717208291229
867,17.34,-362.72362174986836,649.1949184821706,-516.1972427655128,1410.979033472528,2183.7061241794513,-295.1034030695778
868,17.36,-369.7201174467859,665.1827287532318,-476.5941193774431,1159.255979179587,1834.467694622239,-410.17321802857794
869,17.38,-399.81678976559937,594.4741028874734,-445.49855044246806,845.8335720616919,1369.331441486865,-455.3651770203393
870,17.400000000000002,-399.70883498255773,458.1299841085407,-406.771115617516,550.6685578678157,846.6168614436892,-457.03220995106005
871,17.42,-348.03980770611383,286.19246800787425,-341.8024881113947,322.79232676244044,332.54343254501634,-429.9331247690667
872,17.44,-265.28082551495663,105.3391875017647,-232.20282170180747,155.41555667001467,-117.13463901205319,-383.87470692869545
873,17.46,-200.91836833635733,-61.50395459124513,-82.14739326887516,-14.444230752515672,-465.55949435818866,-345.5565237863863
874,17.48,-194.6934213462799,-195.3068684294753,68.16954182168752,-264.32702289707794,-704.4311937974808,-354.3818530144764
875,17.5,-241.61764552623004,-287.30083883834334,163.88513471355247,-624.6358932505495,-860.6375678681171,-431.77987999028016
876,17.52,-297.5612362880292,-342.6370007046538,173.68622901861812,-1047.382805469984,-985.0472680067379,-558.525957537542
877,17.54,-317.07791240267903,-374.76087927017613,109.78656304688514,-1429.426726755633,-1124.7191595356117,-682.0781258220179
878,17.56,-282.9076935238299,-396.98176184270636,15.978898383587271,-1670.7667945723229,-1298.7517208390173,-745.935815123509
879,17.580000000000002,-205.73119365566862,-418.2359588141171,-63.29761568683269,-1727.8836941936688,-1492.926485327245,-719.5220707797097
880,17.6,-104.5615147099312,-441.6193030634713,-108.0498016418586,-1627.5000396684586,-1668.5114210767215,-612.3061350010456
881,17.62,11.992029252328958,-463.14424988682833,-123.03066643148634,-1434.0474316398802,-1772.7579364648254,-466.8186138777183
882,17.64,148.4306452002182,-471.5622655195216,-116.50739586066435,-1200.2483299821527,-1747.6438824365857,-333.0000252386722
883,17.66,305.6954293106519,-449.0396766279194,-84.06011580056011,-940.874530949596,-1541.68718594977,-234.60216457667343
884,17.68,460.54444891424987,-371.99083542727436,-20.431733285875552,-641.1345050714632,-1126.9532778119142,-150.51414585979362
885,17.7,566.2914386207253,-216.38774215350884,53.409681851397195,-277.0589441218639,-516.9628544875023,-33.877582355689555
886,17.72,582.7094392464429,27.466567223145702,87.07440477444241,171.79257536475046,222.46213475005123,137.0546446404302
887,17.740000000000002,510.5688854638096,337.54809712170334,35.03795823487666,707.098090861178,979.2598005455561,320.4067597330745
888,17.76,396.2555033315012,657.5922922595018,-104.9951906161343,1282.7224326321418,1623.6864391998852,430.99716251474547
889,17.78,300.1005896923158,917.3904381428245,-285.50895109540295,1790.4548413521857,2050.360864110701,414.49778384258485
890,17.8,256.79988247386007,1063.0049894932358,-433.54774397700623,2100.377574078995,2212.232827459392,306.0835596993486
891,17.82,258.53887216499413,1077.6975051422583,-486.9741784578147,2136.7030113081423,2128.948602800648,205.84182456085142
892,17.84,267.22621934677534,984.3740603051143,-426.8585442253892,1917.8979240402766,1867.369651630519,191.57563637738824
893,17.86,242.80145329702236,829.7728857055947,-286.6167703388811,1527.7238797062425,1506.1386226451496,262.47927148429494
894,17.88,168.88707885385628,657.9147712016999,-126.54364976529423,1059.4110473400726,1104.9989885356877,364.3693333948171
895,17.900000000000002,59.39354073933434,489.11175775282436,4.472527174885833,585.1023023689127,696.8767174234536,448.5434611174759
896,17.92,-57.96346891002795,318.64725155997905,86.13530845774157,152.68383478564584,301.3473206582614,494.371178383156
897,17.94,-166.97134257507713,131.49566019242232,119.91715028018389,-214.23849530340175,-61.972963520962885,490.99445270631344
898,17.96,-275.3414822823275,-83.05540667074486,119.98556338734683,-516.9306353032059,-377.58553658845847,423.808117099181
899,17.98,-403.6010279212661,-325.30153745490543,109.4871897199049,-769.3899750110514,-648.4645598455725,289.37104099121143
900,18.0,-559.6296236453112,-582.8644678917386,110.38844144881496,-976.0960181012526,-898.9120895586664,113.7471160639754
901,18.02,-721.710879323607,-828.8593181808715,124.34347707483379,-1121.8247618734513,-1157.9945344008383,-57.61555615441051
902,18.04,-846.7216563174749,-1026.6918289809441,124.60804216085842,-1184.725131034936,-1437.7889103813513,-190.37538084767803
903,18.06,-895.7191731323176,-1145.6309245281238,78.0137249083026,-1156.888691938089,-1722.2200100864652,-275.48335030713395
904,18.080000000000002,-856.334229363924,-1176.6768376185933,-16.3274632589258,-1054.438636750372,-1966.0567744251555,-315.25242967893996
905,18.1,-754.9661323649257,-1133.3804413779603,-110.76766790641057,-918.8115387499192,-2097.458201702667,-309.55572458293784
906,18.12,-657.7179313331371,-1037.6468126852865,-136.81452017285025,-807.4401130012027,-2027.8051295959208,-263.977381826879
907,18.14,-641.6767336542806,-904.5896016354105,-56.060428562658494,-750.5876560194191,-1675.6784746787207,-204.4372081863712
908,18.16,-731.0416332394768,-735.0870564440464,106.67448720465593,-680.1652376794864,-997.856201884264,-175.62491646064407
909,18.18,-851.682030166215,-515.6648476421626,275.57792647847543,-411.3281291430002,-11.383469175696689,-222.05628061467218
910,18.2,-868.4757654134444,-227.62031730079883,375.38822484692685,248.8921410160561,1197.9956435777708,-357.5584799639884
911,18.22,-682.5675176320765,133.9044159685432,380.10390362326007,1332.2543356727574,2473.6937852899355,-531.5502652657826
912,18.240000000000002,-293.727427473327,542.4020866927001,315.24939191901694,2651.0952151066895,3595.0121017063507,-626.064425922131
913,18.26,218.9955214346408,938.8630696551461,219.11754557031765,3913.9303557978837,4315.422561803189,-520.0833185233219
914,18.28,752.0437418136195,1248.1885060694426,114.33310992027593,4864.052623799684,4447.178779240536,-181.98072467384372
915,18.3,1209.8384577111954,1401.9629946851783,22.604349895271632,5275.837075377989,3958.1779085871585,323.50250073313737
916,18.32,1513.0008014496018,1355.5121805848948,-9.71787606292898,4884.899833658708,3008.773678804631,941.8548561255644
917,18.34,1603.0518046782956,1093.3042620701456,63.389729531302635,3476.3513507065127,1883.3793651761075,1678.9786776755368
918,18.36,1444.4646175590808,628.6323719831906,216.52476416635105,1142.5958436322967,826.0139644054705,2433.138090323593
919,18.38,1027.549406384998,10.803905087499928,340.092555915866,-1575.5982655260382,-159.37525558683552,2787.355126941892
920,18.400000000000002,392.6513556943588,-659.8716443401757,361.00265284921426,-3899.194449256749,-1361.5027004301626,2172.033548592244
921,18.42,-331.40902295500234,-1230.2838391383175,378.17742681148377,-5257.014262281062,-3035.3530443163068,446.11622294476695
922,18.44,-925.912256625142,-1528.5870417581427,593.1070606017569,-5600.300383635003,-4865.705301660513,-1690.0936988399533
923,18.46,-1153.6450225388153,-1435.52901110489,1040.590398446793,-5290.900720483395,-5933.502720066424,-3061.0972755760477
924,18.48,-878.3617719923817,-962.3897446365617,1440.5316236453632,-4655.475738247257,-5522.81590030305,-2955.4239052383386
925,18.5,-166.66204546470928,-276.51868034052063,1416.8861618702194,-3697.4771574467504,-3921.9962834952976,-1701.7326475418417
926,18.52,700.7409800455735,371.1418458783274,876.1552786909557,-2314.7636116818703,-2169.9461329836386,-281.7965496330156
927,18.54,1349.9918589172935,784.9338532878678,109.08720570157317,-705.3090607199848,-1046.5476017048359,556.8009353976422
928,18.56,1520.362844504473,922.570490196103,-489.61209434327486,627.9118279226919,-536.5556872816703,757.3262441976726
929,18.580000000000002,1215.0953489026888,871.6410094215029,-746.9963578435395,1294.7790012813207,-199.1271475157326,685.3821011614498
930,18.6,671.113332284762,743.4345540372826,-756.7901192641546,1321.393745900327,256.22534004598776,638.4073990339646
931,18.62,172.62758801540218,598.0498121046295,-687.8891868261823,1028.8655859416733,823.2670426705529,654.3379318341135
932,18.64,-124.22912923510805,454.1905938219707,-623.8692374391435,730.3066994837252,1384.1913070249748,631.8809609761508
933,18.66,-220.50219542953326,330.74492098519784,-566.985752798762,580.2413985805554,1859.7267804242729,495.24664176326985
934,18.68,-187.17864156729712,252.83094510615473,-512.5317293629082,603.788444703788,2209.817319666903,254.34687161879862
935,18.7,-86.71088917546936,224.66300345754112,-470.44698968080206,758.0960659467772,2391.6409872456993,-14.867171690081904
936,18.72,35.246029027818196,216.14278737290385,-438.57579104497773,959.3693152599158,2363.814846543797,-217.50119540297732
937,18.740000000000002,129.622779810979,184.02089960447455,-395.68374715226355,1105.1776472869956,2121.832617205664,-292.51288270529267
938,18.76,150.09228586397953,103.99831943366843,-326.9144222273293,1113.1588277010567,1712.318441340394,-246.95166814786057
939,18.78,82.45442041307273,-16.96132015171169,-242.2304224340674,957.3013172241889,1211.386676721555,-145.68779259508497
940,18.8,-42.042890108855765,-152.4941785880564,-167.6387387054447,676.1890573397657,691.608064560257,-66.38232185142004
941,18.82,-168.23417185539324,-275.6003028927805,-125.91644043742443,347.21173954993907,201.45779051104546,-59.792840367841386
942,18.84,-253.38082987813428,-369.59742323226294,-125.95202629036925,45.09412120499704,-237.38933282239876,-139.5498062659876
943,18.86,-287.36725812054283,-429.7111901692938,-162.0299609549984,-187.092348393679,-619.9516529594507,-291.7434935219927
944,18.88,-287.4290548824797,-459.45574161650677,-217.41389715293337,-341.3639406421876,-943.6625968954785,-486.2446341244799
945,18.900000000000002,-280.7055728978785,-464.6117202822302,-271.7889948638996,-432.34578150708364,-1199.7389634658725,-685.3301387329675
946,18.92,-287.4373340641594,-448.02788188070343,-312.1950521523966,-482.64439834834036,-1374.4494889413406,-852.8241466708776
947,18.94,-307.3371503777859,-409.9004105047684,-338.3908265074856,-509.01407497258873,-1454.942695462058,-961.2619361221716
948,18.96,-314.15759283941634,-353.35612314494807,-353.01321734877934,-510.23944371154454,-1431.4885684120736,-990.5196185715309
949,18.98,-269.7105709644443,-286.7996884941858,-345.06439565029353,-465.61109569278995,-1294.6920739295178,-921.1893761465985
950,19.0,-155.6723167156469,-215.7848262956345,-291.0079341012475,-350.17099205794733,-1033.353229063171,-739.3020261414738
951,19.02,2.54157313417924,-131.0512225459621,-180.2549144678732,-155.63101769031425,-638.7770356141386,-459.01851771828194
952,19.04,146.87256667161125,-8.642967998297294,-36.58297533394086,102.99810599872905,-116.8942121582285,-139.080741784921
953,19.06,227.04534304773784,172.1158298704196,92.55594364807857,398.0743210130588,495.1558415226063,136.5042318694739
954,19.080000000000002,232.6511785794709,405.81032220662496,167.67644880918618,697.5499548277039,1117.7164123351517,305.1507049176651
955,19.1,188.77232807289545,652.1695934665497,179.30217739860598,958.1187101152204,1638.2321695040741,360.0786401056677
956,19.12,127.32823302184897,849.2144378441931,148.80927994693275,1119.7592386007657,1949.229488255034,346.29083436412805
957,19.14,66.22743811000493,940.7541517789358,113.01727497593454,1123.0744631422126,1995.8766792078525,325.80184588202246
958,19.16,9.083984128272549,901.8926593987142,100.12732413642736,942.8736111655244,1797.568814936275,340.26489766077276
959,19.18,-45.8272534761826,748.2737478436392,112.45588806876626,611.5856833653463,1428.1271170003424,397.23619726422635
960,19.2,-98.55790420922352,525.524890305456,131.7085356817703,214.43054018616496,976.0811568775713,483.218701770057
961,19.22,-143.19602121445843,286.98099789701877,140.40499779381148,-144.07237153904745,515.3433679126459,582.2903330126703
962,19.240000000000002,-167.6783756009587,72.87059282942197,136.31575266876007,-387.25458537359907,94.30149289802115,681.1997901204819
963,19.26,-162.49917168848157,-99.30141649777548,128.74553726627278,-499.80610452643305,-265.1702173648097,763.0153410099183
964,19.28,-134.01816127390452,-232.13539430091754,126.26445189035435,-525.1607603964455,-563.3445990259124,802.2548484636986
