Frame,Time,RightHand_Accel_X,RightHand_Accel_Y,RightHand_Accel_Z,LeftHand_Accel_X,LeftHand_Accel_Y,LeftHand_Accel_Z
0,0.0,-148647.05679732363,107716.48987179615,22828.666355670313,155570.82155998514,106461.11968437288,-8895.722787941439
1,0.02,-128701.52016293255,93272.55127930932,19772.768439960273,134713.34994418864,92185.76157599024,-7704.002323189321
2,0.04,-95689.20653716577,69366.72667399995,14714.768981181896,100192.02688111039,68558.67921833535,-5732.001946771745
3,0.06,-60270.11281220644,43719.56138384069,9288.220310684583,63154.666078804774,43209.95220623335,-3616.4414557312484
4,0.08,-31668.84660807732,23011.45070781067,4907.118156628511,33247.19492573697,22741.777410069688,-1907.02624613368
5,0.1,-13671.536255025225,9982.872407667996,2151.6644732622144,14426.628567199537,9862.681821232509,-828.2165039473877
6,0.12,-4766.1100235411595,3536.145890109299,789.1336527780292,5108.2634819866,3488.1448581141585,-289.25475574332376
7,0.14,-1298.352570133765,1022.2875019586377,257.8848382856502,1467.9346911210014,1000.694716106172,-73.39847821930786
8,0.16,-242.94483846106795,249.100023463876,92.90062134939943,341.385734244688,234.4116054827642,-2.6727790904950286
9,0.18,-1.1348467407430078,59.16836561002599,48.57529348487361,58.61205451088517,46.09641082868014,15.864771814823715
10,0.2,28.98868399282943,18.216980751752914,33.01282472431164,-6.260200637950107,7.126850515439669,16.871261361213833
11,0.22,16.00011136539583,6.692029052515856,21.89605565334185,-25.276273449736678,-0.7645350582159407,10.906315749881305
12,0.24,-2.396512072364077,0.4341911589523979,12.23046802606095,-34.37333641630366,-2.948739817980635,2.387067536428904
13,0.26,-18.89321724240473,-2.98028014292788,6.0633536050195165,-39.71770835435197,-4.349920078457704,-5.379780778880407
14,0.28,-33.22779546713498,-2.308143492580501,5.12288414427915,-41.72263446998711,-5.535507476973752,-10.3733471822494
15,0.3,-44.44191859634084,1.4942914085043195,8.503607320522551,-41.09590712876469,-6.803801457601864,-12.511521655698925
16,0.32,-50.47634058590269,5.8138811087712945,13.26374442380254,-38.04231731747842,-7.801033459729343,-13.294096752024295
17,0.34,-49.45345752527386,8.180518194899284,16.30871826302559,-32.356938972641174,-7.751493671517265,-14.337825092188957
18,0.36,-41.49301145185951,7.67226547931691,15.98044036460469,-24.19470775932465,-6.152305599106596,-16.117817470900775
19,0.38,-29.26486308854371,4.924442470648251,12.559206517511635,-14.534430612224998,-3.2747980381968764,-17.913075312271143
20,0.4,-16.77696605584757,1.1665460265435,7.7068127945212,-4.941887006696919,-0.05503652786748092,-18.71392887202713
21,0.42,-7.518106152046359,-2.5568685925993018,3.3395719660244243,3.021856113142666,2.4191980185958273,-18.085877054793567
22,0.44,-3.3402971261026893,-5.3713108521565855,0.7802134709464355,8.422276346984885,3.4168151445675647,-16.267429389261316
23,0.46,-4.3319995616170015,-6.323765289497332,0.6147237759664805,11.340960023005204,2.859523291862308,-13.608899924147462
24,0.48,-9.06134721072118,-4.724824826278143,2.7635647195545365,12.658191235030902,1.330889262384455,-10.108061132056669
25,0.5,-15.002715449578215,-0.8528061962198867,6.30917086681617,13.313108051293039,-0.22320728761573183,-5.641841097778944
26,0.52,-19.510697010030626,3.9757790125091965,9.47683006438051,13.754146422600698,-0.9742384644903667,-0.5513577398635218
27,0.54,-21.089899431369226,8.226995346474158,10.30026115262618,13.983832027639274,-0.5992612003305194,4.332177256427671
28,0.56,-19.888255295143175,10.971877150647595,7.675184215740434,13.824696928172099,0.6554610677856423,8.382364176291741
29,0.58,-16.885097028693927,11.933112882994543,1.963413130993771,13.053278022616237,2.2482963547936325,11.654965955952267
30,0.6,-12.697881287045972,11.075525658493557,-5.233517081789133,11.567848129832374,3.7169078696255955,14.47403510642638
31,0.62,-7.374344893400136,8.48520425036332,-11.792862543592458,9.621861898447188,4.850088574193165,16.76389446648183
32,0.64,-1.2692440339025044,4.590629230264398,-15.854705664547147,7.71271554678668,5.55362233300752,18.07931522172428
33,0.66,4.265058174641559,0.22588401971610703,-16.4309158259398,6.108535538430505,5.618957979961095,18.144612282769724
34,0.68,7.317761764250752,-3.6230877378089006,-13.5191496756037,4.691014498779975,4.737460317457158,17.011879903857384
35,0.7000000000000001,6.525420071275428,-6.1151340813717034,-7.680784541406186,3.407823576547581,2.8505463892383744,14.729971300523019
36,0.72,1.8534306556270361,-6.782545524556976,0.2302919773527035,2.6618347541348295,0.4399091425532442,11.192666325557992
37,0.74,-5.382976434487779,-5.786610483200262,8.742560619810138,3.062797063772448,-1.7345363703449865,6.340091368324614
38,0.76,-13.166456152462388,-4.03829808568147,15.618028180144798,4.933559482549633,-3.289927663964656,0.22958543626852335
39,0.78,-19.659775925672086,-2.826676002392708,18.67659388438938,8.150518167585746,-4.493734519388582,-7.083462677397604
40,0.8,-23.69466231228425,-2.990845865607602,16.9257184740247,12.204331844887065,-5.80380884757244,-15.345670892238552
41,0.8200000000000001,-24.74420529827205,-4.249715547258885,10.85482431147377,16.17345222128644,-7.268288745763462,-23.560565422572225
42,0.84,-22.90563044870271,-5.30403680190097,1.9362978554813504,18.798522393729286,-8.465498081266151,-29.788688592887723
43,0.86,-19.06827522471112,-4.6570398365349845,-7.928920369633083,18.888404402373446,-8.886394736027086,-31.74785743597
44,0.88,-14.74979338274808,-1.5239500240462287,-16.819674200971686,15.799398027710218,-8.235396495158527,-27.898758371012757
45,0.9,-11.352495640137677,3.673767336788164,-23.22645152416483,9.715964432358824,-6.45655737855969,-18.332371478004056
46,0.92,-9.314173916871015,9.320900267884383,-26.415839904891676,1.7866965292787582,-3.6699791816828036,-4.944666211373734
47,0.9400000000000001,-7.774798247319877,13.190053087185245,-26.503554048906814,-6.007110965703362,-0.1644101496193356,9.212242104854926
48,0.96,-5.1364702086085545,13.596603296143641,-24.190626440095283,-11.561606611610088,3.5967847717992294,21.073027109760417
49,0.98,-0.3739176789181462,10.467018147393832,-20.30975052449193,-13.687033004340165,7.026942879317302,28.58129339967045
50,1.0,5.946856487475147,5.347371606487286,-15.434191603070161,-12.660547775281877,9.531866938043397,31.115705416902358
51,1.02,12.073964030331897,0.3433059563441796,-9.780966728964483,-9.83726305065642,10.689861584082788,29.289496142701097
52,1.04,16.523115714003943,-2.988971711970543,-3.453585171008691,-6.63860729966974,10.454044636431338,24.375707224507224
53,1.06,18.953717291852406,-4.100722928863338,3.212239327825539,-3.671277818911543,9.203865027858722,17.672266014428004
54,1.08,19.761783182570536,-3.4162781598395133,9.510204804894979,-0.6252690346939263,7.5011780432316435,10.130279049956084
55,1.1,19.378938067981714,-2.0315703674785666,14.481508870296963,3.053338684971923,5.713419439285446,2.396618457666375
56,1.12,18.198031107609932,-1.1088152148034014,17.18164181953907,7.4073223115234,3.880760305148293,-4.904438061436721
57,1.1400000000000001,16.729595656362484,-1.2398279033598412,17.05826142564039,11.739464660756067,1.9549976461148242,-10.963288167081013
58,1.16,15.426831175659297,-2.317645761139249,14.287369551984991,14.894192898578325,0.08549376365277084,-14.85812714310756
59,1.18,14.479185114136495,-3.915857672040615,9.777631577926595,15.781032198601764,-1.4274995221792706,-15.922942803377154
60,1.2,13.799349922297687,-5.574584164021433,4.814003589523664,13.919341596428094,-2.442741189345234,-14.140011955298679
61,1.22,12.845984714967678,-6.694994593548257,0.5887499459906713,9.680491791483828,-3.0992493475427865,-10.143397012453566
62,1.24,10.46540597540121,-6.483437381412728,-2.221026380413961,4.024317637272945,-3.5393690859125337,-4.812413873235106
63,1.26,5.475345057320508,-4.413058959730549,-3.697255948259333,-1.9857228430918021,-3.6161612535240124,1.0462246053551358
64,1.28,-2.2322252828804428,-0.8833700345788906,-4.494208193965941,-7.445710940032782,-3.0367375021575094,6.61171066575996
65,1.3,-11.213944684459015,2.7535248002674004,-5.197921902944394,-11.609113855192675,-1.791625206813812,10.90813390663877
66,1.32,-19.172751518383464,5.05635709062687,-5.699154850014796,-13.936367411361026,-0.33152200437227813,13.071861133027237
67,1.34,-24.198176602987594,5.467598041467495,-5.268444338119702,-14.367705093369505,0.7023485655293088,12.8130481569269
68,1.36,-25.4344263159739,4.4417276345403005,-3.5581666717911613,-13.51545415258532,0.865158614731266,10.439495383926552
69,1.3800000000000001,-22.683057578477346,2.765319128883133,-1.6473009865437305,-12.393837327398586,0.049740889161549395,6.431954501303522
70,1.4000000000000001,-15.688687419670629,1.0186965298539206,-1.8056641339733392,-11.844516961524121,-1.5983991076796715,1.2706331708770162
71,1.42,-4.2909125671460036,-0.29275944062757675,-5.996161652311271,-12.188142142462876,-3.7360511517973753,-4.232478169418362
72,1.44,10.429548447121503,-0.5152435638793547,-14.599760081296207,-13.310942778762623,-5.793987807428103,-8.754030152204757
73,1.46,25.210284879575468,0.8425674064200792,-26.324259511429375,-14.885999117209337,-7.09434794603162,-10.995586959230911
74,1.48,35.207053618313225,3.655405811725262,-38.78468515906899,-16.402163926880924,-7.187659480030266,-10.523133462620471
75,1.5,36.28529585994511,7.270129380232782,-49.07036705284084,-17.129835404487345,-6.081611492793958,-7.972747024074132
76,1.52,27.66029838426215,10.938863331665706,-54.48388764529106,-16.408665326396154,-4.095282857604632,-4.313679071612775
77,1.54,12.977095934154402,13.935463161384202,-53.659506666032144,-14.163046473724307,-1.5839473841648015,0.021078945148204853
78,1.56,-1.3101978846310596,15.355238347791925,-47.32720460088271,-11.020951545676423,1.097306221013637,5.111408168610676
79,1.58,-9.769969324123435,14.16294953815595,-37.87411311901587,-7.761413412085495,3.4871039479775496,10.692611701720732
80,1.6,-11.591593732800359,9.735493554724277,-28.050118906720126,-4.580503290953465,5.105319268004701,15.514475270989802
81,1.62,-10.680600655536455,2.5430983240281932,-19.849036220941827,-0.8435867642767009,5.72226178474024,17.664632945351045
82,1.6400000000000001,-11.502307398809785,-5.657987902660846,-13.924155226009507,4.425500413221734,5.487013338738549,15.633455744694697
83,1.6600000000000001,-14.497647532774899,-12.510527264513332,-9.45649564215313,11.591666839757359,4.745852230514678,9.311053306428258
84,1.68,-15.929261826367505,-16.273762070365017,-4.810632685403034,19.75327224759448,3.693643480221861,0.10233647072659902
85,1.7,-12.270091713410203,-16.631425613311926,1.0110395470362432,27.18115589290493,2.1761012210971145,-10.003358366484802
86,1.72,-4.226563261057663,-14.518052466554181,7.288016747650125,32.6496557207485,-0.10289569529419951,-19.537565985712522
87,1.74,3.703485295470773,-11.339923099497575,12.066722780110286,36.28279472525469,-3.1112763187871035,-27.772173578734833
88,1.76,7.068174395498637,-8.281526923627542,13.888210049557768,38.94129451710223,-6.273072244805814,-34.0880686487268
89,1.78,4.549008537768673,-5.924609513169348,13.20799618682709,40.924283694507324,-8.771118357943639,-37.50971597960669
90,1.8,-2.0303465941566303,-4.10256046281941,12.215575913223862,41.512756359431286,-9.99896684192246,-37.08047861495276
91,1.82,-9.712921241626328,-2.06154408999986,13.18696433695747,39.68600897688705,-9.703909351064317,-32.64829133622438
92,1.84,-16.29788534206222,1.0048790576453794,16.874693707682482,35.017973312955135,-7.895471127126083,-25.145590296165828
93,1.86,-21.08600506005786,5.305147438124575,22.318562973046355,27.930909308258762,-4.843699137632449,-16.092134982278477
94,1.8800000000000001,-24.53888328354752,10.104205371938086,27.92109174867828,19.436327135525282,-1.1325374661114431,-6.870227037820406
95,1.9000000000000001,-27.316599827482285,13.918763253363494,32.60301863386805,10.782708486248382,2.524139403773099,1.7301931404696798
96,1.92,-29.41945862308988,15.162921031568654,36.27623415446455,3.0595655441801117,5.675115368581148,9.691531016800683
97,1.94,-30.148358653302783,12.870985001251448,39.65263967749499,-3.2236606188358357,8.291494914404707,17.6069189123186
98,1.96,-29.05375965491553,7.069615135515594,43.795614326020896,-8.17891403703995,10.444772506084906,25.868493762350546
99,1.98,-27.106759695442214,-1.30431545856943,49.85075900851149,-11.957035186859857,11.900469397329488,33.5353351373451
100,2.0,-26.618363980135104,-10.631356728082615,58.9248735320397,-14.129029505202677,12.190426644191877,38.12470938475588
101,2.02,-29.29274807768914,-18.765880523531028,71.63242815784966,-13.893917693807648,11.084081411227672,37.03748318991799
102,2.04,-34.11126281246401,-23.409695324507567,87.19802315384362,-11.04670085357216,8.857776794545705,29.545819904050493
103,2.06,-37.53523856738255,-23.026443887624875,102.72404322475418,-6.616938889761568,6.100987915508843,17.525611563394094
104,2.08,-36.05451785067319,-17.888340797040122,113.40983193801546,-2.416753157506799,3.3831491840527983,4.423361674760653
105,2.1,-28.396482196099996,-10.283168512443613,114.07308018137395,-0.024792675340749692,1.104605133917112,-6.472159284978343
106,2.12,-15.375186727516983,-3.3910300285466395,101.4584484155107,-0.1819903919424699,-0.5172925750651476,-13.300943896834369
107,2.14,1.7778565015146022,0.5255565628099474,75.91837450319531,-2.7496485186683683,-1.4845255042608465,-16.006956170538405
108,2.16,22.55221587536719,1.319619443069448,41.13817861130168,-6.8986995723869065,-2.055798637498145,-15.692037981462512
109,2.18,46.94277917065354,0.6984118954038238,2.0597680043430437,-11.639974433317757,-2.6743238361437096,-13.27650705562789
110,2.2,74.4442658394596,0.8068578250434171,-37.3090178722862,-16.62360145438231,-3.761047721062853,-8.581343525295278
111,2.22,103.17448846819494,2.782213925085883,-74.58756491333565,-22.334722127010895,-5.445827990384128,-0.6729510399146466
112,2.24,129.77814570311858,6.2009740076826105,-108.08005291786199,-29.30859291230184,-7.360254261275833,10.975965332875585
113,2.2600000000000002,150.06882737592542,9.512547388372068,-135.29799648818846,-37.27900062314983,-8.658244694011511,25.430832850182952
114,2.2800000000000002,159.7425043541559,11.021128532454668,-152.23352948177765,-45.00530398860611,-8.374709374462086,39.86693433034524
115,2.3000000000000003,154.99950277089516,9.88561679484221,-154.20297807992426,-50.51826436349396,-5.976875004726267,50.24170860662993
116,2.32,133.76000839398685,6.597413668528321,-138.16242419564463,-51.67013536076776,-1.7252135446853165,53.16942920637035
117,2.34,97.38749482714775,2.607613445270558,-105.16949159719023,-47.20725649660742,3.419621124348567,47.727516153956515
118,2.36,51.25870176005217,-0.5980637664420285,-61.07080910151414,-37.65965971987811,8.204558761673672,35.55406864919995
119,2.38,2.93927341279397,-2.236757559023297,-14.480375032195427,-24.96933078531985,11.46268397428117,19.381102502359898
120,2.4,-40.83633901270763,-2.374371076718963,26.702670275716372,-11.259318566470753,12.332191129170411,1.6806293584196814
121,2.42,-75.92039153201799,-1.6840577970483297,57.70534969081946,1.8862723319728114,10.432501550712736,-15.590472118464234
122,2.44,-100.38706592738956,-1.1000395000581757,76.93960193659393,13.304610732176078,6.039488150906898,-30.65449907247788
123,2.46,-113.46592118346655,-1.386753508714175,84.70068632349127,22.05753994679873,0.10943071626277749,-41.821325964577184
124,2.48,-115.33021339599387,-2.689554184309209,82.09304173381739,27.546913051290694,-5.985332919739223,-47.79378562364522
125,2.5,-107.52949828329783,-4.404663335700446,70.6934424514097,29.611616939472466,-10.933133605793547,-48.001636636426994
126,2.52,-92.76175711615159,-5.616619882626423,52.58553555273684,28.348952950682634,-13.898166057867119,-42.67256581509375
127,2.54,-73.70061516069524,-5.820627942921554,30.331725820855937,23.864362968122656,-14.642729584715509,-32.68117640252802
128,2.56,-52.1482853690577,-5.2791452036927575,6.692865507767169,16.314139306483263,-13.402233593029258,-19.40896218816355
129,2.58,-29.50005481402018,-4.661294919876429,-15.76274138872651,6.34261793882119,-10.7181981398877,-4.735917071984106
130,2.6,-7.7642508175116625,-4.320031963722625,-34.86068057029191,-4.481222046238452,-7.27770774666337,9.02463198606618
131,2.62,10.295492922990169,-3.935965650963165,-48.823448702979704,-13.813917726975937,-3.6882735425554976,19.528203357990243
132,2.64,22.167587083572517,-2.883098751294325,-56.356781065054726,-19.37673187818928,-0.30247181399483103,25.05063006618176
133,2.66,26.78498566015851,-0.9151134443753677,-56.86232447219536,-19.91202639589489,2.6969234199037624,24.958075525043505
134,2.68,24.928000837124827,1.5408147950628108,-50.52497791169404,-15.564161767393383,5.0494141158503325,19.744671049504106
135,2.7,18.624180006727286,3.728632485204355,-38.24432400928448,-7.520933783440292,6.357784259839098,10.733523480187014
136,2.72,10.095475434173942,5.141171617796273,-21.62085027967455,2.6785909675881623,6.318872727956447,-0.3755258298225437
137,2.74,1.132545972546243,5.762164066988467,-2.9831400452431973,13.673651512114873,4.973185697597517,-11.946947431593664
138,2.7600000000000002,-6.6705057386745015,5.734009107365009,14.747527631732925,24.466874293095945,2.729883327390941,-22.749724178865947
139,2.7800000000000002,-11.367454793173122,4.7448886686340295,28.405765132199015,34.385656916127395,0.1886224031765592,-32.26250488096279
140,2.8000000000000003,-10.831978379270922,1.8630467554168053,35.123022262287186,42.90245660951242,-2.1334482824447543,-40.812978923919275
141,2.82,-4.011307301606196,-3.5989840928769055,33.20118669927395,49.24514174603285,-4.090524010730817,-48.99180247001368
142,2.84,7.664235155567638,-10.601552806148803,23.338021990556072,51.994670956981984,-5.995680032877967,-56.168936208068764
143,2.86,20.23837042040718,-15.75428353089665,9.429366871882781,49.23307399026764,-8.245123928932404,-59.1583790740433
144,2.88,29.04736383429273,-14.729350495694824,-2.391535668008504,39.42479186199446,-10.689349261474906,-52.66419567350612
145,2.9,31.061649394581973,-5.063765290762063,-6.7088765005363955,22.44306469933074,-12.431954867537687,-32.13544521914869
146,2.92,25.955728006195088,11.798613258050729,-1.8950592872382064,0.043676538673117715,-12.368443111699964,2.4480346549349576
147,2.94,15.53773518015095,30.843389535950887,9.122390468387168,-24.44963263919377,-9.965907705225225,44.81864075862761
148,2.96,2.4981642997521822,45.88082633769032,20.945903757386304,-47.08710174439066,-5.6005105193187905,84.5424720196093
149,2.98,-10.64837439240333,52.325317195376556,28.932280982020977,-64.36424223872957,-0.29097223448586856,111.64322616805053
150,3.0,-22.16355658521719,48.81827390315211,31.28388807591988,-73.85716272151106,4.83960484102752,120.45416487032836
151,3.02,-31.132884087463868,37.163329464679116,28.98887756559305,-74.40417558711435,8.962916234324359,110.75268471456607
152,3.04,-36.98915023542496,21.004598735678346,24.283538238521714,-66.22244266188108,11.629283478737383,86.58078883510562
153,3.06,-39.03211823244111,4.150850355268966,19.03206543083207,-50.96111420072904,12.641792966611675,54.07544380700578
154,3.08,-36.62262529899753,-10.597146987663438,13.972821074095691,-31.371961284592224,11.923879206651897,19.42096776505426
155,3.1,-29.95428390809024,-21.7102894483713,8.943387989131342,-10.639065335196022,9.511756698670862,-12.404260185979492
156,3.12,-20.475615811829197,-28.54188211333497,3.5703820670926714,8.323566629612685,5.700921906323558,-38.04128746546487
157,3.14,-10.331006496215906,-30.961183749164874,-2.272726057519885,23.446946823326996,1.2183080825892492,-55.71038359437367
158,3.16,-1.2640302800956031,-29.407148589338753,-8.516096052436955,33.78664960145755,-2.845249658619001,-64.97616730454786
159,3.18,6.045232989923235,-25.07177127962042,-15.093082061378194,39.329264111947154,-5.428888030567988,-66.4194931069892
160,3.2,11.761663305350208,-19.681625286973492,-21.856982810089228,40.5816187446406,-5.926786888337364,-61.343195204036235
161,3.22,16.196993380700455,-14.826438162791943,-28.260753960173908,38.40380713811476,-4.319276644326216,-51.46897305780349
162,3.24,19.31067246269378,-11.329395721524456,-33.16371743536001,33.99939210000419,-1.0547466826131429,-38.492339445719956
163,3.2600000000000002,20.68767613710656,-9.125813079685953,-35.06551084762876,28.61934563254762,3.091015074970003,-23.73526198104215
164,3.2800000000000002,19.803377774344796,-7.6340556415970156,-32.82257217437013,23.074424071271913,7.153083881128053,-8.297174385369509
165,3.3000000000000003,16.314215602600235,-6.259597900991976,-26.490913936953437,17.665234552020472,10.21735836369577,6.465734522876415
166,3.3200000000000003,10.330473723755492,-4.733113694190628,-17.602908562087123,12.687316903899283,11.697317945959966,18.806216722095897
167,3.34,2.7038984210083936,-3.1633301778048297,-8.468834529110271,8.847674369870216,11.450246076625291,27.119131517215457
168,3.36,-4.915460868240446,-1.7976717843532393,-0.9683448682539916,6.9472235484643905,9.68147642608998,30.698439509533635
169,3.38,-10.647542580128423,-0.6794670121451551,4.140508166793176,7.133239195703027,6.792500558986644,29.993324609136636
170,3.4,-13.412843614310393,0.4365247897996237,6.904548442981383,8.658780838373103,3.3203750801929064,26.12259213413123
171,3.42,-13.512446285754047,1.789310872974819,7.473947102267212,10.460290718223227,-0.06310537234874525,20.14146557736825
172,3.44,-12.067289535358313,3.2850353024135286,5.92478354363681,11.793366739210693,-2.6440862690377895,12.744253319719506
173,3.46,-9.819404968823331,4.534193255610952,2.6354405440201676,12.19421844727819,-3.9225239066036806,4.51490877845409
174,3.48,-6.573273203526371,5.182460565334845,-1.496150535205047,11.108183684530179,-3.872557571864689,-3.7825105271872
175,3.5,-1.8611542746880945,5.124030284294285,-5.387482146025065,7.9893552628429365,-2.9424024642294544,-11.272135608657429
176,3.52,4.007596901190222,4.432495216814246,-8.302081452092498,2.853738602092087,-1.753540899046775,-17.19596785578828
177,3.54,9.769830708409046,3.251939442477693,-10.02470835889071,-3.509564195603603,-0.7588207883512845,-20.934004823303475
178,3.56,14.091116282581911,1.8292636971878324,-10.621917683892601,-9.98637760236507,-0.10885579586367192,-21.903539937433194
179,3.58,16.444597105522405,0.521103371816987,-10.1910563413683,-15.63538596423776,0.26116963370969415,-19.75049118790864
180,3.6,17.015338420875977,-0.38777963778337265,-8.85178263726025,-19.736138205183238,0.45884071761686673,-14.83099730200151
181,3.62,15.974152544740132,-0.8681761092481108,-6.8311342299922995,-21.688197265270453,0.5100833065888095,-8.401400398168448
182,3.64,13.19682828293398,-1.0685528432501115,-4.432084151855615,-21.14241323043678,0.3537439818745098,-2.176057964738244
183,3.66,8.6576700702179,-1.0684719550828483,-1.8552271664447697,-18.170021100473132,-0.07361649771285739,2.34562811445028
184,3.68,2.785267167608311,-0.781952592062128,0.968383000567149,-13.199885748091802,-0.7534965600579493,4.2942213424141435
185,3.7,-3.5428079607871066,-0.10459227879962302,4.24147820504943,-6.911249114570939,-1.5657637526673835,3.5800093096328403
186,3.72,-9.071919525311309,0.8988746383405379,7.8325751098036545,-0.2856853702382675,-2.343296043728721,0.8545619985481367
187,3.74,-12.33416307229929,1.9622821202571608,10.963152425829147,5.42912080127094,-2.9569816225772185,-2.819283854935968
188,3.7600000000000002,-12.195073289629347,2.743900964067603,12.493758295531306,9.08032582589579,-3.349068585567923,-6.43134696420327
189,3.7800000000000002,-8.482544005425563,3.0080084843538355,11.61670532461643,10.015076123556941,-3.489103549611344,-9.193680222410034
190,3.8000000000000003,-2.0837724033264653,2.750710700954395,8.377433540927607,8.149106939281122,-3.344336021684499,-10.431943955073026
191,3.8200000000000003,5.476832369663679,2.164668351938011,3.6475713146029936,3.813648400032471,-2.9376354840724717,-9.711896720202887
192,3.84,12.530583596047009,1.4316029874211957,-1.35862416756809,-2.2641988683281062,-2.404449139811338,-7.261441271122212
193,3.86,17.69583826644129,0.5419158694757071,-5.578943654743915,-8.90924241395625,-1.9431712048044079,-4.019423445461642
194,3.88,20.25066436610441,-0.594878069696521,-8.254267946528381,-14.732207521362916,-1.713508568903669,-0.9899438950482028
195,3.9,20.16485212587348,-1.8072475820219798,-8.86443957991678,-18.626993633072786,-1.7677760246093916,1.421330195382028
196,3.92,17.705592345844323,-2.529486914001323,-7.245658208075323,-20.10473619194729,-1.9925957589491046,3.36660869195186
197,3.94,13.105098421905081,-2.1779338304702667,-3.928314949915283,-19.23252646934627,-2.08241903638931,5.01460849004393
198,3.96,6.676649613134352,-0.7128470244731339,-0.19317557336592178,-16.39178911007994,-1.6799194515568898,6.170016037806249
199,3.98,-0.8957697270839898,1.2313007659227557,2.550200432791447,-12.161861244526879,-0.6653417395031935,6.327866911831965
200,4.0,-8.490634494934518,2.7951398290597886,3.6314735504131477,-7.33726558058334,0.6849838196954887,5.007795692798872
201,4.0200000000000005,-14.734256194360242,3.441419752855558,3.381737345982332,-2.836522177996568,1.8667723081086844,2.1215090318080945
202,4.04,-18.379724507998546,3.1124726470918764,2.6237972416730826,0.580826690986489,2.4915870038029615,-1.812704284006446
203,4.0600000000000005,-18.75766069720695,2.0294498905347833,2.0211494196459734,2.55510848575602,2.509555641236014,-5.712050880486649
204,4.08,-15.96903925231457,0.49589058581702916,1.837777697414373,3.164396679397547,2.1760578341071612,-8.245485964220045
205,4.1,-10.722492791225921,-1.108894390494377,2.074002628946994,2.8448058019566402,1.8523525384979043,-8.308710640312572
206,4.12,-4.116453027682355,-2.307499999351958,2.583176904377571,2.212952102765799,1.8055826751378707,-5.4362426290075705
207,4.14,2.4848573450577662,-2.685524561714111,2.9863315671990915,1.7778540263636178,2.0936358240730772,-0.023691952741472733
208,4.16,7.632611608787867,-2.152984330578775,2.7184867555264365,1.7979722044208721,2.5527755681311968,6.656608615232316
209,4.18,10.123867862067309,-0.996232017740784,1.4932199377404545,2.4730665615563225,2.9112643419944786,12.769957911143903
210,4.2,9.461119583650781,0.36738597517621563,-0.2595160707222298,4.153959035737093,2.98457672036033,16.659085616222036
211,4.22,6.343021034197703,1.6475790019018426,-1.6304249420713433,7.182462909927809,2.7921802421067947,17.71640365266662
212,4.24,2.893398463848448,2.736598507651871,-2.030642196117747,11.48072224538549,2.547026025904633,16.913464049945667
213,4.26,2.391751775184424,3.7095577623747094,-1.9917675186424053,16.199520608634472,2.735724234630341,16.83250460443913
214,4.28,8.686211438384888,5.010723618666998,-3.798803348815281,19.452090462569608,4.461718340898648,21.375350663608632
215,4.3,25.507439437631778,7.916526108223877,-12.057671942753572,18.00802376929853,9.792852832738427,35.192368255641156
216,4.32,55.274565645894995,15.183527308408252,-34.12916721410632,6.868306739475369,21.621382839448426,62.26299117744239
217,4.34,96.92776920613768,31.346167093321476,-80.19222101876427,-21.461677999037292,42.99746475333382,102.93595896807
218,4.36,143.8814577100349,61.681888419160956,-162.18841334672274,-78.0445597646951,76.5515386263501,150.38866444342432
219,4.38,184.4908547147462,109.64795157155473,-289.92990991713907,-177.14455019776722,124.39667727716136,189.7656710860055
220,4.4,205.93988362556107,174.7617490318924,-463.55228272577966,-330.39024805556386,187.90393031857394,203.22173123112924
221,4.42,199.9327457607402,253.6138431271288,-666.375520868653,-534.6950443555564,266.6136718649317,180.99101627786354
222,4.44,167.96342006752738,343.26258904916074,-866.2436298114915,-762.8657843024373,356.91979455078206,133.6541577793904
223,4.46,123.56070255707098,441.9907014769792,-1028.0039573776064,-969.6352450286738,452.2196674332952,95.51235305321724
224,4.48,87.63096595265482,544.8256482101314,-1128.2104430653387,-1113.565952007192,545.2914827017133,109.22858824956187
225,4.5,76.08091544024238,639.8564847848294,-1160.8090834148027,-1178.3723382734,631.6800053714649,195.1527083563297
226,4.5200000000000005,87.80085120498076,713.7571371403362,-1133.2547083402526,-1176.1344511156342,711.7129057332432,327.9533423974385
227,4.54,104.96900013310767,764.0043666970663,-1060.3001951106157,-1131.4355530355829,789.1541001055733,444.7903556156094
228,4.5600000000000005,107.74192016389539,803.7406544875779,-958.4362221590786,-1061.5861448284033,866.4065931267922,483.35375978534404
229,4.58,90.89391800724712,850.145032801288,-839.4056749895773,-968.4963394671586,938.6656464209357,419.56611665395997
230,4.6000000000000005,67.44164088139603,905.4135095921215,-705.4122357423362,-844.9661683938348,990.7076945386345,275.49215297773935
231,4.62,57.01875737268881,949.869137027788,-551.9631396644096,-686.3656382534073,999.5044476006944,96.33304770843563
232,4.64,71.1187801151605,955.9474516442012,-377.43035612284245,-497.42301761819897,943.6366089423145,-79.5460668532034
233,4.66,108.01124953405224,910.8127197557653,-189.51770266078745,-290.7627673748424,815.901476446378,-234.19361053755694
234,4.68,157.94848964726364,827.0285656185245,-1.1360059435645535,-80.83703618589712,630.9778851635119,-364.03120034959863
235,4.7,209.8875525975974,732.9089822703324,179.90797118317238,121.27711259350883,421.44175971620564,-467.9023273686257
236,4.72,253.85864963320512,652.0331074950352,356.18780122675383,309.66269783259384,223.55314065050518,-541.9747617421012
237,4.74,280.516090037568,587.579990033381,535.5958216077183,482.7606461817725,61.65646174383024,-582.4286788490355
238,4.76,280.92240903740964,520.2662150103547,720.8501366147572,641.0998567977999,-59.8102071305901,-590.0735526904427
239,4.78,246.69113504899087,418.4845975177377,902.1344808011066,783.5132320301299,-153.8275685276322,-572.585984538248
240,4.8,169.5642685461578,253.64990096131163,1058.180624660577,902.6899572236068,-241.35160569785302,-542.385943768833
241,4.82,41.54714768844092,13.926801564569097,1165.4414520189857,983.5271248474176,-340.1515535715582,-510.3548462430693
242,4.84,-140.9389047083285,-288.307118441867,1209.0232188021691,1008.9629465815428,-455.1439698771564,-481.1240426857205
243,4.86,-368.4545161065413,-618.1216567377597,1186.7009814157018,973.7364317661168,-573.0292861770874,-457.26445176444946
244,4.88,-615.7102658997098,-928.2098151338926,1103.8931412081783,895.4359219192656,-666.0208630197596,-449.1867405656962
245,4.9,-857.5966984906183,-1172.6893786049275,967.4671726064618,806.6114206483742,-706.5412864329462,-477.98136049478967
246,4.92,-1095.588022489092,-1319.8900548735826,786.5955447329861,729.3357965862469,-684.0238664457677,-568.0305450798305
247,4.94,-1363.6297800631285,-1361.4971489355814,580.4833723330812,659.9587785602746,-608.6761246578847,-741.3445536625884
248,4.96,-1700.856384509234,-1312.3214886703902,387.84799790284546,585.5254719224148,-497.8658754297511,-1018.9577462558577
249,4.98,-2119.833000989739,-1195.819925863519,271.22497480986067,515.7606444858932,-358.77161402829734,-1417.7268521234728
250,5.0,-2602.141781738441,-1025.6582624238854,306.44648916328003,499.0626123566612,-184.62094084615148,-1935.6552015061789
251,5.0200000000000005,-3114.0053929696305,-804.5147798560386,555.4323071762611,614.9176097748528,29.90212344425082,-2537.027444977796
252,5.04,-3610.8144714999626,-544.1155114323626,1039.8275999248376,952.6587060232025,259.09724221018246,-3145.501578154664
253,5.0600000000000005,-4015.105446000194,-282.0890408757473,1730.7665611059604,1569.876092212887,415.48404513249784,-3634.2086679350523
254,5.08,-4178.788299792478,-73.12618720791693,2531.2323871305734,2411.135202388778,344.4688694875249,-3807.5047873173453
255,5.1000000000000005,-3865.070884106697,34.21119248761815,3212.3033570960597,3209.198325017151,-120.86255068485542,-3408.8011437785262
256,5.12,-2817.2209488763087,4.658744100198213,3356.9070707602987,3480.143076496854,-1039.5222489848745,-2219.7404281090794
257,5.14,-963.5448739740428,-187.80773173214322,2506.509511026704,2759.663505276663,-2241.368903719417,-266.2470486971562
258,5.16,1344.0159366099174,-520.3649540757182,605.0186812474367,1043.5205745089434,-3316.74831409931,2007.5694579914684
259,5.18,3338.478781310908,-839.8502367963321,-1637.6612870764725,-968.7652331402019,-3789.8784997782655,3844.024252521528
260,5.2,4266.046192479687,-896.2589305719281,-3079.818117674633,-2271.420333573874,-3422.640364996769,4617.542706801629
261,5.22,3956.7274988455893,-602.2191341653781,-3100.078992732923,-2380.393869890365,-2440.775581068666,4285.481278591553
262,5.24,2974.9388600308635,-251.5264667440116,-2141.977939249356,-1717.0068542780405,-1426.7076644438025,3394.639449946664
263,5.26,2143.975335998668,-287.1737231531136,-1166.007921902135,-1087.590428427011,-863.5300705235602,2617.2613095144775
264,5.28,1902.9775905885658,-777.7509015830094,-710.1430106674111,-900.3475039861522,-733.8264186768839,2270.5474953425464
265,5.3,2111.412420280195,-1289.8048281682634,-661.9529869314351,-989.7540498479827,-623.1410525967145,2230.379289033257
266,5.32,2377.068994310974,-1374.2684500840257,-740.1485552129739,-1031.918578437613,-220.19724236015225,2199.4699084822814
267,5.34,2454.3442480728672,-1038.0608803559187,-857.5060884621855,-908.3314354338982,370.50918463798064,1996.5684585515041
268,5.36,2339.7752873002873,-641.5045107624319,-1021.4902072890502,-700.7895028095415,811.8904935304836,1639.3517483116552
269,5.38,2124.6324281462503,-465.1897888911528,-1149.2158031346903,-519.2234873532877,903.8413644281375,1253.2001721355607
270,5.4,1861.7490828906807,-503.65837121878576,-1106.7745131245656,-407.530107232551,709.8507938636133,953.3027224735547
271,5.42,1557.5959858881745,-602.0863641208589,-850.982294524898,-353.6985256606491,411.68640955051717,788.175244333778
272,5.44,1222.391809760646,-652.0618174979224,-465.44283262935346,-327.713404900623,145.38260876253844,741.3952259710906
273,5.46,894.4722777951062,-642.0789736224149,-82.83319534466047,-302.84171343793145,-34.667279403999785,759.2722664505899
274,5.48,624.703069760182,-601.7721949842908,202.57811426425135,-259.3638735095875,-115.48781764114698,784.47016966718
275,5.5,447.5221415717769,-551.0111416757559,370.6737131853801,-183.0395658590997,-96.92548436741622,781.2774865486107
276,5.5200000000000005,363.48359765436203,-493.1051343347028,459.7865433598365,-66.40841947083584,8.307157395158253,739.0354148010725
277,5.54,343.4739150187596,-427.8222451710718,524.7044495574401,88.18379709874071,171.1132394141331,657.0496390926843
278,5.5600000000000005,348.7353069952393,-356.45558082580465,600.310566604868,269.23050437459256,354.04899531180706,532.7201467780452
279,5.58,349.4988094204592,-276.87706669223985,692.3034591612394,460.1498684418182,525.1607523258976,365.63123917532073
280,5.6000000000000005,330.26599709229004,-182.13508065430435,789.999536292308,641.23469482484,665.9889170542522,166.36279117071268
281,5.62,286.08751471600607,-67.50447398723283,880.2684511984987,789.005617461026,770.4180117905437,-44.42543351443675
282,5.64,219.66150560047276,63.770390568181156,950.8730431549147,879.1046058575716,839.661291704467,-244.21370072296926
283,5.66,140.04177306462896,203.9562969840885,988.3628130008318,894.7705256719369,878.6034568110149,-414.16642581605436
284,5.68,58.043324856882535,347.96021925832656,979.4034729727216,834.1790041186944,893.6075189901401,-540.7349204668429
285,5.7,-20.725236538175334,494.4667751855627,916.6321885770627,709.9427023478047,889.9543527685569,-617.7586507911046
286,5.72,-98.12345193744638,640.7281911323767,803.9435538026447,542.7208597611129,869.8144768402719,-648.4037499856645
287,5.74,-177.8585159005931,778.4374784178053,656.6571699392825,355.59181811791564,833.2526251118334,-642.8033346656673
288,5.76,-258.06957598312545,895.2211355349305,495.75635737356197,170.86608638905645,781.6667652005302,-612.5582852552465
289,5.78,-330.67278918500034,979.2785281264995,339.26903527278466,5.870969361250545,719.489292791703,-567.9778996319989
290,5.8,-387.9034386914715,1023.0032049356184,196.35055541020955,-132.2344739246449,651.708011135999,-519.7532629546064
291,5.82,-428.0540609603556,1024.6374093357683,67.81008359055753,-247.15920246898435,580.1160000070201,-480.13070238671014
292,5.84,-454.66748569504784,988.7069643360668,-48.96622910976118,-347.349760846367,502.8526838772307,-459.75553062663903
293,5.86,-472.22292860842754,924.7922970207962,-156.03193548748357,-438.17879369823675,417.5704153141397,-462.9426738437172
294,5.88,-484.09930624702986,844.1917732781254,-254.24254713079955,-518.6942411720362,324.56173736470464,-486.20393542456816
295,5.9,-493.36704119759526,756.1627511360053,-344.15089453244457,-583.7940532370305,227.28939075940696,-520.6831226248369
296,5.92,-503.0070792889193,666.1160891252972,-426.4004249516114,-628.5746361149651,131.11272180457678,-555.8571403636266
297,5.94,-514.4469527366542,576.1217626661612,-501.5888176077076,-651.7175572628871,41.88813422673246,-582.7486121987405
298,5.96,-526.8304225169435,486.2578104245885,-570.0913547158655,-656.5544756295269,-35.19934670365039,-596.368624050687
299,5.98,-538.6757107633945,395.79253702091387,-631.6264300242864,-649.6926379512192,-96.77138319892865,-596.7069920987511
300,6.0,-550.0636211492845,304.4856553333741,-684.361215944102,-637.7940240285316,-141.85913096936014,-587.1452849873994
301,6.0200000000000005,-562.4104607858721,214.15566590332804,-724.3271783492704,-624.0229298315883,-171.35113206259416,-570.6870993786791
302,6.04,-575.7540649994596,129.39201952569977,-746.5786799580634,-606.4373979846083,-186.73527065522734,-546.8350589088958
303,6.0600000000000005,-586.554398893777,56.26303288259683,-748.3789062324945,-579.7137816678397,-189.35444391341798,-512.095568984586
304,6.08,-588.5089407391611,-0.21823062144522076,-732.1444466448039,-539.0780550922956,-180.68428578455018,-463.7803360110217
305,6.1000000000000005,-575.656785445588,-37.74193017640172,-705.1033050765185,-483.51708583643284,-162.88154966250016,-403.50793668048357
306,6.12,-544.8815193903043,-56.507101840915524,-675.4379044562925,-416.0410595919152,-138.694852346215,-337.52955584632
307,6.140000000000001,-495.98749941181666,-58.275304749681546,-647.9504672486817,-341.29209457841216,-110.78116619477501,-274.283694718478
308,6.16,-430.38607482888403,-46.02585362717961,-622.1556732321553,-263.12087460731766,-81.1835396278085,-221.18117467599427
309,6.18,-350.5608281600156,-24.148931579012032,-593.2716551719506,-184.5329839542954,-51.523036827174366,-182.03718841244506
310,6.2,-260.55723628384214,1.8606267251850577,-555.0257777592565,-109.23193144233166,-23.72034570835152,-156.1069428274625
311,6.22,-166.10296481037054,26.64007623314564,-502.7447547234688,-41.79908790676855,-0.44065707245331875,-139.3178712497563
312,6.24,-74.25537003744714,46.335211959643345,-435.1522680205227,14.201700298146688,15.35557568757143,-126.83662619470053
313,6.26,6.3662676807629826,59.0401942212676,-354.41954452848654,57.53809993096867,21.312293000019544,-115.09871565776584
314,6.28,65.45098410233791,64.04502569555883,-265.58208664883097,88.12598050474895,15.964377213539686,-102.58524948116214
315,6.3,93.1070637227764,60.53992297738091,-176.05336951274245,104.96922822639087,-1.729649386525657,-90.01658523890549
316,6.32,84.53217732131347,46.84497957399424,-94.22577974468457,106.01444098530428,-32.40138868704368,-79.94237003967866
317,6.34,44.758075803453295,21.155595611030407,-26.173263987926948,90.54873488570826,-74.80763013225855,-74.6450329448365
318,6.36,-10.17629810648844,-16.137225796997697,28.301413590415002,62.311975718326025,-123.65043157731019,-72.54935261262152
319,6.38,-58.35535148029296,-60.21270894218843,77.18336345933193,30.65255535167735,-168.9855523230438,-65.79464167355425
320,6.4,-82.24757050564347,-102.20558418808966,132.89075978168376,8.081581083448512,-198.92053600563654,-41.98537268868966
321,6.42,-77.07123890348362,-133.0581452299723,205.03304222206512,5.588779518752986,-204.3479559205845,9.574239939947262
322,6.44,-49.38737989787641,-148.44208217985278,294.32398028792704,29.69046698649428,-181.97181482325038,90.81900728709314
323,6.46,-7.506039999827236,-150.96501296834958,392.90779606499245,82.49007871226647,-133.8689549221242,192.82592609189686
324,6.48,44.160872275280056,-148.10461172140725,490.30618124192256,160.2475385039637,-66.64850773865122,301.20598070821035
325,6.5,99.85009063166598,-147.7124238086872,577.5919623282641,248.68418623693378,7.219938940756407,403.58843015022455
326,6.5200000000000005,146.96268866240845,-153.99975915750227,645.0814761213564,324.40603248214813,70.39056580978007,490.8021220300845
327,6.54,173.94650784524612,-165.73422408755852,679.4383944307864,370.20500140874697,109.40758756713635,552.2400562541374
328,6.5600000000000005,184.14205909897836,-177.2625790496785,669.0403553593536,390.93326449805693,125.28594003963457,575.4817842304934
329,6.58,194.55427699927648,-181.97914293566993,614.757308561505,407.7068985564424,132.48544306367143,554.5366652881763
330,6.6000000000000005,216.86450460394633,-176.13348743298752,533.2524417975773,433.10673754478216,144.60245689046164,497.0859905448867
331,6.62,243.0341212345768,-160.2842191501651,447.4579882411539,456.3397913682063,161.8527437752641,420.5261391285142
332,6.640000000000001,252.82273171639557,-137.8544352968884,373.58818716318217,455.5526882090613,173.329901949195,340.74271606853983
333,6.66,233.2953890385927,-112.646969476063,316.08724509223237,420.92426743446396,169.19989444189827,265.7416567732077
334,6.68,188.15933155367037,-86.90426558943817,271.60738741720337,362.3249361099495,148.45371734492397,198.6446730257257
335,6.7,130.0712567639872,-60.10384759159378,235.3102848787342,297.4783358543317,116.45539913209925,143.50791687888443
336,6.72,68.29819355472193,-29.040078534467103,203.69712392443319,237.61795803926702,78.91228675140398,106.14821677586765
337,6.74,4.884156795333383,9.718202814699564,173.06582880415053,184.39374533075068,39.885670285655095,89.26310629073248
338,6.76,-60.288536572853914,56.04050510482389,136.84083879122483,136.07894736373467,3.7310758238804955,87.63743662068836
339,6.78,-123.77516653123598,104.6322823307448,86.23371101332538,93.7770579475856,-23.802390347157367,89.3979728786784
340,6.8,-178.2849433785377,147.58504522478768,15.60356169300393,62.41268874879643,-37.59438075310595,83.45368455772919
341,6.82,-217.27269080673483,178.64791635093115,-71.59638011521105,47.42149183703651,-36.21779000722884,66.88758307639667
342,6.84,-239.8318239615735,195.00748348696078,-162.70107645895925,50.3190649466739,-22.951142889348745,45.41022913876456
343,6.86,-251.80173084947512,195.49064775331004,-243.54317744418879,65.96992398534326,-3.8883014455635596,25.91492016928985
344,6.88,-262.0203457631797,178.52049526887254,-308.0000992794039,83.74346654227396,15.251447886405964,7.806415167032229
345,6.9,-276.0082812222896,143.5347169571221,-360.1038849556052,93.01238116769306,31.417192218216666,-17.642335464805658
346,6.92,-291.7531474661855,94.89991612104464,-406.43787036661047,89.64668158477113,44.559456259185694,-57.78715242917909
347,6.94,-301.40659582000706,43.118122636298736,-447.5101014640711,77.9519625769164,56.4685363101933,-108.78534303854359
348,6.96,-297.29628355006747,0.38887953632064765,-477.5712207682741,66.06581170115201,69.21949828087506,-156.93507891597977
349,6.98,-276.0221021182665,-25.880615200409714,-491.00383807006176,58.80125380161472,83.79480287291254,-189.3999510161961
350,7.0,-237.60412009124153,-35.81464046689483,-486.2084151175182,53.59218423686262,98.92741100094412,-202.42388007246637
351,7.0200000000000005,-183.4793101717516,-34.90551842705417,-464.3557920501058,42.24788519242482,110.64846669614974,-201.5723227276397
352,7.04,-116.89848110622577,-30.321876012072252,-427.91252653501755,17.59505554638979,113.46559224271047,-197.9278331488399
353,7.0600000000000005,-43.65144373017835,-28.137069898192834,-380.69856593641254,-19.036513890843075,103.09810875830796,-202.49227224116675
354,7.08,28.806746391581115,-30.970284443988113,-325.7333861947511,-55.760082056968685,78.86647881252975,-217.6841120972019
355,7.1000000000000005,91.38515093672808,-36.04274905331182,-260.80799147355725,-77.50767758543665,43.761540576489374,-230.43436281936175
356,7.12,132.95665420465775,-36.59203828104147,-178.99028466844896,-78.190843173612,2.9144783839526824,-216.7806407786261
357,7.140000000000001,145.49123700651802,-28.328548661481406,-78.12251956794509,-66.15032402221344,-37.04424359029816,-160.13145774825375
358,7.16,133.79692288528156,-15.3255152558137,29.932010759166573,-57.04938359840504,-67.97297809030908,-69.07415825000133
359,7.18,117.33814156805128,-6.766295692143375,124.22051587006226,-61.56480187474241,-82.71256600556234,25.00992920584678
360,7.2,117.6550710120064,-6.571718735829256,191.85267610775907,-79.62235223627299,-80.03743087050003,92.24297896742667
361,7.22,142.96468157446753,-9.483326532431057,237.5158334337649,-104.5573807115808,-66.87039614661845,126.1996665505811
362,7.24,184.44767299053836,-9.684504522025225,272.9336790487829,-131.28546753165074,-54.358113195028196,139.70736121250007
363,7.26,224.28271498239388,-10.049575823187428,299.10633573618236,-160.99597449414182,-50.972801033723414,141.93383795452382
364,7.28,246.03001101630173,-18.995074297783532,302.7501164717722,-199.06376335295695,-58.16838961854,125.73367478380572
365,7.3,241.34162597272527,-39.08575054836426,270.3209267161431,-248.4163839362219,-71.05158061199354,78.38797870767442
366,7.32,212.09792862679535,-61.49305938892312,203.8048484971417,-304.2487387017129,-82.82499356270648,0.2902572346556038
367,7.34,168.4070698411581,-71.69758803542076,123.18936304914276,-354.6974158876168,-89.55878747141365,-89.29301367171898
368,7.36,123.87993417879119,-59.34060510987101,55.12835674339167,-386.61493921157637,-91.75135960176894,-162.96531326552736
369,7.38,90.65059770916851,-23.54515272183443,18.48489748597971,-391.5849150801974,-92.02183821198382,-200.53122100704087
370,7.4,75.77325049168999,28.211863977831975,16.92048442786382,-368.52129006767234,-91.91421623741164,-197.00497481004774
371,7.42,79.23291195356006,84.45281496455831,40.869868166350024,-322.8680647358027,-91.04522894450743,-160.99709891449896
372,7.44,93.83105216670955,134.05212850553724,74.77747625111316,-264.1383944505968,-88.61225697499768,-108.29200352580298
373,7.46,107.50475278924621,169.16434000961345,104.23244290102761,-202.9518163505122,-84.81857926615109,-55.49756587667198
374,7.48,107.5435900856832,186.21629369417133,119.85760915533737,-148.1322862004554,-80.59976695790354,-15.831250412423195
375,7.5,84.82695446579308,185.13064449366038,117.72696205306443,-104.5722313407612,-76.33172719005871,2.6904999544368913
376,7.5200000000000005,36.57120757789635,167.9834847798491,98.0845645283088,-72.4629943953392,-71.17839192118197,-2.5450027729308236
377,7.54,-32.62465207654549,138.44859429315824,64.3995815490643,-47.79371649885094,-63.81723825324497,-28.821727226335156
378,7.5600000000000005,-111.49974147986426,101.91309509423121,23.262206135217387,-23.756006671139907,-53.76376062147468,-68.1878118803181
379,7.58,-185.36741279710643,64.80099494864648,-16.3927261485819,6.728147004709768,-41.92627654542369,-109.07958077099033
380,7.6000000000000005,-241.72941454486283,32.484117433337744,-46.326253297981,47.28596572913298,-29.884321210781938,-140.61345171323404
381,7.62,-275.33059577320967,7.266774864866887,-63.15288558053303,95.06740815695511,-18.723328949234336,-157.60804703758367
382,7.640000000000001,-288.68243949844725,-11.646698225504032,-69.91162955349664,141.53978511584216,-8.569655920450982,-162.2669554280795
383,7.66,-287.73235834049615,-26.25721859690821,-72.94212040177315,177.49007035233853,0.9740544220053459,-160.71481969764932
384,7.68,-277.1211487104836,-37.821174524027,-76.77360829960467,198.1723152121973,10.184835113789061,-157.37720112123185
385,7.7,-259.16790303666784,-46.33296427492352,-81.87402430857088,204.33719671339452,18.938375214502567,-152.10230536481743
386,7.72,-235.84820066078532,-51.29926615288125,-86.64774148117422,199.44524133135528,26.76759086571146,-141.82196228700647
387,7.74,-210.07715210265332,-52.73354207814417,-90.57642674080984,186.80182700037773,33.08147182792675,-124.1939056304146
388,7.76,-184.41265344249328,-51.41819503548549,-95.12550104863006,169.21881141023897,37.63196248816966,-99.61952593192079
389,7.78,-158.6403337706,-48.105197822952896,-101.92857885795522,150.56192551148368,41.1751986369029,-70.31912997515693
390,7.8,-129.20266263568732,-42.32814757271441,-109.92071024186718,136.46730125968065,45.45862487032678,-37.589984194785885
391,7.82,-92.05651976389382,-32.28927771368776,-113.78942499896333,131.99448967530614,51.63219307893472,0.44470351760815063
392,7.84,-46.93019409366488,-16.580442769085458,-106.01326573270768,137.41190293575318,58.205548717406714,47.846595428320775
393,7.86,1.3082752745573418,3.4681039019718733,-82.30397191782978,146.83995627430022,61.3336537166817,105.70979528799201
394,7.88,45.566881651736956,23.084308321759465,-45.849427893724204,152.4778368855508,57.90210733477341,167.0617814167082
395,7.9,80.20766356139404,36.15437680777255,-5.36201251018451,150.44904835332062,47.95336392776724,218.6068948753679
396,7.92,102.13506431100468,38.920163615971724,31.50915679724119,142.18020765608264,33.686176236956584,249.68821542471048
397,7.94,110.50707866972391,32.38012741308891,62.226976682618066,131.19340013529205,17.013019412772383,259.72791406275604
398,7.96,107.60266220217343,21.220264611862042,87.18483452301595,120.40785742755705,-0.8768539358720632,256.4672541025079
399,7.98,99.81780724125237,10.194025389615451,105.43619050213046,112.41686300120969,-18.26004954166654,247.9002100885305
400,8.0,95.48090786356188,1.4206067191636385,114.15703666195304,109.83097991238894,-32.88334769999796,236.9256430576629
401,8.02,99.01182710298035,-4.94450553941338,112.25978192665441,112.8025773377326,-43.9677256592323,223.053811091295
402,8.040000000000001,106.12594768757673,-8.002694134736196,103.89278366855146,116.10386700548976,-53.72709150029377,207.85961177060693
403,8.06,106.44481105767183,-5.196466486613427,98.09594028834837,111.251262247315,-66.03154293411775,198.34175047617828
404,8.08,93.81555069628862,4.88725616473849,104.06201536872058,94.32993854158542,-82.5949759636704,204.33458092957005
405,8.1,74.84552255181387,18.74679261541085,123.87068185031889,71.5980068443847,-99.3134048432515,229.56351686654233
406,8.120000000000001,65.4156570588677,27.905189275842172,146.76872359855676,55.03945691603319,-105.83457242734956,261.44936001977146
407,8.14,77.99042747913445,23.634070209818965,151.5319256885216,51.765252768772925,-90.45094689260911,270.85672314027795
408,8.16,113.28849140427475,2.786653889041972,120.1737551785045,59.14718159041328,-49.026071265175105,229.31788190891893
409,8.18,162.55372569324615,-29.50693230633715,53.666540501339206,69.56203466751714,8.895143347006687,132.64944394291012
410,8.2,212.52912044284773,-61.73756045658821,-27.23359127811915,75.86607427612299,64.29676861525033,6.396995894719657
411,8.22,245.99676234267173,-81.33404796542018,-98.72920347702608,69.55282590122167,100.72122853117959,-114.85246567281726
412,8.24,243.31633763523072,-80.69309338221181,-149.4059877730151,36.459431525397505,111.85277919389429,-211.32927977084677
413,8.26,192.6020088274988,-60.789551304134825,-178.20763042734234,-38.45812688158965,98.5273633136328,-280.43698844147684
414,8.28,102.71070552625169,-30.49860793227453,-183.07631772193403,-156.03784653726885,63.372482156522224,-323.41369357720276
415,8.3,3.5806582401211386,-2.0343803553611064,-158.40396015415695,-292.31938590416564,11.83677417408461,-339.20673955485665
416,8.32,-71.62808374607849,15.181744258052241,-103.42570684779862,-407.62892360738294,-44.49624183202339,-330.72081945033796
417,8.34,-108.42206691357552,18.811294968009154,-28.624490895214624,-470.78997567606336,-90.87985387700522,-308.72368875843813
418,8.36,-116.79832471034709,13.181200987177515,47.62844364110619,-476.575332909656,-117.09114871480811,-285.57189191146404
419,8.38,-117.11066538427553,4.592181273500397,107.75332184051283,-441.6730652320317,-121.20677807451224,-267.64981398304667
420,8.4,-121.69655425114861,-3.363961470214079,141.91344835372087,-386.9233163709438,-107.03251699382085,-255.20146248078578
421,8.42,-128.60326223624702,-10.498623973213759,150.4090703026891,-323.77768881406394,-80.39190190937641,-246.29604785040485
422,8.44,-128.22261862726117,-17.404889393230054,141.40995265147984,-253.01562535932516,-47.67858740205057,-238.42947490801322
423,8.46,-112.77479330056313,-23.373233894586292,125.3271118885774,-171.0311557284665,-14.964867337697287,-228.0943469515817
424,8.48,-81.30697169306383,-26.855843156445438,109.10893204721441,-76.65410052427586,13.703833709707819,-212.11169924956965
425,8.5,-39.847667550456244,-27.094950858841095,94.01496076140177,24.93148015614737,37.179463580873126,-190.4893861194421
426,8.52,1.2362020751819598,-24.864441624690578,77.55676220000132,122.28094726523462,56.0652235990395,-167.1267609481775
427,8.540000000000001,31.289979516851137,-21.812637279591545,57.12167693228168,201.5515785646819,71.00737455763604,-147.0229507051892
428,8.56,43.32819052712661,-19.17465181871375,32.39056649961878,251.8918043933661,82.17706492548626,-132.7466624451688
429,8.58,36.06934731221882,-16.961962816729567,5.542222121153734,269.31580386035057,89.81027281072986,-123.30363948191548
430,8.6,13.369920784356722,-14.334675372336157,-19.923376788114364,257.53534946883656,94.61980883013833,-115.46589121049138
431,8.620000000000001,-18.021172622427855,-10.8093003644963,-40.409028021391784,226.12260201353857,97.47241023304844,-105.45312837602108
432,8.64,-51.0928249029603,-7.092308923215735,-52.934122649510385,187.21013932178496,98.74635974553075,-89.87818656479305
433,8.66,-80.69587463739259,-4.736545696983681,-55.7928890430215,152.10827634286832,98.2374998750037,-66.67877877695871
434,8.68,-104.4745804048867,-5.104017107474547,-49.444777660950436,128.8589968567656,95.86982815361574,-36.31848150536695
435,8.700000000000001,-122.39616763754071,-8.710105224027496,-36.77028479235249,120.8419141943039,92.33481351937925,-1.9827212264689478
436,8.72,-135.5989771343168,-15.314796010298767,-21.81152920658413,126.27820771531621,88.72188845121262,32.088650648683554
437,8.74,-145.4967015207306,-24.224406736368977,-7.756005067442436,139.1127829734479,85.52705147931036,62.93023402266708
438,8.76,-153.3985843646125,-34.336798672325635,4.1278402503057094,151.57067257505673,82.27030018385634,89.89791236184118
439,8.78,-160.41703043144742,-44.13585992765499,13.963750925450427,157.2563157241153,78.10990397337716,113.90820838976668
440,8.8,-167.3165707499071,-52.00110180460611,22.116441611616334,153.0083101446905,72.60413913575672,136.08478295696753
441,8.82,-173.945903801409,-56.70636100862221,28.72377073669775,138.89411138782884,65.76498014796002,157.2995183228146
442,8.84,-178.44996114008057,-57.65559423872085,34.117748318602125,117.15554308228761,57.538421899618356,178.7292719531754
443,8.86,-177.36733263584,-54.80054087381493,39.1539660419167,90.96760420642778,47.49271595848383,202.0692229481083
444,8.88,-167.42045645223368,-48.791055312370915,44.65650938549225,63.123948778413606,35.140256354766805,228.3126846958195
445,8.9,-147.9726179822771,-41.58452393732977,50.349465660788454,34.66426185767867,20.61102257072129,255.88302752203407
446,8.92,-122.09501942570591,-36.49990017724029,54.14811967110149,4.101908346548319,5.251780904386104,280.0638652216033
447,8.94,-95.6276811686782,-36.40928317922727,52.37452159922695,-31.75803501694759,-8.23159199048381,294.81864253438266
448,8.96,-75.35697247624063,-40.70729813021014,41.2891497755504,-75.16832562669657,-16.834836807194904,296.32461471339695
449,8.98,-66.88284935956683,-44.036342742593234,19.76988290378027,-124.47567013575949,-19.566953365686896,285.97326358381054
450,9.0,-71.8725588842002,-39.12730433941971,-8.580509142366392,-173.79889147477581,-18.806587983999986,269.9813891487622
451,9.02,-86.03913226949253,-22.192658359228865,-36.154564865736205,-217.00334007995036,-18.653875769131815,254.96916701800293
452,9.040000000000001,-100.59848507405559,3.8422501125431157,-55.11093745122611,-253.2291432123762,-22.244036333126243,243.26104697978082
453,9.06,-107.23907838020837,31.315969463166528,-61.96552217489018,-288.1072593409434,-31.220291605530566,232.4518040105313
454,9.08,-102.60956612630764,53.15298856782026,-59.95845364182644,-327.850710593898,-46.052283513805754,218.71407141539146
455,9.1,-88.5515285294799,67.03571094382454,-56.81238209364774,-370.8611178271012,-64.21903534381411,199.64615024605968
456,9.120000000000001,-68.66553007743906,75.5722039442063,-58.56060810122121,-405.3748568268303,-78.55802368494022,174.79297266160808
457,9.14,-45.21905745296883,82.80132838497215,-64.7420070214607,-416.8240210365847,-80.36800075509916,144.79214502340963
458,9.16,-19.25784103666136,89.83532352268463,-70.0537885260294,-399.19878919843643,-65.6787683071611,109.85131725733369
459,9.18,7.3505681402863985,93.19386569278748,-70.39211233571567,-360.3861150004488,-38.3094958148118,68.57091307708076
460,9.200000000000001,31.391478374511426,87.3845933610089,-66.1541680063277,-316.88570788540056,-7.248509983357401,19.218276671284602
461,9.22,50.488430071865245,69.58654263216516,-59.894728114495535,-282.8622728838933,18.272544963745254,-36.657283131013074
462,9.24,65.64850224799156,42.4209336702067,-52.73428946109302,-262.54222415662485,32.38029734643509,-92.27784594121532
463,9.26,81.41595329334149,12.636079523565025,-44.49371666122981,-250.51591474526595,34.067417937648,-138.69933172451778
464,9.28,103.4146899788945,-12.899380463127926,-36.70960220502714,-237.49005788496197,26.863865675055393,-170.69376302216216
465,9.3,135.02335718973717,-30.58402282999284,-33.79813903364713,-216.22267252929143,16.69262118401254,-189.75199971830068
466,9.32,174.96363201018679,-40.61510393933488,-40.21391155395198,-184.3984091175073,8.854010023671565,-201.48952797729663
467,9.34,217.01926604763094,-45.015803645375016,-56.42222454427365,-144.32044066965727,6.097379586571533,-210.4532274086597
468,9.36,252.42874992891618,-45.23808373596849,-77.75666246037656,-100.79095587290448,8.706831911762334,-217.22493216817116
469,9.38,274.05239822542615,-41.221588945460766,-97.08135890989979,-58.53535115877759,15.551255194388759,-219.61623064559595
470,9.4,279.9084444397482,-32.28531932167813,-108.7138210974696,-20.101967220954823,24.680315556000412,-215.83238824176885
471,9.42,273.7661884110055,-18.78812804304298,-110.62999900871074,15.127314409540912,33.27283114743135,-206.45437113269108
472,9.44,262.4176767021928,-3.104808049249227,-104.15335731842207,50.50505043442769,37.72687341290255,-194.02622807490278
473,9.46,251.66737531857143,10.912081696668107,-92.38147709047345,90.64408455801897,34.63497823137537,-181.44099571895367
474,9.48,244.1187825884271,19.780323411691484,-78.69249803007362,139.8761570365448,22.553592859060544,-170.7491894746306
475,9.5,240.08923504852189,22.32236378008728,-65.56119216210801,200.98661535999585,3.2714897911018177,-162.60682909752984
476,9.52,239.61670488256829,20.042250621101534,-53.49947454052051,273.3371768799226,-19.075615168570707,-155.80765450245033
477,9.540000000000001,242.5281732158279,15.391443002507351,-40.62971536872506,350.29369119332546,-40.94671684196347,-147.30124836674474
478,9.56,246.64527561052282,9.523218067059982,-23.80554259566351,418.6855486543298,-61.76373887746803,-133.7674702882708
479,9.58,247.31177178227534,1.8688515432266626,-1.2320253860533459,463.3323126642527,-83.13399762851148,-114.45361596840284
480,9.6,240.01252863667386,-8.189197877905318,25.125073475489465,475.0979135830358,-105.69388845052833,-93.00111288198295
481,9.620000000000001,223.8099044026407,-19.70732042658796,49.61256249710644,456.32750140483756,-127.09597513109537,-76.07280947337559
482,9.64,202.12976192379153,-30.40809561109638,65.9575365662138,419.056025919107,-143.2397541636114,-69.25320008768614
483,9.66,180.2450410351867,-37.99794520366362,71.01324024553642,377.811174684168,-150.98250552189162,-73.35859698410302
484,9.68,161.8558826059753,-40.667829742623766,66.24252495740907,342.998615600627,-149.21481441455154,-83.81699424090456
485,9.700000000000001,147.61385752236,-36.42799550243359,56.46808303243403,318.95459053104855,-137.85613648522207,-92.74026383585571
486,9.72,136.48126745204456,-22.956601977050575,47.5689737387587,305.9286586039596,-117.08472105928277,-91.89732691700787
487,9.74,127.9266508682129,0.6043695761068593,44.24525553732034,302.3568397169471,-88.19523452293424,-76.14887136570604
488,9.76,121.8451159920676,31.045752986624464,47.96401026666593,304.76892238010214,-54.52598728342498,-46.99176119204864
489,9.78,115.94324588970488,60.69471840073454,55.72237268677445,306.23459539710944,-20.280619067280504,-13.595177169808778
490,9.8,104.31080274310821,80.56447431207161,60.6269222406724,296.6332838361707,12.370332144737695,10.895948462910377
491,9.82,80.43407414984017,84.84243254309406,54.623031758662194,266.31889930978616,45.01424942683859,15.85441232426352
492,9.84,42.83833059116087,73.53274494198719,33.05352903690338,210.95852888872372,81.1021978602738,-1.4793866668622169
493,9.86,-2.213173450254975,52.1154450108788,-0.8620635299993447,134.022252691868,121.34504660250859,-34.0186331294629
494,9.88,-44.41959740763207,28.756819144035546,-35.79065285645777,45.40566812136582,160.6707904725732,-67.38289075108321
495,9.9,-76.61187999146469,10.197534516950176,-58.506855843491095,-42.78392780338659,190.35039244274975,-87.06334293642442
496,9.92,-98.59736616330659,-1.5291043207098944,-62.08069082062532,-120.9212618566468,203.6666504395845,-86.12749160543733
497,9.94,-114.6389747573399,-9.184084194135146,-48.72362041533649,-184.7333878812778,199.52394643672815,-67.22609325845802
498,9.96,-128.32746660627492,-17.03989362467617,-25.713314544003293,-235.04090786688263,181.10541174748568,-37.87678586484194
499,9.98,-139.56322170782357,-26.672743165332456,0.5689108393811255,-274.4053885096808,152.4651563664312,-4.395625321987243
500,10.0,-144.35329079233338,-35.010041460908326,27.44082711168153,-302.86643081439274,117.03603062189721,30.5213906736101
501,10.02,-136.83400744531122,-36.50397663848798,54.71101521623963,-317.19823306016815,78.13096106565756,66.22349914798629
502,10.040000000000001,-113.73997788986725,-28.037338559958663,81.93100696404494,-315.9210985322592,39.062178829232074,101.41467347178396
503,10.06,-78.83796096479139,-11.894698967323908,107.27858703430175,-304.8562068478541,2.2473388293383976,133.64034941655825
504,10.08,-42.37036578114869,6.401369762431077,128.97530005678075,-295.14085755101877,-31.21318622325052,161.63202704248445
505,10.1,-15.234027667556402,22.568845178790703,146.79613386009035,-294.39743266873245,-60.76339567309862,187.1608258938231
506,10.120000000000001,-3.9070552802057055,35.00808665733274,161.14651779902732,-301.1955514028584,-85.4530592775696,213.06326878044632
507,10.14,-9.98448008580979,42.653890911842154,170.66810374385122,-308.7233350768802,-103.73800161186452,239.21695721418627
508,10.16,-31.38612636199804,43.5129714863681,171.27385535352673,-311.81763012732404,-113.74013904255168,261.13798489279174
509,10.18,-62.087495711051965,36.29941902765405,157.88460376099124,-309.28311462945175,-113.74690416837578,272.50451904659747
510,10.200000000000001,-92.85688956373126,22.839705187119584,128.3528129013015,-301.85592870706785,-103.46914463684084,268.92655497807647
511,10.22,-116.41613439580323,8.136885640803252,88.16272209090019,-291.2303652346426,-85.74049885509218,250.50308505232078
512,10.24,-134.11493963528704,-1.9861511602767834,52.26067589358909,-281.1858569176492,-66.50132053741889,222.3445622878248
513,10.26,-156.82331868673435,-3.4386926214000546,39.116673525292285,-276.66156733756867,-51.431329930578706,192.44441847429948
514,10.28,-197.40268795265123,5.235022859122354,57.32029843165474,-278.97237496389556,-41.39219585668127,167.31806003411322
515,10.3,-260.3835077872531,23.520664953346426,93.8431605519009,-281.80089195631695,-31.642653440398618,148.6734542105817
516,10.32,-336.1289345749995,49.3598402779778,114.84225789401862,-273.7740548031451,-16.85362665203447,134.5215102493985
517,10.34,-401.78275234162527,77.79752344492944,81.46441280396651,-246.94318928037904,2.6402480186580934,123.14063534601019
518,10.36,-428.2915463668925,99.3542875757508,-26.958564689662637,-203.72262959628443,20.077003723048804,114.28268882556864
519,10.38,-392.97289443881766,102.36699840715198,-195.38768661180364,-155.45875436929606,27.96684872055889,105.46978773041758
520,10.4,-293.49762757069556,80.78294222312425,-374.1626822224629,-113.60897405615924,24.330195733983416,88.27153721459906
521,10.42,-153.54024775850402,41.70908145460935,-501.99920723033165,-82.17420674540519,13.482443868031002,50.72426066114265
522,10.44,-13.533195095971056,4.4894024443457,-537.0248143175197,-58.799874206771236,1.311950963923418,-14.165634469636919
523,10.46,88.37032688634807,-9.987480484758429,-474.4043014848794,-41.434325344637145,-9.948394672491176,-100.52720012622555
524,10.48,133.14196303119667,7.87137426458818,-341.60631815049067,-30.481813927395653,-22.78245572706822,-189.55890843991295
525,10.5,127.18187074870971,50.47698389515991,-180.13168381033603,-23.564562515246443,-41.10220857756611,-258.5993795760958
526,10.52,96.5691264767195,97.49355606628163,-27.18226448235861,-11.465575964662486,-66.32825628549483,-293.0564670313546
527,10.540000000000001,72.20194883359464,127.1341595988563,95.57495707500743,17.266497460912227,-96.28786544262644,-292.2661538916908
528,10.56,72.71333492896463,126.9814967167352,184.60006850572086,67.0198448214473,-127.0180003028763,-265.9084677590984
529,10.58,95.35702999632058,97.8540851995005,248.9968012589497,130.81403709266513,-154.94925111362852,-226.3150094812003
530,10.6,121.7726914328546,49.78692503517763,299.8459409219489,195.00794561867076,-177.18671914769618,-184.3338642902681
531,10.620000000000001,134.2882628891371,-4.884574657261805,340.2471542625157,248.55667252919926,-190.0047693842822,-149.99224423513377
532,10.64,129.43632914461853,-55.867786451153705,362.42409480297283,289.3353887852669,-188.01132116874356,-132.61286669036525
533,10.66,118.84870682354844,-95.90006712101811,354.02183696305815,323.3009478935743,-166.09942418603873,-136.75759625947654
534,10.68,119.37669691025668,-120.93188141609096,308.8096261496688,358.068538305204,-123.04292104418568,-157.46683332155177
535,10.700000000000001,141.51158153615515,-130.56185584415783,233.12115867161015,396.3346849955308,-63.19211887677875,-180.92614655790976
536,10.72,183.5463586228699,-127.47647885179555,142.8262045183966,433.8782303171852,5.477929602188434,-191.56720557095593
537,10.74,233.71987344906267,-115.60493642679494,53.74030689306205,462.75863616680743,74.90762161614683,-180.21638588498877
538,10.76,278.0634684838739,-98.61282463729964,-26.496074255768004,476.34314181556624,138.86288384323154,-147.2186368127344
539,10.78,308.1962785067756,-79.59765028858538,-99.20766589328258,471.5815891402021,192.18613975194546,-99.11709701180814
540,10.8,322.8976811146871,-60.876175901637296,-168.8289774787944,446.36714749859243,228.9678208629935,-42.438535655210686
541,10.82,322.81280828934024,-43.03086873881925,-236.04107928993244,395.0728078598795,242.2348105509845,20.155038759336197
542,10.84,305.318940347605,-24.3874181252038,-295.3245544080237,309.1376475762829,226.8908955178963,88.2193522239723
543,10.86,267.1016194039181,-2.449406937536141,-337.81593705701033,186.0040712914228,184.89461648934952,157.87278126667343
544,10.88,212.83170367155057,23.349057089137546,-355.7406715094201,39.703550417355835,128.3035585348786,217.81158306677503
545,10.9,158.9953255953203,50.10067343294915,-344.08465726423054,-99.54368588171577,75.42348925522049,252.65191714478541
546,10.92,124.37237281418366,72.58887439684273,-299.07502388215687,-201.71816120929736,40.403411097607005,253.23182555250474
547,10.94,113.82310021666932,85.7126641195386,-217.82158464557452,-257.5017895711113,23.913176229176454,225.54818354349084
548,10.96,113.7585686534025,85.64130762314709,-103.01892444785878,-282.8676153658931,13.931031992651247,188.9211742490227
549,10.98,107.17234391102353,69.63286253870177,30.998530762521472,-301.59343894259223,-2.901449025103874,163.55573312281018
550,11.0,91.82905474957249,36.944067903816006,160.12034058405692,-323.06478852857293,-29.799778363995728,158.5753179523731
551,11.02,80.02510986744699,-8.611400596055272,262.38618268245943,-337.65413516206695,-58.96594721078031,170.5741894967121
552,11.040000000000001,81.59460068343303,-57.88547820927353,329.2879542775363,-331.47784618011167,-80.34198212102788,190.82613650560228
553,11.06,91.58717999610471,-100.12002347787079,365.5879067903145,-302.0763124890429,-89.46167294580823,211.66848594549276
554,11.08,95.23094204263829,-128.30296723338674,380.37210640802493,-259.5505562807484,-87.65721553462882,227.39902599990026
555,11.1,81.65877950631503,-140.9287874301178,380.11147961706604,-216.05495937223736,-77.73608498810373,232.92202697947408
556,11.120000000000001,51.64041522993644,-139.49133539949798,367.64076832633225,-177.0518363544684,-60.93293585871605,223.56438633548152
557,11.14,14.770592943540418,-125.72446802580549,342.62206951556425,-141.82495833287305,-36.73466333231179,195.47621720296306
558,11.16,-18.120623762543474,-101.25272212287146,301.1333117611822,-109.51084856700061,-4.611503164280335,146.17004508410767
559,11.18,-40.567206776856274,-68.40955043182088,237.50623031904186,-82.8883575923208,33.283286683877094,76.85495939947913
560,11.200000000000001,-52.1775009365186,-30.507084124642205,150.273153796312,-66.45628723363666,70.42585434502,-4.113150280984606
561,11.22,-58.24180111676441,8.142142426037331,48.499280170944985,-61.498494242593885,97.69382741650449,-81.2019061282858
562,11.24,-68.8193224704854,41.90246758774303,-47.754824840072956,-63.312120438270256,108.30463967778141,-137.84229190395286
563,11.26,-96.93156113951554,64.05995676790701,-115.9511216273633,-63.21337194842312,102.37873908402025,-165.17478343386227
564,11.28,-154.62780706624312,68.6906504171889,-144.39078531906728,-53.43505367916389,87.3513229442115,-166.54129207681854
565,11.3,-246.8112597513782,53.68317702914643,-140.41884063659887,-31.25911309652531,73.33842481558521,-154.24498474252968
566,11.32,-365.33371574903725,22.868298899904012,-126.51581825482829,-0.5324770809971489,66.64147252734504,-141.63220034179236
567,11.34,-488.0276978421067,-14.83229335647232,-127.15407538116901,29.40306150373178,66.5217810657136,-136.74551786537992
568,11.36,-585.6784813324874,-49.12794430415061,-155.6867710404345,47.251083150062854,67.4749392728533,-140.6290076303422
569,11.38,-634.122202467486,-72.13655257885071,-208.35346436439448,45.30255338766497,64.09230916385152,-148.30210846186043
570,11.4,-624.2207562580973,-79.58682341465504,-267.05611672998054,24.64254152547877,54.20109981552286,-150.20842882732902
571,11.42,-564.4481447494998,-70.12460247599554,-309.01848720938744,-3.672929862459812,39.29153793609353,-135.50277172823175
572,11.44,-476.6355275338773,-45.48252740142574,-318.7777997843514,-23.59737846413297,24.05843583547629,-98.60030492723115
573,11.46,-388.42638888813013,-12.065085192818096,-295.4927553757312,-22.88700367262363,15.812927791148319,-45.456904573004294
574,11.48,-324.6276473463696,19.04194687961209,-250.17895796839895,0.5395932083725672,22.306273253665374,6.930319948782241
575,11.5,-298.8342473718543,36.42147754323881,-195.1369644990239,39.37195862820718,47.44213444672085,39.62914127852581
576,11.52,-309.2743773569962,35.38002931337377,-135.19247634933396,82.66979064015206,87.92935249743918,42.78579199126257
577,11.540000000000001,-343.2774273191148,22.10386953022511,-68.65145396704517,120.02370336830836,134.79652802464142,19.321211873920547
578,11.56,-387.50897635232633,10.506997698994386,4.405247505615756,141.3783784702862,179.12708381905804,-20.430572007120336
579,11.58,-433.37713643829466,13.431644001000242,76.71186963503229,136.72918685745913,216.70216002399488,-65.59347635515735
580,11.6,-472.26175243745206,35.22316169316131,137.74772914851152,99.86299737021253,247.95246200253322,-105.84849529170782
581,11.620000000000001,-489.97630208325785,71.57034816386209,182.1984740192364,32.992223200695406,275.1691696918077,-128.73035611027296
582,11.64,-472.89957045003905,115.61047756186225,212.96400423068957,-54.57078610887926,300.637118476832,-120.76765719298672
583,11.66,-422.0762129681119,163.7140600952882,235.69796663650806,-153.76277393328374,326.3902664072893,-74.83106152979752
584,11.68,-357.63380816784735,215.59697766239873,251.46775184049477,-260.2423895650684,354.1656821139726,2.5242074037828637
585,11.700000000000001,-304.77085239210646,269.6916023283341,255.02821901628252,-369.53217794805283,384.70620103169125,91.02948913966202
586,11.72,-274.32182821897584,319.5597619244618,239.86899179354776,-469.1524268950934,416.2360397560078,165.37800373321392
587,11.74,-257.78493980306655,355.89505325718847,205.74303276143922,-539.8883763345158,442.4850839236853,208.10945661602022
588,11.76,-239.6670345040476,372.6978656843788,162.63360481276922,-567.1905921081841,452.50131473375916,218.940475631145
589,11.78,-210.74283130665304,371.7370580542725,126.7103978498211,-549.6476049389898,435.03993146399716,213.1284835838252
590,11.8,-168.5558180763353,361.2422487591834,109.73103269832335,-494.6502088222247,386.2053851636989,208.69033244011504
591,11.82,-110.41420635254946,350.3831793621681,110.23464656655159,-408.293879599419,314.1900328922164,212.5525146656786
592,11.84,-32.34734485429447,343.86724860166896,114.40422841274587,-293.53511743681463,236.47962617867879,216.76793822730258
593,11.86,64.28469680292677,339.49382654922704,105.76628115610758,-157.97824329672716,171.41547720348717,205.64019453737558
594,11.88,169.1527254621278,329.5684550396421,75.90860078739959,-18.791211649800164,129.5540595323192,166.31051429500127
595,11.9,268.61416702102053,305.557248896083,29.3633065757194,103.86825279391981,108.77334879112718,96.66268848033764
596,11.92,354.35468013362527,262.9287897672117,-19.391399721726582,198.57723188078745,94.93156269957531,7.8640119646749245
597,11.94,425.56238825656175,202.47364712162604,-54.67034532500632,267.1841367745259,68.15552508578597,-80.37568978175827
598,11.96,483.9154747186153,127.78640849858198,-68.74392751077531,318.4175412024606,11.852902868761987,-150.67079438205593
599,11.98,528.6754210743518,42.105740677809564,-65.50278824150823,357.92270610321395,-80.29858787012708,-197.7187444525925
600,12.0,557.1516687911046,-52.70770209333239,-56.66187512364405,383.91275224005915,-202.3667546434666,-228.888949602735
601,12.02,568.2029682334799,-154.89152441069442,-54.24116446609963,390.73937215292716,-339.36870445004115,-255.60415049493793
602,12.040000000000001,563.7232737453597,-260.6301748558096,-64.88333570688467,375.7505362011548,-473.98707618844014,-283.9166705413484
603,12.06,547.2956499389725,-362.7482462936621,-88.43332304608221,343.6447536743144,-593.2106869749209,-312.0040142851702
604,12.08,522.8916966358255,-451.65837764761204,-119.75450640462472,305.5679601904569,-690.8399717876588,-334.47325931443754
605,12.1,495.1366096326272,-518.5630560713677,-152.01892225476576,274.00430904439503,-764.965026909127,-347.62563685552834
606,12.120000000000001,469.8962139737614,-558.6815082883317,-179.6351336021112,257.61573875219227,-813.5493544627934,-350.5652962419741
607,12.14,453.41744360621465,-572.0739830847017,-199.09114539402287,259.8887046947017,-832.0470199485572,-342.3726388318669
608,12.16,449.5358048208147,-562.6354459197008,-208.84289673297332,280.5472075817692,-814.6013549664044,-321.2374421442914
609,12.18,456.607105441769,-537.5687834388757,-211.39953127588603,315.43747957951535,-757.4970369799876,-290.21414110859706
610,12.200000000000001,467.083738091147,-506.5777203288534,-215.27143497827535,354.5278568553181,-662.57973293048,-263.04116685829337
611,12.22,470.49034399772813,-477.37324532643066,-228.50137978878706,382.786663169748,-539.4912544019418,-256.2314921246409
612,12.24,457.20937670892624,-448.72059824666763,-244.50640790658076,386.52270918358204,-405.8099450431034,-268.2452299696086
613,12.26,421.27190660674364,-409.2726946008318,-238.22441560001886,361.32553943290145,-282.3981534515341,-270.2356875025084
614,12.280000000000001,363.37044806883114,-347.2532943049592,-186.36440930938278,315.5557261592022,-182.87361511014237,-227.92455990633414
615,12.3,293.37295345710675,-262.8179340403458,-94.84677308486292,266.3795496166987,-104.37862928906245,-136.21210665176847
616,12.32,227.1781093737006,-169.39258653905324,-0.20749136550836766,229.69687321855048,-31.13355961389104,-26.619360949706113
617,12.34,176.3800268082375,-82.53971628782483,60.82016349004504,209.65873204599524,49.20503705809608,62.78780732518979
618,12.36,138.92667581872928,-9.261196946087964,81.64739864939952,195.4285204558693,132.30630190686938,121.73198612050199
619,12.38,100.09207605809542,52.035463387421174,86.04649056183169,168.22588578359026,200.3462333331247,171.67451233646915
620,12.4,42.85411487006115,104.70997877918705,103.14156664595308,113.40853046486959,236.20449336803952,241.33054169078028
621,12.42,-41.408369583975585,149.8806971773695,144.0056907648573,28.951558528967645,234.1552489277534,341.09013954795853
622,12.44,-149.17730986343813,188.22258308518903,197.2238188818278,-74.62276819879506,201.3326187809555,455.8425198315729
623,12.46,-268.73625887553436,223.06754436172267,240.8896461685698,-181.94898241221557,153.97541721704638,555.5664573943923
624,12.48,-387.45146681002257,260.09307070866646,258.551221692792,-282.6523816392388,112.49543100921206,612.6829722216612
625,12.5,-496.5500869837722,303.54623844621415,247.6536568170029,-375.9454181898662,96.3892977150345,615.0921623518165
626,12.52,-590.744956011833,353.0113602992377,216.1357161377539,-466.0999800587616,119.26784678473176,568.3311452491009
627,12.540000000000001,-665.5523663560176,404.2444707022812,172.397234712826,-552.8158630575157,184.25399698160896,487.87844513065016
628,12.56,-716.5146452069787,452.7400880703668,119.09681263948175,-625.4062583311975,280.95358480901996,389.29809820734135
629,12.58,-740.6246685134545,495.5804581907156,56.34317904773708,-666.2484360285318,387.03741427351963,283.6960384039773
630,12.6,-737.3109511909224,530.0219127655653,-10.554167512024186,-660.9325024622624,475.8382366223379,179.53792203331395
631,12.620000000000001,-707.6569427368252,551.26291639062,-68.01581919818301,-607.5974569301757,525.8931373170265,85.9300084204072
632,12.64,-652.8372291678813,551.4143577243053,-99.2594173630875,-519.2441496945112,526.1406587340564,12.130158817826919
633,12.66,-573.3139114778052,519.8645084653114,-92.74100483612702,-417.99059308120405,475.29573966976545,-36.919382522879474
634,12.68,-469.59785559287934,445.7289725703663,-47.680228866055174,-324.9892219091699,379.6998008107464,-64.45765370542527
635,12.700000000000001,-344.12271627524586,323.154592354015,25.104455098399328,-251.52440339765303,253.43482180984876,-81.4324216145412
636,12.72,-202.91201829108203,157.70468654250521,106.01011340867956,-195.83374994404267,118.93173097808699,-102.09036789167298
637,12.74,-56.124561587761264,-30.399995856709005,173.27393069252463,-147.109994838795,2.9832771797511484,-137.64741338860577
638,12.76,82.72990925885591,-210.08479921404103,212.7121161389407,-93.69875332407207,-73.51449880080187,-189.9544860956455
639,12.780000000000001,199.46705414751517,-350.39792123108475,224.83044346860524,-29.62480934515084,-106.47310156512546,-248.70632335062066
640,12.8,284.74381041210484,-433.13407506004955,222.10177570677212,44.91096223742433,-111.06870094020624,-296.00697333290367
641,12.82,341.0670316893121,-459.1881725033184,216.88288331228944,128.44711039833797,-112.25384334310763,-316.79095339157686
642,12.84,385.0295520962328,-445.0529505118931,210.2961941078491,222.8619519705446,-130.48298417726684,-307.00627399065183
643,12.86,437.83549754320813,-412.8952083215137,192.74875222987316,331.1049889258848,-173.9874987087587,-272.35722851341905
644,12.88,507.6003969295268,-380.87127244057444,155.50516869793188,448.8468895999538,-240.8650228235548,-220.06628493547663
645,12.9,579.7332224355443,-358.2913325528816,101.18089967075394,560.6143801273603,-323.76400518378506,-153.9336781440656
646,12.92,627.3673854770916,-345.98952523172795,42.380463291120805,648.223638216239,-410.9681882290178,-77.87859916371492
647,12.94,632.4561364756363,-339.4074846442163,-9.427060457532281,703.5491972552259,-487.1298118459247,-0.9317907576116822
648,12.96,596.6533824855245,-331.8400139760502,-53.40447336181259,731.0058505677107,-538.6359560817513,65.07631633409119
649,12.98,534.6909830662545,-316.63794894014063,-99.01373964770448,738.6700429539969,-560.1583786477806,112.71060710023288
650,13.0,462.03767118365147,-288.4215601619221,-157.15638599246043,730.8236189397512,-555.3617893669773,141.95351526095473
651,13.02,389.7153709070376,-244.29374025183955,-230.41442904598017,710.0663038700795,-531.6080593879539,156.66036332562464
652,13.040000000000001,326.26752148612,-185.74091451883058,-309.62069731729815,683.3109003172563,-493.9750621509337,159.92353019446836
653,13.06,278.5267149865482,-119.9788035086134,-378.29676442115,661.1682664680947,-442.1123545136037,152.76393590306833
654,13.08,246.62135514390815,-58.437063690814945,-420.4157397926461,647.9731942566636,-371.3061273238444,136.12943470260012
655,13.1,217.88163367948582,-11.870810583169359,-425.6196276805823,631.1478071633766,-278.44317013645605,114.8515072300764
656,13.120000000000001,168.4047281620508,15.325917170060476,-390.02820306222634,582.5370617158173,-169.54971036659842,100.90629344108945
657,13.14,75.98597940643012,27.236057465580714,-315.9793430405349,475.7403077399389,-61.24259383329562,110.1361289895598
658,13.16,-61.351206435904295,32.22633534411027,-214.32106765788842,309.3285871228618,28.04029836744086,149.3059582769943
659,13.18,-215.08339920734613,35.57012204249829,-106.08444370819372,117.46722332984794,90.67544606929374,203.320275245367
660,13.200000000000001,-339.0186550484847,36.9284179404512,-15.572281681011248,-46.957943815466955,133.91767493002055,240.5778229516292
661,13.22,-403.9432760481419,36.25997279073907,44.596547962564564,-151.97637899210233,170.6547966386866,238.80211733634474
662,13.24,-423.8178510943402,40.49828941520784,82.05400683973787,-215.61898542305192,207.34239939080243,206.25538469494649
663,13.26,-438.5030309237872,60.49682502523235,114.9911985337965,-287.4585546343661,242.79719964300037,172.05311770902796
664,13.280000000000001,-463.3636654785772,99.46658606214876,152.60571262418142,-391.8266349204927,275.90893312499776,153.97850034717362
665,13.3,-464.42875499398934,145.72881121186512,185.75088385664753,-494.30969088860513,307.6885433772854,140.27190571284467
666,13.32,-394.5215892273204,178.42813315336548,195.68140560556387,-534.7228016739757,333.89638313784053,104.70243091590677
667,13.34,-249.2795603602241,180.81000279560593,170.44595269186956,-489.94416191599225,342.25013519059826,34.79582092361022
668,13.36,-76.82798652832054,149.63250157991143,114.74441821519405,-394.11517420769354,322.6644339460033,-56.92470233490323
669,13.38,64.69750924610767,95.66166686849128,47.24380637067251,-300.47357443032377,278.2313448598595,-143.62194485403793
670,13.4,150.17704726581448,38.19378738819235,-11.47810619518853,-235.504261766708,223.5063543685597,-200.79371768830637
671,13.42,193.21217116162444,-1.8660818583338532,-50.75475009727343,-190.0355045730264,175.10415943574256,-216.62949258530398
672,13.44,221.43268555473264,-8.845595842357262,-72.41849329750113,-143.46775966554043,145.11623371662256,-194.58769782464532
673,13.46,247.80300990972194,20.817367290743473,-84.79072774003834,-92.2322213826618,137.416369884391,-150.00680007790908
674,13.48,259.2436453158626,74.39109742955435,-96.32594500851393,-59.70675756490572,145.26443856029974,-103.4667176630622
675,13.5,229.95631452446992,126.51480229555797,-113.16350911555071,-80.96873372652026,154.3159900367032,-74.52126721936126
676,13.52,147.25760317767762,151.10205622021962,-137.90980853002497,-174.45385811491383,150.57941490300522,-76.62457466772422
677,13.540000000000001,26.549093590228544,134.15332545174542,-168.2203538305782,-323.85657262846206,126.1723711874607,-112.37564183582903
678,13.56,-95.957920388952,79.53886270093975,-197.77685737456048,-483.78794190944075,80.71876076552712,-171.86426607141365
679,13.58,-182.83787995851696,6.113698426428314,-220.00000570236566,-601.5281419561047,22.087398353747542,-237.56851542182213
680,13.6,-211.3970442383154,-60.39955471970695,-230.6335757454931,-638.439303375789,-33.63307398912386,-292.4518244143708
681,13.620000000000001,-179.8163562640435,-96.45026947857122,-227.20025727624915,-582.1939590075185,-66.55812898441981,-324.2685473750494
682,13.64,-105.63648565621781,-87.47523397914253,-208.39291330134506,-449.26534139978133,-61.32059724594064,-325.3442894448866
683,13.66,-18.443313923926684,-31.367736092941406,-176.71803990713795,-277.84235004631864,-14.40675852155367,-293.5395121446663
684,13.68,52.14689587135322,60.74201618163843,-142.57428021768993,-111.95087274781893,63.588299370155596,-236.7814588167018
685,13.700000000000001,88.19382390146099,166.3466485144798,-124.0178850021122,16.21354891622442,151.9811231930957,-175.1294412049963
686,13.72,87.61867891798182,258.1889649217172,-138.5577798889912,94.90630180301767,228.20951732828416,-132.44874680074696
687,13.74,58.85455236335838,316.385381266686,-190.32461851157996,128.54358986175356,275.161814503413,-119.01529943978919
688,13.76,11.658267485574726,339.66477001910346,-262.7984667514182,127.4497327650754,283.85211560703516,-119.44122966049675
689,13.780000000000001,-47.86023152015373,344.7127432991633,-326.46691113188746,100.87637597232894,253.4288135678105,-101.76788428508164
690,13.8,-114.63471602618738,350.7565674121283,-357.77601295961415,56.29641030341905,192.3470930590903,-44.81531150113602
691,13.82,-179.3838307401409,361.823514171081,-351.268953335309,1.5471308624888356,118.5530312144532,41.50356030781107
692,13.84,-229.9741280724574,362.8827385717185,-311.90390995488093,-55.28714820464462,52.81595483302106,124.40715282620215
693,13.86,-261.51530775212433,332.8053810365082,-238.26389403108843,-109.20976230867674,6.402513779215326,176.40007423832816
694,13.88,-284.0323304655932,262.2924237710329,-118.9118377902837,-159.29295169542394,-26.4743693406473,194.85040473215508
695,13.9,-314.4164561873571,162.67851424390736,52.69791191845471,-201.25195899056695,-62.427174486063144,196.76976943656206
696,13.92,-354.9390401637735,60.29586534102128,260.7988737289626,-215.15604402346537,-111.18062459039828,197.18497472369359
697,13.94,-379.7311698982395,-17.207066064801673,464.6138873223929,-164.11962518480598,-160.27447491709773,191.3950544170305
698,13.96,-350.46231981360825,-50.15164718384112,614.1819717316663,-18.320541282999685,-178.83047901446255,157.74831565387782
699,13.98,-253.4433103584138,-26.103643489216388,675.2409070015627,207.46631056214733,-142.8590237408518,81.48267701936909
700,14.0,-119.04548646538379,62.895084676713665,645.6166276144781,443.35188668099346,-59.936926998068216,-22.309387635728168
701,14.02,2.835260479253293,215.28481197369578,549.530886079261,606.0212080234273,34.041724040867955,-113.39115509496335
702,14.040000000000001,84.82545490760958,411.08571844331107,415.87018986160996,659.1876492038685,103.20599814801867,-156.88100729950028
703,14.06,133.7088850326176,612.5834426861578,262.7464172679195,631.5548185186817,132.98793844451268,-146.58869310489794
704,14.08,166.48774777796672,778.7838427016811,101.94533495235535,578.4526905671535,125.57967502252657,-97.99769383278131
705,14.1,188.41017252148987,881.6419940966236,-46.72546653530018,533.9016015193539,85.75499880291872,-25.740986870636025
706,14.120000000000001,195.17800181064374,909.3549299824167,-150.62881719792546,497.338646708554,18.338512001950413,65.39517299575755
707,14.14,183.40574797870482,856.3810666596135,-174.84357727187478,451.79795602206775,-66.09106705364309,171.1149741861817
708,14.16,150.01660435192557,714.7585643286459,-96.69718688111604,384.47793868107544,-152.4693658630045,278.84866228205175
709,14.18,86.05462828212137,478.41673909526025,87.51307509535582,293.8385743136695,-230.0030584713823,371.42929018168775
710,14.200000000000001,-19.37823224273101,154.61194269718615,363.84967872306936,187.6481908825944,-295.86920986870723,435.1919617549922
711,14.22,-165.3929375233474,-233.134616242844,704.9638338013121,79.8117142281179,-349.36798082067867,462.5532949773099
712,14.24,-332.08470152480834,-656.3355060561936,1075.6699322281588,-13.473738472961696,-385.880483833375,451.3601277181515
713,14.26,-489.14466771939,-1096.875174746068,1439.4106930584064,-80.1037266979094,-398.5085878348453,406.1372118068271
714,14.280000000000001,-609.2929866196553,-1552.0557384282747,1761.0390360413453,-117.851855846609,-383.51725379839627,338.2926713584245
715,14.3,-669.1279758423095,-2023.2709547057334,2001.7079063281365,-133.93207898596444,-342.54843578584496,261.05523465149616
716,14.32,-636.9081288104969,-2492.730568350783,2110.441387349877,-138.1833134664417,-281.88987592068,183.58008107402443
717,14.34,-466.9777801193621,-2900.1963848053965,2023.9369841122493,-136.03912714111675,-212.48212765883406,111.75133428139566
718,14.36,-119.74195425433265,-3136.275414950105,1681.478367513228,-126.62608652819554,-149.19035694086875,53.958076974494425
719,14.38,396.50810551224833,-3067.309489904006,1051.7159839277479,-106.04672634731642,-105.03649243669686,21.995215379662596
720,14.4,989.7918571339903,-2592.8115013884503,163.43380919527846,-73.07575695482005,-82.27441417629205,22.948665750401176
721,14.42,1489.9136846604652,-1710.861355531313,-871.119495571229,-34.38098974570062,-69.5316178457528,50.14689609703245
722,14.44,1713.3774403182965,-548.6517469099228,-1860.6313586518604,-6.023758210366978,-51.62762348822402,83.97403343190253
723,14.46,1564.0742037134087,670.6688808200137,-2586.3503813385955,-8.692862633337747,-25.57182342222612,103.53227111706043
724,14.48,1101.5288185890404,1709.9195392577656,-2891.979151876657,-57.97736721994852,-5.576209212227141,98.74732932514927
725,14.5,512.2343429917785,2399.3641855861406,-2762.601800620029,-155.83428212369324,-7.985407605217631,71.5763664903077
726,14.52,-4.774869347578772,2676.759317937297,-2334.576732283832,-290.15098712111654,-30.299744728042533,26.742901142011938
727,14.540000000000001,-345.0763075695563,2581.1834299662887,-1821.9631740552968,-442.4937786771564,-47.57322399954087,-36.094025976892816
728,14.56,-514.6579593533705,2220.2238773860445,-1407.060705232007,-595.3205554587732,-29.360640033251975,-120.08367503132877
729,14.58,-565.8832440794836,1728.5823951122306,-1165.3700036857642,-731.3159585138937,41.30473854004714,-222.5674727945689
730,14.6,-534.8521940212225,1227.7719410448003,-1061.3881909643492,-829.2446997810162,161.20409126754737,-329.0852299439522
731,14.620000000000001,-432.77724062762815,796.8230005082165,-999.2124907263667,-866.6196778254936,310.7663775538083,-415.2146884526312
732,14.64,-271.8811062957259,464.4014867336376,-885.7973688781913,-830.9236065035302,462.30060328728666,-456.6445880492818
733,14.66,-81.00335807869614,222.33071069586254,-673.4899584011708,-729.7528977957181,589.7433081565786,-443.33289307771673
734,14.68,103.22407038840537,47.373058784601284,-371.3064660268213,-589.7903061650468,676.9145958169063,-388.98110344599496
735,14.700000000000001,252.67161893635105,-82.97835640752889,-30.595701010823905,-444.0020751328425,720.91579927633,-327.6668917551242
736,14.72,354.8297016655469,-184.95088467808512,283.5659312449193,-315.8348630418374,729.92754091306,-297.79858635281806
737,14.74,409.3996557638047,-269.0416871463529,521.400185585922,-210.95922329437474,716.6121247130312,-323.37314593423037
738,14.76,421.3813305359192,-341.7091711764562,663.8843919657495,-120.8001550249237,689.7769999488082,-404.53208259895575
739,14.780000000000001,396.8340303573581,-406.05942110586784,719.7427726447263,-33.66762826181861,649.3750152167486,-520.7052125702546
740,14.8,342.5243143324467,-461.63031798006045,713.1696159279983,54.38273232787266,588.6654935226956,-639.1732377867545
741,14.82,265.9835174845773,-504.40692813852695,674.2494499955178,134.87240827124145,501.0008571900396,-721.7023955987856
742,14.84,173.9200100979874,-528.1050601098939,632.0068182056573,190.9901402661048,385.7731253792541,-731.4308972674119
743,14.86,73.17056719746157,-526.7108116416482,602.0379407914485,209.62693094502723,252.77968053652629,-647.1340337572324
744,14.88,-23.1836255049529,-496.97148049510434,572.5643328300584,193.69074175350758,126.11186047246733,-480.8415422629139
745,14.9,-93.97970727488818,-438.958326773771,508.9433092076281,160.8915674539404,41.189614925777384,-278.69134017663646
746,14.92,-123.50308494934211,-354.4098016062619,384.80730536152464,124.55219012229941,26.885392358649405,-93.12802920532205
747,14.94,-120.31775216911257,-245.5344343960499,213.14404405461474,75.30850074020113,81.05801845290588,51.443129282931174
748,14.96,-115.78880782853318,-116.75110516220292,43.26928238299715,-12.022114092268083,162.57017529884354,164.69709275991295
749,14.98,-137.40136883677408,22.44027140381335,-72.81254851158101,-150.55602280049726,210.86400915912066,266.7876769645117
750,15.0,-184.55453162453807,157.09751971090014,-110.85858018682225,-321.8304765888128,177.80462223990344,365.26309070604265
751,15.02,-231.47771840131747,269.1095147432777,-81.47761925545795,-479.84535216960103,48.182171315689914,449.96264800567167
752,15.040000000000001,-249.382072792771,340.0178297900451,-18.973264323969204,-565.8281200844658,-159.9981662461584,498.4384771378301
753,15.06,-224.98837627711026,354.9401860593738,38.368791955287044,-521.5764234863818,-408.07171257439705,484.7823474998367
754,15.08,-166.023367862891,308.8571760400389,68.97275504657026,-306.5442232143625,-651.0002383320691,392.35227179448964
755,15.1,-96.15579662182543,211.46853642094112,77.69167670074265,79.21627048060574,-848.0616587058634,224.60579590074025
756,15.120000000000001,-42.027382881800975,84.33853957778953,85.52131965756614,581.3408007706631,-971.4706212982538,5.204571699432339
757,15.14,-19.01024040119659,-49.196776178696965,106.25008946369621,1100.604835558143,-1014.939263342694,-229.3244384857864
758,15.16,-27.14088451765371,-173.07432446372303,129.58748396846394,1521.4561725048588,-997.8803225342373,-434.973015249726
759,15.18,-58.68129056972572,-280.2783327763184,126.4928908144294,1747.5975678320497,-957.7121827498502,-566.124196114412
760,15.200000000000001,-104.8426975564986,-369.43610715957857,75.04296647427,1736.438616829344,-930.3354174341453,-590.8081326171455
761,15.22,-153.78076038997264,-441.27202812192996,-13.55799823189818,1521.3555263746834,-930.1626521652402,-508.87026916387947
762,15.24,-187.45122197612164,-495.8282949756441,-92.819609221797,1203.7385520301088,-943.2608188316817,-353.0351821414033
763,15.26,-187.51112919085517,-528.9521608205143,-108.02341136923309,906.5156031712158,-938.0720104189616,-167.11277517833855
764,15.280000000000001,-148.41895230987484,-530.383812879682,-32.83588610088098,709.9647574589164,-885.7110323637237,18.58646998913126
765,15.3,-85.2454186225929,-488.8323563682266,112.0983760540353,613.717080824243,-775.4699725464409,192.49681401069785
766,15.32,-25.46296505434698,-403.49972205941674,271.5784219829776,555.7244673400006,-616.8029467511697,349.38028293365073
767,15.34,11.40299812726678,-291.6557777977382,388.8533596306825,471.1926378107973,-431.66067037886,479.48145339099085
768,15.36,27.66512459295683,-182.4432753415984,434.60887437042555,338.7951227245154,-246.27603502501051,570.5448638292015
769,15.38,40.82864849222634,-100.48600547053634,413.61471480653347,180.32622640972107,-85.21647688831554,616.8166687933325
770,15.4,64.47461389862548,-53.096884713298074,351.5015469738116,30.013264142455355,34.66840823011895,624.7680680400254
771,15.42,96.87368303370863,-29.77788687236265,277.9799658799577,-89.87943014318459,109.25681811112527,612.1093518577544
772,15.44,124.76805551872732,-11.070184031894218,216.50381830013075,-174.01260951997156,146.83373345314243,600.7488104584966
773,15.46,132.36232868436022,20.115579270199518,177.05681476001286,-231.27457220427158,162.77321533224125,603.8766094405709
774,15.48,106.79542134028657,69.36126332519427,150.08413845969565,-282.0436639465586,174.482447270481,612.7585112207171
775,15.5,43.66294916946322,128.50950594606203,111.35386233803843,-347.8897785649388,198.49523021354156,598.4335480473732
776,15.52,-43.82875697239022,183.62983852000875,42.96778033094388,-431.1882317976454,245.65016265542397,536.0142049673005
777,15.540000000000001,-122.72380184560727,227.54647925064495,-47.05213265650599,-504.06266485362437,313.40401674413454,431.6526730216615
778,15.56,-158.87027831348155,264.5499319425162,-129.69398695070942,-528.6424350418782,383.4702343539545,321.5610901235679
779,15.58,-146.27164096044316,302.4892807735376,-180.3396621257533,-496.4478066737711,432.0644332660112,241.71164613114095
780,15.6,-115.00833433367855,341.5645056405473,-196.7503551162471,-443.4090098506897,446.44378570869605,199.63397801417227
781,15.620000000000001,-103.3905763782189,371.93387605042994,-193.61419403514356,-418.7392830147821,432.8555711503201,173.48855105148675
782,15.64,-122.97070961275776,381.0900885721943,-185.58623223963517,-440.9125140442926,408.9289002502004,132.3406480924278
783,15.66,-154.74743345673443,361.6431016121079,-178.70552594425945,-489.31552921229695,388.1026715023384,55.976895024800655
784,15.68,-175.65638052912163,312.49580917776933,-174.9000238364623,-534.2764944275548,369.7746138654697,-58.214546686734586
785,15.700000000000001,-178.99123208181777,236.26243267697686,-178.68221965947157,-563.3005790828188,342.5924022668743,-198.83226507485222
786,15.72,-166.0352712255754,139.81605153247637,-194.65780325872817,-573.7977381917575,296.82819592960357,-345.3390475021809
787,15.74,-127.4366207875817,38.61131658952733,-217.06629680547692,-550.7610421391933,235.00354024130024,-469.2280886316403
788,15.76,-46.87966511661975,-43.11879935217711,-225.301514397785,-468.39861116970104,172.53714332317293,-537.5003464849422
789,15.780000000000001,72.43765921284873,-83.56527455479647,-197.1123697009772,-321.5303636353751,129.03310881971288,-528.1530140004636
790,15.8,194.55638274798082,-80.26527004076578,-131.65014694633663,-147.7220682836331,117.80766221084936,-452.0250994122372
791,15.82,274.8997328892198,-55.52354358717585,-58.241079886790686,-6.675227069277284,139.75454512557775,-356.99958456858633
792,15.84,296.68800695306993,-41.23599133182201,-16.993294875442473,63.454507562924164,181.38655397977607,-299.80466397749626
793,15.860000000000001,276.99706838968746,-55.89157354170134,-26.679534009874384,65.2570703005621,216.6212133402248,-304.84890621082513
794,15.88,240.212174886698,-94.52799425063486,-69.85980972711181,23.99911592187412,216.25937379047213,-347.6730206024912
795,15.9,195.4653473958054,-137.02445191565252,-107.55746896336893,-37.32719860432303,164.58916675477084,-377.75776614441213
796,15.92,140.11829357761235,-162.7524052287227,-107.20849535713913,-104.70115409358138,70.77700005534156,-357.1028868829554
797,15.94,74.24118822997512,-159.20440679937337,-59.56326523454703,-167.94651469107896,-36.86198369331788,-280.3554942728044
798,15.96,5.071114770522486,-123.09510992748682,23.25138017086372,-218.5593285141792,-129.07411991814715,-167.20203893201239
799,15.98,-58.16087499893885,-59.206350078645755,118.52470974851593,-250.75862478792718,-190.03092134065662,-44.76154788185798
800,16.0,-108.22941006565571,20.340265575169372,201.92542517763698,-260.39097635423275,-218.8078407047866,62.641275014132106
801,16.02,-140.76767240514832,98.77106654606479,253.5999463815,-244.24444434677457,-223.13906989864893,136.90036390255432
802,16.04,-156.18815930528584,161.01775821746025,263.89952460361366,-203.89173322563624,-213.82980956163047,170.42997305083293
803,16.06,-161.73522891347608,200.0960860689624,236.49035539480326,-149.8630172775234,-201.1601556339239,169.81459385493216
804,16.080000000000002,-169.170334904808,218.12701239734199,184.84750764418584,-99.29553883920823,-190.75973860113146,151.60276661546575
805,16.1,-188.57273267197996,221.5793451061672,124.26779390690584,-67.75081716179398,-180.31175827540162,131.6740074755902
806,16.12,-222.78783098069576,215.50921699270745,66.32821774798748,-61.27463675564356,-161.0444071439352,118.11823716538174
807,16.14,-263.75737554460056,201.1538027855803,18.353063566902485,-71.7092093228972,-123.13744793650454,111.85037021734684
808,16.16,-290.15969775957456,177.47493638216844,-15.740798384695669,-75.73344418135807,-59.56022062135555,109.54071920749118
809,16.18,-272.05689574257985,144.7575846247837,-35.2816773434795,-42.11943867693591,32.95454636932171,105.51360652426322
810,16.2,-189.70275692570848,107.49390327042724,-41.434314084656705,48.53249116037591,151.14471950961408,95.7157882427119
811,16.22,-57.06748021436596,73.934663674257,-34.88147054518358,182.13506707937023,280.4803293169158,82.89150129548246
812,16.240000000000002,76.34538477538142,52.313178438139666,-15.967091356532814,311.4460266437202,396.76139196794065,75.43958674326475
813,16.26,157.17568350815378,47.23457673077926,12.880940699645631,386.8577679432481,477.59514985596184,78.74234927295811
814,16.28,167.1557776443952,59.10158878081297,46.216722594974414,391.5680812806273,513.4856529309678,88.95798125239624
815,16.3,131.47119337638503,85.33899826677873,76.92301102139123,347.42780139489827,507.89188789379034,96.40985228351474
816,16.32,92.40439119245481,121.0484443640444,97.70780209797526,290.9588875130683,470.04862629115013,92.98233872947584
817,16.34,78.86791817837106,159.51490168435853,102.98230036808911,248.3820572135512,410.3115093522076,75.25997623196446
818,16.36,96.5686833117458,193.8018835345295,92.30809312218784,228.76983985436647,338.4710186065217,44.04872858793206
819,16.38,135.50208694571944,218.2560809760622,72.25625041266184,229.19022435580462,260.4322519213126,4.432305853052942
820,16.4,180.4650179610734,228.32786950263716,52.077024960929506,240.26338336488942,175.93042780505004,-35.48457470055486
821,16.42,218.38897725686834,219.86296950443085,35.61501628504177,250.49717802089089,82.92240872861505,-69.99761481510222
822,16.44,242.32818477636556,189.99444952965735,18.32466551646602,251.65396138105876,-14.888405438073676,-100.0773501008315
823,16.46,251.40276237230125,139.22419633490188,-6.7610762748148785,243.3384821904165,-106.62650257477969,-129.63057607745466
824,16.48,247.4451221094648,72.27207851166168,-41.136970774793134,233.02323375302228,-180.38762762218644,-158.0876991509849
825,16.5,232.343614265062,-3.599335142010877,-79.7803553627655,231.0221512046954,-229.65783441007108,-179.8139443438199
826,16.52,208.66033914856183,-81.60087354210741,-116.32025693235013,244.1243060567075,-254.74136187666278,-190.68786604468414
827,16.54,180.30879619623715,-156.99147067727802,-146.9428144115113,271.2422262118919,-260.34688363093056,-191.5166233122051
828,16.56,148.28839659614718,-225.0259419586323,-169.65616426710548,300.67168073010725,-251.90357204790263,-182.93364053172962
829,16.580000000000002,104.41111729468815,-276.902716882158,-182.61522215645735,309.7119381537025,-231.78807483326304,-158.6712544166886
830,16.6,34.40088274456862,-299.5337438869159,-185.1506570050583,272.85399871638987,-197.20534640019696,-106.84253598317838
831,16.62,-65.46159576188592,-282.9506108369931,-180.08879083267425,180.34458393111203,-141.90930505397787,-20.154621878137156
832,16.64,-173.33681731380983,-230.23888291256202,-174.08859797333224,52.58034999268261,-61.653579664386285,93.79409596417213
833,16.66,-249.7072468597052,-159.02438655796635,-175.420829333862,-70.09909120237779,39.4549804951231,212.1471359323524
834,16.68,-267.93959189203304,-90.29319157152194,-190.74883819360906,-160.86996785056675,145.6071829095667,307.3333176840366
835,16.7,-237.90276067219668,-34.48850896823679,-221.47632121268444,-230.37559130408582,232.7731031554457,359.4383428853406
836,16.72,-191.90295666686336,11.085625815490557,-259.52934965578004,-308.0782159252941,279.75237011644276,361.9290013606282
837,16.740000000000002,-141.9638832731182,52.885039694644746,-285.40961670427464,-393.7085324311588,280.0289305506166,321.29719324968835
838,16.76,-58.89905118561025,92.79058495663293,-274.18681794244895,-437.0669010163091,243.37479593091086,254.52259117239254
839,16.78,92.10816488685552,128.6262958902582,-210.65429008427552,-382.84455934908965,184.58221083632833,182.69499537991143
840,16.8,293.3248897000489,156.89535521801224,-104.4742265579476,-238.46841557213713,111.10668564079657,118.32035368859451
841,16.82,464.2045290804938,170.93474563765238,8.63604282417031,-86.00382080354237,22.647240721313732,54.13804905993071
842,16.84,518.6055399276929,159.27537012957362,84.37477986185742,-19.552297392250082,-79.69316149076172,-32.5958751474497
843,16.86,432.68232527972293,110.49409210769346,94.41831529509126,-71.45039218274611,-188.1507887840781,-159.16537428237336
844,16.88,259.6859097058476,21.090291831179623,40.04570330025955,-194.38206582002547,-292.27398328697143,-318.2171676242128
845,16.9,87.49046136873245,-100.82445245619039,-52.844928850643214,-303.62596979651624,-384.05198631589815,-479.4412084202572
846,16.92,-17.359003873141276,-237.85547929903072,-149.47996409988446,-335.2252217557576,-457.12245813946487,-609.3028894981851
847,16.94,-39.741455463040445,-368.7141392144024,-219.45443594035748,-278.2969896452353,-503.25600049264085,-686.8815374175651
848,16.96,-11.550068446970135,-473.1302587348291,-241.15625144645634,-168.72072277177665,-511.99463052135167,-700.7069432691193
849,16.98,15.497819260112543,-535.4477698818727,-201.9784092667992,-56.33481102955131,-473.287547486564,-637.5933354554229
850,17.0,3.481344194142899,-549.0355893088154,-103.23882580498983,30.312015029195006,-379.51744519381157,-487.98210525471063
851,17.02,-49.547918439630074,-520.1692198795602,30.792751080477387,96.52884603749193,-227.2117295487309,-270.60632444714065
852,17.04,-114.9441112478909,-463.5041432004025,155.0848163391496,159.7215245747599,-23.280146616474003,-44.444537796803395
853,17.06,-164.95702620936015,-387.6189452315908,228.23661375192418,211.72936781090152,204.16479225607353,120.6450941036998
854,17.080000000000002,-202.81367159545132,-285.97303914237034,242.2253035513124,206.3194205339254,403.0609662618649,193.7451838557271
855,17.1,-259.97510513116475,-148.1794826325958,225.27721581697884,93.83670169364586,516.741483990653,200.37024491090943
856,17.12,-359.8253553359064,18.678576327742547,211.86964746591082,-125.20171952526701,517.7343224130138,189.45096552976958
857,17.14,-483.63333296626064,185.1674038082198,212.2394089623116,-381.29809382236294,427.08408388526897,189.33040213782536
858,17.16,-576.0130436382194,318.8943440266937,212.29843262162228,-574.6919873306961,299.9581947691445,197.81823727276463
859,17.18,-586.777013590223,406.0140879693224,196.6059105798799,-639.1085404559063,189.8367934769497,204.5613780162121
860,17.2,-507.69388933022367,451.4507929658405,164.43260180311492,-576.220660972119,120.7202362795496,210.5289259544215
861,17.22,-371.31908581857687,461.7700167682028,125.73057308030792,-437.42794260638505,84.95017122814153,224.28688012430536
862,17.240000000000002,-221.58477259859603,433.5745866106464,90.09324983066261,-277.8723737690119,60.82731782448968,247.3526799704643
863,17.26,-89.62165054998114,359.89530993046384,64.61602137949336,-125.60884163941279,31.414329391833448,269.70080050895643
864,17.28,9.003159732428369,244.812360261918,58.845893215139526,15.786068618791761,-8.882329007531988,278.3653274528512
865,17.3,68.07572933801228,109.26311573680579,83.79894940585427,148.9595656725451,-58.68168996028059,265.2261510750766
866,17.32,90.7953701869699,-17.06357688974902,142.18272426525476,274.0374706624565,-115.1076085312519,225.69695772015882
867,17.34,91.4648272910874,-108.61973503581137,221.51656877899438,390.8179466441258,-174.8408681053466,156.664244093704
868,17.36,86.67851422741747,-151.0209116133807,298.77224173542214,496.8217202320758,-233.37066339868704,63.15213426975244
869,17.38,81.61961691976484,-140.6234995057807,351.58534005550763,579.8574124058887,-286.2122754261844,-32.93955532062965
870,17.400000000000002,69.705290757639,-82.2095396230902,366.95972668337686,620.4492718540414,-331.2752776193034,-97.12991833126549
871,17.42,47.651057531680046,11.273824906312814,343.84418290550445,608.1468834710072,-369.24045997156384,-102.02806498712303
872,17.44,26.33658751469277,118.69968013944398,290.2953182316976,553.6990325588866,-401.2789042320543,-46.37681195537502
873,17.46,23.463416183063828,214.29719184285457,218.0720136132915,481.8961658079396,-426.61851911618254,44.15550704356924
874,17.48,47.96592504669293,275.1101545712444,139.17141758788745,413.85020242643134,-442.2827905943553,134.7727671356275
875,17.5,94.29020051066468,288.3539913334378,66.4255468884468,358.0546992202944,-444.5201830792506,201.5641644517335
876,17.52,149.26148566144212,254.0221696157883,14.086594044032783,314.9329285503751,-429.7407077970623,238.54652345933144
877,17.54,200.1020252165344,181.7396361052597,-7.130189900447412,283.4665545434932,-393.8108596791951,250.9929342446041
878,17.56,236.1656501803936,85.38137546771304,1.5613412706089633,260.9217804903185,-330.9432579578965,245.33683390286546
879,17.580000000000002,247.81695500486154,-20.161751718741172,24.571309261074326,238.92063084139687,-234.98700520658645,225.49100960688506
880,17.6,227.66038832311756,-119.72857668678367,40.12634639439264,203.63420799541566,-104.27569991486482,196.649393143575
881,17.62,174.37023403243586,-199.89274793583516,32.03533503112847,142.85346055219281,53.726514932149726,168.75171781745362
882,17.64,97.36194192229264,-254.12919834695026,-4.849531611006141,56.61891711515224,223.99050326823948,152.63978366117075
883,17.66,19.2406854099028,-286.4709549902377,-66.16450631056065,-36.64420819700716,391.60128750426304,153.19610869020934
884,17.68,-32.39678566862193,-306.00486204538265,-140.06836389439525,-109.86831705657562,546.7761394201796,170.55644371463828
885,17.7,-48.24766158628286,-312.185718799342,-207.5021310187788,-154.91605125672618,680.2862104160761,210.47259977676163
886,17.72,-55.480668951603015,-285.15734779085074,-246.13903162389678,-202.8784316138237,776.0813615621664,288.01105215508005
887,17.740000000000002,-97.42743462541299,-198.1074215001277,-242.05251596670894,-301.48931889499346,815.6991158523521,409.15706965214906
888,17.76,-181.5688107008658,-46.91860439905071,-202.25269691595008,-458.083291822084,794.8457292133014,542.127853232297
889,17.78,-256.79683520746846,133.6200240674989,-154.95150267478056,-612.9955321701605,731.2949821289795,615.9293432534506
890,17.8,-257.3551790049336,289.1642507949403,-133.26573685960872,-685.6347079857728,649.1522462595392,563.988340098149
891,17.82,-163.85712354369582,382.61909236374277,-152.9444029690122,-645.2082641482086,556.1879476658817,375.9781091361988
892,17.84,-9.587761953758031,410.2950678049373,-200.4202968532773,-526.5491648857068,441.5831071919462,104.15204024905393
893,17.86,162.22541779438842,385.8098151380085,-241.41737277779617,-384.25867630544917,292.98946219713014,-178.93035724703543
894,17.88,327.61137648382555,316.4474711554124,-245.84426581753755,-247.3667571888314,109.37688778323599,-424.25635864643505
895,17.900000000000002,471.7854730757381,199.24684432860792,-209.47016927866787,-117.49227169350573,-99.58550711908657,-616.7080370088331
896,17.92,570.4995174724796,36.440328099295385,-154.38991896259913,4.639735098245886,-317.8601305504785,-760.4241675886669
897,17.94,593.6599873704947,-152.14648181525445,-111.29747201191066,101.59733112862382,-526.2455544540884,-863.8532582039816
898,17.96,527.9344231763579,-335.73102640864306,-101.1329234146307,148.99597664025794,-708.8073581050431,-933.4776383769465
899,17.98,394.4589429033067,-491.00179040272496,-126.00543716872707,140.95880089913672,-860.8481134598487,-970.4707740738604
900,18.0,241.29529827039394,-612.4747698384894,-167.91610705677545,102.20052261102812,-988.6477339861976,-966.4600048779739
901,18.02,111.87671454884043,-704.7825322787019,-195.50944455372087,70.98908707750468,-1095.6219082554924,-903.5940793591765
902,18.04,17.032787232706163,-766.1133798574356,-181.50257374578803,72.53650433228147,-1161.452298164496,-766.1948653206584
903,18.06,-60.51242259754958,-779.4453838541554,-122.71280673567566,113.6462374173606,-1130.9858058415239,-560.1326532826313
904,18.080000000000002,-135.73963796222884,-718.1996414817304,-44.4377043696557,194.85199666112578,-932.0412367693248,-321.2117606551618
905,18.1,-202.91242526980147,-560.8342169015913,17.581308685575284,307.7288943284677,-525.5407290558517,-97.72453317034352
906,18.12,-249.38219063784427,-307.4700337506605,40.839224152780005,414.38772045969597,42.5575179114676,80.20319448050111
907,18.14,-278.60494447903136,8.15326646720942,24.84416185585816,448.3885070121602,637.6837962345603,213.55839314211534
908,18.16,-311.1744123527448,322.9065717397407,-15.268491247658863,355.04973660776784,1099.024136872937,318.2173359084495
909,18.18,-365.62007462590185,569.9210979828908,-57.1907423756144,131.9368410994739,1322.7413154777464,400.9354725579684
910,18.2,-443.1115099063661,709.280848626995,-77.53116572416329,-172.21413790683152,1301.0241952119536,452.3432751200203
911,18.22,-527.0899330779753,739.3904066701392,-59.97610854708768,-489.3551324700968,1098.7233952479032,458.32500628739774
912,18.240000000000002,-590.8557619919733,685.7005036637283,-2.9737134698972554,-758.8963133733844,803.0697033187831,414.98488941382766
913,18.26,-607.5402210021846,584.2862079917136,81.41517594470324,-938.5313955531592,487.3040718324091,334.56479141499653
914,18.28,-561.0237010589174,470.8829875292969,175.78583261192253,-1007.5484574933198,200.0056548168182,237.90989019835325
915,18.3,-451.21845460061695,369.9646929486776,262.9925662078007,-962.8913471048089,-30.498550347789898,139.31954608235282
916,18.32,-290.02121643258886,283.39532273758766,328.23867106642126,-808.45188177368,-190.32959275266003,39.928734348949746
917,18.34,-97.09243497206901,192.5117682190902,363.3446191255392,-552.9436572954329,-279.3853641899743,-60.83218824356882
918,18.36,97.81635150502194,79.39172561193766,369.5387265823591,-224.23749178488356,-312.45504069918434,-151.12043570958753
919,18.38,256.1360695005711,-51.027554408793165,351.9012737380094,120.72804261081566,-314.24163141835083,-212.28673260796717
920,18.400000000000002,344.9449289713534,-170.28323591829513,312.1087133956821,413.2816998524431,-308.00115638067916,-238.011327769001
921,18.42,354.2453961422664,-246.40131388413383,250.6575541824193,606.7926349492391,-307.46337963541635,-239.2705598393539
922,18.44,300.43934110186643,-264.13771413585346,174.90401598575815,695.8525291622395,-318.25639107356085,-227.8881826617622
923,18.46,215.09689334860428,-229.57222834956684,100.53504311354003,707.9793987752079,-343.3797379619249,-201.0499499450469
924,18.48,130.0329123237078,-161.1236649606,43.45191345136499,680.8912484651204,-385.0633289854895,-145.53965026725803
925,18.5,66.9772127638661,-79.49837892735617,8.875901888966704,643.9900898006163,-442.6897754531391,-56.11063344717789
926,18.52,35.04473215708555,-3.906094692870198,-14.234023141546988,613.0411811344218,-509.960276070712,50.210071677940604
927,18.54,34.98514467220698,49.72188216277238,-46.79465436983064,594.3795781771428,-572.9933966977446,138.1984768314866
928,18.56,63.43139885288902,74.31411768455115,-102.13086609289307,588.5449807836121,-611.6896602379429,177.53857224620106
929,18.580000000000002,112.6242575843998,76.20165351749245,-172.3387317966898,590.4935411504292,-606.1337770893242,166.24385769150177
930,18.6,170.707020301289,69.48170904671876,-233.50182176532564,592.7291857334351,-544.060756926528,130.4530669894873
931,18.62,226.20021325865753,63.24742029305117,-263.9697243455913,590.8138748654974,-423.8205468135749,101.6156567973694
932,18.64,269.74858855420155,55.5873412616989,-256.72808155358985,581.1497515030513,-253.86801425109923,97.8121552148151
933,18.66,289.74670051402194,40.4364474533702,-218.57133357187223,551.731123486343,-52.067787538563906,124.56588651221449
934,18.68,271.83351405992994,17.947284822877513,-163.16493826123758,481.71734271353546,157.35097418546934,182.40832259912932
935,18.7,208.80936812932586,-3.592469977556858,-104.40344739822598,356.3867116035025,351.1488110535687,267.1271283359397
936,18.72,110.5196176391803,-15.059956700138414,-51.702662678309736,182.64573730265127,513.6287221780282,366.78689652874516
937,18.740000000000002,0.7939956724374309,-13.430330853475272,-8.628145895688426,-11.639893411826367,637.0362558392276,463.6180702723317
938,18.76,-96.44041488192188,-0.40482517813246943,24.71166704760557,-193.998334588994,717.7272072949581,539.2533640532365
939,18.78,-169.65142102710558,24.518087104081513,47.66339423242994,-345.6444804692786,753.256616677967,578.7047704305835
940,18.8,-222.36202543235112,66.83939949140537,56.201339147055286,-468.326819073817,742.8324791851521,572.5553053069591
941,18.82,-265.58163197042865,130.7800581646219,43.59235239541639,-575.2034246093183,690.4008255123208,518.1314898332646
942,18.84,-305.51911341069354,209.30801464048386,5.403071757633295,-673.1515985528056,607.0850864296536,419.01329496029234
943,18.86,-335.85074375899535,280.14001600460784,-54.39561639949672,-751.9918270110588,508.93213461718267,282.5820212669411
944,18.88,-342.0606957757159,312.6213342762408,-121.61226528437113,-791.401866081711,409.72909461711276,117.59426736448626
945,18.900000000000002,-314.96808781390234,282.38855379788,-175.29073300571878,-779.4866182509829,313.78849644542964,-64.63423890846933
946,18.92,-259.141170110753,185.19420452109136,-192.8968152113141,-723.283545622927,214.57860909326115,-244.9022371665636
947,18.94,-184.54834052078047,41.33009481844741,-156.16594648180364,-637.8382039513157,102.01578938154212,-393.57741857567396
948,18.96,-89.85977950277433,-111.53278550957401,-59.782758997033426,-525.2509974887674,-24.708075588657472,-479.39156822688017
949,18.98,38.486783220621476,-231.6328254315597,79.42528572053462,-371.4282526071735,-149.01392344882197,-486.621401753328
950,19.0,202.3280575191848,-285.70413993452064,221.14623201713448,-170.5887125146064,-243.18400262934273,-425.87936194844144
951,19.02,368.00686931316443,-258.0152219346392,313.2177925506775,48.38411756743705,-285.32347280376894,-329.0250794924388
952,19.04,475.2343054583963,-154.62977164780602,311.55890936494893,226.9484590504004,-271.883055461363,-234.22514206397835
953,19.06,475.99219299177594,-0.3852937019304399,197.8401452945051,312.3839977595758,-216.65064296249597,-172.4589318839839
954,19.080000000000002,367.9172102311177,171.25851235867503,-13.590424187565183,291.41754205843586,-141.673350877003,-159.751629419431
955,19.1,196.06279676200586,329.42944800754265,-280.2768388988113,197.30229829822738,-69.47234810762639,-193.4101546559822
956,19.12,28.425595152425394,451.93435500403507,-541.3412733163314,92.58820625698519,-18.923967305115212,-250.2419729405651
957,19.14,-75.92165222393467,526.6817437396678,-728.1052182432805,41.30172003156059,-2.1564029175667514,-288.0325716554921
958,19.16,-92.13752385966835,551.7482085385013,-780.9254429790242,81.7825533147478,-20.72099992431213,-258.16562324096196
959,19.18,-38.062773095367746,533.706105901994,-676.6560300415172,211.38002781069508,-61.79114522338628,-136.200673816571
960,19.2,39.5707152026817,484.1412360599754,-452.12518847878226,390.9975174248107,-98.28862912138447,46.241634453541614
961,19.22,93.37856992409012,418.9953278376382,-195.24921848870332,564.4149844698717,-99.24252465888067,208.07861805705414
962,19.240000000000002,100.9144340638582,360.1747633681458,4.299504553944345,680.249081541157,-49.989691974653496,277.5505711744979
963,19.26,72.86180983515581,328.35848755841437,110.9996632443108,710.2641445560766,33.526043252268224,253.41745922941692
964,19.28,37.20001939848558,324.4024799284116,157.9815897540466,659.0556720576283,114.12540774818024,203.19665842807063
