Frame,Time,RightHand_Accel_X,RightHand_Accel_Y,RightHand_Accel_Z,LeftHand_Accel_X,LeftHand_Accel_Y,LeftHand_Accel_Z
0,0.0,-10.897493535633183,-6.824242815784455,-4.950864440856005,-5.304190316823055,5.717719194630096,-7.0589255132018245
1,0.016667,-10.009093248340806,-6.155148267252668,-4.327955166211728,-6.372901430174682,4.711212729063115,-5.67258832269726
2,0.033334,-8.869057104123991,-4.672873176105975,-3.412256822167574,-8.19249863783809,2.7493496945212765,-3.4684195152212665
3,0.050001000000000004,-8.131827042636925,-2.463515159276274,-2.646466724296011,-10.440334007906191,0.06461440513747713,-1.453682198017359
4,0.066668,-7.847313289955137,-0.07609739524792652,-2.2537482763068604,-12.850537466686594,-2.834004917091341,-0.6890205149307085
5,0.083335,-7.423306746109837,1.7398578019095206,-2.0699456309452193,-14.801058883949052,-5.251185868632995,-1.6088788391342912
6,0.10000200000000001,-6.176763127321493,2.5287276874120117,-1.7057850834028285,-15.074638550823696,-6.5399308717080995,-3.4495654330805974
7,0.11666900000000001,-3.9559499042896755,2.36611795312343,-0.8540403693060689,-12.573690573306607,-6.282562430687677,-4.558215116603309
8,0.133336,-1.2390603930083877,1.728474047815948,0.5148843606433107,-7.63484613683742,-4.385943097751643,-3.7334866621051823
9,0.150003,1.4127068594035428,1.1927302875667634,2.12946916267144,-2.4393735949106587,-1.2978610527404801,-1.3719049843696605
10,0.16667,3.9094415859736444,1.103755066876961,3.531208160345814,0.39163972820769377,1.854506052895554,0.9426291975935714
11,0.18333700000000003,6.420270369458202,1.3708360134403041,4.272721279965433,-0.15229603562223026,3.8752860133193883,1.9684350653741554
12,0.20000400000000002,8.631741469747691,1.6424201911845637,4.102465677600983,-2.8643343193551827,4.595845512146281,1.7047559120536504
13,0.216671,9.642324769708706,1.7315342691220392,3.090252322467898,-5.576360528563984,4.979018838803106,0.9286687201362067
14,0.23333800000000002,8.890102477077589,1.7441203420619211,1.6808206043404166,-6.74420502766475,5.813072710613657,0.3017800428177828
15,0.25000500000000003,6.923421041983632,1.7934445280499511,0.544358254570092,-6.069629512951794,6.632617195624517,0.082396957231187
16,0.266672,4.890776702071095,1.85064231061609,0.18324981027272025,-4.225549414779415,6.219283845337968,0.35204697300322596
17,0.283339,3.415760267998362,1.9452106871907036,0.5774068652431601,-2.1172995111815904,3.994308079590163,0.9790453655304241
18,0.300006,2.37039852170245,2.178834254040652,1.1539599153407056,-0.0233533989993,0.7742935139184886,1.2378446887615704
19,0.31667300000000004,1.695089051239558,2.3145342109831093,1.1113397556828397,2.517146522825864,-1.8026307841175397,0.06850745933692215
20,0.33334,1.8910292985553891,1.6551839827038444,-0.02698894067102464,5.540251149585329,-2.63756482010755,-2.6699430338667836
21,0.350007,3.3649590951096444,-0.22711491818833074,-1.9786268460447982,7.712767016862774,-2.0371936621881375,-5.505317895177691
22,0.36667400000000006,5.536990314520512,-2.687331436450127,-3.9019863521393647,7.53055785888967,-1.2097651041635387,-6.61736083452245
23,0.38334100000000004,6.990390626946231,-4.326877381467749,-5.188796814094536,5.482503165484995,-0.9223176181649902,-5.685790405998146
24,0.40000800000000003,6.597070645630237,-4.233389486600496,-5.937176272375334,4.002335525572867,-0.7694026951812365,-3.9151252565179275
25,0.416675,4.453620304554049,-2.7356639782140975,-6.497394431273136,4.894998139984196,0.1885682646930884,-2.449468323599785
26,0.433342,1.7696193375585347,-0.934409888236341,-6.821102406590631,7.477972666549999,2.187358949375074,-1.4196771878193806
27,0.45000900000000005,-0.10930404951018846,0.30519947321764984,-6.590421041613805,9.61508189714003,4.297222742205191,-0.43438554541231955
28,0.46667600000000004,-0.63348269554281,0.8217365281675466,-5.810434567778811,10.026585891459643,5.163885085396986,0.6601997038278339
29,0.483343,-0.19441501433425867,0.854847263484986,-4.912541756204883,9.154611320610842,4.157866197215457,1.6618823962554634
30,0.5000100000000001,0.4308703745178766,0.6111645621214722,-4.341531016815051,8.242571653911051,1.9373601500125486,2.2718059383668394
31,0.516677,0.7094903591088109,0.1930667360195741,-4.287680166640533,8.173962195515692,-0.0007959207557232117,2.3004824237766774
32,0.533344,0.5730391120873948,-0.2992391701304966,-4.721139724661367,8.972841871459732,-0.4712803874332743,1.7815884375053435
33,0.550011,0.1622108745323014,-0.7766162694245835,-5.41535565600859,9.882662654250215,0.510673769706761,0.9911295107394851
34,0.566678,-0.5578903045723467,-1.1502745282776612,-5.8944811580428755,9.955984252562445,1.941721421150362,0.2969729688065816
35,0.583345,-1.7756763193535567,-1.1947929554169185,-5.537077596162932,8.847740031316404,2.8551769484040097,-0.09302120239351097
36,0.600012,-3.3460676794271436,-0.6289169263931855,-3.9564665968159156,7.023957454101381,3.034225950572245,-0.2729029381570728
37,0.6166790000000001,-4.585438681656231,0.4001466325084695,-1.424182955366258,5.201489403583096,2.814055042589808,-0.5270544331613395
38,0.6333460000000001,-4.883872148435415,1.058851142787614,1.1111304059017582,3.777212441246586,2.490199382261517,-1.0554762377698355
39,0.6500130000000001,-4.432805036159583,0.46917123007160333,2.5640183200472526,2.7831968460275256,2.1206125160218026,-1.8114651006389513
40,0.66668,-4.064708815838312,-1.2916103628653137,2.3828945227723177,2.124407488839869,1.7367933696150972,-2.593551692917475
41,0.683347,-4.407396336721966,-3.1094293423738173,0.829695444400228,1.7001494473565133,1.4177648624132928,-3.1973057169679815
42,0.700014,-5.395439936882064,-3.8654785408354275,-1.1984716388994778,1.3697238863708117,1.1292819509202188,-3.4558939734405842
43,0.716681,-6.54051872179911,-3.3809718054739166,-2.6052710960265237,0.9544942533702442,0.7524707525145533,-3.316843556207368
44,0.7333480000000001,-7.420945941603817,-2.3436972833112577,-2.6716651633114763,0.36816009015526296,0.341466607710297,-2.9931013729291047
45,0.7500150000000001,-7.942580287836607,-1.5405189919812172,-1.6007178911386357,-0.25327184798639063,0.14603148950576098,-2.8610026931491
46,0.7666820000000001,-8.419460430530458,-1.210934706881138,-0.5718038686435605,-0.6004472435217479,0.3100115342167566,-3.0510543965615584
47,0.7833490000000001,-9.252328679160122,-0.9710758287513328,-0.888217520638616,-0.42325252918957956,0.7129793378926434,-3.292325837317144
48,0.8000160000000001,-9.966046160987432,-0.32467277071083017,-2.6203727703319046,0.20960757456110146,1.1437272110485508,-3.3360052717036615
49,0.816683,-8.775144683823555,0.6332543972897504,-4.124213823221295,0.8135346612288585,1.4465678111193079,-3.3632584840569977
50,0.83335,-4.2563033011240465,1.0339691312848363,-3.406845579079453,0.7046764350380865,1.4530777281001235,-3.6922269591229187
51,0.850017,2.168550122410748,-0.07021650887421194,-0.2461032715074195,-0.5189056393913766,0.9843310819537725,-4.159584373949837
52,0.866684,6.572462059581779,-2.675900103479509,3.3551487730921874,-2.6075679033637256,0.06658296186738061,-4.130895638397534
53,0.8833510000000001,6.286022741997579,-5.488297691864994,5.109693621741341,-4.780101079410054,-0.9756202856374215,-3.222323499088078
54,0.9000180000000001,2.66423213049056,-6.783893751697187,4.504853537743983,-6.245112679988752,-1.7810222126861144,-1.8103287237018337
55,0.9166850000000001,-0.780976454388298,-5.777894572159051,2.601539866919299,-6.6801986415678165,-2.237790703391438,-0.7174014603778105
56,0.9333520000000001,-2.2644053193407383,-3.1624348008421035,0.4055238112096166,-6.3363496308296074,-2.4155321621169246,-0.4725637334459884
57,0.9500190000000001,-2.494761393419795,-0.36834146796375844,-1.6860002613552645,-5.709290823416566,-2.3289249469442255,-0.8811500312672946
58,0.966686,-2.2315775680416596,1.5711729048321514,-3.169129989918795,-5.00834264647712,-1.9317429335126768,-1.236059654960965
59,0.983353,-1.002732998616424,2.5325017983317943,-3.349350741108039,-3.979932878297715,-1.2649125561180166,-1.0019985211180589
60,1.0000200000000001,1.4417624657786863,3.0086509086986495,-2.238631006375873,-2.439291591670894,-0.4325138516560859,-0.41811527561725614
61,1.0166870000000001,4.00986292808248,3.465964928693846,-0.7511175578171432,-0.910252600200984,0.4902049647237917,-0.4051389638125633
62,1.033354,5.5296326802960545,3.8858761321724486,0.34941950695705937,-0.3686472948395272,1.3271353883033183,-1.7028171718869163
63,1.050021,6.286579850217681,3.863869667756026,1.2133181842066172,-1.165050077181768,1.6727795599083126,-3.946721749495983
64,1.066688,7.418716089865176,3.2129521962448937,2.357922019091629,-2.3915772907718744,1.1779530419795723,-5.662305616217236
65,1.083355,9.158553637525317,2.421557823010784,3.7529107170051903,-2.574885752847048,0.03529971265158896,-5.44849211800741
66,1.100022,10.428141460371577,2.3213961313888514,4.822002690907503,-1.12125451203118,-0.9842836055849183,-3.3303884149012086
67,1.116689,10.178024748384818,3.2506086895251927,5.222062960675827,0.9738297629006235,-1.1144022610616076,-0.7987046758709456
68,1.133356,8.618912199509715,4.716633348634328,5.250791038928391,2.022828810483865,-0.24176546468321142,0.5790900831819519
69,1.150023,6.947146898414484,5.945789547954427,5.391818426596109,1.2791348787512167,1.0215627838424601,0.3846231622818226
70,1.16669,6.1433073281868005,6.5573376574119475,5.765133698206133,-0.4015571925679524,1.95975963020653,-0.8050249596912341
71,1.183357,6.29545187198115,6.5304710794315515,6.282233486791121,-1.3620470604917116,2.50715473289514,-2.3151070646023695
72,1.200024,6.986291134733593,5.711994113336447,7.115557464030241,-0.43371681329396683,3.2509901885781636,-3.7949933067216386
73,1.2166910000000002,7.9532879315632,3.8526778374365636,8.569277461425104,2.2756813974803176,4.499152744444384,-5.053202660121709
74,1.2333580000000002,9.057174321030248,1.411552696214391,10.456243207828564,5.505511989439343,5.630930077978485,-5.9989166966940655
75,1.2500250000000002,9.761803121750523,-0.019798997197144175,12.013365497685212,7.832212836312625,5.946740464361542,-6.905379483674294
76,1.2666920000000002,9.37175049614773,1.3472779742288996,12.799581313366524,8.76745759320364,6.106764338667325,-8.417793244933192
77,1.2833590000000001,8.481901323224701,6.1694528227245,13.804999449823363,8.967024642456797,8.139038980821757,-10.925525435952668
78,1.3000260000000001,10.104641075201851,14.03531287167252,17.512051567988017,9.607516444931619,14.054297383688676,-14.062130821107289
79,1.3166930000000001,18.475963199581486,24.867415053837213,26.34186355608515,11.86401454220736,25.038395649179108,-17.390235194059763
80,1.33336,35.7706067739054,39.83605040487146,40.74182521059089,16.885683927216824,41.77386203777424,-21.80347571034701
81,1.350027,59.91812553891775,60.689942529536395,59.319619186252694,25.956985038981536,64.49038541261662,-29.73574457921578
82,1.366694,86.48365414895679,88.12528301718186,81.08546782227157,40.60376654745191,92.44039278629758,-43.137171447111186
83,1.383361,112.93052384550424,120.5309805612778,106.3679995395375,62.397864537266805,124.18463194380126,-60.56490901490359
84,1.400028,139.83092933544594,154.1381887406862,134.43457787084338,91.97698003709533,158.53044093440334,-76.1637698918762
85,1.416695,167.0338866880785,184.49713049347514,161.0526897411741,127.82391419568677,194.0776128095628,-82.6803917187266
86,1.433362,190.33840421265634,208.13179052186305,180.1148388227862,166.7751287851335,227.6360598721581,-77.63802337039081
87,1.450029,204.5500375683226,223.59205141757892,188.46266254065262,206.37762790752743,254.55698979666948,-67.46728261019746
88,1.4666960000000002,209.34176229782992,232.03570354161243,188.91375711065194,245.42845399370202,271.6720562973001,-63.936772355704136
89,1.4833630000000002,208.82741022727254,236.92213209679596,187.72231447930852,280.5556744525853,279.6782185139244,-74.5557463760795
90,1.5000300000000002,204.51702820748255,241.9799081940128,188.33284817682727,303.3852803213608,282.5235108241368,-96.4259088505845
91,1.5166970000000002,191.8851398602206,248.65353611827857,188.0115586381527,303.91044648160005,284.695262639649,-119.70544229667051
92,1.5333640000000002,165.6714800160109,255.60813867808298,181.15435480155878,277.6013879197362,288.5514279808982,-135.90350719413593
93,1.5500310000000002,126.22401341723986,260.6213457592319,165.20880944259991,228.14844974121553,293.13380770494535,-142.4711395471069
94,1.5666980000000001,79.02422273183726,262.84317079057723,142.83803958694375,163.27541182273973,295.15476677973567,-141.37701053562245
95,1.5833650000000001,29.99825659435547,263.5545870194826,119.32088408482281,89.71872476365853,291.5752331518746,-135.3733017741111
96,1.6000320000000001,-17.139746889037554,264.64514271896076,98.73736680306057,12.941010105560938,281.5247896612563,-126.18251109771074
97,1.616699,-60.79513780178349,265.87656639380094,81.92327314177163,-60.61632419756992,265.7617255929219,-115.75353998619019
98,1.633366,-100.9650554238143,263.6697387495246,66.93886251397929,-123.93343280827622,244.66832710291288,-107.75421897648218
99,1.650033,-138.11086267897318,252.78310554654507,51.53096514754709,-172.63511102120145,217.30954877754544,-105.85087203178087
100,1.6667,-171.0051677974911,229.25508513597555,35.628284294692385,-206.77182212980088,182.36681900067646,-109.9426410583732
101,1.683367,-196.33157291593596,192.28358783457315,20.977466438979008,-229.02743841914116,139.4972668642828,-114.91761863469804
102,1.700034,-211.82405900788243,144.34785289634456,8.048565601953543,-241.84239802932973,89.8771243271433,-113.27128798583786
103,1.716701,-219.20174955615278,90.26135543649771,-5.363824147872733,-246.5152010060459,36.18501727085011,-98.74740388284783
104,1.733368,-222.39248434061906,35.81332602689721,-21.634634820065866,-244.0860851608898,-17.56551903776396,-69.04638919144018
105,1.7500350000000002,-222.60500711044904,-13.78441645978029,-40.96837939803128,-235.81316367931964,-66.56585084380026,-27.333851385961516
106,1.7667020000000002,-215.55719070595518,-55.22678715702632,-62.802624646049324,-222.3081665041242,-106.3241281446359,19.16711648739265
107,1.7833690000000002,-193.9027978388083,-87.42577074750781,-87.98521857976249,-202.44615210786276,-134.15579504750886,64.22747109734689
108,1.8000360000000002,-154.55972936892957,-110.5100332971384,-117.29612297722258,-173.82503605988944,-150.18903429659974,106.35017781765183
109,1.8167030000000002,-106.09728991132415,-124.57361681210443,-147.80533680651706,-135.59696194836542,-156.84964357198777,145.85244952609474
110,1.8333700000000002,-66.18897146815863,-129.73528349007387,-172.94859741397872,-91.99090041154227,-157.27980338394866,179.1961242192245
111,1.8500370000000002,-46.03647054922861,-127.31756180729315,-188.12262011770883,-52.35263191271669,-154.49316782136796,199.8728205548027
112,1.8667040000000001,-38.05981869317826,-120.1564034804758,-195.38406450935747,-25.02080674427969,-151.79345390463095,206.4453910945516
113,1.8833710000000001,-24.55338269971262,-111.67865890370692,-200.9070561560942,-9.158754979290226,-152.61444624033106,207.1498304080045
114,1.9000380000000001,2.802048547236316,-105.67486905068492,-208.94635731236735,6.118493282066735,-158.47532350648714,213.75054446389584
115,1.916705,37.695339039016645,-106.58277499165635,-220.2418105665944,32.118005168842906,-167.15251094734361,231.36300535579215
116,1.933372,70.80612757465347,-117.45041001692144,-234.300122831416,70.27601076257764,-174.11562456712244,255.73693824552436
117,1.950039,99.26631319371339,-136.1687117408121,-249.827925418247,112.34917451275169,-176.24535874130777,279.0431978061939
118,1.966706,124.94760108038784,-155.16304831077397,-264.0027589416851,148.84028065187493,-173.38370842555918,296.0032600712467
119,1.983373,149.71828984195668,-166.54010684790822,-274.5888489924667,175.1826392863387,-166.08212396920294,305.6379276948479
120,2.0000400000000003,174.13537268160295,-167.3875676041019,-282.73651309068725,191.40777360093676,-153.1098648343941,310.5592436690071
121,2.0167070000000002,197.09222338934157,-159.66806704443962,-292.1343147737729,199.0299190307806,-132.28962703516237,315.5004128160829
122,2.0333740000000002,214.59771216221404,-146.3646043162901,-305.8550549207222,199.29766333894395,-103.6557236434526,324.4871035392432
123,2.0500410000000002,220.76556354745856,-129.2653884323452,-324.23039603975053,193.34627340463135,-71.08419365030697,338.0692160181894
124,2.066708,212.35769732752254,-109.58284260831635,-344.08804854179755,182.67658246351107,-40.376750280781245,353.91970002808375
125,2.083375,192.36795813158238,-88.56204241073621,-359.95286485112956,168.9921316801616,-15.701664588500146,370.424885766271
126,2.100042,167.9790174099801,-67.04272526758282,-368.7036565760628,153.79249563865994,2.101791970417232,388.7708173042668
127,2.116709,145.16242424802428,-45.60563975598621,-374.2722404354563,138.2827319654583,13.942585525028024,411.3762750416393
128,2.133376,126.07605080147769,-25.553794924312243,-385.7610698770328,123.06634386754807,19.72223783182527,439.34694592414996
129,2.150043,110.46674979202601,-8.926675619277361,-409.4829137258481,106.61215486027868,17.766071720322245,471.6542399383747
130,2.16671,97.00293429944281,2.8580472789375353,-443.7241336767262,83.53346840042755,6.730145512082578,505.89415009673155
131,2.183377,83.08337472425724,9.837965308764915,-482.1394594825492,46.41754592247819,-13.404256030799282,540.0485363015072
132,2.200044,65.73230528634076,12.7082365339255,-522.1691167707925,-7.914723554563748,-42.648530768887944,575.1658559022302
133,2.216711,43.799962205977735,11.437316651419245,-570.4653358245628,-74.06831693380683,-81.21354142095302,617.623184492303
134,2.233378,18.06813738942102,4.061769312549746,-640.2325004272898,-141.52166877631709,-127.01473404144556,678.3766967475301
135,2.250045,-12.23010476564853,-14.524372702102657,-740.6965707646339,-202.27884669453266,-175.00932377353186,766.4410236375471
136,2.266712,-53.25572003431533,-52.25131222576263,-862.0765134256096,-255.51491814032474,-221.59740206491784,874.8472609216451
137,2.283379,-115.69068794974898,-115.33521717207586,-959.0710202234452,-307.0618527041039,-269.0720087093798,960.812686347964
138,2.300046,-208.00926023679574,-200.28839059375576,-937.9071914456904,-362.95314371166637,-322.6399347019587,928.5142032999772
139,2.316713,-329.11990766310237,-287.4709335513246,-664.465637909914,-414.69149710318277,-379.78902585445064,634.8696026091014
140,2.33338,-464.36343172741675,-342.89266510787206,-26.000123516591202,-424.4936027591243,-420.98413438864895,-47.285903872300196
141,2.350047,-582.8979887480314,-334.7920821783887,946.2359052650315,-336.6687362953307,-415.0751009871001,-1097.6220238426445
142,2.366714,-639.334433673034,-260.5963188836795,1982.5230449745252,-128.93816939893907,-343.54719886852683,-2237.9556037237226
143,2.383381,-590.8768565557209,-158.09913310932893,2662.9869761632226,137.39034026032758,-223.10556148779904,-3011.810472047163
144,2.400048,-428.16186394427484,-78.87071625371686,2701.7835289297495,338.21333098472275,-97.32429272223617,-3084.006467956531
145,2.4167150000000004,-193.3874714120335,-48.09638256339101,2176.8316957268826,380.4080686855375,-4.075333673209414,-2503.310305886636
146,2.4333820000000004,37.468494196151326,-56.9027593625939,1449.9821896651663,274.8160490041565,40.99901911393127,-1642.9490919073685
147,2.4500490000000004,197.71154267539976,-86.68162222160706,863.998383651068,112.01652956870592,34.928708490157106,-889.6956416773737
148,2.4667160000000004,262.8578378212278,-125.58083716273241,537.0263219342769,-20.97208920571377,-16.415239074271362,-416.51248528628423
149,2.4833830000000003,249.3760798180005,-165.250977147848,400.88749521374325,-92.66851477139569,-88.16892678411848,-199.2650236939785
150,2.5000500000000003,188.92430450773102,-198.6609118140579,347.86977710322515,-117.96675336324762,-141.61675723814136,-144.3063251488402
151,2.5167170000000003,106.89979088856683,-225.21778445274208,316.9621386086241,-124.68393492624271,-151.67811544579664,-167.97212488030289
152,2.5333840000000003,19.76436449460746,-250.89484863959012,291.40990843845395,-132.0010886726731,-126.48225243288233,-211.40804918107287
153,2.5500510000000003,-59.1379239546763,-281.31701773340814,266.28189769156796,-145.59564717358396,-98.5636228861666,-237.74863828894547
154,2.5667180000000003,-119.00813506067811,-316.6475830837855,231.2566232169589,-161.22310834322724,-99.33251743550463,-231.29658584932633
155,2.5833850000000003,-155.7206803104416,-351.7598940548926,174.84162779920842,-171.7133583825397,-138.77614472394353,-194.63310365148288
156,2.6000520000000003,-172.56247561289433,-379.6150777808677,95.72141711135683,-173.57723139841988,-202.33367969018852,-141.0956259823769
157,2.6167190000000002,-175.74022661745823,-396.0516367804627,6.4608932198244435,-168.84892131630824,-263.88638273435913,-85.60814719023061
158,2.6333860000000002,-169.86503827621436,-402.94364713528626,-74.4488404092253,-162.0093680886013,-303.63797439761197,-37.51466889219434
159,2.650053,-157.37657752801087,-406.4844021541784,-135.0869324555826,-157.02776897974786,-317.5913859651346,3.192601870084303
160,2.66672,-140.44917118621308,-412.6309020375817,-176.81473261161315,-157.19813010960257,-314.05483570437207,44.974345506706356
161,2.683387,-122.25269285026161,-424.7955374883928,-210.93105366535082,-164.61584113950116,-304.00731628964814,97.64274704423295
162,2.700054,-107.4304447174348,-443.9991581091522,-249.07917172957525,-177.6830769008252,-294.8481591808687,162.95769175206206
163,2.716721,-102.4462587103987,-468.32749609668554,-294.55302981838787,-190.5256387252361,-289.8990849705375,232.26887905289647
164,2.733388,-112.91885093774651,-492.71877352664626,-340.55088226386954,-196.4860673939233,-289.90836888396285,294.6179234233643
165,2.750055,-136.64323931795983,-511.42140703596283,-376.46454444399427,-191.80187621860404,-294.56604129862353,346.1004526340163
166,2.766722,-160.9174288262623,-520.3047656315921,-396.31991389212556,-176.20432823999772,-304.66886395583987,389.78083987117884
167,2.783389,-173.09170666457655,-516.7112290241105,-402.3779347846711,-152.30212678578638,-323.1260051420794,428.31371879910796
168,2.800056,-174.5618705824972,-499.9904928929522,-403.47653308481244,-125.92612848696808,-352.1621215789537,460.23032805793133
169,2.816723,-178.78479082395475,-472.6296167829612,-411.2010835394924,-106.26123314703243,-388.8541690083082,483.48066560399786
170,2.83339,-195.10188686861568,-436.33990457195193,-434.16903028023665,-103.73910659848245,-423.9098452202474,499.3752341341944
171,2.850057,-220.60343069530842,-384.3340783379358,-472.08946318426115,-125.707841148305,-444.6843660114415,511.4894039108658
172,2.866724,-247.8865798965199,-299.8208608183396,-515.9882318626608,-172.28775625053922,-438.56194904477957,521.3671997210033
173,2.883391,-272.96511328031454,-165.31001401605562,-555.9438563649529,-235.2044524093555,-393.4653866256781,525.2345164681793
174,2.900058,-292.50914444479406,24.13557386120316,-587.1431004043336,-300.1775139162317,-297.77540692433195,514.8109661014901
175,2.916725,-298.77912226087045,253.46694353958569,-607.3946913621324,-351.5163385219133,-144.5802072180176,483.10232776859755
176,2.9333920000000004,-282.0601587866101,490.8636371813558,-611.9291072352197,-377.34157067023034,60.472576110096185,431.50812553187995
177,2.9500590000000004,-237.0602635579415,699.6504826622102,-593.5098089006099,-373.20144533504424,294.781773328258,372.0235272889033
178,2.9667260000000004,-164.79100082711193,851.4804861295039,-545.8754209877583,-341.66032630354675,522.702679614059,320.99922963513194
179,2.9833930000000004,-70.31998223490666,933.506186284133,-465.2229162351581,-288.2908113095375,706.4354330254673,286.00030713780507
180,3.0000600000000004,36.90274771916565,948.0300837197831,-351.48667330746827,-217.5792361695099,819.2220714515122,255.03369222748574
181,3.0167270000000004,141.52649382369978,907.756642054575,-211.8997255179097,-131.970282453511,854.2520952591212,202.51491175848093
182,3.0333940000000004,228.66601253958555,830.0880691078864,-61.6408606983977,-34.13921637168359,824.1850874247566,112.46539878524732
183,3.0500610000000004,295.27476526497804,732.2769337071315,82.47834661895993,70.83958705231805,753.2031543731175,-4.189626894665572
184,3.0667280000000003,350.0070015796347,627.8793776002342,208.81785961300443,176.4678886210636,667.1756712717123,-117.52294806008614
185,3.0833950000000003,399.07889727051906,524.8443969774656,311.3241826768534,277.68356874422057,584.7099792397496,-201.0147796377736
186,3.1000620000000003,438.1712126889695,426.3015875013806,387.8965302217726,371.96536629257025,511.51745804614063,-245.40290519425082
187,3.1167290000000003,461.46057391035754,334.04486421695583,442.4966885891805,457.53423845736097,442.24657876029977,-257.368594224429
188,3.1333960000000003,471.6555340865717,251.61932172464776,485.21240005056166,530.9887351541797,369.2563536697749,-251.35593143174628
189,3.1500630000000003,475.33084105712567,183.77097755911234,523.5800429590738,587.2382288018254,290.88396206509935,-241.60452075713204
190,3.1667300000000003,473.18477661109193,133.51232852430664,553.2388442554785,621.9716645038764,212.86428603786368,-236.2968755557652
191,3.1833970000000003,461.06913063745463,100.72917326184857,560.2649339111863,634.1087852799175,143.9313456835639,-235.13495441070313
192,3.2000640000000002,438.14361160586157,83.38774783233585,532.8912330380724,626.024942676496,90.82743446591232,-231.61817900581266
193,3.2167310000000002,408.69064930179405,78.92639868245953,470.19888993442964,602.2668259991918,55.98467738241972,-218.47771118351045
194,3.233398,376.5918928108249,83.86600572201333,381.93289147215944,568.3591821473469,37.767741753533286,-192.53258388398586
195,3.250065,342.34010859871955,92.83369176818645,283.18202388067704,529.1622811164146,32.18390742949329,-156.21580999261784
196,3.266732,306.0233490079985,99.78898866301914,188.88729363716516,486.6411898423726,35.113841042047696,-115.5566900353499
197,3.283399,269.88732371563935,101.48072752171451,109.89599411988878,439.9005609604591,43.58411303493489,-76.4692951403274
198,3.300066,236.63023722779505,99.30648979548812,50.74984003320054,388.68665105877847,55.20425867146762,-41.87929117277709
199,3.316733,207.4868695809306,96.81938070897658,9.985864257165524,336.15374684360313,67.16226343553019,-11.027656531072642
200,3.3334,183.11250431859176,95.30058840495208,-16.947504868229053,287.013876839925,76.4929134380209,19.292380739270932
201,3.350067,163.60316191279196,91.96544685478082,-34.988934198605904,243.5615391150066,81.10375483147246,51.98157613391356
202,3.366734,145.61918054629257,82.29012667076093,-49.27467515203817,204.51008523534964,80.3904191563818,86.49756756287084
203,3.383401,122.22528568180132,64.16705121887674,-64.58989728051225,167.09577378769114,75.59923482057465,118.13781262754696
204,3.400068,88.81951467369446,40.34821032842467,-81.76569575488095,129.06770931017542,69.76018413712414,141.04116288748958
205,3.416735,48.209961085871065,17.109547397973206,-95.45612067329321,89.07737648649022,65.99108118653719,151.89126560925672
206,3.433402,7.900452636961377,0.4181303501768525,-98.19235601968111,47.126875171412244,64.86243604580466,150.46505962319412
207,3.450069,-26.5895911925339,-6.9644930103790905,-86.74167520771275,5.66133761672655,63.99265164157752,137.32933898878343
208,3.466736,-54.617219459715216,-5.633742291095978,-63.434036275517386,-30.692449881756254,61.16777121593163,112.36116734078959
209,3.4834030000000005,-78.3288076926626,1.9762414196940887,-32.36360514899085,-57.640445066739446,57.61792166488067,76.05242179968218
210,3.5000700000000005,-99.29068421310541,13.157429105100087,3.869326642095584,-73.94288412451826,57.33538703385008,31.50870769403833
211,3.5167370000000004,-116.75681536146814,25.897020844315417,43.827415984840215,-82.2618037689334,63.05166950419671,-15.807609526303299
212,3.5334040000000004,-129.07501565964196,38.812026079519484,84.85149759878689,-88.00370357743464,73.28905495382617,-60.38068892582736
213,3.5500710000000004,-137.72497734067863,49.85607626139159,121.51230540935356,-96.88423325595014,82.95797912975894,-98.45326447838201
214,3.5667380000000004,-149.59078583506633,55.24283541068825,146.91587054753472,-112.35117547463264,85.9030047444214,-128.27832411731816
215,3.5834050000000004,-172.8380298872464,50.83911278140853,156.37261186714386,-134.3677900477891,77.29968374115839,-149.7017193626403
216,3.6000720000000004,-208.33048772309655,35.522570733009665,150.35171681812346,-159.99167237886323,55.52114667308611,-163.6314343579385
217,3.6167390000000004,-245.4142143463281,12.406600722950534,134.17595440810703,-184.9710333088822,22.909975353455234,-171.25461783115026
218,3.6334060000000004,-269.10545948429467,-14.285555177524019,114.57094293647958,-205.6746554163282,-15.5713818833427,-173.22037265097075
219,3.6500730000000003,-273.25647814715,-42.80233540201487,95.15573842191051,-220.5681858796179,-54.9090735037787,-169.14789459227356
220,3.6667400000000003,-265.1158830178375,-73.21049658020725,74.22330091497771,-230.37578388643004,-91.42056236760374,-157.63754557849933
221,3.6834070000000003,-256.4195285969008,-104.03496225117851,47.24813396121401,-237.36885782988185,-122.26659597688771,-137.12245680016377
222,3.7000740000000003,-253.01603506938477,-131.15359967788586,11.855926712867955,-244.60374609390587,-144.76073776692266,-107.33244809159572
223,3.7167410000000003,-254.63720331147636,-150.39147736331424,-30.112341168801887,-254.44778675980422,-157.00153134721145,-70.0787938719804
224,3.7334080000000003,-260.9226418356525,-160.95061223973116,-74.66197757175225,-266.2751828331992,-159.29705651859084,-28.73240590506154
225,3.7500750000000003,-272.47575731822195,-166.10238465020484,-117.60460740401396,-275.9279395472109,-154.47721385309146,12.696195050003958
226,3.7667420000000003,-285.47481702859756,-169.95340258856342,-154.37957082809993,-278.69848209725967,-146.40903410141124,50.352739338145454
227,3.7834090000000002,-289.88778714999506,-173.15097307503527,-180.97380673430644,-273.11520623794524,-138.34729149821632,81.59375106615308
228,3.8000760000000002,-277.43608414687577,-172.43942093684132,-197.28411734246498,-261.6153216902906,-132.3683361577748,105.65199804508768
229,3.816743,-250.5525349904367,-164.98432015755077,-208.18682205594277,-248.05710461860218,-129.09229192820536,122.8687196684353
230,3.83341,-219.80943537199283,-152.35379562682144,-219.08879482617226,-235.0783327383761,-127.443611486635,133.58692930836926
231,3.850077,-192.85491105204886,-139.48815530946635,-230.85399261350224,-223.02003689397858,-125.52814532345714,138.33406272006775
232,3.866744,-169.37917878393324,-130.27643731650153,-239.96775741528154,-210.17160936516984,-122.31044895126047,138.33443504744727
233,3.883411,-145.77865904132398,-124.61175313471034,-242.19299745202497,-194.334113877654,-118.31246134976448,134.73129960052518
234,3.900078,-119.85636698555442,-119.10210485991925,-234.95786566118431,-175.2432022611839,-114.86941891292761,127.47806428404975
235,3.916745,-90.75699905935187,-109.87777653557318,-217.84723674784794,-155.2454012291822,-112.88888357655892,115.79577619053278
236,3.933412,-59.059209194754175,-94.51387115255105,-192.67394182278332,-136.5102861639348,-111.5594790446738,99.7875759385893
237,3.950079,-29.166728866370157,-71.5089657993046,-163.39794525599484,-117.72947920095055,-107.33676206315013,81.16417167930985
238,3.966746,-8.52429819891836,-39.27849295236388,-135.4537688524028,-94.96962733980459,-94.63801711658522,62.28433658556072
239,3.983413,-0.7475846752753537,2.1246636465697097,-113.75295860365891,-66.5203263830774,-69.34656225001433,44.75713807083574
240,4.0000800000000005,0.24941937196124542,47.57096907802274,-99.92380714121876,-35.97617816485787,-33.18359499217095,29.07094300487322
241,4.0167470000000005,6.151714772114298,86.84270233570813,-91.87483153731253,-9.548242058247812,5.583709616492748,15.140554673504127
242,4.0334140000000005,22.863658582568693,110.45372843279898,-86.68245355057702,8.89005046938211,37.39980718410806,2.7523195232564754
243,4.0500810000000005,45.05702758273923,116.66906065322084,-82.80815665011414,19.146445834459918,58.44520931008058,-8.20363136082004
244,4.0667480000000005,62.883817963695364,112.55167195376444,-79.19425881647516,22.62461647492171,72.21558324581669,-17.314677360187282
245,4.0834150000000005,71.76272158662258,107.7070379257415,-74.16236427087475,21.168229231153944,84.45903911663129,-23.81328161153212
246,4.1000820000000004,74.36958899676489,106.65550253297053,-66.46485948595125,17.718090325830218,97.77936130884234,-28.00365762794103
247,4.116749,75.26333183889109,106.27759248983389,-56.701548774835,16.197052145048584,110.81710347332219,-32.10576137445467
248,4.133416,76.06008836360647,99.8612444414974,-46.32608465503844,19.85244112030359,120.33624997522763,-38.373109239710125
249,4.150083,76.99064965104702,83.97411129647783,-33.707487825775864,29.900487811628814,122.95299851736726,-46.38574068671382
250,4.16675,82.26688778762485,61.52618031304692,-11.46639569396013,45.986352399963884,116.24398472546541,-53.68273696818927
251,4.183417,99.77110050868313,37.936341119548395,28.69759246770905,67.87827322602033,99.87463117436667,-59.552079883549936
252,4.200084,132.40420476038094,15.59698860277952,86.22734166573572,96.11045330399402,75.89082553405714,-66.71518156491764
253,4.216751,172.21176337324027,-6.550824830658841,148.75774335673015,130.2235303199256,47.53261065172166,-77.91146395283066
254,4.233418,206.26470342573157,-29.404736278858472,200.60757576269245,166.72658295018536,17.77274763890099,-91.22668802088434
255,4.250085,227.45225744106116,-51.74885297167282,233.21184884177342,199.98462960015905,-11.072703919005669,-100.01114715947608
256,4.266752,238.2744262363296,-71.05625716830437,247.64268641034516,225.54907014855183,-36.842553982604194,-97.94192479029684
257,4.283419,245.7430275448602,-84.35443512142297,249.84534669275521,242.4043623150495,-57.10849188072214,-83.92288841963651
258,4.300086,254.6082704049569,-88.79975426423007,244.6960496176905,252.22740272574816,-69.48083264709156,-61.96814202335544
259,4.316753,265.2974746537589,-83.2109091487248,233.18333703934218,256.9948063805271,-72.62479324608074,-36.97792868255658
260,4.33342,276.1845961840256,-69.48897403240392,213.95834131487533,257.43453669432495,-67.34404261040373,-11.229984249714825
261,4.350087,285.74666477648896,-51.95870768804632,187.19220003221125,253.4492878397349,-56.92220150897693,15.45644521985604
262,4.366754,292.6164365997617,-35.15422434988808,156.25716309191674,245.3825563840453,-46.08900708451303,43.174799233643384
263,4.383421,295.3408301389968,-21.777659073951,125.34553567937084,234.3522430734323,-38.39478958754079,70.16075370006189
264,4.400088,293.0479592386953,-11.30617572729944,96.36517421454445,221.50584703913304,-33.476251659127534,93.50899927224187
265,4.416755,285.88769129274436,0.1561020546665457,68.90586718197518,207.50218776689147,-27.606239059965944,111.38144248986869
266,4.433422,274.4610249910012,16.976958293389973,42.50415902637801,192.7247567277214,-18.905348794162958,124.3140873606459
267,4.450089,259.148245577881,38.6775943217637,17.806098262538235,177.3833252452841,-12.674785127378422,134.21636875648238
268,4.466756,240.2873173479619,57.46593452892334,-4.365014573874531,161.25888296994384,-19.946737874896606,142.24526818025487
269,4.483423,218.87709083548646,62.834548351166376,-23.866281390908792,144.09811828609008,-48.537959682214286,148.34477865346653
270,4.50009,197.07357392623265,49.824605010282745,-40.40504913404245,126.90177156473862,-94.24795741842635,153.10992590148317
271,4.516757,178.12414633919673,23.118630348265988,-52.439562068602235,112.51577796894418,-140.45217920889846,158.94266421831998
272,4.533424,165.34103924409152,-6.333284518093244,-58.02352127108767,104.29258540454575,-166.8546296930615,168.23240668811542
273,4.550091,159.9613696418335,-28.46232690283205,-57.2458630294803,103.87046092806618,-160.98643427818524,181.04146814808132
274,4.566758,159.3613478238383,-39.32341983743631,-53.819815894108075,109.63761222034843,-124.79690523704653,195.72885800846436
275,4.583425,157.88924565465334,-41.237914535736465,-54.19577719176939,116.31205117168645,-72.3767449020024,211.48488783380503
276,4.600092,150.13940524737626,-38.342153800232765,-64.50091097188901,116.00754240149467,-20.802709612672533,229.03994141208966
277,4.616759,134.12203291291684,-31.15132540743964,-86.70627216571756,101.17749418979786,19.274793794745115,248.30363454193045
278,4.633426,112.36893860205387,-14.724942912402366,-116.38610274712275,68.67082545528999,47.352717627535824,265.3109589886404
279,4.650093,89.85787117532871,17.32915324069335,-144.90844232630343,22.956095529484507,70.00094342475113,272.048565081794
280,4.66676,68.90282735518237,65.66720476392425,-165.72187811541875,-24.524491297591844,93.92800915074068,260.82767086494783
281,4.683427,45.7425683008544,121.2576758724503,-178.78173217783947,-62.03126820446069,120.09560405782892,229.999094771582
282,4.700094,14.450778004832184,169.12558627503694,-187.86852350954905,-85.99550669413118,143.4859915037283,185.05016111035212
283,4.716761,-25.676930768933204,196.98240754885353,-194.50808164771618,-102.10390455002218,158.1470205137935,134.32447932702112
284,4.733428,-69.01039377744775,201.1453628419617,-196.17058755825548,-117.45543031868162,161.6429365344565,85.1178709346672
285,4.750095,-109.29152824775022,185.7577850113994,-189.3107945687335,-133.50990536805236,155.32918563577135,43.211017440710705
286,4.766762,-144.07447801185194,158.1902945493354,-172.28911150184388,-147.14141223600222,142.9109126242697,12.493232406904088
287,4.783429,-174.36196348876592,125.29475786728452,-146.0622387691156,-156.16413018963505,129.25251731569062,-7.3885355167615785
288,4.800096,-202.06163895594474,92.09444691245585,-113.5409980450437,-162.00214909471552,118.05363811599588,-21.890945069387573
289,4.816763000000001,-227.62006069080815,61.82602287592322,-78.16530033046791,-167.16930056662122,109.20568340165079,-37.916789551100734
290,4.833430000000001,-249.13859225323495,35.94865214284673,-42.51760464814622,-171.47393919389265,99.38605837406325,-58.54521201659482
291,4.850097000000001,-263.8711881080825,13.723724462453594,-8.10707625102623,-172.04309123545698,85.77101243082458,-81.78896290027902
292,4.866764000000001,-270.6024792686658,-7.7449900158564535,24.190104377806847,-166.8163423974155,68.44585791549173,-104.5150019208978
293,4.883431000000001,-270.2758491230842,-31.966966819161822,54.295418112038924,-156.47155769090244,49.256636425783455,-126.3989345434281
294,4.900098000000001,-264.9794852800828,-60.466989536862165,83.36199388905298,-142.65763839694895,29.63867701002731,-149.21746163147708
295,4.916765000000001,-256.8805366338261,-91.14098484084624,113.22784205090426,-125.76221680027905,10.445358040284232,-173.58427165477445
296,4.933432000000001,-247.21976505305733,-119.54205453537347,144.7935578491202,-105.38940947868801,-6.9752467862234395,-198.3109374695204
297,4.950099000000001,-236.01168980151544,-142.37939212198765,176.75204390920322,-82.71082463411473,-21.344371775472798,-222.58389517211648
298,4.966766000000001,-224.03472527449267,-159.29531053506196,206.17877127416693,-61.54210878935718,-33.59152812152455,-246.69272820535465
299,4.983433000000001,-214.67279449244037,-170.88359528509122,230.42523095199275,-46.433876910224484,-47.170600949118835,-270.06019778613984
300,5.000100000000001,-211.06554980489534,-176.48526454872768,248.06059187055115,-39.51009533653814,-65.35471999351277,-290.05015868778617
301,5.016767000000001,-211.53440337730652,-175.07825466324596,258.3111874190211,-39.44832905936826,-88.55070825587168,-303.8488185231262
302,5.033434000000001,-211.06133645300022,-166.90241937736354,260.64458188010803,-43.40612719402668,-114.18219873624255,-311.05036788251607
303,5.050101000000001,-207.5771246001853,-152.80807023488217,254.95266770938505,-49.158034467511825,-138.11190144856488,-313.5585005988738
304,5.066768000000001,-203.59920796959284,-132.87803010758245,241.3342344808585,-55.43109663650296,-155.68517340336493,-313.06404270910826
305,5.083435000000001,-201.1825252742936,-106.89186788702847,219.95401791848892,-61.65256402638755,-162.53793281492935,-309.2517853666537
306,5.100102000000001,-198.4665428273419,-76.21184711011757,191.98967416245034,-68.30265724726377,-156.10836436441514,-300.5528905254251
307,5.116769000000001,-192.7317060649416,-44.93714158699235,160.15669717033222,-76.62896034860805,-137.08006272070963,-286.17750860272815
308,5.1334360000000006,-185.15932385569232,-18.61728278728319,127.11976601109576,-86.90918867696938,-108.95903555846945,-267.0837450622848
309,5.1501030000000005,-180.58497805121118,-0.7484174013518157,94.13297502759184,-97.25980572458482,-75.78064456580138,-245.09685128540355
310,5.1667700000000005,-181.42331978432156,9.982522710134091,62.72232237293538,-104.99563293109338,-40.40998880465728,-221.6450290805982
311,5.1834370000000005,-182.18796297309473,18.53483901485736,36.34789330314359,-109.18922090376378,-5.374686916259391,-197.79911814180946
312,5.2001040000000005,-173.1098859632675,29.026639473172988,17.450893919800134,-111.39892572330915,25.303991991611383,-174.99555657142037
313,5.2167710000000005,-151.0896336242588,41.13275178550979,3.3104688160342466,-113.90994578132512,46.39881339715045,-154.3269845645294
314,5.2334380000000005,-124.01283313104548,50.77531452292314,-11.84200017565115,-117.69851391441733,54.15739580600292,-134.4364988679505
315,5.2501050000000005,-102.1866853093457,54.15465282536549,-30.29799443246397,-121.81913496806814,48.824008966453874,-111.13057427450924
316,5.2667720000000005,-88.72033758983675,51.125858224647104,-49.090592511208875,-123.86043425309391,35.43641702305844,-80.74333068336385
317,5.283439,-79.75972050107397,45.326647507472856,-64.48174435204496,-121.06864143576794,22.92330105751897,-44.395477462612746
318,5.300106,-70.11365875786663,41.53380302699627,-75.54990133491776,-111.67633139697324,20.69014122230579,-7.888263110844552
319,5.316773,-55.9332497048547,42.10508339205298,-83.32999530022065,-94.5349062407286,32.808412922008266,23.745766292524493
320,5.33344,-34.45224132217372,45.195138759194165,-88.67860949057635,-67.17140029318854,54.6930241722899,51.32496444669262
321,5.350107,-4.815453300421246,46.9753186586869,-91.65355897588177,-26.98746505385964,77.06812153628013,80.07982559155333
322,5.366774,30.044385103914962,45.62170604897135,-91.98916805089604,23.19639685431013,93.20597819919442,113.10222241346258
323,5.383441,63.89100592809178,41.83818145598558,-89.70161241899771,73.26125607588622,100.97823680443693,147.3560329976794
324,5.400108,91.05773783262771,35.82474223225168,-85.44039692389221,112.46957731153437,99.54007730807962,176.3053784871045
325,5.416775,110.38758863282436,26.59306287181748,-80.17359368138804,136.8015492417866,88.19222390970788,194.98978776835315
326,5.433442,125.42180529071133,15.57177654941545,-74.33925874630602,148.5942055621348,69.52610454461558,202.2488948705986
327,5.450109,140.9090794743614,8.127947887037504,-67.626086228559,151.2636313993142,49.866877161338856,200.52634531231678
328,5.466776,158.8884999951909,8.492050682905834,-59.99195587832757,145.9390542509538,33.222934313835076,195.47173848244643
329,5.483443,177.28838975666076,14.340273738757364,-52.49506305966258,132.20055569877977,16.399990757633034,193.84018261319414
330,5.50011,191.84681236299025,19.36991849911413,-46.34247852491551,111.16592510659584,-6.541185640652493,198.78375825206143
331,5.516777,199.75016150952973,20.785278510952505,-41.24409780862032,87.60205033982015,-35.46341515704385,207.38210943452788
332,5.533444,201.89963353027406,21.463037938784716,-35.43808989105733,68.41405384915961,-62.49068298568692,214.23599066211625
333,5.550111,202.02954735018747,24.76493766250757,-27.38038084972323,58.96044430638753,-78.88905255742675,216.09084301846946
334,5.566778,204.00100660204913,30.01247561141406,-16.829544164062835,61.21464881694014,-81.26460197409492,211.42280558808073
335,5.583445,209.49444730847975,33.9341918650872,-4.281195205333235,74.44330110678021,-71.25188105608474,198.31522338508174
336,5.600112,217.13836202804535,34.54850616484101,9.761295521699626,95.8191090483786,-52.17958249712909,176.27254302927992
337,5.616779,223.51394028504558,32.44831440865367,24.41160151653944,120.4051183801272,-27.793884101027132,149.0563377633713
338,5.633446,225.6236772503819,29.469444014022635,37.94428597524087,142.20252114258938,-2.695834387377868,122.9083084211168
339,5.650113,222.74416890486833,27.175232218147446,48.455251534694234,156.39812247042747,18.590105471739797,101.97803656636978
340,5.66678,215.60123925119285,26.108386901878003,54.603522730160016,161.12239547152416,33.89684843182847,86.33936126062615
341,5.683447,203.93882817781775,25.873262032459085,55.36305922088918,157.5719176280497,44.22142724527662,73.39241213776646
342,5.700114,186.35449013605043,26.121156834016347,50.176164692879695,148.7025813081507,52.09484753791814,60.08846147479031
343,5.716781,163.3025642191678,27.296680705788795,40.18080755147686,137.69190369841056,59.397917710847686,44.37806921130268
344,5.733448,138.79968915080283,29.692529549274468,28.304492184922825,127.2427046641277,66.26315081244029,25.636124954732708
345,5.750115,117.75662422938188,31.994745919826883,17.4270119789226,119.17212888439171,71.2084854241518,4.603722047183396
346,5.766782,101.99942317263628,31.90175098706655,8.84023101236473,113.18831714803221,72.27243419485949,-16.603433415008112
347,5.783449,89.47960863820983,28.48069617107975,2.2099424873313023,106.15042215376053,68.55268772380462,-35.12057041783332
348,5.800116,77.05708422718443,23.39344078055543,-3.7360736932436924,94.26152773558407,60.94132508172385,-49.034127366302606
349,5.816783,63.46428480904049,19.676555017765274,-10.306690785907774,76.76323854321777,51.46115516217549,-58.512685590469424
350,5.83345,49.471679820836314,19.197576222488998,-18.011527600423417,56.33625891021019,41.86992619861212,-64.993560138258
351,5.850117,36.19008364562486,20.726000434751622,-26.360873397630563,35.335040830960395,32.64605721872326,-69.58955724311885
352,5.866784000000001,24.266972176808295,20.54339216865145,-34.29326927714733,13.040466137093917,23.22566788047872,-72.33866589524216
353,5.883451000000001,13.933524148173472,15.755164854056126,-40.802600735098224,-12.20452907705533,13.459980585874145,-72.70535776604775
354,5.900118000000001,4.457316809789637,6.987298074486218,-45.69446833292306,-38.909380486890115,4.6191693716155875,-71.544959460837
355,5.916785000000001,-6.083481967764491,-2.80020472849566,-50.0495772873189,-61.869275044056465,-1.6919521539902562,-73.25930762326003
356,5.933452000000001,-19.403097737846117,-11.514516517936235,-55.50992670341428,-76.0622243517289,-5.51981843098083,-84.19677179112426
357,5.950119000000001,-35.17056575398752,-18.952572123222808,-62.70186061705636,-80.94246071014754,-8.869354649887802,-106.29129359880696
358,5.966786000000001,-50.557736401380254,-25.534677326849117,-70.47449671345636,-81.29457870117317,-14.047569358305317,-132.77938639209037
359,5.983453000000001,-61.674502235873355,-31.533474454379686,-76.81404973989675,-84.3160356929989,-21.82775929338088,-152.80989072081866
360,6.000120000000001,-66.21110067179912,-37.2361930211304,-80.41924716506071,-94.92305423859182,-30.842453555488365,-160.69441171653568
361,6.016787000000001,-65.1530926168914,-42.57305291990223,-81.5137383512345,-112.20019365533723,-38.58021607877342,-159.3499250175002
362,6.033454000000001,-61.480864334694076,-46.437609763750935,-81.34743201532017,-129.96382214760027,-43.22795707514199,-155.42742990856206
363,6.050121000000001,-57.3757780059898,-47.17010868253059,-80.86647759984666,-141.42622654082612,-44.79398620146802,-153.0484427360546
364,6.066788000000001,-53.6786217864212,-43.97785530130525,-79.97769265329502,-143.384850300857,-44.929900680466204,-151.86324813325868
365,6.083455000000001,-51.67206689745648,-37.530708083177984,-78.26741771408808,-136.18479297157188,-46.19341050322601,-148.7511664092852
366,6.100122000000001,-53.15903537420164,-29.362068571468754,-75.84744673279076,-121.83378304252061,-51.02946069462983,-140.3094517563598
367,6.116789000000001,-57.529489933845014,-21.44830495229823,-72.91096120270078,-103.94834137180979,-60.268440911451975,-125.34120431433107
368,6.133456000000001,-60.35464476920016,-16.164356377596356,-69.05491614658419,-88.04086907421008,-72.0926895627553,-107.03284501887134
369,6.150123000000001,-56.76997528716583,-15.244752753870165,-63.67915203672878,-79.45625257974368,-82.9957350862135,-91.97323455481668
370,6.166790000000001,-45.92098427362123,-17.98058487389479,-56.68987338228382,-80.46673489421512,-90.3221135460126,-84.6749825410941
371,6.183457000000001,-31.450343987261775,-21.14156383980233,-48.715491003919816,-88.93619596964132,-93.78890197303983,-83.40639135087216
372,6.200124000000001,-18.32962264439279,-21.71106728616936,-41.28188035676559,-98.98026154348548,-94.53508660508123,-83.16493709594275
373,6.216791000000001,-9.43000916834804,-19.533322965771482,-36.596742354202306,-104.23378466352472,-93.39298491550252,-80.88538417081759
374,6.233458000000001,-4.113219710269498,-16.143704858406746,-36.06293533197488,-102.68975348851843,-90.20025944502561,-75.19309403424104
375,6.250125000000001,0.22615550780069027,-10.918979501398754,-38.87516972023865,-97.9477261523258,-83.56051648982213,-64.17807579498714
376,6.266792000000001,4.896161232334637,0.1254644399425935,-42.8522785852516,-94.42104028632251,-70.62776222017303,-47.91436188111772
377,6.283459000000001,8.768993303898789,20.675394277543027,-46.47392944649576,-92.3856526694335,-48.39058777373248,-31.404965424919684
378,6.300126000000001,10.791321403176074,49.58226694218563,-49.334744268488656,-88.94386118916674,-16.709952354614906,-20.686045832993297
379,6.3167930000000005,12.345785689770334,80.31336008032942,-51.07576552768719,-82.04953380300165,19.66105231001157,-16.388218961375816
380,6.3334600000000005,16.180684460898316,104.44932546025173,-50.92563612703195,-71.52387348286223,52.49985452741582,-13.869652793190475
381,6.3501270000000005,23.91425715499307,115.5676583827073,-47.98641094421428,-57.457252235460146,73.94304838416093,-9.141731900617486
382,6.3667940000000005,35.322117489100236,111.15512136181201,-41.11720284001112,-39.92408847198995,79.98238146127875,-2.5138087870048
383,6.3834610000000005,49.12774884112393,93.11373570516221,-29.17663069371817,-19.98960771694201,72.21064280031274,3.22476418654083
384,6.4001280000000005,63.63954759896775,67.37475543956153,-12.679182270041498,0.4272236103363056,57.319089163938614,6.443193237830042
385,6.4167950000000005,77.35282681972123,41.68501929507795,5.125273691093135,19.753629994494467,43.78846996931517,8.201483275658884
386,6.4334620000000005,89.66780461120774,21.87808353896253,20.18506164610269,37.31806245012811,37.111817344361334,10.825972757273037
387,6.4501290000000004,100.62416127243353,9.387650705091403,30.571160728369357,53.04207267991865,37.17833911400106,15.05091029579394
388,6.466796,109.93162831512525,2.0168376982637595,36.51793553673889,67.16553314618292,39.75721278504538,18.71562542826059
389,6.483463,116.94358692776325,-3.3138320645715975,38.475098241554484,80.00935463404049,40.09144314100176,19.160649129350773
390,6.50013,121.12153173829734,-8.53555981812397,36.902851404055745,91.1282951418475,35.58923485442141,16.997971427580357
391,6.516797,121.63701870279543,-13.97919348822794,33.259912461286405,98.62783682022788,26.564760299530533,16.13072432162717
392,6.533464,117.3726555209968,-18.581386678531658,29.204823523714925,100.293039852562,15.589281117602933,19.511272837504936
393,6.550131,108.45914593168351,-20.472386965056653,25.17434687865344,95.87546596773865,6.13953703553685,26.146116226808953
394,6.566798,97.14549555265492,-18.30721236324488,21.019034109193264,87.838836766735,0.992681852695704,32.81121968947882
395,6.583465,86.17962554101406,-12.42173567156015,17.1254946981928,79.5029287323345,1.0049785515917469,37.62502363421322
396,6.600132,76.66028689810516,-4.527268976894491,13.636139527896772,72.29076864845902,4.939854186696626,41.34000206145592
397,6.616799,67.97309554349806,3.395733953128043,9.472979502390858,64.76808629274068,10.29259002240693,45.55066821819151
398,6.633466,59.37283120773175,9.641182467482437,3.4280160287088797,54.82139444872588,14.412262007395608,50.19204504870822
399,6.650133,51.07683862616065,13.076990348693581,-4.150364220903569,42.74880335691057,15.458743732943734,53.352140193045656
400,6.6668,43.8994710975201,13.92396858245085,-11.589464107154882,31.185883915495726,13.036939039589011,53.496859487116254
401,6.683467,37.835098800784166,14.02038824506591,-17.54697933381691,21.74211964582935,8.107313480020835,51.081552254423386
402,6.700134,31.05788199384886,15.425474182876375,-21.73961463796934,13.085051098578369,2.0261816763637994,47.81617889370179
403,6.716801,21.184059696166525,18.557845431765276,-24.25980099610741,3.1748910834907105,-4.408512276839495,45.11954601965566
404,6.733468,8.049456782194524,22.013686957679546,-25.085532640472625,-7.767928878696567,-10.911702595977232,43.57674682234688
405,6.750135,-5.773093243082472,23.930298871717294,-24.44033829775507,-17.73195221361317,-17.126794748220906,43.246379858035816
406,6.766802,-18.18531096162642,22.86435141333064,-23.00604623167431,-25.573947200862513,-22.750145408959632,43.87027444066902
407,6.783469,-30.27395333888178,17.69891143096074,-21.617845651325037,-31.81981052362063,-27.987805470186167,44.81839130665038
408,6.800136,-44.034435547965415,8.242604393529124,-20.895142258760323,-37.287649476770426,-32.796707008895815,45.30671224983238
409,6.816803,-57.642568394679785,-3.249751066216919,-20.605588031479016,-42.46471799224443,-35.637502331869456,44.99013447434577
410,6.83347,-65.61894838820942,-12.496741373094345,-19.048220447338405,-48.06584818924131,-34.37773801322221,44.164765436824794
411,6.850137,-65.34853356911104,-16.86087748639148,-14.030289064036708,-54.70982787781706,-28.930867417535413,43.342828998473294
412,6.866804,-61.42101857844172,-18.165059347649443,-5.219941260221471,-62.13820508914027,-21.85682539318711,43.110074632975525
413,6.883471,-61.12587127060607,-20.51715001945746,5.083392120109451,-69.78158726273838,-15.962478743558393,44.35120849631178
414,6.900138,-67.01748715092981,-25.748003148787713,14.095007692126625,-77.52480117678611,-12.193941103414753,47.67622298475567
415,6.916805,-75.93432574610834,-32.046340325910705,21.091866747100322,-85.11485447501992,-9.560554352540613,52.38025678128675
416,6.933472,-83.94246556619821,-36.320905842175236,27.46831107315238,-91.66613011083997,-5.7751625269987015,56.94440263992226
417,6.950139000000001,-90.15306967103594,-36.62353668011262,34.539380952831465,-96.51959921076715,1.6857096795158188,60.8757766906654
418,6.966806000000001,-96.12914813845497,-33.00035297105542,41.837190737729934,-99.76638858004823,13.65896424879622,64.97032681205539
419,6.983473000000001,-102.90670573524133,-27.671769505427736,47.938947207781496,-101.3012567027933,28.12393773032744,69.34973073332237
420,7.000140000000001,-109.0189885757857,-24.427911123194054,52.67228810649259,-100.47514404795791,41.29871180116214,72.49042889885891
421,7.016807000000001,-111.53841489722197,-26.390620079999238,57.58657196712785,-97.34061426406973,49.80642899372865,72.9663700461987
422,7.033474000000001,-108.9864297382299,-33.48561144267309,63.97733646294198,-92.74432749641585,52.035824581446974,71.23288441663198
423,7.050141000000001,-102.54945221065404,-42.453009468305325,71.33782855348747,-86.33711684712897,48.156529739839584,68.99579955463106
424,7.066808000000001,-94.23122637472287,-49.88135057448746,78.36123084840906,-76.27404325973224,39.28683294991497,67.47485769824081
425,7.083475000000001,-84.78911007354864,-55.111401749941194,84.79114223521209,-62.34000247204378,27.08156367262879,66.77795017840712
426,7.100142000000001,-74.27728473760007,-59.57425318179111,91.2559116449862,-48.138924697557215,14.442818381052085,66.39633580709925
427,7.116809000000001,-63.9149965389674,-63.28087739996943,97.33703255763888,-38.534567092764206,5.718275485735308,65.75320387696443
428,7.133476000000001,-56.00755798450996,-63.24425997178501,101.09503223504558,-35.01391885938127,4.56830625362393,64.5018349862858
429,7.150143000000001,-51.44771711092518,-56.64440676082407,101.26743117281961,-34.36988626869003,11.013388593958204,62.68508529395133
430,7.166810000000001,-47.79204272712519,-44.97048674290473,98.93051840283027,-32.181605741954726,20.961920895638293,60.753298011024626
431,7.183477000000001,-40.80971730395808,-33.33681857680835,96.08727800028647,-26.98437108785479,29.052997857172333,59.495311480671305
432,7.200144000000001,-28.813619851642198,-25.3724239851446,93.62897455286422,-20.28462366000221,32.343637574308474,59.774941492747004
433,7.216811000000001,-15.328531784120297,-20.149914920159247,91.63610038872237,-13.273421313993099,31.57868500434782,61.892060192418796
434,7.233478000000001,-6.340806724992281,-14.790038119704587,90.4701748278666,-5.3359646966637495,28.912877305610095,65.02777612386323
435,7.250145000000001,-4.341040436081148,-8.751189541175151,90.18570732595501,4.24561698395501,24.7225821532775,67.73122529129142
436,7.266812000000001,-5.85828328258078,-4.248507185550234,89.56461322142724,14.96843573319391,17.600931246207413,69.3945969641307
437,7.283479000000001,-5.354646287929123,-2.890665469445982,87.03073107468964,25.84449968508947,7.549667579550716,70.93858680482118
438,7.300146000000001,-0.6221498789206383,-3.016580888800846,82.22654973464185,36.087796964334615,-2.1739793542642802,73.55326865251806
439,7.316813000000001,6.292353976605904,-0.848103053752518,75.55500570291721,44.838353019688284,-7.1476669110378435,77.18276483710426
440,7.333480000000001,12.494544831701,5.726866933383365,66.56799888853914,51.293469424147446,-5.36175024666246,80.92558426782517
441,7.350147000000001,17.163464293126996,14.78231910212707,54.518170749427455,55.57971157052753,1.2197787774462,84.49520578220762
442,7.366814000000001,20.92551941872628,21.984978060405176,40.68430476741976,59.088979112317695,8.166897844950418,88.19598023389288
443,7.383481000000001,23.564462017905985,24.344921716537982,28.38528335321117,63.49969984204415,11.831773266269511,91.40306909830736
444,7.400148000000001,23.670544123489208,22.178567662987785,19.793898302286983,69.2727565209258,11.747999290098722,92.18767933746881
445,7.416815000000001,20.553661163299203,18.12390167607952,13.74600071509838,75.09472877148136,10.127778982934366,89.10252352656723
446,7.433482000000001,15.303794644961448,15.124757859036684,7.548661430016425,78.9268111851549,9.056255327057173,82.89561145510444
447,7.450149000000001,9.230149286050867,14.92670711066554,0.29802762443070474,79.8756830247711,8.295042617973525,75.98236056518176
448,7.466816000000001,2.011649522405098,17.10139977029312,-6.64783835966554,79.13156986501346,5.800634266310066,70.35260824355258
449,7.4834830000000006,-7.635019352817997,19.046300935464153,-12.127489062402088,78.86235327225413,0.10022299774241095,66.15557169251971
450,7.5001500000000005,-19.890401831521928,17.9565480296028,-16.409281115267525,80.19924084560859,-8.03724518388088,61.948210499314726
451,7.5168170000000005,-33.450905499306835,13.577590811393126,-19.432098760273053,82.660149567031,-16.087549912835733,55.72079722171729
452,7.5334840000000005,-47.05866052659733,8.502758143341946,-19.61443473125196,85.50595391000229,-21.536748597522966,45.79615623662093
453,7.5501510000000005,-60.487162370568846,5.2164840281627685,-15.816073380341825,89.00872490759575,-23.102510338874307,31.74222827222176
454,7.5668180000000005,-73.75919158609335,3.3349467194544125,-9.294060209030103,94.01655348287213,-20.765849071632193,15.104352659224698
455,7.5834850000000005,-86.00209393765716,0.4344269727771053,-2.2920106898190893,100.59099895591363,-15.293581980782925,-1.2041808678215653
456,7.6001520000000005,-95.70394040908289,-4.700249691599389,4.648773773299596,107.4047156858148,-7.724657461188793,-14.864286520729394
457,7.6168190000000005,-102.17307933020484,-10.511902193120271,12.956721203113345,112.48334940253403,1.1771134772484513,-25.368891724288524
458,7.633486,-106.39944530404337,-14.458960284263458,23.971403922239144,114.49604959024995,11.006751774909734,-33.12555106687606
459,7.650153,-110.15443151496086,-15.629562079639856,37.18506572881302,113.2133103231491,21.030683595570746,-38.129793460905596
460,7.66682,-114.20159823453352,-15.230183537755924,50.4470102551549,108.72142352636301,29.795257995125336,-40.40682109417697
461,7.683487,-117.60344340077913,-15.079315993999241,61.806458756817776,100.8097533766304,36.00908458561468,-41.1736600021966
462,7.700154,-118.77914240061236,-16.217784676146675,71.15945224045893,89.69192304695875,39.6495621633364,-42.22966585744762
463,7.716821,-116.79133957128357,-18.899686308079946,79.9850598843883,76.85541302295536,41.62973496190376,-44.271342350823346
464,7.733488,-111.49863657428372,-23.422404574845906,89.55610559189849,64.43521833671934,42.34943355481299,-46.8125891750062
465,7.750155,-103.06568570037324,-30.34291096716559,99.65434480735351,53.82881453301073,40.989846870317706,-49.5090456671503
466,7.766822,-92.01933611000263,-39.59818472642041,108.83848263617381,45.15514536600087,36.525417901882996,-52.59552795039306
467,7.783489,-79.95054571141269,-49.74164060494614,115.51331470376083,37.61010642550287,29.492868795339547,-56.22799227035117
468,7.800156,-69.49588428964535,-58.27263022000236,118.79691782511065,30.040559542721887,22.528061322599747,-60.09031738215177
469,7.816823,-62.643547360299394,-62.53190355553361,118.7938457575206,21.62185152566698,18.64980847655694,-63.4676934684542
470,7.83349,-58.9665045226381,-60.5189836067693,116.32787992643861,12.351465100084454,18.89285812176627,-65.36099947619272
471,7.850157,-56.266875101679716,-51.67563591828524,112.33081397975486,2.7390752532207308,22.00191266104678,-64.96550067830903
472,7.866824,-52.98268460618041,-37.40807373555678,107.01163959769241,-7.044219374799116,26.14303688859343,-62.544854656353685
473,7.883491,-49.30788535531761,-20.780422256099,99.48134478577074,-17.550001325101054,30.040523828088578,-59.5722044409596
474,7.900158,-46.086048426479124,-5.448863334265231,88.86770622442911,-29.54693467091007,32.65713880545694,-57.39635038929276
475,7.916825,-43.19605684702245,5.542989554418669,76.04129590136618,-43.10001710167849,32.756610564124735,-55.60385846859414
476,7.933492,-39.122507078805256,10.53760815450195,63.29972312593936,-57.241340294343615,29.053141100917877,-52.15987654415707
477,7.950159,-32.246871334391685,9.402283801408142,51.731236325890876,-70.97974585917368,20.870844228575738,-45.6067354425936
478,7.966826,-22.773421139162974,3.5238357715699853,39.63224187124611,-84.64795562469436,9.219269960967482,-36.80706208193368
479,7.983493,-12.901641104728135,-4.0131264796988555,24.327488218268314,-99.36199195749595,-2.803296284281326,-27.92296001482127
480,8.000160000000001,-4.423370745920621,-9.179242767644999,5.1538332981993245,-114.78900726975739,-11.629765145785358,-19.96825257836013
481,8.016827000000001,3.615934847672956,-9.495884086648866,-15.984364589688486,-128.59857816197854,-15.946465411208507,-12.273412894555914
482,8.033494000000001,13.973983357178504,-6.090506143616954,-36.60965400109842,-138.8016141177959,-17.762928925352078,-4.358823444886074
483,8.050161000000001,27.70349207003862,-2.4924335782338787,-55.562825260665065,-145.5683548036484,-20.647514417071775,2.6722596891522823
484,8.066828000000001,42.38216669862894,-1.2136902085232246,-73.21071906573924,-150.1282361005252,-26.87485378564501,6.97882798094658
485,8.083495000000001,54.40035973796678,-1.787998751420528,-90.48038606999815,-152.87138364639142,-36.0335602781897,7.636527177538458
486,8.100162000000001,62.41341534074145,-1.7897584541357818,-107.75571681729025,-153.18833558729068,-45.9903508206251,5.25521863619247
487,8.116829000000001,67.85653073135626,0.8550008543665908,-124.3994684541285,-150.66058716174214,-54.74724240489519,1.3858698995883307
488,8.133496000000001,72.58232960462163,6.635620514919949,-139.2562687403098,-146.00264440994283,-61.09778205089897,-2.606995439790143
489,8.150163000000001,76.94199407755234,14.93737007326138,-151.72358307792246,-140.85566761251724,-64.13213980329968,-6.534737505625154
490,8.166830000000001,80.11991277625455,24.78526373585903,-162.32601379249212,-136.36109714348459,-63.29203409943817,-11.423412589428208
491,8.183497000000001,81.4738751943149,34.670821833652134,-172.0232187020739,-131.6805938130524,-59.10578028294469,-18.311876612360603
492,8.200164000000001,81.10933510427648,42.44598794435652,-180.94642663555976,-124.42389842802295,-53.10454575296386,-27.010602777223017
493,8.216831,79.66323291437209,46.420526934493154,-188.3563513708682,-113.07365563262337,-46.794022840996064,-36.29083778002492
494,8.233498,78.14496300411824,46.591592744587054,-194.09702662108577,-98.73244197582056,-41.10445642503305,-45.11825737694653
495,8.250165,77.50183938128544,44.36533364612028,-199.16710274551608,-84.10035857306424,-36.5864419827898,-53.111865350137926
496,8.266832,77.49154283639056,41.093876014642575,-203.97528948910266,-70.92888217827168,-33.28417337262199,-59.68068268128878
497,8.283499,76.47742475058378,37.17711176617211,-206.80111425396746,-58.73376841824228,-30.297201281914624,-63.577329194248065
498,8.300166,73.31852938448493,32.65616794380679,-205.3259850550997,-45.844311072126324,-26.17068443261917,-64.0629095256337
499,8.316833,69.09945124445122,28.252771224806004,-199.59594047212897,-31.42552725869745,-20.039606321873542,-61.9910927937092
500,8.3335,66.12763390967032,25.101597319871107,-192.42292414381373,-16.185148799511726,-12.179656476521194,-58.93013532546676
501,8.350167,65.43455267465235,23.363062321244183,-186.56146948045478,-1.1208100707866377,-3.633131237277225,-55.588652503599846
502,8.366834,65.94445629590106,21.980046933632167,-181.99696971098973,13.60635522578319,4.223512368468203,-51.8747193973239
503,8.383501,65.97041381826809,20.350532342529,-176.37915326598394,27.98974675239841,10.01215434805668,-48.23288566093743
504,8.400168,64.81605331394887,19.48263454947296,-167.87864416432726,41.39233517202706,13.092518171723462,-46.10954380615155
505,8.416835,62.71045010676898,20.790331520955156,-157.0445244276009,53.598664556288,14.33077317828182,-46.844917082037185
506,8.433502,59.687168138595936,24.37648854279304,-145.73974611684406,65.74850852916367,15.750437548345696,-50.29152188366879
507,8.450169,55.105647831232076,29.16676504092808,-134.83406525912358,78.72333768103819,18.786230923010983,-54.71866638978511
508,8.466836,48.52910030789057,34.21990144314934,-123.45252074055756,91.14847173842915,22.629294973726818,-58.23221923949801
509,8.483503,40.95394777244396,39.36097452154992,-110.36483247708104,100.21644829509425,24.597050674002457,-60.292550475276954
510,8.50017,34.599315750483086,44.84957085516136,-95.73215103075,103.96884993271681,22.545421797204927,-61.658846091384135
511,8.516837,30.820360231715657,50.715797738610405,-81.22310732225509,102.02452022318612,17.022150972815208,-62.81343222301335
512,8.533504,28.37086171296724,56.17755803848227,-68.28345778762612,95.13039908908698,10.857616194894005,-62.85069452001163
513,8.550171,24.51363222499987,59.482504917963595,-56.59034759961277,85.19170389145334,6.394869552513718,-60.3973527917682
514,8.566838,17.921520993897794,58.46706413733,-44.786372919685135,75.04431905338575,3.2187888232831097,-55.51778973614638
515,8.583505,9.845163648292445,51.92129577651805,-32.50940083057722,66.78052946216233,-0.8440355122413115,-50.136815631145616
516,8.600172,2.547801927550627,41.11932237452363,-20.870983077905983,60.0941961727556,-6.304775008450232,-46.36901168255966
517,8.616839,-2.677224471475736,29.697322032567158,-11.212592103463626,52.97247552722506,-10.40234606851596,-44.80555704787034
518,8.633506,-6.167891751167477,21.050654666389633,-4.345256899842441,44.3196727485235,-9.53517354905802,-44.63712883278734
519,8.650173,-9.336889198588796,15.87832210620634,-0.5498176107939632,35.684714714910044,-2.3782723721110313,-45.00086955367487
520,8.66684,-13.203999284156364,12.894790192685825,0.8655057524015526,30.38559827290411,10.58603000895888,-45.69756025029989
521,8.683507,-17.079106755150384,11.255897187095918,1.7365717376479253,31.065619115960537,29.81488231584853,-46.699926079067865
522,8.700174,-19.43495030669077,11.096736830799436,3.8388290505709484,37.526605528071705,56.96054139407496,-47.38484028992292
523,8.716841,-20.5451436315901,12.482240850818663,7.594652043436985,45.93875301087482,91.80655548959618,-46.3003311732614
524,8.733508,-23.274989525309454,15.649272828681484,12.165962603605113,50.25052596581177,129.85910416299072,-41.60652522100382
525,8.750175,-30.435422838109112,21.824407502291642,16.232435607488952,45.72624892599143,163.22936719016616,-32.22549091369471
526,8.766842,-41.67491676289221,31.628822227545484,18.429113602952963,32.12672389803464,183.38392433946052,-19.31114030283795
527,8.783509,-53.18933650700701,42.26742113214274,17.66832053988346,13.49473358077345,183.5662129072175,-6.690221138169761
528,8.800176,-60.1837410156228,47.87545052428524,13.567463665575914,-5.161197386182248,160.43954575439705,0.923777529447741
529,8.816843,-59.93081229648013,43.773218212600526,6.48790328005242,-20.97965276773147,115.26313664390608,1.0100792905087443
530,8.83351,-53.37752917902618,30.459446853431984,-2.9657359284233458,-33.92476964408669,54.13458358704602,-5.206575854890039
531,8.850177,-44.21360724954082,13.28684154910307,-14.090352238649416,-45.546256622093075,-13.634719422447525,-14.194236140373928
532,8.866844,-36.17958939556278,-1.9317401507751155,-25.13650636968311,-57.26025967114987,-78.74909449332087,-22.7227345760682
533,8.883511,-31.019864874342375,-13.099643556544429,-32.68510808585668,-69.1212661683737,-134.82959588326955,-28.9502595318911
534,8.900178,-28.583487647153447,-21.69036891156658,-33.77026076029127,-79.8165273465832,-179.23851390695484,-31.771729009226124
535,8.916845,-28.22170917388653,-29.037112975658438,-29.355561010382658,-88.12168853601273,-212.05102189745264,-30.241076030707305
536,8.933512,-29.812398073972524,-34.093935496046385,-24.002114997986872,-94.5240722808048,-234.7630290657581,-23.751684803498947
537,8.950179,-33.61369182151195,-35.41862663792509,-21.11730081821502,-100.96747843667758,-249.64671273241242,-12.127646428178718
538,8.966846,-39.30253659617987,-33.981743574776246,-19.97628083220676,-108.7323306296106,-259.1824429892004,4.404460822923016
539,8.983513,-45.32673754798736,-32.3386038674299,-17.70491654350152,-117.14477458930607,-264.9336059069905,24.72283095339948
540,9.00018,-49.530176545273136,-31.274828656498315,-12.18100440506473,-124.9208509661274,-266.59679437562716,46.61967158419244
541,9.016847,-50.684907549039224,-28.900450549227042,-2.627100011571232,-132.18903687380438,-262.454012976303,68.18201533635289
542,9.033514,-49.282451878324494,-23.70673573670358,10.481669492176941,-140.02888638742448,-251.13073009751557,89.57110710113417
543,9.050181,-46.56222060636952,-17.376168019886872,24.90217018843511,-147.97382691524504,-233.11019357159222,112.61231613600845
544,9.066848,-42.93722986438212,-13.36071674106314,37.1254045975382,-153.44624154165774,-210.55087869505687,138.26137203205252
545,9.083515,-37.79263583333949,-13.115194260782083,44.75601956105123,-154.61500686930196,-185.58997900613514,164.93970981639933
546,9.100182,-30.842382744091424,-15.03584976059102,48.22726341097588,-152.70610655669546,-158.89683745233563,189.20851967329511
547,9.116849,-23.20810190163975,-17.026730349484453,49.33889760505667,-150.27802753651105,-129.86213467286407,207.28904562848376
548,9.133516,-16.670941472387547,-18.454923431718093,48.84148490551168,-147.92792567902848,-97.78696918284692,216.64259955901946
549,9.150183,-11.68970606349492,-19.048668300938502,47.14959486831157,-143.55350434600243,-62.51675708374003,217.99492934607667
550,9.16685,-6.461350980043699,-17.71685928098531,46.90060028384772,-134.12389795314255,-24.50476009220945,215.66897652266587
551,9.183517,1.3058558647129965,-14.013236810868868,52.2322323415951,-117.69409861919766,14.454887652662421,213.77256645000233
552,9.200184,11.455918976859907,-9.714202662781528,64.59574009349555,-94.64032162028577,50.41682466613758,211.75265875094328
553,9.216851,21.098406997500355,-7.236131732525315,80.50502804211231,-67.47318598387659,78.76330464595185,205.35731270516783
554,9.233518,27.725698849641024,-6.834928448116365,94.0935434418692,-38.92907294289089,97.6068027058485,191.78744758899188
555,9.250185,31.75293442623498,-6.620089958083403,101.52929514832437,-10.110480575892218,109.13661577982185,172.072548687045
556,9.266852,35.44312127079586,-4.937781809856132,102.98431169468931,19.297209969670888,117.130452032678,148.7628653488299
557,9.283519,40.178989689393525,-1.3772698676370703,101.04655236351726,49.46540690210786,124.0199608407062,123.57372953623099
558,9.300186,45.382666393122776,4.362292935039644,98.0192684529463,79.73118055820407,130.54205675112095,97.59681692307984
559,9.316853,49.24914779066707,12.784554488289587,94.9493758718651,109.13561686004549,136.44868693687806,71.7503506128044
560,9.33352,49.81033405954359,22.824873618059865,92.32763474548983,136.72221364245905,140.34249877915036,45.92312026073312
561,9.350187,46.22206468021936,30.809017650274022,90.26672102283803,161.16223207512854,139.81480487705812,18.86524994422035
562,9.366854,40.27715156827503,32.56344029780384,87.58488129323811,180.85631502748436,132.90588344679284,-10.135669329006298
563,9.383521,36.22379166939519,26.744417539763084,81.63816701062345,194.95951016335582,119.46433994765586,-40.35749781925119
564,9.400188,37.63553175636957,15.707946085166613,70.04383523363417,204.29129234172058,101.10576934023123,-70.79555511281526
565,9.416855,44.29692194890946,3.389737784107126,52.90456542254695,211.09715171734854,80.26492544352736,-100.85679900400625
566,9.433522,53.048117201034984,-6.991358074148906,33.247892718592,217.71174185026908,59.40923824433713,-129.4711540002098
567,9.450189,61.0606699551724,-13.441569024532296,15.467632070430946,225.05244605199795,40.76260808490062,-154.9034271965092
568,9.466856,66.77454265237765,-14.979363706747566,3.8238858006334517,231.9543595174381,26.074072872411435,-176.00174544930195
569,9.483523,68.79193274082283,-12.0481067539568,0.9469773618392692,235.82121902294128,16.071908810670404,-192.67340147866986
570,9.50019,66.94867919014479,-6.527275911082781,4.192547749277333,234.3809393605917,10.18719000703675,-204.91076876790459
571,9.516857,64.33709057294371,-0.25401697684276126,3.6017393803671522,227.48058972072764,7.14675402542464,-212.18163294282127
572,9.533524,64.83583682186416,6.256455096120797,-11.157062323753147,217.30937086279874,5.902327180118244,-213.88880973553114
573,9.550191,67.70796433722137,12.88723296830337,-39.372603467546796,206.66054448207848,6.124122206747648,-209.80108923017048
574,9.566858,67.04257313694242,18.196436903024104,-68.37874456932087,197.12008569156546,8.210604458933997,-200.06570122420825
575,9.583525,57.315533200517415,19.796464019849196,-85.77222840049498,188.811646862609,12.984670553219571,-185.42772015860294
576,9.600192,38.20225736254089,16.519694036050204,-89.42540705404758,180.8281170807182,21.054481018835485,-167.52617722766308
577,9.616859000000002,14.373869922265115,9.372840774986981,-84.64893643285039,171.56988372077436,31.936803991778874,-148.42148881434116
578,9.633526000000002,-7.563647570420034,0.29607828056059027,-76.15655318788933,159.89337933894006,43.53713273575252,-129.41885468563996
579,9.650193000000002,-22.07259710315025,-9.302120468947004,-66.14754833209834,146.41869470174717,52.99596469247476,-110.42701188591133
580,9.666860000000002,-26.81782356676888,-18.66426449566381,-57.417872220958145,132.71566091670385,58.86108005493401,-90.7523236635759
581,9.683527000000002,-23.49613506452784,-27.13382527775708,-53.8598217572747,119.09459932873344,62.2424750408494,-70.5131847084155
582,9.700194000000002,-17.010050595617503,-34.29001909571831,-57.344486165808014,104.3595825913756,64.87325932873742,-50.860177345766914
583,9.716861000000002,-13.207777389191456,-40.61325236953644,-65.84933991511836,87.88195463314938,66.11977406752096,-32.73796739246555
584,9.733528000000002,-15.721603382038865,-47.05155440692026,-74.85075934451882,70.76322400805468,63.170687170266106,-16.00265810001904
585,9.750195000000001,-23.557742987212766,-53.047345282523445,-79.81446551408435,54.57798920514491,54.602136745810654,0.016859611745757563
586,9.766862000000001,-31.883915761861438,-55.34467903849618,-77.64025980067086,39.86289867190652,42.96798232191772,15.674579738750772
587,9.783529000000001,-36.13043254322223,-49.80358851409671,-66.92713900428845,26.298759920686905,33.54524457140017,31.13693638433407
588,9.800196000000001,-35.98786280095458,-34.97421365336611,-48.329117641544755,13.607353599353964,30.71732384674803,46.92594475124106
589,9.816863000000001,-35.55962835965507,-13.76935024595112,-24.982086967961784,1.5327659803108866,35.26587059871461,63.75609898339726
590,9.833530000000001,-39.43577770715545,8.669380961475847,-0.7926222887926717,-10.718394053382788,44.73275776207137,81.70539155867685
591,9.850197000000001,-48.36404831906705,28.582391272096576,23.078883044185268,-24.287117060829626,56.04707950871881,99.66503831767517
592,9.866864000000001,-58.55583017116538,44.5779183628066,48.75471122494334,-39.679653615062904,67.06553405352032,115.84664889523694
593,9.883531000000001,-64.97367860187936,55.544898643234944,77.06537241425801,-56.083460933314726,75.43157685787644,128.9088133492205
594,9.900198000000001,-65.3085496425392,59.46745804754784,103.33605981225634,-71.89390536119758,77.48951397966924,138.14877776803058
595,9.916865000000001,-61.36577449449676,55.183824712758216,120.02897612119988,-86.11333373484032,70.04371327416749,142.55787999661203
596,9.933532000000001,-56.992482547575605,44.01083290619073,124.56664506360417,-99.06618134752185,53.15072774285727,140.72782786636733
597,9.950199000000001,-54.284519872724765,28.738480403287717,123.36167868379513,-111.51877604370733,30.247498033271192,132.35806712599356
598,9.966866000000001,-51.56876171890539,11.868838109605454,126.58241881172283,-123.34526240915622,5.525903267577571,119.28991991158742
599,9.983533000000001,-45.31972915590114,-5.048396832856279,139.19898806924905,-133.3981315575789,-18.199344924732706,104.58302548008248
600,10.000200000000001,-33.99322997922004,-21.728373841081744,157.99107496029035,-140.54503964187242,-39.26764312997771,90.70498541455697
601,10.016867000000001,-19.758771536747677,-39.083026859283805,176.14356823683676,-144.56311331385803,-56.07608678571235,78.3965083330542
602,10.033534000000001,-6.625410266650708,-57.45409347670238,189.0510439173176,-145.9547912358392,-67.1766654646414,66.9184028027017
603,10.050201000000001,2.9884164161195796,-74.54466617067432,196.41803794491398,-144.95782110331902,-72.28828253354511,55.48935800212813
604,10.066868000000001,10.20505181467665,-86.53664910740076,200.81190641947796,-141.13851540266663,-72.29847837860254,44.42899882930267
605,10.083535000000001,18.559351655635673,-91.85693221179002,205.01381640388163,-134.20394880039254,-67.82074883546206,34.67404997702981
606,10.100202000000001,30.469039036996556,-92.72011447700379,210.47088599121582,-124.52477579403975,-58.421640957398495,26.717310850995062
607,10.116869000000001,44.45181125415742,-92.58723357715701,217.61618182829216,-112.36615831417814,-43.90003997833799,20.690425694611765
608,10.133536000000001,56.31157338801543,-93.19776986071287,226.50636698561541,-97.56465112173821,-25.5094234917089,16.839270812547163
609,10.150203000000001,63.22192034100303,-94.20257039656364,236.359453633088,-80.71865420139903,-4.661561241757101,14.686049640172405
610,10.166870000000001,65.96594606086359,-94.43576719000535,244.987532355385,-63.647453193302965,18.959018334831253,11.830721574730148
611,10.183537000000001,66.92317376222894,-93.37894776401825,249.54285590798418,-47.6622991069412,45.97702027079295,4.937510417066728
612,10.200204000000001,66.41394840849443,-92.51081560284882,248.15213909976,-32.124801306804066,73.74327036263648,-7.316223185530069
613,10.216871000000001,61.6383578783708,-95.19705850879593,240.98869231917172,-15.630340268001559,96.13412945444671,-22.814117091287603
614,10.233538000000001,49.747866303444255,-103.65598474672916,230.15738780062958,1.7622528419145014,108.08021468612938,-38.15731124220575
615,10.250205000000001,32.03653506162763,-115.354296400224,218.82837222225334,18.162796670349664,109.25544523312237,-51.867844401255354
616,10.266872000000001,13.964340091440253,-124.06000526768851,209.6645952760981,31.504279734742997,102.37727927261483,-65.02656283071877
617,10.283539000000001,-0.17426093773250018,-126.36620220519887,202.69405339872156,40.77416785036954,88.91666213073793,-79.4502623279091
618,10.300206000000001,-11.753338431845494,-126.44198427222452,195.0749890288497,45.594827881434384,67.89000223159431,-95.90565513148454
619,10.316873000000001,-25.26293404419782,-131.69503226929362,184.5799050281313,45.92350523790863,38.73168772865205,-113.59309637144104
620,10.333540000000001,-42.057117923969166,-142.95704965891161,172.57717140908693,43.127575327881246,4.41932946127587,-130.7350630354449
621,10.350207000000001,-59.125334538956665,-150.74173052548656,161.0895108637637,40.3583903200049,-28.30411904544573,-145.61205700632587
622,10.366874000000001,-73.69954336791855,-141.78581091993243,147.88040378510672,40.400285629273114,-50.785585478200716,-156.8502544656723
623,10.383541000000001,-86.01225073490664,-108.10712103718973,128.15251403700873,43.34621766388765,-54.57896218095115,-162.5381660416935
624,10.400208000000001,-96.80433915302085,-51.61841120171856,100.9306062401383,47.23774517292741,-35.28452392297558,-159.80690351001414
625,10.416875000000001,-104.77445761278226,14.975066614762277,70.47947220965763,50.43063010504699,1.0804792229392746,-146.4918525808652
626,10.433542000000001,-108.01492989540978,71.85476724007543,41.45299078509723,52.372742300897066,36.52003714770308,-123.66155796509958
627,10.450209000000001,-106.53096251113847,103.5316600350489,15.10233062924437,52.843456349027576,52.0871855239408,-96.07870743661616
628,10.466876000000001,-102.17853877703783,110.27857158230066,-9.904097061297328,51.71550008284828,43.11630083867207,-69.73603818532649
629,10.483543000000001,-96.76572231567337,106.06972854962504,-35.168888692393786,49.02136066381773,21.386151981520243,-48.83724308663813
630,10.500210000000001,-90.73992526040807,105.28943324907765,-61.90361510429615,44.54094480355234,2.7312736626177685,-34.661514479463655
631,10.516877000000001,-83.55313102289361,113.42541151021332,-91.51228842247866,38.11573770806548,-4.952255651550359,-26.073142996579055
632,10.533544000000001,-75.22398305912697,127.91104644524651,-125.12555164292218,30.921966601358932,-3.4656352824837042,-20.321646529413243
633,10.550211000000001,-67.0257259217729,143.03369056311675,-161.59384257804484,25.583017018311416,0.9831626031978815,-14.156693302703014
634,10.566878,-59.79299714777806,153.52048128797395,-196.89241406281556,24.30266648222473,3.3308831300502706,-5.671175304198012
635,10.583545,-52.00487423103642,156.28723789328092,-226.61463566782368,26.85731100931112,2.036707953172069,4.380483205286051
636,10.600212,-40.958782775783106,150.7622622194027,-248.64954346775016,30.480838921837712,-1.8618557629887342,13.498242735280865
637,10.616879,-25.944658543047836,138.03269545087426,-263.78814172827396,32.04684428947749,-6.929350045949175,19.971556405174063
638,10.633546,-9.12985788818622,119.68375970126333,-275.3603292278905,30.7724282773139,-12.349608270548998,24.40129765451277
639,10.650213,6.9116232321580355,97.25481667924703,-287.7120704989518,28.597245513966673,-17.508863678294183,28.75149591500433
640,10.66688,21.73384046392759,72.59083954298791,-302.43397312668077,27.676032688826652,-21.289121266993682,34.30390386501738
641,10.683547,36.7171683179985,48.414429288715695,-315.90558610073094,27.98524920974124,-22.026856897394726,40.55044934095406
642,10.700214,52.75908046451138,28.033216686039037,-322.8567359247055,27.711936119491746,-18.61503365192082,45.23454491898053
643,10.716881,69.045689322346,14.049523788054282,-322.41434568475955,25.334905213764237,-12.012939450838141,45.15065587279315
644,10.733548,84.21464741691574,6.972775367183644,-318.35566941590264,20.804910321559944,-5.402140752391162,38.03754543913017
645,10.750215,97.8150483371183,4.472864578327161,-313.5217172467551,15.149575977794868,-2.527932059098232,24.517620660228012
646,10.766882,109.71114027507681,1.8084679820968859,-306.5821344031818,9.405079686913883,-5.767347981202491,7.650933640220353
647,10.783549,118.47568812066899,-5.857148606107294,-294.95467411622354,3.8280948528399303,-15.126350625699516,-9.427531512761515
648,10.800216,121.72327380843981,-19.92808696996285,-278.68976416597496,-1.8499410683737199,-28.17059418292723,-24.444669775415374
649,10.816883,118.48653803493164,-36.597502553945375,-260.02088793485524,-7.356170338786552,-40.83311918461334,-35.02438946002378
650,10.83355,110.17367114863632,-49.0272321571375,-240.6109170703101,-11.708265859432258,-48.71865175213942,-38.66254608689036
651,10.850217,98.59626618613407,-51.704059952634175,-221.08228649626528,-14.666267690473143,-48.03157159049374,-34.30263306686983
652,10.866884,84.70880431256816,-43.05637406561027,-202.34598257489654,-17.67690651416072,-36.229908562128266,-23.282116247713624
653,10.883551,70.68393375792277,-24.94994380884515,-185.43032710093414,-22.288578326409365,-13.350897082937928,-8.292854184118017
654,10.900218,61.061498745822064,-1.114288788016763,-170.18022933523562,-27.7184766310601,16.49653294394604,8.767132791527096
655,10.916885,58.78309568037758,23.79979528510327,-155.419491260251,-31.170597436368503,45.762391591583494,27.66562943561359
656,10.933552,61.07231393575547,45.266251608298674,-140.3130748053936,-31.09601506214497,67.08025027757708,47.89222530266658
657,10.950219,62.018086447358215,60.49149721906129,-124.83518587175143,-29.28179279246683,77.08023329374872,66.3113649372256
658,10.966886,58.63318053977287,69.14660811392876,-109.06746521122697,-28.99399964341873,76.97860105195117,78.32692708145262
659,10.983553,52.358173695952296,72.57631730043994,-92.85395369687643,-31.513682340394816,70.292026947543,81.6311124542625
660,11.00022,45.66531080670721,72.8982249352024,-76.45889263291684,-34.999396752747494,60.657023605324,77.662899917395
661,11.016887,39.39692940900052,72.74218940129997,-60.59478293256876,-36.331961128152386,50.89014338493175,69.33342688115421
662,11.033554,32.9674727221637,74.54572780551132,-44.8673994768688,-33.56413065216786,42.194361303360225,58.451577018510605
663,11.050221,25.58479126206807,79.04368206802557,-27.138912916510925,-26.972249577086455,33.636066952444416,45.45880693170408
664,11.066888,17.29179358370495,84.42995687410148,-5.654127743173246,-18.559640766024017,23.29966487343207,30.466837006602802
665,11.083555,9.176895055248107,87.35101676282943,18.617139625133483,-10.59491315584609,10.373306120123967,13.628066977680946
666,11.100222,2.061394314033591,85.1809336640451,42.1705042698966,-3.998106010850768,-4.294947345736429,-5.3396952318748
667,11.116889,-4.746656959924809,77.98556176891704,60.89979120537727,1.9038199390532895,-19.268549377472585,-27.068423863755868
668,11.133556,-12.220109416170295,68.53897591556328,71.90733768437248,7.668564578787333,-33.157953255259315,-51.276323899501904
669,11.150223,-19.511269987147834,60.18502984364338,74.61638874802073,12.354409539770685,-44.52133665889344,-75.72848132781449
670,11.16689,-24.866172032177822,54.763913370857445,70.87348660881028,14.635672178055227,-52.29594452363267,-96.93447326965841
671,11.183557,-28.594675951737635,52.60970328736961,63.711433178821935,14.66784267322685,-56.39597652318608,-112.08439799669293
672,11.200224,-33.005633079442575,53.1834245902997,55.79581811014967,13.856922944189403,-57.352383684417646,-120.42979889109338
673,11.216891,-38.845029397028206,54.472326808305496,49.230498608516484,13.258041574456538,-55.78092201120367,-122.96260670822855
674,11.233558,-43.76613146080276,52.91199241036697,46.442319088645164,13.114640479520983,-52.722590642471644,-120.90810133992551
675,11.250225,-45.416267566356815,45.574194502965064,49.77137664292414,13.5548788683301,-49.8616833257857,-114.90335736159123
676,11.266892,-44.67531477697252,32.31886742591324,59.059331036625785,14.688596385299654,-48.56383689877384,-105.97720334961167
677,11.283559,-44.55345158392523,15.344313635000516,70.4064077209907,15.999691743625455,-48.775393185252,-96.62771755293664
678,11.300226,-46.51107444494896,-2.7805417687548224,78.78843988512426,16.58947635203915,-49.37417878317197,-89.62965332033438
679,11.316893,-48.97123814914601,-20.504940169970745,82.01081450806724,16.398617399006394,-49.73854200302361,-85.72303067379916
680,11.33356,-49.40948049304026,-37.6654298880655,81.65598126826421,16.310458348311858,-50.58192606714766,-83.41720854072716
681,11.350227,-47.15036593170386,-54.774527644927296,80.68614293364148,16.485226399744683,-52.76144697725053,-81.03570446697105
682,11.366894,-43.81351636046779,-71.59075229067761,80.5707372515987,15.64064695470394,-55.493287650889286,-78.18404368179665
683,11.383561,-41.42440192464805,-86.8139376961372,80.25015686198414,12.785642200309503,-56.47344330996559,-75.36407015939977
684,11.400228,-40.510669269551784,-99.68120051456302,77.46536220567599,8.569584009337166,-53.86656595798751,-72.89377948576268
685,11.416895,-39.806718248709096,-110.85353150469416,71.08114349288869,3.953041609746799,-47.74338990819403,-70.37933201712978
686,11.433562,-37.50786262900363,-120.29361361119166,62.007341447492536,-1.3267138242011387,-39.72942810666905,-67.01528452718773
687,11.450229,-33.27842007185187,-124.59315546993678,52.063496887144666,-7.794032483378501,-31.58585652490499,-62.339949328271075
688,11.466896,-29.218937288763883,-117.82001494178675,42.6076345115708,-14.904303703096282,-23.09267428575667,-56.95412896739969
689,11.483563,-27.989204503957737,-95.48291099483788,34.20314865398188,-22.05469205851739,-10.182115533578653,-52.54450080419391
690,11.50023,-29.891653179624285,-57.85585728662919,26.534708839462787,-29.596077832278556,13.009386901823763,-50.276173576426636
691,11.516897,-32.85525341769632,-10.754325794255132,18.0469921866739,-37.06216038285211,47.055183561749345,-48.20502526939179
692,11.533564,-34.73253430807462,36.03997063904751,6.408410751965942,-42.002660499394594,82.99587530231315,-41.100347932411
693,11.550231,-33.87339553874151,72.52495128257316,-9.767565443482656,-43.21278379882274,108.85724735939075,-24.599190991064983
694,11.566898,-28.090369324991276,93.10026604948399,-29.886565274430204,-43.942098589675965,120.25090216888182,0.05714145813303073
695,11.583565,-15.25484600243756,99.00478378411725,-52.48793343399997,-49.05990117876496,121.48533823845861,26.0030705933043
696,11.600232,4.658499946606323,96.86205214783917,-76.75879484668604,-59.45014027061708,117.53363770333425,45.38522773744056
697,11.616899,28.740492601409983,94.68434624466528,-102.38000097889878,-70.86015226724234,109.17569660273043,54.00417731290531
698,11.633566,52.312025037596555,97.86904000327243,-128.4672735045192,-77.38509826757397,95.90399770311203,52.63171783700303
699,11.650233,70.93562685747628,107.38716544769153,-152.96012772821544,-75.229959171807,80.11972172829444,45.301557338138636
700,11.6669,82.0237250400981,121.30413754513648,-172.4759817350839,-64.7638293613951,67.58895277599582,36.680622942295976
701,11.683567,85.53989378996292,137.7046674603847,-182.98478608202475,-50.27134335286107,64.58008449199693,30.205313950127003
702,11.700234,83.6804417432056,153.96404650567274,-181.80333070037335,-37.18868739413561,72.44895104072717,27.11432620782312
703,11.716901,79.19640156411121,161.77921940707063,-169.67114878787962,-28.99814239772821,82.30105537209926,26.209737195018576
704,11.733568000000002,72.96865611576264,147.8026421792777,-150.87967137785378,-26.04983662130935,78.09147879929039,25.446229092506186
705,11.750235000000002,63.550430791838636,107.02181908809389,-130.861345682901,-25.79471011543807,51.81046132932926,25.094900180018644
706,11.766902000000002,49.96002464932554,54.965249612247,-112.9072266072178,-23.907078203545893,15.85023637759138,28.468439317795156
707,11.783569000000002,34.07464709937993,18.298802264043232,-96.85870349143212,-17.10792516639042,-6.411612772165917,37.91236769371832
708,11.800236000000002,19.008491874200384,11.102727110318163,-80.6039181394419,-6.2753891389651635,-3.7633022932238163,50.91900171594891
709,11.816903000000002,6.065557514661578,24.98375660826722,-62.328843276198185,3.485950494853574,14.1237807255744,61.9604278117246
710,11.833570000000002,-5.1564725690601705,41.032124734505345,-41.73882664126516,6.232693330303787,30.180412766158852,67.58015160043324
711,11.850237000000002,-14.587692295351733,45.520875732412854,-19.822654457127005,-1.0470807445471486,35.51028674471161,68.3827495430808
712,11.866904000000002,-21.821760684842655,35.587660100796576,2.6357592393530926,-16.976630784703108,31.47150976388597,67.08806194452123
713,11.883571000000002,-28.29339277502058,16.831179796554387,25.91762501264936,-36.78926834516092,22.835792130093893,66.49652998817527
714,11.900238000000002,-36.91865988935119,-2.1004786796218617,49.81198908910786,-54.377358430479816,12.13365469049945,68.91606562630596
715,11.916905000000002,-48.323283769251574,-15.374594116193471,72.11927689247875,-64.38583435390888,-1.3622470282521792,75.61600197663398
716,11.933572000000002,-58.757611968124166,-23.223071124897047,90.57555142931929,-64.02891203083635,-19.532606577332775,86.11198877143525
717,11.950239000000002,-63.42534606840968,-30.117057652104158,105.51838020296276,-54.03121612409723,-42.704154288326706,98.49417846189579
718,11.966906000000002,-61.69308858402782,-39.486867370563886,118.74625673976041,-37.969596287130315,-68.55812602662628,110.4751592118885
719,11.983573000000002,-57.717921046137704,-49.621355315572174,130.73840510411267,-20.101212879259155,-93.06064985594553,119.94091359183867
720,12.000240000000002,-55.703040411825015,-54.005586615417286,140.99446009029927,-3.0563396874784434,-111.36451217827837,125.26788160002675
721,12.016907000000002,-55.80758263782016,-45.07826462221786,150.101200741757,12.717403042177565,-117.17889392180523,126.05082715215352
722,12.033574000000002,-55.43236432700499,-18.598966331615333,159.3949397774624,27.367343551971306,-103.61997316277109,123.31192418560288
723,12.050241000000002,-52.819554995652155,21.23592164855235,168.85317790720157,39.97966508982118,-70.4955018942693,118.29452225382946
724,12.066908000000002,-47.40659608721613,56.71045710369293,176.53925750569618,49.22600990279771,-34.15051820974549,111.12162635346951
725,12.083575000000002,-37.8867879741332,61.227047533513726,180.11646063470846,55.62486697673924,-23.885734403439642,101.09044059728268
726,12.100242000000001,-22.95726896532676,20.969247892614447,178.43148809436,62.02835919214482,-57.152237771348965,88.22535459888533
727,12.116909000000001,-4.854530002403629,-44.610237689997675,171.73845969375725,70.87961171092081,-116.3576671009401,74.25544575167966
728,12.133576000000001,9.703419753420388,-93.02865391660644,160.99859468685344,81.29932394852486,-159.36499016176322,62.00106642847926
729,12.150243000000001,14.539032128148618,-94.18582459552724,147.50730896625902,89.57279183356057,-156.45497686264673,53.70875577410616
730,12.166910000000001,10.954525928827415,-50.99953282165899,132.64499987651607,92.32917416057165,-111.52879394568788,49.706672957280645
731,12.183577000000001,8.255762019724898,13.295322485810393,116.65992588920304,88.98393323857925,-48.69373111082324,48.40327602151529
732,12.200244000000001,15.362688147411225,78.43953599173535,97.83658694592386,81.55885860863923,11.943517512894244,47.30422601452169
733,12.216911000000001,32.40423689939547,136.47289410485934,74.37840609474918,72.49819414450158,63.68487744978121,43.827319750229854
734,12.233578000000001,52.25672785547427,187.59971789861294,47.17838852884188,62.517087757430545,108.27492580849706,35.6735764010552
735,12.250245000000001,68.979034061209,234.02552445376054,19.648901346484887,50.52947797970836,148.9343824444941,21.62009422399254
736,12.266912000000001,82.00026544639674,276.6779149299844,-4.712251981942583,35.61841768201775,187.19312255586732,2.5567659030011574
737,12.283579000000001,93.03792188132768,313.6261829886227,-23.465222665674617,18.825953755428184,221.87816093579386,-18.607951519447933
738,12.300246000000001,102.17832045417683,339.439320794535,-34.40559748198976,3.2406611613030725,248.20861106165262,-38.29775334718502
739,12.316913000000001,107.50976058873411,346.1671762639147,-34.75983073105166,-7.22256369681883,257.7750555060978,-53.571558428916745
740,12.333580000000001,106.96616900113034,326.16871315092993,-22.099331405895647,-9.643597772547695,241.46290530401507,-62.94456752787208
741,12.350247000000001,99.85938200958083,278.06789751055385,3.114591835811244,-3.9689125481804832,197.19145883970344,-66.82345420831163
742,12.366914000000001,86.57330704933653,215.84353904619846,36.18767384363591,6.207799453196469,140.18960778404104,-66.43605428431408
743,12.383581000000001,66.70565211328878,169.61894677968968,70.72140206257694,15.232433105519064,102.44188444175973,-61.29778389535433
744,12.400248000000001,38.81307282438958,163.51869464295459,102.52948156557159,19.081901315752106,108.33194676753553,-48.80238417765135
745,12.416915000000001,3.5372100859980735,185.77784072322734,130.371116221623,18.30963223620089,144.67979800497093,-27.904323883319798
746,12.433582000000001,-33.90919464753475,191.76863958747313,153.9778652745827,17.19173142223654,165.993937515968,-2.2655921321400405
747,12.450249000000001,-66.28029896222489,144.97736358942961,172.8866066078897,19.94518091145738,137.1896812706616,22.09349024269077
748,12.466916000000001,-89.32732075836705,48.07668154549815,186.58340296225444,27.88662126121252,63.66538928290943,41.82794859774633
749,12.483583000000001,-103.29794960689634,-68.49206157723188,194.45018129851934,39.371537152112055,-23.072401449507772,57.5922545036656
750,12.500250000000001,-109.87495489015123,-176.79433165530986,195.40450625725887,51.291825728798685,-97.54900299562188,71.00285497661079
751,12.516917000000001,-109.19577787126421,-265.4288968614707,188.0040797460503,60.78203148277201,-153.04979193244182,81.98790586035433
752,12.533584000000001,-100.67718741923554,-334.2578267413911,171.19939412134767,66.53355099817917,-193.51316426052028,89.21801823501332
753,12.550251000000001,-86.16775489141648,-385.71273028873065,145.423994591018,68.9356770155743,-223.63688616368952,91.72201886274604
754,12.566918000000001,-70.92967397771956,-421.293002845387,113.4000425788264,68.79334181364943,-246.0434097341859,89.33248722790012
755,12.583585000000001,-60.33386694953811,-441.27311313750823,79.6024505158255,65.78457434993258,-261.53754936407495,82.17611379445559
756,12.600252000000001,-55.315523359194415,-444.15140759608096,47.92657559016262,58.303059344861026,-268.5269060583232,70.37828590940289
757,12.616919000000001,-51.73222379053162,-427.20409550714885,19.23073588577055,45.31717588957687,-263.4624274391856,54.180780649686625
758,12.633586000000001,-44.79358634824173,-391.1453256732842,-8.441788383593774,28.616312666222008,-245.00619665114624,34.34645021894727
759,12.650253000000001,-33.58002115439612,-344.5877058856652,-36.58122033315081,12.167545980460092,-218.35964711155725,12.804941759929306
760,12.666920000000001,-20.471559391761033,-299.81983848400023,-63.40053774748172,-1.7715278275497743,-192.82471168912477,-7.448044595491302
761,12.683587000000001,-7.625281640650787,-262.41658557719006,-85.11065764640225,-14.916639352517837,-173.563822683561,-23.974186669443014
762,12.700254000000001,3.580771638816879,-228.01425775470085,-100.06985752472657,-30.119756618003898,-157.52444631502644,-36.32976581251661
763,12.716921000000001,10.640245637316927,-190.5083204741742,-110.61466178543485,-47.09128491470867,-138.5810444027157,-45.288283853940676
764,12.733588000000001,11.200696451593759,-150.1771664936869,-119.87379703103612,-62.115755148023936,-114.65897787993451,-51.04928398978478
765,12.750255000000001,7.227712728713521,-112.26089950632132,-127.44854827173214,-71.56569003563216,-88.66079841455493,-52.90722709098361
766,12.766922000000001,4.949128103247523,-80.5953403127525,-129.71230394001466,-74.81719629582523,-64.64716578133039,-50.38029553209718
767,12.783589000000001,8.792735178421088,-55.06550645015473,-124.41585534956809,-73.99466781943177,-44.970253097293536,-44.17640451733225
768,12.800256000000001,17.080462839123285,-33.68143297114581,-113.67199664027197,-71.963961574158,-29.91006430992538,-36.26208053780806
769,12.816923000000001,25.16115755974393,-14.732904523992588,-102.06865823700205,-70.94748566910714,-18.40006941526279,-29.19472196375598
770,12.833590000000001,31.189145481672377,2.5935391215977353,-92.87911700975002,-72.10307185254935,-9.340748647860908,-24.96299198500757
771,12.850257000000001,36.869867525254634,17.785285132733712,-86.42429397717501,-75.27902985298988,-2.831164046106156,-23.89845638806751
772,12.866924000000001,43.400900479677375,28.857830448427073,-81.06539695160544,-78.8152181956803,0.30932810119763676,-24.556096103276396
773,12.883591000000001,49.033040869760015,33.53091624785044,-74.89289128781988,-79.89096131280174,0.3297202501716787,-24.84422267741538
774,12.900258000000001,50.915265441449364,30.958151337441777,-66.84821934196945,-75.94724379144495,-1.0014478724121898,-23.5601374022445
775,12.916925,47.77511981064341,22.39636416023711,-57.396139703510705,-66.7585125099402,-2.1551837782017667,-21.08788187555149
776,12.933592,40.52955182259206,10.601864016296728,-48.66104367105747,-55.18529727625105,-3.4968152737474694,-18.688187943561573
777,12.950259,31.39460379466143,-1.1715501355019124,-43.223262779198066,-45.22550949023865,-6.633771805955406,-17.040977203492623
778,12.966926,22.648226446452973,-9.98073022373894,-42.102591189181794,-38.902486912160924,-12.256955911726012,-15.651411625543878
779,12.983593,15.489343431421933,-13.958826896798787,-44.236777356930176,-34.906413606394494,-19.055904233350077,-13.974347769686723
780,13.00026,9.501638294626026,-13.174594669493224,-48.19561832226249,-30.12444260169689,-24.757422112163752,-12.744742425806695
781,13.016927,3.0241090914866895,-9.686759255913314,-53.549542569156856,-22.48782726885186,-27.812631311143814,-13.422086434251625
782,13.033594,-5.789653747345193,-6.017585219244829,-59.79835437540942,-12.461194015816613,-27.910030435647208,-16.342021588326393
783,13.050261,-17.37558912293317,-3.3054911941598624,-64.81467923600997,-2.1626682320580453,-25.15359515282615,-20.07524523357059
784,13.066928,-29.39318188185608,-0.9464649519923678,-65.58030327303912,6.332969991272306,-19.2306139859746,-22.64829517133106
785,13.083595,-37.6237065960338,2.413940196528977,-60.41226904769387,11.888323843919126,-9.812312839444251,-22.950574256500097
786,13.100262,-39.661339547039674,7.671683990404526,-50.10821046916401,14.39232754023837,2.2680941764273053,-21.163999904317574
787,13.116929,-37.8076949353575,14.340333388737925,-37.19535390431171,14.359016083917169,14.873773894578214,-18.406149946805645
788,13.133596,-37.11684967212077,20.438757134942627,-24.029545472213503,12.183428680264733,25.901081976646445,-15.827155132091915
789,13.150263,-40.30745061383994,23.679037349363107,-11.057888164053864,7.891106101494488,34.41667721854421,-13.553071054171099
790,13.16693,-45.49785201412311,22.922473989769493,3.1646134199599616,1.8819524210229384,40.67621722865707,-10.655384549003866
791,13.183597,-48.89606057110827,18.470123817479337,19.91690666476487,-4.455930530356594,45.75996342494462,-6.64272574243647
792,13.200264,-48.61422284927063,11.557328877823826,38.24166537983933,-9.396269080185437,51.01501769862307,-2.7079533512384533
793,13.216931,-45.37786537423797,3.891540780720389,55.30835623665692,-12.12291728451086,56.966043078922645,-0.6877560462635242
794,13.233598,-40.06199289160542,-3.0629001110993404,69.11899729977361,-13.133144143119939,62.56530747820321,-0.8166053025066345
795,13.250265,-31.833698221716723,-8.805819078263674,80.32322873802309,-13.38056338486022,65.83869080232787,-1.442264421610628
796,13.266932,-19.86908449057187,-13.356743166787558,90.43863372215077,-13.083389473359244,65.30732432098995,-1.3120863526412718
797,13.283599,-6.3297726941511465,-16.19792749133697,98.82822285817875,-11.443004363235037,60.86889169617106,-1.4010161454542178
798,13.300266,4.19950234166887,-16.55084849036357,103.17812763809835,-7.505783062882335,53.72164906883158,-3.8393486380252573
799,13.316933,8.745681237229462,-14.760680436853878,102.86263428731151,-1.206222058225624,45.63493278225028,-9.350159675981878
800,13.3336,8.18140555930634,-12.614464505729178,99.89172889223643,6.387014396990702,38.06552853739389,-16.323524658348123
801,13.350267,5.132909789797362,-12.07540720991432,96.25370136983705,13.76224275201039,31.61314798797425,-22.252916640469515
802,13.366934,1.1827315500275482,-13.9356559910384,92.05453603972074,20.01631717489519,25.985336832019428,-25.53194252682507
803,13.383601,-3.1636226327549113,-17.478499100714156,86.76925379223633,25.28866794037529,20.432533724445882,-26.03154337407207
804,13.400268,-7.244559020138419,-21.10282722879222,80.82237212091539,29.92349187751288,14.581338729646486,-24.67632428467438
805,13.416935,-10.273790003049772,-23.33729875370427,74.8347759992873,33.16944780730765,9.157883674725726,-22.657920497258516
806,13.433602,-11.888973379603978,-23.47211723189882,67.82934958275953,33.343859469254404,5.769538679642882,-20.690921121116148
807,13.450269,-11.78603610003164,-21.479001877328894,57.2129049137515,30.068621354342703,5.595724098555497,-18.743090552715493
808,13.466936,-9.307979817896621,-17.656712385479764,40.87937000989713,26.11996629943007,8.077217574914096,-16.28997024000978
809,13.483603,-4.024380714064275,-12.235117533227573,19.306344921319347,25.526388831895563,11.141789442070003,-12.77210356459937
810,13.50027,3.4529279609598147,-4.972034271752175,-3.996918180884532,28.758777640009182,13.202073255627433,-8.128354517440645
811,13.516937,11.501309732043373,4.40970332301946,-23.78880433512908,30.995658601263592,15.024025354592295,-3.1530037157785418
812,13.533604,18.448508491944516,15.015729353016447,-35.60541237107284,26.910292631070952,19.34896397727336,0.9360495703168481
813,13.550271,23.537374344029253,25.023992992642235,-37.95232246385176,16.61633988769745,28.560798861606692,3.5819893018578997
814,13.566938,26.636354577379468,33.56762563521835,-32.16749189066628,5.407873362439316,42.600440352078465,5.386465520560194
815,13.583605,27.25144068897751,40.93276838766934,-20.57823425210824,-1.6239034905145973,58.66538075827977,7.328675655725931
816,13.600272,25.137542639778633,46.47516422314794,-5.737161457684388,-3.2010379448987507,72.56587966427159,9.567140084047054
817,13.616939,21.90584242668274,47.96882132862406,9.259092750746317,-1.0212936314297534,80.65936765180993,11.087538044554304
818,13.633606,20.003773245364503,43.491998993089204,21.70726474988085,2.6162640264487806,81.2311651944978,10.455025835327506
819,13.650273,19.75173601923454,32.844069305556175,30.577347352850385,6.133760364475659,74.75636485858988,6.9260692704902125
820,13.66694,19.710676575099342,17.499025536551933,35.41995577886127,8.95831977074718,63.20947808380363,1.028399083480771
821,13.683607,20.838488700761026,0.977565966489153,34.480146014849105,11.367301107232839,49.01843593828516,-5.780664864008157
822,13.700274,27.705361345051955,-11.163620881277069,25.602753210774274,14.026260417735422,34.25788704090918,-12.082662332079684
823,13.716941,42.09934464471145,-15.305143120545724,8.732812305830343,17.439094903636896,20.385834430391522,-17.33124239303759
824,13.733608,54.12509982306391,-16.45266316139054,-14.152377158016128,21.69286249648868,8.411350133156132,-21.768915040929087
825,13.750275,43.28152799817081,-28.36357917034125,-41.57602134304801,26.433360416038887,-0.96843601722015,-25.327043973937727
826,13.766942,-3.1005026611053594,-60.28101085452142,-73.15484544610173,30.733635111954307,-7.621373816894583,-26.718675644122754
827,13.783609,-67.42099685174429,-100.28140183306513,-106.23415165671528,33.15161502387676,-12.307819526676395,-24.285854554072866
828,13.800276,-104.73703634706456,-117.09901622158594,-132.2841535294753,32.613887405550095,-16.201917827486838,-18.08994113180748
829,13.816943,-80.3375003149692,-86.63617715140907,-139.16973974654965,29.552891188429776,-19.530504404953106,-10.62083753405669
830,13.83361,-6.296157927858909,-17.773043772082683,-120.57801210946242,25.746407172427663,-21.245112085134295,-4.915482193596139
831,13.850277,67.06140377809778,53.12453050100715,-83.84473730255891,22.71663533096225,-21.083746069578048,-2.1239305936236637
832,13.866944,96.75853020602648,93.7231554390864,-45.18656179043943,20.44540177812501,-21.326110062092333,-0.9737900674592412
833,13.883611000000002,77.96745818891692,97.41972154678581,-15.822200938994197,17.586555476489117,-25.010457401985953,0.8822435018298833
834,13.900278000000002,33.97287916933003,76.83402341444263,4.562101742990643,12.592859810900979,-32.79330477741819,5.200140504645811
835,13.916945000000002,-10.23556573333001,46.43543292634881,20.620798916048848,4.893073308778222,-42.81578839308257,12.308211827281482
836,13.933612000000002,-41.406719800408894,14.959531934977134,32.57023876199604,-4.520785609913669,-53.01386915031443,21.426150499030665
837,13.950279000000002,-56.95417218525184,-12.923958631346459,36.81931598345445,-13.955633826313713,-62.19722598724277,31.611748450089777
838,13.966946000000002,-59.979361707625586,-34.59981354196954,31.5340402339113,-22.85631752225366,-69.35200948358332,42.15175100906323
839,13.983613000000002,-54.84453520483728,-48.87960186561193,18.277425368837115,-32.0642994507007,-73.38035475057445,51.98438006104942
840,14.000280000000002,-44.27757136604319,-55.30138984499087,-0.16496935734351625,-41.66592050403668,-73.95443241776917,59.271948521731424
841,14.016947000000002,-29.377639906851407,-54.36644205284232,-20.97189054142391,-49.61509335868798,-72.00625292025254,62.098674499846354
842,14.033614000000002,-11.396046011386003,-48.47899107126494,-40.94230719746106,-53.45849671572577,-68.74123640907908,59.535358247394385
843,14.050281000000002,7.292769333207301,-40.97131591459096,-56.904289188013685,-52.86419284928199,-64.02537530460161,51.67143698356877
844,14.066948000000002,23.46562498274382,-33.243779914288886,-66.96837228374733,-50.04141193768332,-55.92639665105487,38.725935502115306
845,14.083615000000002,34.14809176653772,-23.21701385517791,-71.2667787941782,-48.3768464486831,-41.82771578856643,20.78614163146052
846,14.100282000000002,38.85669740593852,-6.637625133901804,-71.61020151107208,-50.66088526305191,-19.954517766789245,-1.128559440720056
847,14.116949000000002,41.4867926833429,20.050600514468496,-69.78649865629384,-57.32275209295363,9.472451798613235,-23.950426086607393
848,14.133616000000002,49.03456857328663,57.35881847211168,-65.29794309502121,-65.57899070516609,43.47404991414524,-42.96054827110007
849,14.150283000000002,66.96223776840482,102.2580284246425,-55.31703106029637,-70.88681857908409,76.55234036184677,-53.648901215084315
850,14.166950000000002,93.05027320495988,147.9082302861143,-37.992996887849145,-70.13129156702342,102.52235986652911,-53.70018351089288
851,14.183617000000002,113.09651226413159,181.70457291198886,-15.996132144727785,-63.6614663440065,116.75275432123806,-43.909767554603505
852,14.200284000000002,105.4024504761587,186.5087447803449,3.470622682731321,-54.1222575303282,117.08275795030198,-27.64007259595594
853,14.216951000000002,57.214611553369686,151.40511980476066,12.732080647665228,-43.555077446948644,103.53401841486604,-9.234498746455158
854,14.233618000000002,-19.276641819536383,84.73032343475978,8.988551032366093,-32.037030006882695,78.02392431513489,7.659692219194255
855,14.250285000000002,-90.67353777115642,12.581846466619904,-3.4433130045701446,-18.819279267216018,44.195954000022546,21.039205819266947
856,14.266952000000002,-126.80678533783345,-39.8688584176221,-16.391602196394164,-3.9635423443237814,6.5708337754281825,30.502235347237352
857,14.283619000000002,-123.46009182280399,-66.48905526459532,-23.915802810156787,11.320382373471524,-30.939822279633887,36.45974137172897
858,14.300286000000002,-101.78575395383609,-80.48402250604688,-25.942513147972672,25.305027144972556,-65.93071085985744,39.39287891471261
859,14.316953000000002,-85.40471333050235,-97.56241042764941,-26.348127388491484,36.363552796779516,-97.02363265346114,39.905756544664925
860,14.333620000000002,-77.31000149743979,-118.10653690208171,-27.04192959939081,43.60903336302664,-122.85264259879862,39.05801635410847
861,14.350287000000002,-60.3628666214238,-126.51354142259125,-24.46757467851887,47.656275429058006,-141.78522634487473,37.78956466396391
862,14.366954000000002,-22.136699528613267,-110.29158088434355,-14.085901127868354,50.444878448029485,-152.29022468344237,35.712046270466786
863,14.383621000000002,24.831215541809687,-77.55990862429846,1.9200582804164767,53.41259739516286,-153.1175497216387,30.874897663968575
864,14.400288000000002,53.982763064298254,-49.80598721475748,14.933705127597872,55.60164030826216,-143.43734332313522,21.012721560581486
865,14.416955000000002,53.340650988395424,-38.147909689215986,18.622789667446835,54.09541927671381,-123.5240973443162,5.078690737865081
866,14.433622000000002,35.40413562156907,-33.60651707013976,14.148806894540686,46.71058785074355,-95.33111963372185,-16.03415473710257
867,14.450289000000001,20.293254648628363,-20.88634896151764,6.320617862460174,34.09010996279945,-61.782465344919544,-39.61948847884341
868,14.466956000000001,17.229482868625674,5.06565794174659,-1.8347380008520238,18.9209300780047,-25.24516033820477,-61.693836313710264
869,14.483623000000001,22.4787697379907,37.27183473156379,-9.480876540394217,3.3786702209755712,12.973540703800234,-77.7671165985103
870,14.500290000000001,28.068787835939347,65.33573413989666,-15.670301417283465,-12.008026874158755,51.523527040844044,-84.12098231163705
871,14.516957000000001,29.34008021200493,82.57238997274646,-18.69116440916904,-26.908077736888604,87.93965384992404,-79.42715414884682
872,14.533624000000001,26.72195652761384,87.53267279805654,-17.278286534084465,-39.519000743419674,118.97250957112513,-65.42928527565996
873,14.550291000000001,23.03330323355038,82.20057681902824,-11.663551193197538,-47.03565900418797,141.5348593359705,-45.896471120565096
874,14.566958000000001,20.05926298469207,69.46165931999056,-3.4437852983475388,-47.48127231615663,153.0786320076221,-25.044701601490203
875,14.583625000000001,17.844575864203932,51.47533095431628,5.512302475232915,-40.77747264020597,151.76028063171518,-6.811164163684712
876,14.600292000000001,16.160719903336386,29.501018817013055,14.27673143784568,-28.539515267891595,137.13394765126773,5.536445711598064
877,14.616959000000001,14.822459708166349,4.267580530306865,23.116875121391583,-13.395625247208368,110.97454590665977,10.30324335509718
878,14.633626000000001,12.541267662751997,-23.64492432573889,32.361061023931406,1.931809795937078,77.35809121446749,7.995811611312899
879,14.650293000000001,7.506286084606989,-52.42020721368411,41.183058800116115,15.893009764438858,41.72505914943001,0.8720443758360223
880,14.666960000000001,0.058038045909010516,-77.34423769263311,48.26909715689868,28.680952829766778,9.34457499684277,-7.934305702618286
881,14.683627000000001,-6.609050112819617,-92.3944986115959,53.803672899746886,40.996842260787936,-16.077195702568186,-15.328664884046205
882,14.700294000000001,-9.452172395624618,-95.09701288169776,59.77561655208248,52.26705822816044,-32.99805192897347,-19.66569525288758
883,14.716961000000001,-8.461902816127653,-88.65498052391932,67.6785587016428,60.71307329424509,-41.70716027605568,-21.927834523261573
884,14.733628000000001,-5.787630481005959,-78.02951347132296,76.34916232145845,65.19880658385726,-43.53444744570301,-25.040874382173048
885,14.750295000000001,-2.8529319610507984,-65.11635133108692,82.36973712756648,66.20840028314514,-40.236382335991905,-31.53263342336102
886,14.766962000000001,0.7361847248911156,-48.59700277845417,82.30603944857347,64.77762557947187,-33.59789244688443,-41.748376786662156
887,14.783629000000001,6.3869708877057025,-26.579132494767993,74.67694731599977,61.38980025579812,-24.69943857814637,-54.01846235906031
888,14.800296000000001,16.123651134089226,1.7528186411672095,60.6897980919792,56.40926373635415,-13.149396721782217,-65.8239451536168
889,14.816963000000001,32.36395633814604,34.87829447505371,43.9522963888427,50.699308557135886,2.0474834776310016,-74.44652749366284
890,14.833630000000001,56.24219169342257,68.12859992776943,29.32404470091032,45.09966106920155,19.819921926097614,-77.17160400539822
891,14.850297000000001,85.54471128451651,96.15411562965937,20.771033643196365,39.86642922725639,35.89685635865964,-71.80193670846262
892,14.866964000000001,113.48949496409512,115.82080380627269,18.8057688580991,35.08541524759308,45.75533004134066,-57.18485348133102
893,14.883631000000001,127.18368328115301,122.64870248066936,19.277903150184937,31.081913713937148,48.50795307330222,-33.41889070980107
894,14.900298000000001,108.55427577047743,105.45471022469361,15.12393668188471,28.10262247695198,46.705810122727804,-2.427976033940968
895,14.916965000000001,44.60016973061151,52.780080794418424,0.7989476957792103,25.9413474695719,42.6471137604431,31.33184289150597
896,14.933632000000001,-56.61195497428828,-30.917549400783482,-23.246525858813257,23.855503379709717,36.14125828784139,61.80500345640127
897,14.950299000000001,-160.38960626245947,-118.97062326960797,-49.499697733878655,20.75252238549917,25.462143510402832,84.04656705721614
898,14.966966000000001,-219.6745531576695,-175.4831337868762,-66.72214523212543,16.102844566432722,9.095407392128571,96.0711298440465
899,14.983633000000001,-201.84740287894186,-176.4974259120272,-65.23684102014957,10.926809662527969,-12.915097044881275,98.09850919509282
900,15.000300000000001,-112.5194377497011,-125.2452086769377,-41.68137556453766,7.009029386007818,-37.615092198451116,90.90961861027554
901,15.016967000000001,2.017544006271791,-52.4474122108925,-2.1206651076944727,4.867921620943461,-59.378826599698584,75.69389393732723
902,15.033634000000001,84.05513242147049,2.8734127912828704,39.2028244442799,3.3932953166408963,-73.09805011409333,54.91091536510185
903,15.050301000000001,105.57706475880244,20.538645856487214,67.73169693944843,1.5565151238148802,-77.330993634349,32.192447162185275
904,15.066968000000001,81.73731812221264,9.319652395698645,77.79926438637109,-0.43468332279567495,-74.04861538455305,11.161042526367686
905,15.083635000000001,46.53202160019599,-8.002504465981174,74.06860916463299,-1.637110401429996,-66.2234863119358,-5.58014887550418
906,15.100302000000001,22.345043302312554,-15.095301305928686,64.7146794615536,-1.2160419035658787,-56.05549070691585,-16.9583604448681
907,15.116969000000001,12.190150576153309,-8.877129412875586,54.77024111784287,1.0871131052788927,-44.57908637984496,-23.610637799298313
908,15.133636000000001,10.338326894789915,5.985484780110358,45.17615532566114,4.562123443630695,-32.46048470351151,-27.333566565690123
909,15.150303000000001,12.424935708085556,23.72737786251125,35.36500141951083,7.603458776098537,-21.127881878797645,-29.749178616980434
910,15.166970000000001,17.053782773765626,39.764472862193635,25.12139648078996,8.747161789958318,-12.463213152891669,-30.993823542156697
911,15.183637000000001,22.872320835155943,50.406686056778106,14.519547633480148,7.779800568497079,-7.096807542208369,-29.386056538411296
912,15.200304000000001,26.815013305136617,53.40107400984154,3.347230202455762,5.629723977889177,-3.8258296732594568,-22.577979196999905
913,15.216971000000001,25.66273245577704,49.454449633338555,-8.8490131046802,3.244661644350048,-1.1199636604632481,-9.452024856543327
