Frame,Time,RightHand_Accel_X,RightHand_Accel_Y,RightHand_Accel_Z,LeftHand_Accel_X,LeftHand_Accel_Y,LeftHand_Accel_Z
0,0.0,63.88034742680912,60.73990575877219,-18.31094051787136,-223.3680545421447,53.6503347584097,-98.1740995734558
6,0.016668,-1.3002385321842205,20.644583132919777,19.55815817800517,3.6685604072721816,6.152437300638908,4.951469694952046
12,0.033336,-14.40946110319748,0.8638226965505815,-8.283758506291678,-13.337657224208977,-15.222070153849458,-5.046664208060363
18,0.050004,-47.40672119408971,16.89316218700582,47.47320728350549,-0.19011172598006,-28.890631884721643,23.32657324181957
24,0.066672,9.2161138464775,-12.678969975550482,-12.1783247512942,-35.48881416511054,16.0020583199951,-35.495263308624324
30,0.08334,-6.408521386565039,-4.430059039549696,0.7771948848446932,-9.04394977054137,-11.786973162764212,13.885858284526668
36,0.100008,-41.68510272257984,40.188560227804594,26.274919563856024,-56.1273483434995,-17.476344014149507,25.06771965658881
42,0.116676,41.261311240833614,-40.00127632214401,-12.21178210292826,13.33312420365415,15.031051482012302,-24.367574352106743
48,0.133344,-47.045265300407344,-30.99628289885113,38.85838624507918,8.40956090679472,19.30761690507205,-5.276789409232052
54,0.150012,49.69184960272064,-17.504256142125517,-17.937351490335498,-48.51263502956353,-19.78315536644015,-34.58691425784184
60,0.16668,-25.175333002446425,-50.62714568060839,29.66509170004253,48.14778402148704,-31.635058679261743,27.76231862978393
66,0.183348,-14.427038186995986,88.57735921673844,-62.417325198429154,-23.92739202036105,-3.317982656847005,8.87943189521443
72,0.200016,1.7418322445805732,-79.2863334268172,5.577583448763576,62.13122567695344,-79.49457981779264,-4.279882342663472
78,0.216684,6.221396192036767,36.67059908473141,-15.156101647298756,-19.089644590608835,77.82727910227435,-9.06535731437228
84,0.233352,-7.477253258544063,2.4542697961481714,-6.044097295891733,-3.673222322085433,12.603526098687002,5.909320320668977
90,0.25002,-4.393433919596142,25.26265108100189,-16.08794662614951,-35.09351215341307,-2.1040475968433148,22.09931092666664
96,0.266688,29.395893365144957,-55.67001094573814,-44.01585776368959,19.036462199743703,-29.224994903677644,7.218583448960818
102,0.283356,-12.214668353545864,10.09759199303025,4.4670856341448175,-22.69455027435721,22.446795963420605,45.019936821283
108,0.300024,-9.2483457145313,12.08819850371392,5.159136201914651,21.0323041644378,-9.68655522625977,-10.71599331345588
114,0.316692,-41.94806973658983,27.45934277527997,37.43822262076717,-26.12784568828908,43.24406748891308,12.536455086678563
120,0.33336,43.05455799727166,-53.34820103923391,-32.523843658896965,9.857906083058568,-40.1486204765937,3.4887895720794244
126,0.350028,9.772519629902934,6.941981055437323,-15.624579509411998,-16.560554028930508,-18.46597629486693,-7.170492865562254
132,0.366696,36.01873600683319,3.61314704916988,-26.38350719806114,38.030354507344896,35.02316116653181,-27.70169894898489
138,0.383364,32.56043183937673,32.96650080275623,26.276363868378738,-2.604226183690728,17.529330188080834,-14.019585195904003
144,0.400032,-9.614971046516068,-6.621421310561031,-16.25395635236021,-3.063316378861476,7.979034469017311,-3.072868266019796
150,0.4167,17.247368378816027,-17.75097584819245,-7.580272090548613,-28.29769260336213,-24.57390597579855,-24.88659751308209
156,0.433368,-17.67205142647864,18.62674360846727,-11.797038431956386,-10.273639987987274,-3.372707777148364,12.813952208134111
162,0.450036,18.46369477913807,-37.06525870065801,-26.204134923968788,32.56020581135095,-41.72971023679437,-14.407273911167746
168,0.466704,29.05208138409149,53.14991558936613,-9.118343107610755,-25.05232398073012,17.524240015951023,21.97254338192411
174,0.483372,25.914452173441955,-14.395448497542391,-2.134097799663598,1.251355413910094,7.920524471124454,-20.261868208452693
180,0.50004,-9.304148364302884,20.060387741315783,3.873137702072421,21.24005696569872,-0.4896685531167994,-57.489520343182456
186,0.5167080000000001,-2.6709464489483947,3.244991086578732,-9.746169902245354,-21.315895089140813,5.820648766756698,23.73341989855481
192,0.5333760000000001,16.148761072308154,-11.934041532464189,-2.371878221444974,44.85851722457696,35.73842033973796,-65.35160448136676
198,0.550044,47.194796289407584,15.933975169679314,-20.21572227840517,-36.08914023084608,41.90944307081939,22.261207994505767
204,0.566712,21.836730835557848,-51.28228245353994,-1.769439415465691,25.59270765036306,-50.17418749395594,24.52426808254323
210,0.58338,5.6813563071662525,17.688370604169997,-5.469367367543232,0.5702273425830668,46.260854091715856,-60.67226835399305
216,0.600048,-18.63488715267939,4.7385261400229455,26.20998874248504,-11.43244749423965,18.419760749771086,-22.20857091305598
222,0.616716,14.545029729715026,-16.54959227456962,-21.38494986530228,0.5820199788990843,-16.03727413511787,48.71676225739995
228,0.6333840000000001,3.095213543185146,1.2295043140964328,-6.746622068462624,-1.4557739667482874,-11.505003899179998,-22.162801596315298
234,0.6500520000000001,47.91418121839585,18.54249442519282,-18.140913640589996,9.935240901891977,-1.9801820901871148,-19.33186880812098
240,0.66672,-20.31146755955905,11.35814454474825,16.245597472458435,5.0590815131590094,27.723999960691938,-19.73033525160387
246,0.683388,-9.66813201196528,-11.72317378185582,-14.038834107211784,15.122460550241817,-14.16468446797537,22.01127698373214
252,0.700056,-24.5888724262966,-19.780988543417955,-11.984806583988364,-2.9999449083019023,-23.380071778056788,20.048615390141045
258,0.716724,5.3536601624808,9.91993351556782,-9.19289477672199,9.734133190384018,29.519251783578337,-24.88824209313164
264,0.733392,-6.241444954503839,31.56583210742123,10.774614094368616,-7.244450664003945,23.6968772680484,-28.26020646336612
270,0.7500600000000001,-10.618613415153511,-18.73109469036848,8.962570370220341,14.516275755171788,-16.05621423053884,32.131989122638366
276,0.7667280000000001,0.6268593730722403,-3.8829323218221736,3.710879162564799,-17.518047213558532,-33.601482785724166,31.744406037319287
282,0.783396,-8.627111382184617,7.961401695661467,8.6036933917825,45.731334915760456,21.33204516484605,-33.75269658522288
288,0.800064,-16.253094595605607,12.293045401473366,6.0560511149912095,0.5090036205400246,10.618797056570576,-2.520701839527277
294,0.816732,-3.950303063741526,-24.25225709687825,-0.2322087764724378,-11.212436691998256,-15.236833450592414,12.491998337004052
300,0.8334,-3.310099478042914,-5.2652367086942,11.138449531806764,-3.463567333167858,-20.555310706702475,13.76937894173724
306,0.850068,-7.054724479326768,6.757668763172,7.030036628781538,18.804343180366956,3.713312889922349,-6.569657094740058
312,0.8667360000000001,-17.886591507024225,10.270475680901772,4.451371006123044,-25.69711353298074,23.770754953239425,19.703132088200302
318,0.8834040000000001,-9.76212741245139,8.576735677031206,13.68416577201753,20.914315868486614,5.871671601683726,12.59460850164158
324,0.900072,17.62800987257507,-8.554555257858924,-2.776104101706641,22.135011756128065,-27.240905125770134,10.15777379855831
330,0.91674,-38.24976633437012,28.792142642206915,30.136439870854968,-1.1481166739869444,-2.0453023974784323,-3.4200439269484075
336,0.933408,-14.511094526430067,-10.917781188653318,21.23009019455653,-3.79643087175085,29.848040404288728,0.7051396999616486
342,0.950076,39.49054829818326,-10.662741056827745,-11.123803843628544,33.95710992041345,-3.12650190823931,-10.268660672063485
348,0.966744,45.16487884387904,-27.258659941146327,-41.54269573727114,5.877654810441008,-22.64528099153612,26.794417261707395
354,0.983412,24.798044533501965,22.31030122825515,43.53598960875378,-17.972552597706347,-10.604097080352595,-12.574226599043154
360,1.00008,-16.812911100212368,22.165121379466544,26.44469447521028,-22.602615983326032,53.84965388335628,-54.98246046792895
366,1.016748,9.480929282426704,-13.021353108634967,-31.286119485949044,30.384696867607552,-13.2378870801431,29.755686838771386
372,1.033416,35.96221133181166,1.3567449382582444,17.16763575565126,-31.20699912051402,-7.696349368151132,-11.53038127229033
378,1.050084,-33.4592399013989,-8.991212978435582,-2.006752345253349,-20.092647341859102,-4.839881827883069,-1.25200186146857
384,1.066752,0.0947981589355846,-2.557331367299737,9.49506372838426,-3.423993467622727,17.745576128415372,-8.799535343708719
390,1.08342,21.25951979003462,35.3780326012771,-39.35913044841684,-5.07972531293577,-0.3469877908649579,5.671711189611447
396,1.100088,17.847030010525827,2.1868075389578707,-1.643931475813718,6.515269456561759,-9.807813110787327,6.031480809444597
402,1.116756,8.218627691358895,-8.587399825338608,-16.991432937596713,-2.131750504532544,-10.710686826597389,16.857741831395852
408,1.133424,13.68594563528274,21.260794877790666,8.326380119773637,-10.887045918712474,16.033891944383868,-16.525898470420156
414,1.150092,34.54818293440607,32.52207670732782,4.261117157639719,3.494094833949549,23.74705709460228,-6.972474139443099
420,1.16676,-55.85383866578246,-47.68154201565477,-26.120217770007613,5.085368394026512,-11.22145917470563,-2.973391665884151
426,1.183428,10.325668212668122,20.131490146433848,-7.550395312652337,-14.089381911701514,27.88799575599113,11.586114025027412
432,1.200096,-9.19671836315781,-46.79825019159553,-4.927068610852471,6.472879775219328,-21.457803069327262,-32.24314343055312
438,1.216764,-15.478819689664316,14.331610613208404,11.368481232017048,57.003149504890686,2.1735274997848144,63.16573601835727
444,1.233432,3.177148278335693,-19.220013464876867,-14.196268346624782,-75.64893103544235,-19.316621072493867,-45.98915820175294
450,1.2501,5.161997063727092,4.642875558328646,14.230420755096969,3.893132071639455,-9.885238827117949,9.868265482416948
456,1.266768,1.1996967381984307,-2.0739046518157505,-24.604724236719505,5.784946310597851,-8.193156660764812,-3.6982017243324674
462,1.283436,-4.451480381139357,5.8038444346041205,2.761346271182309,-24.85362155106335,-3.309770030709929,-15.708963374065206
468,1.300104,8.935597314695539,-16.630225321973526,0.9966793600014708,-3.1029753964061992,-4.765185269444037,-9.076642081706677
474,1.316772,23.051250001628365,-16.21556175930035,20.707019394338857,-3.561175893100655,-0.9620118070807688,10.274258780196138
480,1.33344,26.56366020614404,38.55554587126947,1.9841883211268163,-0.9365981633266918,0.2223152771905212,-0.713851792829975
486,1.350108,-48.25487732947084,-10.7845835315876,-22.885861014068524,-13.918256618456311,7.082129275777915,-4.058218842420076
492,1.366776,2.374669273707389,-22.64577650982914,-1.851545831661637,-7.047318405636399,2.050395556320703,-0.2645969888651889
498,1.383444,7.268557980178946,0.9096313540172848,-1.945659812301177,-9.789982762505794,22.855762257169086,9.510879223423316
504,1.400112,12.103533582259637,-18.64980826448909,-8.663039130204051,31.70677805429071,-22.37760985392968,8.341417051896686
510,1.4167800000000002,62.37931479948341,-38.59475908570506,13.698800617576705,-2.7107367884892875,-7.430846626678012,5.894434889323129
516,1.433448,-17.346587438893685,23.6652981785501,1.6994488837896853,10.744045847695904,19.70554183593285,-12.148023602662832
522,1.450116,18.47818201896188,26.311297987874063,34.09319487209547,-8.513996208321172,17.606523729321278,6.3530524018646135
528,1.466784,-20.484661427597207,3.8332587941228553,-47.159801689448045,-5.147428742234297,3.6925227038970254,-16.723401972659406
534,1.483452,59.77670160045064,28.44333613181549,14.883846474563155,-62.50043944926232,41.97362859974701,20.48946634090804
540,1.50012,-40.00674306305053,-11.972215205594091,23.79748481791956,20.516733784119825,18.002778594780587,-33.85599925192929
546,1.516788,-20.44841319845462,-1.0433448678624582,-25.034704315312144,-24.857808300683494,16.843861177654805,3.1905971340757
552,1.5334560000000002,-2.893555273707271,0.891479643724713,-2.395053272411186,1.3297536265883434,0.0145573229978541,2.111761965347576
558,1.550124,4.91878478496545,-16.71227046719746,-14.06024632626034,-13.09438762507278,-12.433430099497778,-9.628984390617148
564,1.566792,-11.859038813060096,11.40134527336765,-13.479017860292736,9.371713672308552,13.373805012525766,-21.532225078313097
570,1.58346,20.95461335935321,-1.7575012561764096,-5.92625106650492,-8.976786828747489,10.427571841069058,-9.688919931972944
576,1.600128,37.0924874585197,-18.462334258985884,-35.25230784418634,-46.68383309051718,-0.7447497910976546,-14.459404812648152
582,1.616796,-11.983533149366265,24.65025824525046,23.765140592483565,118.3755290933959,-6.555495800283053,67.08571849869327
588,1.633464,-14.592068639075851,-14.819782920251452,-11.346313163005687,-47.52639180429989,-2.2191330076329026,-15.780101107905
594,1.6501320000000002,-3.151774644757035,-2.4719016763276453,19.82024744754048,36.91581570053015,-1.4698899974282436,41.72570246994076
600,1.6668,16.020112654940668,-7.754872718172489,-30.30569721523408,-6.808228022828342,13.53229505232943,10.201759545188096
606,1.683468,-51.490234783755554,-3.6660544717206074,10.729558025676049,6.0813753864564015,-27.98069915113176,-4.700917582206903
612,1.700136,-0.619282641570706,32.80523409992155,27.972732763787118,-10.64295627999224,4.314936710820389,-21.220947587549944
618,1.716804,33.36632923694014,3.923717136109252,0.601459784550606,8.154973435482958,8.936131157073927,10.809557285179276
624,1.733472,4.434492544536542,9.122708479938805,1.4298580874208753,0.0748687987571881,-8.91833133520348,15.007512494866027
630,1.75014,-10.498679826801403,3.781911725041448,8.642819326733113,-41.03496211686396,41.11290440855712,23.71757128949125
636,1.7668080000000002,-13.2957350799328,-19.30704421091594,-4.747294319575431,3.1898304098709165,-27.58182103516436,-36.0747547674899
642,1.783476,-13.963424854365396,13.877996578839609,29.643142462640647,-17.125165356159037,15.76288504834997,-22.027355695141157
648,1.800144,39.89107793639801,17.823941606339005,3.981372735997361,15.644461703639998,12.825132876285055,18.857182783436095
654,1.816812,-27.53643034801251,-41.503003210387774,-11.577305724332485,-23.269856816217285,-13.51406100894062,-18.32379232713417
660,1.83348,-7.788201767830156,-7.617194163481165,15.44781202458814,-9.969569364290123,-21.49021437227659,4.2654119061065705
666,1.850148,-8.412954146513787,9.656133487303258,-0.3801762738176233,10.060667753917553,34.96840958630098,-19.80024953332432
672,1.866816,-32.77505523440595,-4.940425707269362,-4.317185433327532,22.01638369110322,-11.811019923626976,21.32881237820536
678,1.883484,-15.764038706163928,-5.749647864717171,-2.2552335108997346,-5.5138432629664464,-14.330844888611413,8.471309414354764
684,1.900152,11.44705747290548,-43.40423799662415,15.239335388381267,56.11891390349042,-65.12016161622702,79.35486934760746
690,1.91682,-18.62982697359362,64.68447198078772,-3.291944449049871,-44.99987637806167,54.83400402759855,-61.905613162230495
696,1.933488,-5.844821334938397,15.037179646961668,9.186993627872486,-10.519800849811242,24.89690542443992,-11.91054278642747
702,1.950156,-8.871263951503327,-21.02840913775802,-12.344981284821635,3.1752135863937294,-50.89788289303574,40.06453082315626
708,1.966824,-4.627678584263672,-7.20008924758184,-2.076525799166125,9.799757557904387,12.428449085526786,-12.645631900230804
714,1.983492,-10.969761093894508,5.371579150489266,7.91033788090639,15.412368185736137,-10.176292109078062,0.6544916888823473
720,2.00016,-6.279283728738417,1.5157116466227936,-11.351654844262551,-9.38182240059756,9.687521454531172,19.525340452312605
726,2.016828,-12.141186543961629,-4.505938133488158,9.235601700161531,11.111031769083423,-8.82170954741732,-6.6172264657104005
732,2.033496,5.478543020762662,-17.202729154062727,-8.419933572149459,-19.825058025562043,-18.10274397964444,37.18052274697358
738,2.050164,-3.132150761936128,3.905877676708568,10.581570963398669,39.10908321952108,24.116982530598385,-52.91333357611563
744,2.066832,-9.040617026147215,-21.208467061157805,6.704257326695933,-4.328669412767189,12.193487455559474,-8.92189725424384
750,2.0835,-3.498422968685663,-1.6660317580720028,-5.509325770550234,-6.9498358187694445,13.383712828568026,-5.707440259153193
756,2.100168,-4.391677039657649,17.08230807177461,2.4410135494735057,-53.71872776835416,-37.37086120843385,29.452958949390265
762,2.116836,-40.20663744261208,-29.243423316726226,27.610497934854653,46.850695742435306,-12.079779265560434,-33.88349913234206
768,2.1335040000000003,0.4229377755151731,77.03455644696749,25.073090058830275,25.978511661292465,40.442928488877925,-18.54865667823124
774,2.150172,16.064963552245484,-13.219457907456755,-8.864284272040667,2.5590022260755427,-0.1421017364166221,-0.9749115108375584
780,2.16684,16.39167718590282,-44.13212562827198,-15.327595802112022,-3.651702420872589,-18.73418019932312,4.057126740216592
786,2.183508,-27.742990476300964,8.80905092279533,21.76063653854889,-11.440676803711822,-9.003709371496514,13.514926838203507
792,2.200176,3.2037469092434137,-100.16640819490942,19.723538842328967,1.9698871499437072,8.718037542936711,-2.239664392401832
798,2.216844,27.068533198878388,62.24521023296423,-28.11468536155482,-5.530016958074254,28.882722469481237,-9.113457857762045
804,2.233512,19.57095986524651,-24.04231881964067,-12.334813955110569,-18.32936597983765,9.836361594767526,3.8561782293109537
810,2.2501800000000003,-51.08819466137243,11.852403314492667,55.73050027165169,-8.056379066908349,4.407013262622257,-11.725265163392663
816,2.266848,28.098005872457144,17.533269921262395,-32.23959741865572,-3.062692627499759,-0.3607527243170025,-1.2167264612402513
822,2.283516,-3.614732363200707,-27.92157353026285,0.1084818302483539,-17.116697609183582,-24.23020188304662,-7.645377920379669
828,2.300184,3.927424835487286,35.29146736283672,-35.00616399578411,-8.117058760344928,-18.18953542732168,9.031061776707928
834,2.316852,-7.356598539807315,-7.878526738690761,-6.126621635191242,-10.39838452130413,34.51126107108618,-15.791245575226986
840,2.33352,7.784656399811032,14.711713936973618,-7.511897449520862,17.991571496889787,4.920117567895961,-16.220001958051974
846,2.350188,3.5936952785008787,-16.52166514941224,-8.622988906669923,4.563705881578716,-14.370920778787555,-6.314643861442017
852,2.3668560000000003,-4.274117707927783,1.277791868491466,-11.603730426438126,-10.635837953112697,-0.6216336913672231,8.277729838559573
858,2.383524,10.30339186928268,3.4877051187052226,-2.2210285664366864,-4.933203100096953,17.004927639379925,-9.563372439229395
864,2.400192,-52.71558580120566,-16.391346743288633,-21.089545098773733,-0.8525098848749515,3.9341733128059753,-1.2402724107252974
870,2.41686,39.784906782402366,19.19952544750848,-3.073193337000135,2.1955965329520266,-9.664538973397502,-3.439438378516064
876,2.433528,50.37944381564927,-20.53170322061281,-32.6164014209907,-12.880397025688795,6.622580906336612,5.761628698111176
882,2.450196,-63.20658474207757,36.20144206891339,16.315133320833493,5.312090476115836,-39.63776166992531,50.893419322284
888,2.466864,-17.24882936695772,12.343880879651437,64.86768257809938,-32.60627677306163,14.24832615861254,-42.74150619722378
894,2.4835320000000003,-1.9279010983217404,-51.51749073630788,-13.675220896969966,21.2447492126244,13.627897948860827,-13.919866078944532
900,2.5002,-0.7023062014600132,30.03959195360733,-10.802493107477478,-58.04766050556521,3.05155579856093,-35.96429599942761
906,2.516868,17.519141095879196,-36.151277285514375,-7.437292853793648,55.74689131721394,-26.49914402937263,50.85947947752699
912,2.533536,11.43710981449971,51.621647682186,16.12151206307824,-8.941677311168178,-3.944611690092777,6.913317333687279
918,2.550204,-2.295880192171327,39.61817888076858,17.271387296880544,-32.38419573360831,27.91622224163236,35.357384524858965
924,2.566872,-21.202390922482383,-28.24337750042112,3.5387000979560543,15.1440276856482,-26.49064741344283,-41.90844062079357
930,2.58354,-5.380300021361794,-11.7892230310474,-11.752585275215129,14.510534189948215,16.998028892618475,-34.81239733780313
936,2.6002080000000003,-9.479021418228466,-21.69316501015553,-2.484387720520833,-45.26871843765235,-28.225017439527555,-14.160882199733887
942,2.616876,0.290949627205249,19.881292903172906,10.30542425083358,59.7684082324588,-1.5819725914970793,51.19034381839735
948,2.633544,8.482308628246031,10.903448273738316,8.341722540014167,16.872250342351624,12.117590078565556,2.2444278185703723
954,2.650212,-1.807958614734921,33.03108375849798,-7.333685083690536,2.571763251256561,33.867403435437495,-27.45342560573183
960,2.66688,9.809010519538443,-14.911840324017062,-7.489387987485346,-2.4135478637904964,-10.98767836219127,-28.28993350914648
966,2.683548,11.33190100010498,24.788302096200905,2.3641917000051818,8.989310900755603,-7.308281839812658,28.45718356406756
972,2.700216,2.457876444102798,-14.796321446076988,17.421492812922175,-40.17710600907832,9.36473246091678,-16.135191709528918
978,2.7168840000000003,-2.9539979144056723,6.354442588764821,11.908520970281584,35.62047441369174,2.735139996851488,16.17496801492846
984,2.733552,-6.441456124042247,-13.158330527524074,4.453110961687589,5.524949399213048,-22.095359501224745,-0.6548994430561974
990,2.75022,7.641732964274886,17.61448203595941,-3.236591157399288,9.971125144013502,-18.194946370198394,8.000286534713185
996,2.766888,-10.4389410257506,-1.751691525382474,11.450217778189218,14.617973047347409,-15.028240564040996,3.938789910578585
1002,2.783556,-2.8258929502773937,15.687421159312056,10.835456414672995,-26.391070397969283,33.53562505346873,-39.97775620154114
1008,2.800224,10.514553537586323,15.858187103726571,-4.4698164121748425,39.98875185847316,-5.894384926945799,26.97510363566632
1014,2.816892,2.2933915721802665,-3.142531868434609,1.458210447013767,17.678576698065502,-3.436616033406122,-4.069304588597503
1020,2.8335600000000003,21.02498078071569,-1.1941686194775092,-11.074467833089258,3.692000744411216,17.836266288126268,7.933102888115643
1026,2.850228,2.6501602084032427,-6.185506765250306,-14.515133652076168,-13.44524802042827,-0.3232913979630565,-9.918235730647162
1032,2.866896,-2.189865848711449,16.20687726906081,-3.6581545959286608,41.25219885575854,14.536833490031787,-13.616438047172991
1038,2.883564,4.163267672859298,-11.198737688034726,-10.220261175507634,-14.34781990601979,-9.30820729526624,-4.704596201323771
1044,2.900232,-9.51836384730591,17.578473565484014,-9.483519163451458,19.3428699848815,-9.96998898196167,5.653317897424616
1050,2.9169,6.104102179311728,26.044643671335788,8.25303794449499,10.388457373630882,18.04523388080442,-6.116823232644231
1056,2.933568,4.350232860965985,21.01069152600973,-5.516080535380429,-0.3663238746250301,5.454095227100655,-11.227123798444628
1062,2.9502360000000003,-7.410843710116854,-22.329508046320736,-6.726523171489783,-4.939833245856867,-3.141078139608382,-1.2349373287446517
1068,2.966904,-0.8062043199117737,-9.440829926675876,5.723041413416805,5.901475848286722,-9.296149924455978,12.795915529580396
1074,2.983572,7.086278107105423,26.50378407768534,11.767269012441147,10.461621944476953,10.132160959401162,7.059868302433929
1080,3.00024,2.2934806001715837,-6.806971055917615,9.664786487688533,9.023798201478629,-2.2519285235884503,6.539035013517855
1086,3.016908,-28.306120030308957,-8.869421895269323,10.7791525726469,-19.480435597015514,-2.337187941563071,-5.493902884256992
1092,3.033576,71.68642422660695,22.71651742505436,13.372672031036632,8.885370844178858,2.220678035036242,6.274510950073049
1098,3.050244,-15.30831938608565,26.226429304131543,15.591228492775162,15.378557034983658,7.944852863644717,5.706452707505722
1104,3.0669120000000003,19.659391403101445,5.960016857736402,40.23325839105381,-5.957492407481043,25.626390666409826,-5.19821172896911
1110,3.08358,-42.75460355518134,-53.449892946099695,-33.906425881585115,-14.19348488353797,-13.676894203329402,8.351648667242323
1116,3.100248,-10.532326926849102,-2.1422179206455705,15.40863488248898,6.256320254412625,-12.941675234124691,-11.041581118825714
1122,3.116916,7.830551684525434,6.5431996330130975,-3.86899408453518,24.98659762470561,1.3199304361574082,1.8648534491401243
1128,3.133584,11.765263910711258,16.967323311218788,3.1430441706599765,-2.906317879148937,-2.964250596041217,13.888902092544082
1134,3.150252,-21.82613140802566,-5.615467688045152,19.651998099962835,-0.8203823721887848,4.640484408399246,-12.789198043282386
1140,3.16692,-4.238857594084212,6.0980557405782925,-30.271649683224695,-21.48116122840475,-14.378591285002717,45.5582489416766
1146,3.1835880000000003,30.976571004920277,-10.81434103404486,30.9217146037369,-46.85993814050049,30.93617235532681,-37.953320157023306
1152,3.200256,-5.071793622283327,-24.60827405001912,-15.904160755398326,-8.213223148526534,29.20328237819481,36.82910808408468
1158,3.216924,23.21694032957366,19.71440460965884,-11.285720020156326,29.597183462685702,-50.401021463509565,-11.793607832245652
1164,3.233592,-13.56174430753162,-23.89156667500119,-14.505058397865549,-8.55495912466953,-3.742674066998168,3.9037614840707535
1170,3.25026,-18.96153420269296,-4.870220132256783,4.95095923727784,0.2786914378749663,9.41548574181428,19.04832678197742
1176,3.266928,35.09706583721189,-1.9730703358242143,-60.08472658317466,-5.111830558578474,2.688217187669951,-12.517585845215024
1182,3.283596,10.913106014990484,-12.351391832139404,-6.568205692087469,17.56948563438226,28.42061623304001,-16.847645927639245
1188,3.3002640000000003,-1.241528577204683,1.130450354257427,-12.853207000913931,-2.42483075761195,-42.39833099616324,17.159903528105723
1194,3.316932,16.649745546477718,-4.024525390570032,-13.841462274672525,-39.71977760807021,-24.9267558494993,45.03726883926141
1200,3.3336,-2.4494994670893213,20.22400991644757,-3.00451068280827,-4.275613545528883,12.12174680557187,-12.584810082991286
1206,3.350268,15.899624310069951,-18.580889526951267,-3.002120966391465,7.615342440077877,11.402938393942378,-12.499985563708025
1212,3.366936,-53.85875209283879,-13.504465332829948,-2.3343834828347667,0.8423989933953093,1.2164299023598573,5.0872658797552255
1218,3.383604,-1.4914465038468163,-10.56467941383828,-8.587451715029202,-18.68603695640264,-23.170836694600023,24.67034945586763
1224,3.400272,26.87616417913525,5.7167996626135045,-5.797455607577552,9.300722166148926,10.64497531288971,-10.72708443818545
1230,3.4169400000000003,-11.011560380179608,19.70750530556533,13.778369379752512,4.183325806817285,9.401895262021636,1.9791325802625208
1236,3.433608,-1.365430543272483,-3.986153976679678,-6.08679971340035,-9.27469221028467,10.254242968561988,-5.309311750500237
1242,3.450276,-5.4698016625248655,-28.765917101133788,-18.406218699382144,-10.97075381829924,-18.617031621882056,-11.28076878272066
1248,3.466944,10.20213169031239,31.24686010208706,7.099357923743999,32.68137222358271,31.16396677527927,15.62300721519178
1254,3.483612,-8.023458271897336,17.61572363324685,6.363941923990445,-20.70682869640823,-13.379118008647476,12.197169914010132
1260,3.50028,18.96999371309228,-38.51320969059864,-31.950655993657158,-9.803384478279677,-2.471108990226936,19.027290175922445
1266,3.516948,-40.50650736778046,-10.94875632367263,20.887249829954666,-5.753347169484369,-9.887502843486358,-12.352686738148174
1272,3.5336160000000003,11.8135091648991,25.1272919232443,22.96353891063416,7.105083091349112,15.1606329821989,-11.90620868937027
1278,3.550284,15.008221391772718,22.969732406623528,-7.233096960640184,5.897671033615233,-2.1351785748379246,-0.2694873822436552
1284,3.566952,-34.105856748736294,2.828737141326105,18.808149213168058,-12.202341405749522,2.9382479189296227,8.815194484963833
1290,3.58362,50.47710229645824,-9.522648804070954,3.5458217431693786,-14.320563695950352,-6.276205005071541,-13.13411025549399
1296,3.600288,-15.524298734083866,-14.902250727532172,5.400199195197788,-22.5898288355386,10.480887938102224,-24.53065828650641
1302,3.616956,0.3927702706497236,7.7312282444028035,-26.697403689096085,-20.143707358267847,-20.116353284752496,-12.930951028811304
1308,3.633624,-21.34132336095238,-25.52648098061339,15.589827586741722,59.76179542021877,36.526380076058345,44.68943727342413
1314,3.650292,-7.846915717772134,10.25774648125936,-7.26453749176,0.9024869895900842,-1.928557173459323,5.748869224477435
1320,3.66696,-9.44168782420559,-19.923439428513745,13.206219604860904,-14.027540540608795,-0.1321569533748565,6.209878369552619
1326,3.683628,5.588050948212213,-7.689951648365861,-24.83519242092873,0.2136731685181141,-0.7906835041691185,4.451000457591042
1332,3.700296,7.496200601209155,-16.764014379162205,25.453280385278795,4.891867938546945,6.544107309016246,-9.502609203808364
1338,3.716964,-3.551977397445146,8.507714952199619,-28.821069576625007,1.6539354920863287,-12.532976718267005,4.531922649835315
1344,3.733632,-3.086774926022965,19.89765231615677,12.310941341544815,-7.790169976027642,-4.242123497451885,8.818953415385717
1350,3.7503,-1.3674459964671932,-15.376989888587255,-1.6946445605005245,1.252937241758549,5.345741506220096,-17.190386710665095
1356,3.766968,-9.902751255381736,6.211637957522672,7.553686348206224,1.330589479758094,-12.452648585018808,5.922006709728718
1362,3.783636,8.917405149615849,-10.865973509578106,-6.219599959315351,6.075810015384052,0.889202439247347,-5.099941392262693
1368,3.800304,2.716557568643033,-10.279489915470505,13.833319851872282,1.1236403173850924,0.3690884567841395,14.58551191983144
1374,3.816972,1.4733044459176252,-5.378333229084129,10.16250533592099,12.851484930120916,-6.198486156814166,0.2216322734938201
1380,3.83364,-3.658800507333522,2.4016525604396133,-16.541848059548748,-9.757154641819472,-16.02281269839771,3.6979458406860974
1386,3.850308,-28.190513581673617,-18.93578368733492,15.408777446001944,-4.591071450221385,3.352170881368597,7.867325797593262
1392,3.866976,-5.059832681056907,7.808196333533648,-19.55614223437089,-12.715181594430629,15.560827922230544,-11.302782443911555
1398,3.883644,-4.038240924879837,22.184929183555404,8.116242796573074,-4.647541717621883,4.383219124000204,7.959575133821252
1404,3.900312,-41.85547936737318,-21.7528539989104,-1.7402296085808675,-18.267327588000164,-25.54621458102672,15.11637608345149
1410,3.91698,9.404995973792216,10.298269960189067,5.118689058229701,-5.671375152450523,6.673457947709689,-19.695280277364123
1416,3.933648,0.9585986008704072,-6.868643426685384,-17.662588576997493,-3.92541452477996,3.211956517835622,-9.548836001993775
1422,3.950316,-26.230752726589262,-4.611335306015677,-3.3178424206377115,9.128823811156998,-10.084418130565002,-5.164880092163779
1428,3.966984,10.735327488298664,14.690573526590187,9.49922012394508,-3.2024019273721693,21.686445080902818,8.79988551853154
1434,3.983652,-7.841617057993769,20.93432378319449,-7.903053423545801,-3.5350763384276123,26.050035723917187,6.0913961165450266
1440,4.00032,-4.69308209860503,-0.7060735994804475,-16.421740994465182,-2.765766299628217,21.93595298285223,-11.854060958216264
1446,4.016988,-59.7247608641518,38.88982118029693,7.883696514655122,-13.01613483836691,9.05672104727592,-14.259171622390408
1452,4.033656,37.506979668756685,-52.72582661610732,-13.116224877970962,34.42720897716022,-17.316425934240833,30.199564488518615
1458,4.050324,9.189569861799257,15.013656791587293,-11.383406414519314,-21.85116016543993,-10.075840194241527,-3.10060499884079
1464,4.066992,-0.927496042738202,45.494242728822,-52.6380986635776,8.243625931525774,11.905837132073454,2.8155925843685843
1470,4.08366,10.487974289899242,-48.926910689893845,24.888789721696707,4.148157279847189,2.983094899593203,-13.192050541898032
1476,4.100328,2.965631865360402,-16.513025200394704,-22.58920875502145,-1.1273316037604966,-33.23622351180062,-1.1134249389173156
1482,4.116996,-3.6679752758505546,35.7969822186998,9.93833674450676,12.998400258356988,0.2762564175710214,11.585981058621904
1488,4.133664,-8.920883589351954,63.70351121419171,-4.510223588350705,5.245208922659213,-8.224002733623555,8.428479547107491
1494,4.150332,9.32114511289258,-25.77773861772272,-23.412066718293104,-5.351531647845164,26.00867427950434,-1.3278466096020516
1500,4.167,-35.72309664852417,-12.05972327783405,12.796654953737225,0.4982470757672228,2.169209483014232,-21.945241380725182
1506,4.183668,2.184598897593004,-19.10021035413176,-36.99335779442103,28.846973332727107,0.604637615777424,7.83484067859715
1512,4.200336,4.793715477661389,0.2193311143657581,44.64391166161317,-11.503390905382313,-16.172936954778507,35.78746102984397
1518,4.217004,-7.984660681631125,20.78268253118147,13.734211696906335,13.714050326972108,0.2984348550562108,0.4335281916966131
1524,4.233672,-8.105638486460915,-23.668222473004946,-38.62629682599293,-18.339632319667857,-5.453076028766759,-17.71228188161977
1530,4.2503400000000005,13.667189229078328,12.101645925687189,17.073042323149668,10.254247200379194,12.371773473487538,-3.672924495783193
1536,4.267008000000001,-8.48910004422303,-5.922898409529688,9.12291619762206,1.1558220381647717,-2.261268418204524,9.241902627267349
1542,4.283676,0.45640375014188,10.193964738032324,4.805044368598472,-21.78864523608067,-2.508252053403659,11.98504235884452
1548,4.300344,10.433301877574372,14.97831187416373,11.499139000380282,-11.92886220405289,23.1249663820252,-26.59932420294141
1554,4.317012,-26.18741532841281,-19.82818172794804,13.689162242334056,12.5078121058184,9.44003326123197,-0.1139169265190518
1560,4.33368,11.455833843521244,33.02785369461803,-32.59653383465833,-10.037123515024096,-16.552075339271642,0.0953969746094103
1566,4.350348,18.383049526742717,-50.58506680880461,9.882290663021486,12.1045090052182,3.416718334163648,3.7433537889567634
1572,4.3670160000000005,1.2055833135388203,39.17291181823968,25.93623117397301,11.79625183948511,-17.769176168424885,15.262202149772769
1578,4.383684000000001,-0.5818115464779661,-3.102797636519037,-1.5556784266957475,-3.166924026953275,11.829337250201686,-2.1959952430506293
1584,4.400352,13.725489744723166,-8.07792715817783,6.679188217190788,-13.21164047016322,2.9717928045999944,-11.589612955855964
1590,4.41702,-5.477846277375878,-13.849882219966185,-75.26049110864236,8.54352708894997,-6.800014657773774,4.7000444878310565
1596,4.433688,1.396785810329095,7.173232810287328,3.0988966884540528,26.455311965447045,-15.53167811487543,11.703089699873736
1602,4.450356,-11.283701132772771,7.185927645468555,11.375380619422522,-17.993763583476742,9.975863523281577,24.31536758518456
1608,4.467024,-6.496899462948161,14.380066166808623,4.131539538813539,-16.7440843630121,29.82118933969588,-23.48481563769581
1614,4.4836920000000005,-0.0420441000304183,13.075472621088418,7.768376781501343,39.02410067552567,14.43653402825619,-9.562717211927382
1620,4.500360000000001,-19.269036463821365,-35.82380936500135,-12.351006255447404,-9.611614213496456,-27.818534066279625,9.884408364523466
1626,4.517028,-28.90773536778565,-0.1168595389006608,-3.1131088828337807,-3.580461612785075,-22.280278508271564,10.145636953994725
1632,4.533696,22.700896788618927,37.18951379689906,14.27998113458403,1.931386570680365,18.03379648175957,-8.14469446660511
1638,4.550364,-14.813061193780522,-10.304257327833128,7.054727100911427,-13.504512724295862,7.792196431538243,8.219565856541896
1644,4.567032,7.400446595510118,-1.666749895797972,-4.693100198028551,-21.459762073250523,30.51248236572381,-23.212022022284863
1650,4.5837,12.136177937549194,-10.673046021055164,-14.561742597456773,15.183923027134924,-21.792964691863315,11.286136718755778
1656,4.6003680000000005,10.643919287152794,24.61385352848269,23.68065370846958,12.55166573535867,-0.0483625547384232,0.8080982668356462
1662,4.617036000000001,-9.928938660760792,5.364606583684767,14.088195393576942,-9.67641463129353,15.555845701658264,-0.8087109513148629
1668,4.633704,-13.379548694793591,-6.038370504077783,-9.523515524152916,-28.96842425390188,14.807792240196497,-7.80951052266254
1674,4.650372,66.57179141186721,18.771024225177776,5.332276497367246,4.487213595404618,8.91601094373059,-4.799164546153727
1680,4.66704,12.16461041473919,-6.676754825463352,0.9522705948541308,2.155153421391082,-10.97837572479597,24.570391461657906
1686,4.683708,2.304023808747442,-3.7740727354458254,5.896542358464783,9.157593868078123,-26.64961663374504,1.8891788003406396
1692,4.700376,-16.594170294546164,8.26566743803929,11.359596522582086,-15.974647728770258,9.901356953329504,-5.75717373911653
1698,4.7170440000000005,3.707408066366658,12.840075032041444,-9.704868272421743,2.4655810414781127,22.855823512990572,-14.977084634794052
1704,4.733712000000001,2.6833863374409552,-18.104922509282453,2.099701680538427,1.0865661163498723,-34.37413242313406,12.961460068116372
1710,4.75038,-14.932417958128577,18.498997638942487,-0.1309766739904736,-2.8075575942420548,-26.420521627981906,-15.334846250022387
1716,4.767048,4.712659852387653,-10.018897897043528,8.618668432192472,-2.9831090434354883,16.477856743391246,19.736085719074644
1722,4.783716,-25.10082846685316,-7.229531790292624,15.342102648908382,-33.15114177204036,9.83130573498418,-37.49368579263656
1728,4.800384,8.05178893361242,1.7402275680426769,-6.30907105190431,20.179338488203797,-5.851934294640189,2.8133774182183
1734,4.817052,-56.522949235994055,0.9281249606247908,37.244146413425455,-5.293474632984543,-19.96144429445799,19.88965861180388
1740,4.8337200000000005,80.22810884113875,-12.44289093586981,-55.3561783240669,-0.5780905725503049,22.53426442108548,-10.88070295377754
1746,4.850388000000001,42.50008973473729,1.6855669205303183,10.666757622874837,-44.07439174896086,-8.603298677724924,-30.989549393874825
1752,4.867056,-4.398835156402191,-2.375826192269568,-0.5674814325965141,28.34097132458033,9.18372941047024,14.286176424067268
1758,4.883724,9.088155441474544,17.12462796486146,-9.023125852762178,4.381892398958376,-4.344105269039227,14.625053382120662
1764,4.900392,-7.098354807521899,-12.978911600379131,-7.784958751964917,4.711583914718654,-22.46444679549781,10.989137934168106
1770,4.91706,1.9610834717461785,7.4367874947605905,1.0829408226554924,0.9345383166014436,12.28196421338683,1.7972249336992645
1776,4.933728,-13.923910011781114,25.370064503842805,15.647373752062649,-32.65322433743953,8.487409924257783,29.123689406326235
1782,4.9503960000000005,-2.123114421751372,-10.508067961160632,-4.076333934727855,52.12837797759365,12.046691025351954,-84.23580601718083
1788,4.967064000000001,9.498806752015469,3.422522155473379,-3.111429479919705,3.234405753753213,-6.295418776324692,19.03221145766065
1794,4.983732,3.809474083312388,4.585366084172887,3.17237803604172,-17.147691880711655,-4.770256988050711,17.417069280854275
1800,5.0004,6.604164612267403,-5.97592489253204,1.8994413256316007,-39.39363658572762,-0.3709610704890203,-54.37210293246045
1806,5.017068,19.45945023522723,17.599120816844444,2.3304018203459727,-29.873794132617448,42.11271070295562,-17.627463505182067
1812,5.033736,12.452073835742674,-12.646244916812066,-6.186585267314534,-1.7976902221867874,-21.87434145685977,39.31446429120307
1818,5.050404,2.308475064254277,-17.508971153890013,4.200269772745257,-1.3371781635939817,-5.915251496092917,-18.19592531551588
1824,5.0670720000000005,3.459381377168871,14.40643852561134,4.4959471450710815,-14.756142175906362,9.622672016988613,-14.333921003909884
1830,5.083740000000001,4.935524265944885,25.45148399793313,6.13751992899289,-7.29571604574728,27.81013876954952,16.449280309615936
1836,5.100408,-2.9534871761118158,-15.66936618662688,-7.629773416738809,0.3558348352511604,16.817037545439188,35.5946040994063
1842,5.117076,-16.040744591967098,15.600762206480097,12.372868477647582,-20.96378397579729,-30.21444300574905,-17.821830155611615
1848,5.133744,12.36174262798807,6.23211008082621,4.690214691132935,24.20755132535276,-20.45075779455219,5.449810118993018
1854,5.150412,9.748451393995625,-6.794235652651896,-7.528113689655831,3.7053035525203377,14.33563133922005,-15.736126041358872
1860,5.16708,-14.432717183525549,11.48942359601219,-1.0943076476612927,-7.419768284078503,8.632204489282676,20.03380363603634
1866,5.1837480000000005,6.390580186140566,-18.46617986894376,-15.086958103061908,-2.684514122249607,-4.846330630709639,-7.328138494965713
1872,5.200416000000001,-3.230326214616077,-6.75378533539608,-1.6637285159406374,1.95338739262458,-27.97537571328128,13.2668644969679
1878,5.217084,2.206344421986023,10.065554951754445,17.12021475629552,-17.08278236348761,-40.54071231195904,14.256506626945772
1884,5.233752,0.5250764907264731,10.25872207595457,-13.530157451379733,0.0787520940043755,44.39723941126596,-6.989067960207672
1890,5.25042,-14.972052185561438,-16.54284322208479,-8.175162947917531,13.030846774738952,36.01652500101916,-31.66200534613613
1896,5.267088,6.590654083934913,-17.71773137440569,-26.204167455321056,-3.2483813329140045,-53.77792097246763,23.95981442600489
1902,5.283756,1.5200279962600554,-1.7300237102931249,2.765230945686093,-101.0430432730106,-11.268373812610369,36.47750959113539
1908,5.3004240000000005,3.207146364493515,28.320652051844174,7.648756337180187,79.10717095151344,19.66346634946629,-6.908739842855905
1914,5.317092000000001,-4.894605469083,4.367698430796468,8.441626390244418,-17.77680698687447,-19.47443011774468,8.765390479989298
1920,5.33376,-5.293997943739036,-19.041614070133203,-17.155323808287676,8.344469538008461,6.428484199965306,-3.461269983688889
1926,5.350428,9.574266060632224,2.0155098472219604,-5.691144673479898,-10.84461008396537,15.705088007068223,2.967050151397874
1932,5.367096,14.674793946817154,13.933407345729393,0.2845953111694079,36.074177914261526,-2.9580317591415444,2.7604497532912635
1938,5.383764,7.899700474072623,-2.32840824895192,15.682178238053073,0.19952203753434,-3.1849672159317866,8.936462575510035
1944,5.400432,1.9357886240841264,-17.669180037128932,-4.317665414110737,-2.698189979887605,-3.1341629366987185,-11.047326678650933
1950,5.4171000000000005,-4.13613734014626,-32.297635912536535,-9.221172184817163,9.187568633480518,-15.32056972348891,14.4863162771765
1956,5.433768000000001,8.584406618048014,35.56143028915786,0.8173861914822176,6.022107546783736,42.555593046739205,-19.282500828882608
1962,5.450436,4.828237201241217,9.0638926622316,1.307988140789388,-0.1889616408754149,1.95415543928245,-2.5381219911874986
1968,5.467104,-3.517869872316961,-8.376882841997421,6.787817767541361,11.582200060223125,-9.59021892449332,19.18210114891986
1974,5.483772,-9.227387047650968,-14.613022253287408,-6.969257136935218,-0.3144627651989102,-14.058111197207396,-10.875033038806388
1980,5.50044,11.960837072589046,-10.27176118339391,-6.882284026698845,2.3851082416909923,4.283286139723231,-5.534408356396262
1986,5.517108,-12.7850413439841,15.124017507508032,-1.5254282999427824,8.898609896118337,18.074180082721327,-8.07401210214165
1992,5.5337760000000005,8.069554664615897,2.6190885131912798,-3.905602459595788,-32.03901957199005,-17.657429126283233,17.548439357866414
1998,5.550444000000001,-6.970600839904101,-8.500364742313304,-2.3610723954680166,35.412915533416324,-3.6632161339488185,3.905635869503799
2004,5.567112,-3.2597582898009563,-11.974286983116595,-4.520914354306702,-8.422228160609091,-4.882629030163159,-7.370755439575519
2010,5.58378,-0.5975037082183778,4.968104261508925,0.2933687241406471,-12.898448369423576,13.5840547254071,-13.031108361518315
2016,5.600448,-14.942095471712404,12.803987863017142,9.02137548630214,4.72488814166268,-5.6395567780585285,26.189223359078404
2022,5.617116,16.77408762460933,4.121816545914311,-14.92464716585691,-28.48153178276368,1.7504582702614957,-42.13076497705994
2028,5.633784,-13.17325255808123,-34.10093617473299,6.443736122457057,35.377778107686325,-11.793940121022713,57.172324617102255
2034,5.6504520000000005,13.573394599124002,9.101750596639818,-14.052157694652983,6.779182014168969,10.511195605638912,-11.357566342594954
2040,5.667120000000001,-11.601796107237304,11.410317981879224,-4.050312941287542,33.1281777803095,0.9628775740404868,12.87512597164923
2046,5.683788,-0.2834606664381107,-17.904555570440348,-1.278500930702713,13.911814075301791,-7.0118328492205375,9.659860694388891
2052,5.700456,-9.222489448173285,-11.133269518803717,-5.940353902928071,12.357523839805502,4.865897928980512,1.093415553240049
2058,5.717124,0.0775308311194704,18.63694637190405,-2.296174319208088,0.0446752493592264,7.902169639392174,-0.0865066960795619
2064,5.733792,2.8042732979858096,11.313710034334406,11.764354070753464,5.362630042370456,5.149352285694972,-7.029523292375185
2070,5.75046,5.550405868546732,-15.74407880203128,-10.314083173629651,0.5476617717390115,2.4519266817204457,2.549801503217505
2076,5.7671280000000005,-1.970514136283814,8.66390244456612,-37.86202592858186,-0.0350330201055417,-17.529695009593283,-11.86822599422648
2082,5.783796000000001,-1.5967825739201895,-12.423811374703616,1.148045313575949,-2.708754174155577,22.116892651231005,8.470165917778003
2088,5.800464,5.908976347454408,-11.624177440992458,-15.912317348939249,5.189191396910363,0.6347839292078845,-4.214556595098808
2094,5.817132,-1.0859684918255184,11.45074637464596,3.939781985802391,-5.706280608459485,5.87594566948906,-2.0849077141797308
2100,5.8338,19.62741761778184,11.19210654117962,-49.092566608903496,-5.798800155981401,1.9660550460740585,-4.461281110217811
2106,5.850468,6.303726916794691,-1.5844177104608823,54.00652958669016,5.692710361447815,-10.009033336695165,12.464614246454794
2112,5.867136,-5.723004076106191,-1.69310638169818,-0.013692116448766,6.956558822421178,2.771752343925014,-7.410963947741897
2118,5.8838040000000005,10.696521817161642,23.07969453451461,-13.714153238479918,-2.9124378188596776,15.680849913724144,-2.714759850588994
2124,5.900472000000001,-61.19929440434267,-20.24946332199252,28.07893537616887,12.180616336439671,-42.35939525005864,8.225813691632272
2130,5.91714,88.2545520250118,21.953417094437608,15.698239837230666,14.398574971833431,-2.8049664990040544,-1.9126115326290565
2136,5.933808,3.0749247365966013,4.591468170764132,-5.686246038875733,-7.014501938551784,13.827994695616791,-11.34211727190025
2142,5.950476,-11.094681657703829,-1.9597862855589805,3.643676243157788,6.891118785810784,16.386207801357997,-16.870513180045304
2148,5.967144,50.87682618720851,-28.805269919912067,-18.72077054651915,-4.430688130296176,-20.598817480169828,25.99335781292503
2154,5.983812,-9.438067043212715,20.72079120101432,1.763611491665295,8.499262746260714,-6.818987755496012,-8.131335843370971
2160,6.0004800000000005,6.409101150939669,-17.634164914167467,-0.4861485960215983,15.93566701144015,-5.818124776005952,6.844549298759604
2166,6.017148000000001,-4.3513825790725935,-1.2385694427772775,-0.5762199757514139,-2.1788698579857497,17.960148724323073,-10.450299202712984
2172,6.033816,20.24351438522836,-18.60592890352854,-35.76599664791433,36.80777310005857,4.7258520286290455,-1.247365215818546
2178,6.050484,-31.1824228690543,15.759180575486214,46.252655498096175,-14.731016278588848,-29.183387537396317,10.861364793234106
2184,6.067152,7.038849627574607,11.4224089773527,-15.061863544186592,2.1458096719350506,11.597414615448448,-6.501993018883552
2190,6.08382,-8.229744285408533,12.345082464878155,-29.60337866565141,26.960470941670422,-1.669171273239796,-19.00875383493367
2196,6.100488,27.867001512599,-24.7217053420595,36.12230518536337,-0.829768954780076,14.831032336010129,-0.2479114451135569
2202,6.1171560000000005,42.5034054627245,5.040301559175818,-10.155855851205292,37.03035689527009,5.329193611945386,-19.463598641742955
2208,6.133824000000001,-22.95236177650448,9.346509671297698,24.88738345994061,1.5859398699208134,3.774282471609679,29.040447262130836
2214,6.150492,-2.178483763992146,6.631927435536545,7.163018103632144,-16.684222989315707,11.92109406496009,-19.706583335009828
2220,6.16716,10.050016158385706,-13.782517525215336,-3.120623094894225,-11.592982590460204,12.956322307099038,-11.144930808440357
2226,6.183828,0.0971978135884334,10.832580344556147,-0.1809178244882296,16.27903927248812,-46.974849605728096,35.43993334907511
2232,6.200496,14.370338286628945,-18.39361119967167,3.826525976661703,3.5093837724337007,32.09763099384096,-9.182739397800372
2238,6.217164,-0.8950089983216951,15.900922271921544,6.764801400846494,-31.593698853589984,23.973990228370116,-20.505796013923337
2244,6.2338320000000005,-4.5049548363254,-7.863543967322571,0.4824804720672473,-31.309087572020506,19.550469642673885,-6.260165498228698
2250,6.250500000000001,27.37109020943299,-1.0603449840058523,-31.40235411296979,5.671509249189655,-26.856213432558743,7.513537349543865
2256,6.267168,-7.96237063405998,-18.446250171432013,3.817738432196636,20.58161544376214,-36.33529626485822,-5.7524186226277
2262,6.283836,-7.697713354190803,37.35034539471056,-2.4849043432289184,-18.311246076022154,39.055173913265456,-19.47497482582655
2268,6.300504,-5.726284469775431,-26.858049484911103,6.206771699008344,-38.74906041231556,5.038561141135919,-19.020854416942715
2274,6.317172,-2.2151363417934764,-9.662750425981676,-0.6778959590930266,3.327132392154902,-11.794585459925653,6.864876579901161
2280,6.33384,64.22859506135461,0.5851469865487935,-55.39142049701468,9.843600160734718,1.1336293572811416,6.078164441976244
2286,6.3505080000000005,-54.143161921936766,23.957437499876743,45.01213453913917,0.8685215290750166,15.36679578405994,13.602581408531652
2292,6.367176000000001,1.862313907648676,12.471342077607565,6.0164139032190525,-42.35443633865665,23.7454545493788,-29.183829372589564
2298,6.383844,31.228628449601096,-40.96322352406428,-36.23299224563248,-4.113721912152549,-10.60481392620379,-2.287495364838572
2304,6.400512,-27.35337096593021,30.80528763252571,32.30333481385394,9.764601145537355,-33.090433302910604,12.862476707714718
2310,6.41718,15.99557431927486,4.126518865703336,1.0200244102215723,-16.98886314697682,18.349696159829165,15.8610236102837
2316,6.433848,-5.48521825505186,4.632325226541639,-3.154456630228357,27.19094620619633,-3.7509544417982656,27.87048738196897
2322,6.450516,13.601252263301564,16.593983955437196,-9.237444412576767,-10.373467364606238,-3.803412016340415,-2.275561526418822
2328,6.4671840000000005,-7.038850044846242,-19.73952025989016,16.729575898246715,1.3069395905196934,-3.595627011890468,15.453794285802893
2334,6.483852000000001,-7.093504534490506,7.0663894391558735,-24.241071127660305,13.614383939600533,7.831634638223393,-7.606104485483303
2340,6.50052,7.432381251641843,3.744762569692504,13.264690587366731,25.703335900939813,1.9372231005836609,19.10408743966684
2346,6.517188,15.310228632857177,-25.782204833251367,3.816108020337728,33.800589037058465,-28.84693820100704,7.85920575638875
2352,6.533856,23.047719954407544,-30.74193506532612,-12.081032856887353,-24.31207470728909,7.22992034273117,3.489895067270279
2358,6.550524,-23.1376324162229,8.952271331408376,24.37109683306741,-6.434484999063381,1.6773711629013048,6.883074352022687
2364,6.567192,-2.1445972346909663,6.831106825014601,8.288826635180033,6.914687805585461,-4.740236083418306,-12.605980454014084
2370,6.5838600000000005,-4.376118603249449,1.1497510808007223,2.331029895775365,-2.0086957001919075,18.698255739956764,-3.89874685286968
2376,6.600528000000001,50.75717043959452,-14.913519532296483,3.979778326315902,-8.460189257698996,-10.107336323357323,3.932340493574781
2382,6.617196,-61.108905403609576,21.80040994417845,12.226399678473989,1.6071002223567716,5.290518054696946,10.414276329727212
2388,6.633864,-9.67537862292937,11.756389027842255,17.01382500507978,0.104954411390993,9.468569470064985,0.0108989571264501
2394,6.650532,-5.830862452961759,10.839813755787642,4.085580296578188,31.012062442597266,14.244436835017344,-29.5034612028397
2400,6.6672,4.579615864532107,-2.332671557002755,-2.976428145594341,-54.2225672328844,-21.844468160188192,47.78608191726848
2406,6.683868,6.425540037290826,2.6521298525659,-4.05594876275768,-6.037619233114272,0.3291964885148347,-11.728847116511634
2412,6.7005360000000005,49.49636433748283,17.964416283355117,15.421128186341356,15.417988120627424,6.212525114667364,26.388680108434908
2418,6.717204000000001,-30.448553112182857,-5.2886012573156895,-2.699964771842462,-2.9558189841045515,-2.2634494129446576,-5.3817203834915865
2424,6.733872,-28.67459680663738,-10.384566035745824,-8.282330333662557,7.332935567455337,-6.143432421011076,9.398686871035022
2430,6.75054,1.1481227216917027,-6.022250197899391,-0.4093393433483066,-7.026738565136867,-11.982482150365469,-4.0439602513355055
2436,6.767208,4.68677748328021,13.11904973634417,-7.4363858071470545,19.062171578089064,21.36905516372412,-11.972947876745632
2442,6.783876,-28.590648053178988,0.965505258579994,10.531053578509418,-5.169244451682724,-2.9778656095231946,-0.6412217832998133
2448,6.800544,7.769807887665001,-9.617100573159975,-14.87401391879515,11.07916550570468,-9.588970374102413,-0.4282982921213858
2454,6.8172120000000005,-2.046096585892963,0.2860796334670503,-5.322551177385895,-3.108809958768185,-4.235756228710862,-12.625527077162946
2460,6.833880000000001,0.7777065632248554,14.409972555736973,-0.0168899686740664,-8.81791781855843,5.131247154876754,6.885015906849777
2466,6.850548,5.357052821143516,5.576175251608159,9.94021882159956,26.28222416893894,17.155209954955588,-0.9556972673776016
2472,6.867216,-1.3595804385504993,-18.42320690171448,10.860806074004556,8.610730434037233,-40.925538084946766,10.070166318398654
2478,6.883884,-3.526311349896761,-6.566438630166697,-4.811408980648124,-23.52376481725934,3.620322691113437,-4.028976395425088
2484,6.900552,12.177847765892135,11.81879350977739,3.4848461707398,1.4538956242190624,13.9506297434094,-13.92200838095716
2490,6.91722,7.984347311144099,5.967059042396548,11.021676075795083,19.612086413905523,-6.825696151529279,8.633665058206088
2496,6.9338880000000005,14.642829353749208,4.725894155221644,18.677521854234936,20.993572987245628,1.7079963714505446,24.20565030880931
2502,6.950556000000001,-5.169552526061436,-13.501459598709138,12.346878569410126,-22.898942856958023,4.462017856784632,-22.87780005117201
2508,6.967224,48.48373318664349,-2.8015871237298224,14.07192606547142,-22.875739298974214,10.931967080322783,-19.305073468643176
2514,6.983892,9.647011616149904,25.910371690570567,-0.3215617823142191,37.15781849867711,-19.883070038402675,14.918294707943378
2520,7.00056,-59.7597769964848,-41.400572021938736,4.231299250364762,6.997635987446303,27.15729088031276,7.418469009376029
2526,7.017228,1.0143312324771416,-3.871228420249727,4.145359761059435,1.833768082671142,-39.99000867284071,-9.7339709587529
2532,7.033896,-0.9218928776589146,15.44207634116716,-5.48648099906537,-15.179747309736914,16.939581583447666,-6.926709868187537
2538,7.0505640000000005,4.108782485125603,9.190407098336784,-4.569297621479702,-1.440110020113798,13.366369527726604,-17.53018635131164
2544,7.067232000000001,8.48637449443665,-5.322827345660157,-2.115633013847701,5.38635424029588,-2.6953628458177263,-3.7583843680175337
2550,7.0839,42.913492102831256,49.09893210786185,10.42416697345086,-10.556761073618343,-18.30327141879767,29.475415955726724
2556,7.100568,-33.742999597021466,-35.98824680209124,-0.3411226438022936,7.361954865711737,-10.432679961899332,-21.961180964488506
2562,7.117236,58.586797299329206,24.441903296826528,8.269209000485432,0.6060108699179629,35.093349326892096,-12.662874724808889
2568,7.133904,-11.20282155287876,-38.514671294461984,-21.378820046514235,-2.163331212931748,-8.585964997835596,20.62594549655618
2574,7.150572,-113.5383424525955,-3.0526657550349903,54.01932136430632,-0.7345113965049528,4.6205466578782985,-12.794313122957185
2580,7.1672400000000005,14.638652688267925,40.38659534019503,-27.144799271830227,9.781720885983727,0.7723736692271075,11.614470269607637
2586,7.183908000000001,-0.5046285837322229,-6.277557595945419,-9.608970723620514,-5.998303589528933,1.9892605463505384,-5.766533062603654
2592,7.200576,-7.150919758814544,16.29614017705125,-10.253360648804236,2.187592382328185,-3.8330794688016088,4.688136799926207
2598,7.217244,-25.507823761577622,11.819869916456296,-52.46450393498433,15.527992359631256,8.242200446566034,8.402965374356064
2604,7.233912,39.53685408653573,-31.49511086086692,24.60624141773851,2.6948395500568125,-15.43188396762114,-13.571843163616974
2610,7.25058,-7.950957687421658,15.954971893095646,-6.918419468823755,-9.599383821092932,-6.183190089506988,24.825839102506976
2616,7.267248,-4.234335132591031,4.023875357481149,-7.532105346261979,33.39156434544999,43.65705015563789,12.580181153793102
2622,7.283916,-56.19902282121083,-22.813042005406466,35.13225755623557,-15.24037349885266,-28.051152491393676,-12.957615235388094
2628,7.300584000000001,-0.7505000134275663,-3.748196414177348,0.3699370568995164,20.88895380223858,-8.459452478721527,10.13866335728645
2634,7.317252,-2.420272873796492,7.139315271900749,14.490655186872122,-22.75285428720237,-17.216936050228142,-15.909686104872945
2640,7.33392,-0.4076327785216875,5.4934674180746,-0.1307360504442769,7.686098305766315,42.13881613238481,6.361331048421348
2646,7.350588,-8.208810059061006,1.2899537129813448,10.30401323958021,14.833960594403957,3.5612785580801205,-14.390925104050682
2652,7.367256,2.3046003237698782,1.0934963856981277,-3.8806804050782446,-7.597481115110368,-11.819263251562656,0.3845936675906571
2658,7.383924,-1.5095665293355416,-9.186743040635315,2.230366221804306,12.077647529769262,-24.98043470881942,-20.33287371694616
2664,7.400592,-5.9508469507276125,8.807839846333458,17.70630368486494,3.158015594316176,20.665854709281767,31.843284707432296
2670,7.417260000000001,36.428257420739136,29.78972117146944,17.10688188358889,-14.415623138672288,16.483588517916218,-9.803446526514364
2676,7.433928,-29.979915140539187,-21.00386529503408,-9.127126638432786,-23.979509946871904,5.482116189332351,-10.98358030678699
2682,7.450596,3.3285669511259286,3.441172754437397,-2.1905588088637,0.4446382472205771,1.124560618852822,-6.760556137454001
2688,7.467264,6.579238498764181,5.336047975336168,16.483251792503793,3.640729080021499,-39.36480516748901,15.211295495735737
2694,7.483932,-8.981104430135831,-7.308671826387135,13.840534580585562,-12.791499058686744,0.7286975879908288,20.154278255639458
2700,7.5006,-13.275107129792657,-8.593530648424982,-6.109687594073649,-24.73203531139203,5.879369440687869,-13.276728005675968
2706,7.517268,-43.321229144750845,-14.939719704124355,19.48785356139392,-5.97330905228378,17.544823640373014,-19.929895439189004
2712,7.533936000000001,54.2156423960823,-3.171288258831876,-48.275655613117024,-4.427312427474886,-5.590035881314673,-5.290851645353071
2718,7.550604,49.34897874929656,-9.12845273897091,-34.707835120166365,12.15742060987046,1.66400984608851,8.115316239944663
2724,7.567272,-34.31579576212403,-18.38123115025384,-3.064695125463167,-4.014495609400944,-3.889124781408822,13.051538799795988
2730,7.58394,15.412706770424212,-15.952161241840246,-9.927038156079336,-37.79914167033232,-2.999210603685535,-3.811021555497032
2736,7.600608,6.190950484916833,27.25021051817757,14.028948766340218,13.787489211224152,20.026941076263377,-7.128324722599919
2742,7.617276,-17.176582398346348,-23.894322482765784,-21.86347071246296,4.62580765430691,-7.878595362886079,13.923959153899297
2748,7.633944,-17.72156509295101,10.752785654418933,-34.31868408772608,20.557570135789724,-4.645414310638665,1.4630639235708238
2754,7.650612000000001,-22.18016741660323,5.242845800768357,-8.820693635660177,-13.083855218762434,-7.358464063407354,-19.85908017582229
2760,7.66728,15.4914517791991,-7.101000017192943,-6.194961727639513,-12.67029927971731,40.36772261168437,-34.15154336449523
2766,7.683948,23.158146768642958,-15.929596542754936,-14.41071227841138,8.639427587955915,-15.037594350050597,35.00219014335219
2772,7.700616,27.01690440517682,-8.070580887777595,-12.926371595619443,23.229347177899285,9.794248543553865,6.371389926645941
2778,7.717284,-73.06609631411288,28.03418062248275,51.13156795296152,-22.922464176964287,1.7012222645164543,-0.3258596478271531
2784,7.733952,26.78161853167856,-6.947528157236286,3.384581224986878,-5.749761036986108,-14.228372126488765,-16.738992805908325
2790,7.75062,42.690241318420135,10.344190028033111,18.824590217998207,20.35792739231165,24.2915826234876,33.82298997218875
2796,7.767288000000001,-19.67502900228142,-11.355786699028078,43.32887927298914,8.54973664056175,-17.50292687945179,2.752856163120037
2802,7.783956,-60.795906194183104,-22.676855516943256,38.94549574973135,-3.323737695198714,-6.794444415960129,11.370728183282958
2808,7.800624,-51.20484657211554,5.827760645186012,-5.777215011841344,2.529977719383977,-11.800651566988751,10.505965936610297
2814,7.817292,35.70818512534029,37.7481797326975,8.284867005986085,22.741529176810133,30.24662164473056,-23.59987935943306
2820,7.83396,19.33851275395228,6.714262748667221,0.5142814793089077,19.11916339245801,-1.0091997349104718,-22.220915090160595
2826,7.850628,14.420656907169128,13.515121699319057,7.199663340807139,3.1260607074036164,12.273067880314386,15.64485650476123
2832,7.867296,75.10494733786481,30.95605040668473,9.579108846366086,7.898274794117427,2.851896897787228,-6.152197476682712
2838,7.883964000000001,-36.22598632188225,-9.150321511753004,-0.9086954386321944,9.02940233173404,17.875958501566235,-4.280540653145319
2844,7.900632,12.804924187479834,-5.475276359612677,11.764471557666427,-7.49710620099296,-11.519104327217374,-13.455030197394745
2850,7.9173,-3.687883091980694,-1.891498129191412,11.88928515962998,-12.923337626991223,-17.08152235759284,9.806518140104192
2856,7.933968,23.01995039798901,23.548741443658205,-20.183661577862885,-6.0964476163941095,-11.729514316069732,-13.904223520697364
2862,7.950636,4.10911890695432,0.1800913538139703,11.63062018181552,-2.3285592176951333,21.4921445326701,-1.3716969807038488
2868,7.967304,-16.71934679631199,-21.603420909749435,-33.286778712748955,-10.288035321623733,-13.299415668603384,5.610636990800682
2874,7.983972,12.881740008548686,12.28051268790098,17.6609073503602,-11.031484040717896,-5.8570423695178455,16.457283483492937
2880,8.00064,-16.934512011755693,-10.346294706675687,-25.385985962955257,-9.931223857631108,-21.39771139796338,32.879327369270754
2886,8.017308,-29.76136268176372,5.487492820619824,16.89882115089946,17.84929691997391,40.12481266052558,-86.26709978305934
2892,8.033976000000001,56.28564273329764,24.0742920883112,-15.613972342869916,27.668077099113884,31.117898694402346,-15.949666657120192
2898,8.050644,-16.469109566039855,8.8616255871576,28.351370280152217,29.062279943975987,-9.237399734823793,-2.346529898108832
2904,8.067312,33.77432202367249,-12.995324579910436,-28.824679750707187,-5.563186027839145,6.095887198465311,-12.834310788751203
2910,8.08398,-7.642120795094994,-10.490116924543392,-7.8998043810703,1.1080206860720594,1.8260984314306747,-12.705333407380728
2916,8.100648,-17.8277027537306,-18.56279019009315,-13.98989280000363,-0.5033409575214876,0.4775662918280829,-27.367229805484317
2922,8.117316,-29.67991321549652,-15.873092080963149,-12.974395571596942,3.6105109271068736,4.256207912648988,10.462519535302071
2928,8.133984,-0.543129299612044,-6.502070211358581,0.9809746986586958,-6.132874468329696,1.9221476972527436,12.672433723098262
2934,8.150652000000001,-8.669782032040482,14.8161777376521,-8.849663179460876,-3.148390885555215,0.7736019640183288,-4.888307952109145
2940,8.16732,0.1337909986355523,4.575896038242272,-9.211158016099745,9.121984062743977,12.270288892910765,-16.857396973179775
2946,8.183988,-6.427120794931053,-33.67425872231482,-2.6294183408619727,27.71519695570705,15.538159747405366,-33.90932525299292
2952,8.200656,-23.327910489140077,-8.261299032281151,-30.093165812867014,-40.855365010961705,-52.36235599554652,42.94500924818401
2958,8.217324,4.528994803534133,17.168521250693356,22.09321539908461,-10.360098480031496,-23.543027412624504,52.8799867279748
2964,8.233992,4.369722932343889,11.02325535617513,-2.4142316271916604,10.264040700180662,27.44649451875213,-13.7718818615217
2970,8.25066,-2.1784915354002186,-3.4539722918764726,-15.007746729998235,7.87131845878973,9.009627135116997,-12.222981624537953
2976,8.267328000000001,26.74547455395578,-60.54196530056427,-40.42433880008657,-3.67028963765589,-21.420856067380363,10.247327424118968
2982,8.283996,-38.8648429657922,-6.64728917148626,39.665273994865146,8.207823192702737,-5.334520996224363,14.30535971878587
2988,8.300664,104.7797837393968,23.31297189596628,-82.3893072072326,15.080410159533391,1.28751433344351,-22.76951987242712
2994,8.317332,-40.09011000457456,-1.0585880795272713,27.368103224762937,-13.474060572263364,13.29815741285116,-10.317139509698196
3000,8.334,-18.26901118017891,15.25152705538502,20.97666501596249,17.14661641143965,7.087522331772371,-15.712121448910947
3006,8.350668,-4.998777371898176,-7.688110647064178,-2.669235103823662,19.47487833632752,-17.94164518197375,12.222134797430115
3012,8.367336,31.41211684381452,-8.402345081994486,-11.373478099839238,14.044206934406477,7.542755147312137,-2.6630817574148944
3018,8.384004000000001,7.678319353568053,9.686062654536794,-3.413886746353024,-3.3032019304313165,20.9702539180073,6.904843107911916
3024,8.400672,-11.062154117245951,4.759980853355749,10.46681375479907,10.709129292957105,-4.260855811071536,15.42576198058469
3030,8.41734,1.8399933720731445,-11.585454867034034,1.4075708225985113,-4.393582208766221,-45.13206163828194,-13.64608456159094
3036,8.434008,-6.967654835040878,3.819686041534613,8.313527541260084,-27.42487168986093,4.559269460889428,6.60961899500028
3042,8.450676,9.411562694881036,31.675212678227584,10.40737617126704,-7.887849885477839,10.13266706413097,-20.79360629911052
3048,8.467344,3.713373239498696,-8.828546600675145,11.542084293938984,3.7349436197815313,29.224136405353757,-20.11901638398952
3054,8.484012,11.312619751995577,-22.38377966708936,-0.7508825198648523,-5.800096165758877,-17.666589118391236,7.038853935743966
3060,8.500680000000001,-19.32739182716557,-6.106686723108513,16.266965781080472,-12.377328652884188,4.255697464497773,-2.7367483303551063
3066,8.517348,-17.99212656909458,35.7301667621558,2.8065977310869545,5.349165835101241,23.13886345025305,-3.9263007709589903
3072,8.534016000000001,-1.559229233081183,7.323767164288178,-6.523971465159749,8.70133649215322,18.457339238190308,-5.379725461193987
3078,8.550684,-3.418070953834417,3.9808884315195296,14.547107492626472,-26.9291177341402,-14.806704236379932,9.90849312952646
3084,8.567352,-7.119577586285857,-0.3468496328293866,-5.070438196650381,-12.944788081229524,-21.248830271614413,-2.9729928747296226
3090,8.58402,5.853284007813574,9.137188677352452,-0.1656991183068399,22.641084529569905,6.42697139988541,13.923462603137908
3096,8.600688,-9.108639091758311,13.923322805817982,-11.628423820496783,30.727316848865485,45.928125586939245,11.56609846568722
3102,8.617356000000001,-9.497514714876877,-15.42065329403396,-1.735685073392085,11.750821743041254,-1.1698152533705777,9.61111770888003
3108,8.634024,-14.091296821360118,4.260134157897245,2.675948887808713,1.7447485595193069,-33.6256069505773,15.467382264643934
3114,8.650692000000001,14.5084361638204,10.672471461141289,0.1891176893843078,1.3414102748966157,21.133617674535778,-25.932883347347143
3120,8.66736,-12.878005506489654,-20.883247909990963,-7.633350140915518,5.958951037832692,14.53239155603396,48.00185249719114
3126,8.684028,-29.94215079333288,-4.723385479255819,-16.29252129090367,-31.92224930036831,29.832475996917346,-36.494620301839056
3132,8.700696,15.146332749790083,-7.185669743281613,9.020388467550276,-7.951214106563872,-13.828384597856598,15.046069955375955
3138,8.717364,16.501335006694973,39.30027742714171,-30.99746335264526,12.635233013471458,-19.62292473736362,-5.116417922996233
3144,8.734032000000001,-0.7491927926424011,-22.589238564176068,29.648211818016897,-23.18757298956045,-15.972499326318792,-0.6623940334042207
3150,8.7507,10.171497694819738,2.2139615006233697,-18.6104274235934,3.57910274985262,-1.8589315762817016,7.878723701849666
3156,8.767368000000001,1.2556651849595255,14.293187466884492,-28.330381370925167,7.574804671769737,-5.845311329800154,-4.31323264856947
3162,8.784036,-1.5111464884010823,1.0030629023590087,6.61840055858617,6.467404621292644,14.636422084547938,14.137876973879214
3168,8.800704,6.62182628922147,3.765307782270191,5.917331891324125,-5.543322430409164,-8.38450041795828,7.229456232087273
3174,8.817372,5.177727117949253,18.239950101085523,-1.0919624137420385,-0.5532019720950672,-40.7170950121028,7.358110307292145
3180,8.83404,14.43090082004969,-5.218076420819855,-2.9878598776637717,3.8342957397445367,30.511456572155545,0.2364529771588461
3186,8.850708000000001,-7.984138185166168,-0.2224199682821908,-4.342104440560913,-7.390221072214638,-0.1411375688180918,-14.962015727355872
3192,8.867376,-11.256564401181112,-3.3705131520964464,15.72337047358528,8.025457819615195,11.865048340456838,-1.6989898919395563
3198,8.884044000000001,14.49469071274165,26.54444913295284,-0.0522167358065672,19.78076233664765,19.843371272954943,-4.2867976878982486
3204,8.900712,2.0065053485194984,-17.283568085482855,22.89257390095507,8.20571450538015,12.975098156118056,-4.712695698916481
3210,8.91738,-33.99572258877838,-22.631118538313466,-7.209554220588531,-11.089521041649247,-19.313804352900235,21.1452989716246
3216,8.934048,11.310859762588432,-12.741209216021636,13.955210104972291,2.8674781550317663,8.384192478488682,2.4731718083846923
3222,8.950716,4.400412546998123,-53.00746213215311,60.25795456710913,8.216031819917001,11.25391053575861,-12.80136811083902
3228,8.967384000000001,-17.613741461666862,64.14025660084461,-52.23505718079032,-4.300730797356832,-0.3764555128913969,0.6533044962127093
3234,8.984052,-14.096794642742374,29.746316517993,-14.475474034154388,-16.164188209429188,6.256291173272441,1.739604589141405
3240,9.000720000000001,42.38047367230671,14.951512321026236,8.607968017238356,-3.4333366253151314,-32.58452495820369,21.164686834778784
3246,9.017388,-23.05727342346767,5.030439698213273,-8.729174087729591,12.02985743923739,1.0184297050554854,14.017860398541156
3252,9.034056,-21.67921031821261,-12.251372888710891,-5.654777795442301,-2.083941544764769,5.055485794317586,-9.480378302714398
3258,9.050724,-8.813575860794721,-26.509399673488797,-18.491176875310718,-11.558248129925335,-5.900811373265762,1.4864795377059292
3264,9.067392,-12.35132426294209,2.8023959119758217,15.976949196494273,13.84187642708425,-32.96937848028128,4.734737198778203
3270,9.08406,4.386699236939521,8.528980645256663,3.983789222587074,-17.336986560720334,-4.709064322675887,12.298632467304882
3276,9.100728,-13.130570807723728,-16.35099920526101,28.783034393279035,-48.33479698641816,74.2209335632435,-128.79320660018726
3282,9.117396,-8.744543207562158,-1.5692515986034827,15.77181209082205,40.94903627274337,9.81372275691279,6.985666446548237
3288,9.134064,-3.542626980518439,-22.3710504869802,11.994674085188576,-6.472112145041203,18.001556431942042,4.138167245703007
3294,9.150732,4.074488254322066,15.42505009406548,29.75696758956442,3.620011415754302,-44.38321848340439,11.23403468017267
3300,9.1674,-9.956239954321411,2.3654800185298086,11.649761067341464,-20.133782674659688,-4.617384450866101,-1.0935005435450833
3306,9.184068,20.35171480607726,3.442293665857864,-21.2363428248865,17.285264721752526,8.167895822412984,-25.328184459021124
3312,9.200736,-36.15830687742059,-17.984979940584985,-7.888601554151976,-10.907300760913378,-12.50348319424606,-7.14305218528362
3318,9.217404,1.6459723759306772,-5.383684717310798,-32.29333856342765,-29.47016817240016,3.718356100156463,1.3641314979388126
3324,9.234072,8.817164950656558,34.57759268469449,7.216041796558381,5.055097866076286,-17.123028607977872,-3.324535506221814
3330,9.25074,-40.050662867439385,14.193042505493748,30.838529205309783,22.70416183465099,4.966925940574125,10.347013304369211
3336,9.267408,36.83872150844794,-67.02094343877468,-35.35378620603405,7.216744611969849,-71.10690794772577,72.21809556203598
3342,9.284076,12.430454116125786,-55.64035895040367,19.082970305735223,23.7268146745758,-43.01350962680227,28.603395124764383
3348,9.300744,18.701247313723517,71.40323449032053,-69.6059078033917,7.488686261177279,44.7297845793735,-73.04746551777768
3354,9.317412,-11.344777790239451,36.26823870918525,14.43632013951076,-6.506204350571825,11.1379333908973,5.941688965396326
3360,9.33408,-6.026538154196565,-21.89991114355713,-5.90345033390253,1.8473263293818665,11.950788392136635,19.34717595057213
3366,9.350748,10.24445412661182,-2.4711105087496925,-33.16405884618812,-1.7035067721894692,-14.72916569889754,-25.644387027743864
3372,9.367416,17.068819595650357,5.695173010005984,3.512503661183528,34.424542905324856,-41.10803018341164,32.62398116992413
3378,9.384084,-2.784926089263612,-9.95134047770616,-4.526354637156645,-12.83482817733316,-8.801237609272766,26.22441040831732
3384,9.400752,-5.914227136609347,-12.159412336241534,-3.138780999388726,-19.008651243414988,40.43026902455608,-35.14697799978927
3390,9.41742,12.839217731364524,-8.527406615516682,30.43323351463895,12.74539203459362,-15.554602437385684,-7.861763038739428
3396,9.434088,63.0698494522812,17.506668344650446,-31.874764902665376,16.074421652263755,-36.29992240488848,29.456200762969942
3402,9.450756,-28.57136337018333,-0.7161922412825412,0.3027651765775481,-23.448241906531884,-6.61583011344388,-1.2764166194364233
3408,9.467424,-33.43723536971832,16.243299499327943,-14.673993089142623,-19.863707572935716,27.35686575417004,-20.772390975248012
3414,9.484092,30.556442284977816,-13.480361476010904,15.281997659689672,6.507199084301242,22.91167787213834,-0.3616300479467913
3420,9.50076,4.916135453037235,26.338770059346352,-20.188369761028436,10.41198974558461,-1.0919360690129492,-5.813417591303874
3426,9.517428,113.17790179766688,-25.477175927327256,-42.21043095759648,15.291027657845436,-17.473598123249587,37.02368427326868
3432,9.534096,-90.02256061449435,14.368656795390535,61.66211673655475,-8.023962916287992,0.9554525782645455,6.536379539381282
3438,9.550764,0.0943418079451776,12.715109674566682,22.325742220460288,-9.81055558057417,26.19140752469797,-39.94897465186808
3444,9.567432,38.2067717479848,6.490722786711606,-6.213670600025549,-7.835633030104585,14.391586335677223,-19.47850320109726
3450,9.5841,-20.76526659893469,-17.106646077747524,0.9241513570124722,16.861410745074497,-18.719131944596874,14.406947523437209
3456,9.600768,-7.57232564130709,0.6082199492484786,17.735098366409716,30.744001014262658,-34.00283648500843,7.533911229712121
3462,9.617436,-5.464754118482057,-0.6283936006076212,12.49082754674803,-42.57796650350528,37.680758525112594,-31.93759051556655
3468,9.634104,-0.6300397254288086,-5.8037797829863695,-3.175646425468888,-17.785073641185356,17.001522884753125,-11.565387985530094
3474,9.650772,-7.912422423223731,-5.324465439883365,0.4911153857005388,32.62405423932536,-30.832010212828276,38.30611760053539
3480,9.66744,16.51978251907992,16.779512728219267,-1.2593289926227698,-7.209973411709672,26.525181686689784,-57.01459708389285
3486,9.684108,-20.07209098280024,-18.72254882744944,7.102999055412573,-2.846736293762264,-11.932933795993751,13.86936306573091
3492,9.700776,-43.45087244646511,18.178899966263984,25.439437095597118,-8.701501882827756,39.51064439564459,12.92493895778462
3498,9.717444,78.82502772420048,-1.8978493186615597,-40.90116363833234,13.207539550641112,7.459162938258395,25.514428028776926
3504,9.734112,-34.6301871497855,-19.972649634423632,-9.007398007613748,-5.254085259190954,-9.45524737664385,-33.968725668925494
3510,9.75078,-16.91416589450115,-3.737911883994725,24.31558316727264,15.654481380936854,0.7503626950011757,-9.14008761761757
3516,9.767448,3.477138685527385,-20.6405857413264,-10.515102491797428,-18.335483983202565,11.828755730138615,-15.631087989356208
3522,9.784116,24.20894701173268,-5.060059786563853,-30.48988259000713,29.683318724033875,39.8109185555147,11.217335755049811
3528,9.800784,-81.8078804397141,-7.274040954773371,69.43366126246023,27.28265609973196,-48.84174018542112,27.67230268916844
3534,9.817452,6.704227789877425,7.775245704488382,-59.25525985631596,-14.787676066049515,11.671057784339569,0.2349873503273549
3540,9.83412,29.538591415343586,43.040628894647234,9.10686854014959,-12.403317550664646,13.045634300673258,-26.31255600613996
3546,9.850788,24.10801185867449,-2.1314549101527813,-19.96577606680404,35.7427069559516,41.73501893750758,8.078893293678503
3552,9.867456,-60.48402983930441,-51.14844637747643,-66.80046490855905,12.440429982302152,-30.57031157655401,36.6478917525381
3558,9.884124,42.38394873575088,33.075665413593924,30.05503166730058,-36.81896075488753,6.316076913356545,-24.020468156200263
3564,9.900792,28.85836370276221,-44.90842951094834,-31.42072195185008,2.4703778961192797,-19.84184471441144,-14.353577075061985
3570,9.91746,7.889018067578402,34.66934634919073,-0.9417723472819136,32.15589864808297,-7.064510764189286,-27.802404491022426
3576,9.934128,8.342390638353802,-17.94839506655446,58.11515900179994,-24.25409292097043,17.69882801909513,13.436803003791974
3582,9.950796,-22.097352956367917,31.704537284072668,-89.22404334473288,-30.50178244299396,7.770450552601268,-13.305350280792036
3588,9.967464,-5.204617107924055,15.773726971698215,6.689732757696965,34.20918138071414,-20.111221170072824,20.139917413758862
3594,9.984132,23.349600131961207,-20.41119662483808,3.89786539447614,-7.379171332357572,-29.49849825862873,17.076638196783126
3600,10.0008,32.99854049822303,1.7553565014673875,19.12719130642927,19.16172988481259,-2.397101399523897,-14.597384328616872
3606,10.017468,4.167888685793979,22.64913031024902,29.5150872078886,-20.256257710013056,39.71703774089733,-17.644542968967794
3612,10.034136,88.00729100375412,-17.229495389705725,-59.39682281601491,-19.28454371207341,-55.28635957857453,7.898852482977095
3618,10.050804,-96.13374206882878,4.852301361730613,163.52860158002176,-24.4026105599963,33.626545464647144,-10.985697814439584
3624,10.067472,162.8858609864956,-65.02903985726579,-17.81174414481534,24.167347735297525,-34.033210270149425,33.62085801217002
3630,10.08414,-19.56219057801456,103.85274564853134,126.69253932785736,-3.3872102951645653,46.97815729659413,9.835716739896077
3636,10.100808,156.76720243061712,-186.27731280776376,52.26358180196026,-28.934276145007743,-3.4412141119809725,-27.327080316791022
3642,10.117476,-133.85057584783627,167.24662575686727,-17.367687795141933,-25.17894909777572,132.64162054936548,-95.63296607255558
3648,10.134144,47.139375221543936,-154.46992664759037,-27.677632920911403,62.48497449211327,3.2434713866079328,6.931064144204276
3654,10.150812,-34.144767756322,135.70700562603923,91.18918404889784,76.39656251033846,-3.317100310537212,7.252101688781018
3660,10.16748,47.335524370344615,-29.41329202417481,-118.1929487775127,-77.35960354398847,-43.007694046552885,2.4347747503918744
3666,10.184148,-11.371674495657285,2.0850838292487035,-47.37261708637283,-105.39491982206208,-13.423124187549558,-131.51545303475606
3672,10.200816,-68.40835016572578,94.9105439407775,-46.11416959206555,90.9364766770986,5.315842090074186,29.268883611675907
3678,10.217484,-144.88714306621102,20.10199746344008,-6.889638436262857,-4.06901648463053,-45.78562341869511,30.251823423935456
3684,10.234152,0.8484729746698285,29.031530920624533,-137.11291572773206,25.853220520907048,9.440173921715536,-8.030768437048136
3690,10.25082,-35.18820543649741,43.891250723376,-5.921584098372422,46.41939153034856,27.35380422700187,3.650854519872814
3696,10.267488,-22.8075243326532,-54.878682273058,-35.48057490742255,20.866227167373857,-15.350555724438571,21.531462662401964
3702,10.284156,-27.15282406205997,-12.58923823225965,-180.02296446326034,4.044312931546699,60.326776153264966,-27.102451405305203
3708,10.300824,28.63534064189627,-93.22181215090022,-53.024231967405065,-32.790258795162416,-83.2270569381808,54.18121452928812
3714,10.317492,-141.04015929186872,-79.32100152792701,-73.11408694380205,-13.491180246601647,0.7647725136251147,-28.55833784599405
3720,10.33416,60.34083273719536,-62.34888790087339,-83.34888902644767,-11.281998790148664,-34.3765330102711,62.224552929403934
3726,10.350828,-31.44396419503789,7.986702813337438,61.44790913066094,7.504654377611514,-1.275288603830496,82.74772108351604
3732,10.367496,-26.429571182992788,-137.59140614026776,-1.1555024279385275,-67.5789165328815,7.845915890125105,-17.754564336557436
3738,10.384164,-22.60886670699949,14.164443147430031,5.05496120744921,20.62173532080476,-14.39858851002898,53.78046442454885
3744,10.400832,-2.4205779862972925,-53.66032727638721,10.823257670812032,-24.23648611887976,-44.52637346667802,10.88513540244644
3750,10.4175,61.20761220123845,-30.35362088756565,-4.295502547009754,-3.406989051095904,-49.04905255935056,64.93185287245926
3756,10.434168,4.287557962814894,71.67076779465063,13.44398013272241,18.22371021503715,16.32552953462678,-2.2671578696648567
3762,10.450836,23.16511553979596,-14.700588929404947,126.06588316431284,-22.508526592139752,-51.47065481138077,-24.32046598561813
3768,10.467504,38.56336821411109,85.70278498230772,-14.16422634441547,-72.54334487339402,-25.160295638238583,87.65930000254336
3774,10.484172,-92.9696169110432,-1.627660959482106,51.56814017684434,22.511286710957048,33.64295446863199,-22.38655547469681
3780,10.50084,111.33204063321652,46.53454916005612,-5.249997682274438,-5.539732871124894,31.10358855993725,-6.247368290508202
3786,10.517508,4.155202811950038,88.1264437450171,38.69512967642072,5.734345843417339,19.15282651703336,27.070482685973097
3792,10.534176,34.89210292280225,25.603403788857428,42.29835716992542,27.30070532611129,-58.97487449392353,61.013621099199376
3798,10.550844,-74.04969553947831,-14.331965615375786,-1.620056326440853,-12.629599386818468,-27.987182178893555,-21.22737535981931
3804,10.567512,128.05173232836293,18.75725605915793,12.325550677913226,0.7913541205296952,14.191763460415563,-34.94862132577849
3810,10.58418,36.85615666471499,-1.0170316654689504,-1.371042928391775,6.89734000283832,20.17020533088912,-8.424469039234689
3816,10.600848,20.231335753111143,-33.612485831059686,14.789466779155436,-85.36414926638275,-63.75182970912782,66.50862174919516
3822,10.617516,29.671171120579142,17.22765354260916,18.14052739902074,71.77470797709185,32.31846921215928,-72.49677235895948
3828,10.634184,15.890029235361045,5.926497287480483,-2.4993246703009917,30.27728431741218,-32.56077633893929,80.08623898091459
3834,10.650852,51.79437481746017,5.772474589554761,-7.833322286901062,-61.64442612726119,-21.242740101620967,-64.85379562308248
3840,10.66752,22.6563646093694,-0.3614277408623785,8.522538932661233,78.71051131800671,38.52773044073884,46.53059281951104
3846,10.684188,38.71588788050066,-3.8943645517856647,6.563240559471565,-1.842736341442528,17.65092697732433,-39.41715206378686
3852,10.700856,6.9455990580325615,1.6631341596881013,3.794474498824052,27.042478131400312,-22.96257851065579,24.84696579365588
3858,10.717524,25.707194358549465,20.675421188348665,-5.8949840951157695,-19.80012047323488,-5.881148274871322,-0.89646722713373
3864,10.734192,-28.671439911262656,39.2244742727005,-19.40861159760116,64.63376214756788,47.67927389623596,-26.22619819897404
3870,10.75086,-32.227154521364895,-39.17031484016367,-43.06287481727,14.141304504835222,23.19892891881865,-48.40625826211972
3876,10.767528,45.38993958301292,19.339443491122267,20.211178726757407,6.926516887416169,-7.384750631406032,17.45746404630347
3882,10.784196,0.4027821436273666,-49.23862175077768,-31.76421631887368,3.879496158296377,7.599385853622856,-5.612314341504394
3888,10.800864,26.03084287003658,33.49753604688373,-17.10333790477823,5.738315525585909,-7.020310423166693,-0.6719720255143302
3894,10.817532,19.559962166300704,-12.478270549048297,8.353991583101083,-4.671509319171856,22.15346674419772,-11.399230884639747
3900,10.8342,73.04417095396627,-6.977224690309669,-1.0782647159415504,-0.7275871105866882,3.3033391998205976,1.978804361918268
3906,10.850868,-78.84786487811138,-7.350400421739975,-11.05560464556449,3.8437668891834513,-15.39213611111019,4.779615931652254
3912,10.867536,-29.524784849013137,-9.614179517286932,12.861173611429257,25.164502156690503,-6.888432800343626,7.951287486062605
3918,10.884204,56.92180323252293,-23.52460907872679,-39.44419848422805,-16.646081000769698,7.034583990745428,14.257872716951304
3924,10.900872,8.666014383732572,-30.169318247151917,9.527664140667603,-23.130131963891294,5.6525560436787785,2.935493793488764
3930,10.91754,-13.13694324573779,97.9115632675514,-6.816624245199705,-6.666019302464618,24.614242861177,-17.099833906032714
3936,10.934208,-15.196338599002276,-8.112891526963839,-8.007858153506895,-0.1879046519684912,13.717811761726368,-0.3998828319467487
3942,10.950876,-79.50425646637122,-15.857405976304122,-9.158638330013725,-1.6756088662555395,1.288709189984926,-3.832655319965803
3948,10.967544,41.82269328370128,30.183328306283983,46.52685566181479,6.615186954223209,8.950110057295962,8.376573492466662
3954,10.984212,-7.157344843727636,-43.85884870867166,-0.054447057512025,11.043753600112618,12.939329923514508,-5.031607980043265
3960,11.00088,-10.872958863812562,4.437853179751965,2.2446681181281365,-2.7192409131778805,14.874353021984978,-3.8803844716425946
3966,11.017548,36.90752958063192,37.14124213141688,-27.773423540695585,-10.723620889793011,2.4504264615469227,-10.5694357602707
3972,11.034216,-17.798973214417053,-54.33037236976657,4.253965745453344,17.10615210428558,-1.660862222070227,4.155751101691699
3978,11.050884,15.05976082455178,7.055595535063335,37.60537591119898,-5.396306188906324,3.81944083358926,8.206519540398734
3984,11.067552,-13.39630008506349,37.20336479890762,8.754475789799427,-3.499916405921185,17.681175425091745,1.7659952352819968
3990,11.08422,32.41901167530869,-30.40348978774664,-1.984730760767728,-7.626675223324012,-4.481410621297859,-12.49465128774689
3996,11.100888,6.017772455891688,9.223300992747554,16.25280529510879,-0.0800731434061656,22.416231425799168,-12.501099647014632
4002,11.117556,6.434796255869831,32.65295489772779,10.02410914872764,4.184485588953359,-6.090278305445219,3.681686405038603
4008,11.134224,-80.59374845962735,-24.710425032135188,-22.294006144380766,-2.164835589120549,4.151399617523751,13.48097979744986
4014,11.150892,34.26806619803757,-6.864194784368914,-15.737896410309682,-4.654458085674795,-20.855580283434964,-13.41620662887371
4020,11.16756,3.1631853644386894,-17.58282234522895,-23.004989486373358,-8.566063620978774,-1.318839153118848,-13.780023339926323
4026,11.184228,-3.0651405381942887,14.601461380072898,42.65131718812434,2.7578261538877564,16.995203355913112,-9.42805086734949
4032,11.200896,-28.121544632179702,-13.697854207826072,-35.04761835865129,8.074793518737447,16.130480983443793,8.568658833602191
4038,11.217564,-15.914390601116558,-18.14009795242969,7.948372844916538,-1.015410943132775,-27.599069810544684,12.389701339570331
4044,11.234232,-6.76406075214203,-17.348220698104786,-5.657435073643001,9.943781286736955,25.95583676868227,-3.5773719458158
4050,11.2509,-21.13026137744689,2.730415340933291,3.077700999414512,-15.582352915206153,12.712519814258217,-8.416346126111993
4056,11.267568,0.936597651542696,2.6423088615150467,-0.9170381813865518,-15.83167357956701,-3.122941715870408,-7.062155508809319
4062,11.284236,-8.042846776509252,6.306839477532391,-4.150993093102169,2.894224129382276,37.74597195661213,-19.333720295429103
4068,11.300904,-12.288985206383495,-4.5544909176480495,6.604927001953594,13.297000993015397,-5.607484976531053,26.28062762129609
4074,11.317572,-14.009509981902257,6.071531188751852,11.527832873232173,4.4920876232568006,-0.2248676187794167,7.146275557512931
4080,11.33424,-6.1660179754876925,16.194396707979692,7.556289503008845,-7.401416663717789,10.435130631117012,-18.80134893256923
4086,11.350908,-7.276570605387864,4.721451772262009,-23.2285278065701,17.947569846279002,-11.21210593070725,4.154927070996688
4092,11.367576,1.634193432925807,2.294139817645108,-8.840421011910149,-9.464403229967225,-9.287970125288131,-2.3615770466808077
4098,11.384244,0.8394121216262063,8.850533184267936,17.886141581237766,9.043152269291795,10.573723603222856,8.098114077913603
4104,11.400912,24.79642862904556,-35.89355496528534,1.5716117243239065,7.593484466734946,-13.585489173583312,4.369081351737523
4110,11.41758,-12.025267049298796,14.74758679001383,-24.526297919079585,4.386390588575245,4.18918677183054,-3.538039936517252
4116,11.434248,7.895282683493288,26.96742145264665,17.832682720453647,-4.287047091119526,14.605092673747178,-3.747877984243323
4122,11.450916,5.949538612241388,1.369031582341992,0.4031262216566933,7.386404229329577,12.604417748686654,-12.282976753772758
4128,11.467584,-7.110474654102131,-26.745981548066013,7.572026269219705,14.927513254090377,-13.38447834930497,-4.991549646330111
4134,11.484252,10.098916450234984,7.57055662966901,-6.23966453839974,-9.448306025075857,-18.76186849660718,5.39396234482212
4140,11.50092,27.287502532941875,5.057874213419638,-4.943347091544063,-30.455883998130965,33.56243032262509,-53.33609756406494
4146,11.517588,8.990909021298645,33.85761869575381,-8.211451437884392,-31.264257934406317,-2.6693709448574947,-21.861634838216176
4152,11.534256,6.018606145194694,-13.156691305610856,-10.977194488750811,116.00778462450296,-20.798639052553067,67.75755994825388
4158,11.550924,-0.1079867633668092,-9.419628400893608,7.145907908774989,19.42647681185243,-3.7629633695140026,11.66739366115935
4164,11.567592,14.525273482498177,-10.585461354263304,-0.4722346575495242,9.106677931045844,-6.296877128471246,-2.3991056797116386
4170,11.58426,12.962883761896691,17.36269418499481,-2.7440739237720058,-65.65670332490572,18.261311578617924,-54.76090571847131
4176,11.600928,-17.919856436203197,2.3169519119844684,26.226078730200804,-6.670561722122198,-12.62094831752662,15.68017548153156
4182,11.617596,20.728258185686624,-1.3332171612653545,-6.846343797466286,38.06343009077025,-40.47103633377072,25.17076140153929
4188,11.634264,26.537437138199778,42.49789460803353,6.305861761966881,-17.42597600158769,50.794652361261726,6.91224543614575
4194,11.650932,-16.928339405653563,-35.96650846769444,5.489197753465461,16.912374943568476,20.03790748983732,-9.201007880442567
4200,11.6676,21.61066135539264,-20.89104426905752,45.16974428120936,-31.97388209945719,-31.331533089201656,4.727998697011962
4206,11.684268,4.824368315379491,9.170276469339738,7.845813308278295,24.61961773689054,-21.033759350248417,8.209444689918474
4212,11.700936,2.4832525935082854,23.340354973166463,9.898325680321332,0.6463043496885557,6.486308016993173,36.044769411219015
4218,11.717604,-14.728021187896546,11.663062993040349,-5.685489857378276,-7.7695721971609855,39.625247569195686,-29.083051498217145
4224,11.734272,5.573148309691571,-8.352318943169491,14.63091889173019,28.34281368858578,-11.958714495402589,35.41488170678156
4230,11.75094,6.140299285087954,7.374251619888239,24.07374868456261,51.39127691231271,-1.6730589400923228,55.55119606281674
4236,11.767608,62.23079207757265,5.947746233746456,47.10835585828541,-15.827325751312191,-19.16516669930556,-8.74311456302035
4242,11.784276,-60.45727201766321,10.098523161074729,-31.20508649945299,-19.822175715718828,10.527113979239466,27.844333659676494
4248,11.800944,-100.99574308620376,3.0862251156279417,-0.8568039942383949,-3.748655567826095,-3.196874340087673,-46.83579549561326
4254,11.817612,-21.20121419891912,6.754769599293924,22.567111885697624,-22.02529495058866,29.03875604229545,15.203200107089971
4260,11.83428,-49.09476493405966,0.8604204966312121,49.712906681853255,-3.604203749025875,-9.62794055075017,10.260106717122556
4266,11.850948,77.69828077444146,-91.06851807361063,-36.70718668601229,-12.922407561272824,-5.432980879709273,21.264673300371744
4272,11.867616,2.892910011803122,22.43062030237474,6.082660798770283,39.484555567022895,13.170240131017673,-4.472077440526192
4278,11.884284,2.3348565457154797,36.873003917670616,-24.67817163281286,-46.79812877522553,15.12327799862422,-48.69100330890545
4284,11.900952,29.815759549015304,13.943565605516378,12.196417953636615,-7.41399142861793,6.715224354369441,-7.521760415777062
4290,11.91762,-25.20111017049137,-25.01963513986805,-18.098334495690104,-21.897325750107925,-18.85119416767641,8.814552405587452
4296,11.934288,-38.91669041907959,-4.385814672630774,2.858420922254493,17.555390033257506,10.137891819369692,-57.65506809637871
4302,11.950956,34.057215953455994,34.0799565144132,-8.185201856487089,33.3051596952833,-1.8783680880413751,21.80942093469509
4308,11.967624,29.53216781510046,1.8078803524800209,2.012768957353719,-27.473253695844075,-24.70133717029748,-9.690063959500996
4314,11.984292,-16.266274848292774,20.33718931172473,-11.856514680482702,7.155388255670294,16.758150626943795,-22.85803137968617
4320,12.00096,25.274386862727955,20.001068203781564,11.490919925727148,4.622806568916962,13.213699097248076,-18.99866941096006
4326,12.017628,-12.069830480739627,-30.79172218491429,-1.32216922844842,18.663617013814594,-0.339121701529864,-10.773922076030004
4332,12.034296,-4.985293310459742,-25.05698618398019,-38.68117192830185,-3.0773311265608534,-35.41487645466435,23.09308881219777
4338,12.050964,1.881320458670228,73.61917093562595,23.56056252231859,7.247413109051244,1.7332006712875805,-1.99344575495895
4344,12.067632,3.0975458802739286,-47.313988629820734,10.31119478556203,9.35127806271682,15.00277188974373,-12.22462931202314
4350,12.0843,-4.450111761307096,26.07179384366941,-39.47409659022706,-28.142142240328003,11.501408065998511,12.266901737419408
4356,12.100968,67.82093020601457,9.161915267765403,24.704894540110203,10.091348995663235,-4.935763500135445,-24.11541811037594
4362,12.117636,-55.023498322351855,0.7224639526909344,-32.95213189053316,52.55977035584128,-31.888312516326607,52.66146515554129
4368,12.134304,-24.450617431817363,2.5068559295443245,-4.329096506928442,-0.913136870694442,-0.6271152252437071,3.695669510218788
4374,12.150972,74.05826660735258,-25.60283029617012,-21.343281301150217,-12.221638934965975,-40.851179791496,37.7695467833423
4380,12.16764,-77.67462962030059,-5.945133100502027,7.721130703221192,-23.703339312256816,14.463516617576769,-28.219234375864936
4386,12.184308,-16.987280104206203,-17.87309515544206,-10.967515599301526,47.437318846747246,-23.137802446177663,-6.750091981621377
4392,12.200976,-11.821434508727776,-9.714417536811272,-24.030327568651614,-75.65318077009671,-13.040509604425283,8.793664249655297
4398,12.217644,-12.985949882692177,24.929284827381824,14.82651741541276,-0.856668225320802,27.26068780611591,9.293820449345564
4404,12.234312,-16.317774997425982,-5.496475420791425,0.6512477542492285,-27.691088405322976,-1.1361964214665337,-42.80481892401773
4410,12.25098,-19.42560348670944,-18.378621900135443,-11.171790773115818,-24.40677922967431,7.9437940610220865,-29.234710106421154
4416,12.267648,-10.278345315960104,-31.23144308721105,-2.3873269763886427,25.058368534856488,-59.206886955213136,9.69649725039557
4422,12.284316,-0.7971972885164362,22.36023057503808,-0.5997218406078764,-43.63855255716072,19.25268226145001,-18.600103655734333
4428,12.300984,-4.563475266127687,11.541773269635849,5.987552581134368,26.49852581840093,23.206830474633342,-16.47178902387289
4434,12.317652,8.757678427253083,17.083889890052028,-12.902574111693376,16.57417206469745,50.88545697017338,-35.997181247168584
4440,12.33432,-50.507081861440064,27.436628037074318,40.806538873821104,-16.212387357746262,71.16199526221658,-36.27292293703947
4446,12.350988,8.767350861874943,-23.566909242045902,13.801960447612949,8.411300627659406,-12.20951131370807,8.747171248648199
4452,12.367656,16.60959405299861,8.542678124586006,-5.450654003915165,-87.0506417815643,14.150655066052842,-49.08171404737896
4458,12.384324,43.17860635593498,-65.82680978010798,-21.54525088681379,50.84933329260599,-55.60192686484699,69.39005845909686
4464,12.400992,-33.955972673398605,31.442685299900408,40.91480323287509,-22.00790325316108,20.74329296157009,24.28860875946688
4470,12.41766,-33.33090623088796,-8.698421834046563,-35.71951557813604,-12.88213405520836,-16.341562420110463,-32.58336034265776
4476,12.434328,14.098542365527932,-43.350387600875,-42.062706727589045,15.440703347162422,-18.76494742601812,13.72834137242874
4482,12.450996,-29.500971409711795,45.39861692021327,30.64386440731077,10.064822166987318,11.54237863030258,8.872719338521723
4488,12.467664,16.101262222844692,35.07252523534668,25.3440197402088,18.158190298602904,6.940204369852523,-4.602261618719089
4494,12.484332,-4.288175840377599,-33.65430656160511,-13.815874723184727,5.841183435700083,-28.41958957781231,6.864591401364926
4500,12.501,-21.088286178264585,19.124359055345053,17.02546328019068,16.438470289954488,-20.24228259016628,19.738492111444675
4506,12.517668,7.132422944049296,33.986918475732075,-25.806972483244664,9.239190504080272,3.10288387542634,9.428627562788211
4512,12.534336,1.1795070798099037,-14.360601844546578,-31.85960973234014,35.60109198668294,-36.90521525685037,2.6583046990927777
4518,12.551004,4.743057157101436,1.994160624530073,35.99789181297427,-26.192670855788684,39.79185133379134,28.40289058914384
4524,12.567672,27.477136754990333,-25.694080873284587,-12.978744357421428,-4.99679377731228,-6.126088196389171,19.835021161061302
4530,12.58434,-0.2732995970013352,44.391084037343546,-11.209346809404664,32.237642926511896,22.926840665849177,-9.926779013445088
4536,12.601008,2.626761788165769,4.08220951617712,-11.3485823965353,14.33191759096036,1.8371429781109252,5.01628323050263
4542,12.617676,1.3402554339414223,-16.271353925280945,0.8403284706915237,38.02945271544361,-5.844279507967311,23.370490158344104
4548,12.634344,33.319604905698284,-10.183635788027583,-15.131395874094578,-46.64370327736152,4.505541452045701,-2.6044201969326704
4554,12.651012,-17.62449294268112,25.69198664140696,8.924156334856692,69.0295880990731,7.750166789993731,43.43286705278851
4560,12.66768,-5.567986548620014,-3.4554082026347315,7.320464683377573,-35.567724280441375,10.141090710665669,-53.87520232236114
4566,12.684348,12.305400090560534,-11.33653828106248,-4.661657685534068,8.892036266691933,-39.992342544598834,12.278112797853929
4572,12.701016,-1.727354039241395,24.95857689953269,17.721462473760027,-3.472758539776816,7.427061607225905,3.330138725758033
4578,12.717684,25.404945582912845,15.60644217182388,14.573475743864698,15.823392982733372,41.05282886343787,-15.185516400900172
4584,12.734352,-38.3155988658874,18.845237471492503,29.150880549285503,84.97953534107882,1.1744229984628056,40.10081569332378
4590,12.75102,-1.60502909204871,-8.544721485173953,4.13784533865331,-74.65651836694808,-10.634430130750085,-41.31524007733274
4596,12.767688,-1.8068257006356812,-9.25458341571925,-27.144297658656928,-15.527299268372133,-23.996258529558368,6.56313256284784
4602,12.784356,49.54807279891921,-42.108408483850255,7.187924260018002,-15.991488197581615,58.692675604419165,-3.903068066411077
4608,12.801024,-24.607178706342037,31.423001267501952,0.6596317363933464,67.1079925240783,19.044878652801952,-33.86595514380117
4614,12.817692,37.233986905929385,21.664145499345445,43.34805034283549,2.39576238129774,-21.448484534574305,51.58515992679884
4620,12.83436,-32.19648281875994,-15.448058669078955,-10.979256769251354,-7.827969413526969,-15.967652794616818,14.78526549142315
4626,12.851028,-10.05774652825374,1.6394660964744587,-2.32139374292946,-32.26715169002155,12.514145059315329,1.870062745831824
4632,12.867696,-4.051588025198479,-3.1380361907994967,10.179356076447952,-21.495209967060514,-2.263901832125708,-10.228670521447649
4638,12.884364,-19.01239552356375,16.44854947454043,23.439799708054025,-18.16399797425427,36.31152412905496,2.760731169195221
4644,12.901032,-1.960052920282625,-9.478289677702882,-1.520073371763325,13.211709877612558,19.176762357585996,-1.5627203829509675
4650,12.9177,-28.61405512721032,-4.2165563918389815,-4.361878029019537,-43.66176918371153,-19.75219496900212,-23.29458116418263
4656,12.934368,-0.9974557478775437,0.8432895733313419,4.138973313492931,-9.180675860967032,16.479983392309443,-0.2019582100953729
4662,12.951036,0.134884489540461,4.631403590205222,6.461000245206749,8.922993310098263,25.59576409545147,10.045823601232463
4668,12.967704,-15.79085689656996,16.993446586049114,-5.174963507846127,-8.100697791308214,-2.4002174124159787,5.608067800661577
4674,12.984372,3.825618230280925,-21.37652155133374,-0.1967620824230902,-10.419324061969649,4.94215926342612,-4.178793409098237
4680,13.00104,-35.925776450793826,-51.7171059150977,24.784559473864697,4.220188771652641,-11.474803047924585,14.834154944446842
4686,13.017708,23.71258223966445,11.276768920797284,-16.971770807668744,-8.46858607938589,-5.274813171665575,-13.450715721001943
4692,13.034376,-2.0516156493779816,13.76134981672922,4.8657429219141015,-11.91085037414334,-6.333521808645388,8.146309840894347
4698,13.051044,0.4077219578904887,0.6349622059529345,-4.413866572454522,-35.63356942141729,1.035624641947658,26.29140479240908
4704,13.067712,-9.638666606590586,20.00165262977021,-9.598742541310209,22.647546266504868,-4.922687291719196,-41.49813095667936
4710,13.08438,1.5962918108462611,-20.151609483640645,12.930332179040253,-3.384736276670721,-16.2032332995201,-1.6918202948942374
4716,13.101048,-28.33038302197988,-30.18240903954642,-22.22799762094366,0.5143625891418022,-20.2231654465717,16.099383755440773
4722,13.117716,28.470812956121776,16.02835702966965,9.40743979466884,-7.368647699938898,7.497835360903473,-5.852461050940823
4728,13.134384,10.325046033672065,9.64091587795079,-11.67938573859637,-5.159307646862748,20.570024142127764,9.747992621532507
4734,13.151052,-7.200662244142912,26.27326232429018,-0.4971747968418994,7.563292663943738,-0.3311503262291202,29.073612027492103
4740,13.16772,6.084198830565409,6.789114553192063,-5.386339904865041,20.058706137684958,-22.996513239053805,20.44844154239707
4746,13.184388,1.6749313368775844,15.7102575142256,-4.943367424929289,1.931440805063625,-3.221576534985734,2.3764252622226127
4752,13.201056,13.781158588912126,24.517284168893703,1.2721653877645078,-25.459134186613937,41.23072012211574,-32.84859758080712
4758,13.217724,6.084263395677619,5.628800801243841,27.01253392725934,39.03749805119215,-2.5791337177402154,25.13235273593414
4764,13.234392,12.779386425983558,1.599691064878999,1.6853774654752032,-0.2307498465420394,-14.701356233985916,14.888916720538566
4770,13.25106,13.137146815554452,-9.246147220389068,-3.4249956809927884,12.312888388025195,16.476518932552363,-12.005260769615994
4776,13.267728,27.76806792312789,-10.658895777595864,1.8382396291894605,1.8804194407223316,4.008103974327594,3.1306688464878905
4782,13.284396,-5.353807193269947,7.473682857439853,24.602565309838795,10.380211275101493,5.298313431900766,17.432164842360983
4788,13.301064,8.793732654526924,14.964058533683788,-14.5496940183189,15.001640894826796,3.767373121720808,7.171251564077788
4794,13.317732,-4.121356880768127,-49.94207796369186,27.18024787283167,-7.940758689675639,11.46413287266224,-9.593123614511835
4800,13.3344,26.65681767970249,-14.713117472711362,-31.764830173982347,-3.275317459922133,12.725075640736929,-25.39957143733398
4806,13.351068,13.83711396210226,2.0515886423818355,4.335517426683084,11.183108772772558,-7.618925082908053,21.98786726308075
4812,13.367736,-49.3595823476838,17.47584323720558,59.31453131743802,-10.983739205090425,-24.398639425116038,26.8391348326522
4818,13.384404,50.82288689251583,-2.747347082035008,-13.529189201731011,-4.277222723176862,32.132170959299174,8.25435449097424
4824,13.401072,15.391249008166056,24.257582767440955,-9.479954706760246,-52.92391613012053,10.640134729845188,-40.154308182319646
4830,13.41774,-17.715610615663014,-1.5661413288615336,-11.476677691297075,27.51741374753334,-27.755052804450404,-38.55812948627288
4836,13.434408,41.75559883353007,5.626749776214211,19.27214822548045,28.98357510030027,-12.802362555306376,9.36232923304592
4842,13.451076,63.57333513872759,38.74999064500809,20.277240509264267,-3.864061192896412,-4.357228097842634,17.61993922750971
4848,13.467744,-29.98445073994566,33.697475353941726,-4.866413192467192,-4.354000695331534,30.67672750703268,-24.054706673809584
4854,13.484412,-3.975388141536744,-30.20918078086457,-20.4563267948388,-12.571437674203668,21.217063269070515,-4.321440477028604
4860,13.50108,27.953337656013645,-5.388913329918701,15.45101384215653,-24.773312958294824,1.808001698063068,-64.11071777681136
4866,13.517748,11.040359292008375,15.91146676759742,-5.580256172138208,8.621461109713813,-19.53369070452219,84.65490163775229
4872,13.534416,95.58615434103424,-7.412720302647191,30.539924828282285,-17.990676160600025,3.4053089216106405,-24.20509549143009
4878,13.551084,-69.10992353889303,-23.542226948573465,2.5853313387764687,4.937149263719384,26.459307458393507,-26.32069176167665
4884,13.567752,69.52061187707123,-16.46764919693489,1.449147560505498,4.321817492759349,-33.033763905982134,-13.963510749185064
4890,13.58442,-49.81875355518452,-31.464076453168182,-18.481873552259437,23.74856384219833,-32.3163855456887,4.411823039831808
4896,13.601088,41.12509561532465,-6.926588743667773,18.19523829701044,-1.0311866842309412,-0.4053034720942694,-24.78346188244233
4902,13.617756,-63.86646870766732,-4.021615684901372,15.049709302114064,-6.793401925493139,-31.460416989360468,-1.6888447153890151
4908,13.634424,-1.95584526766664,-41.79960656967789,-5.533271950218253,4.324247990100286,29.770902289564344,6.29914006640095
4914,13.651092,-9.380635003917057,-39.57269338793243,27.8322372997346,-1.892818401926016,-23.301536081927047,25.54666077225718
4920,13.66776,13.65148844631735,61.535924860916325,29.317568321384627,3.2077818903326243,32.09772090875411,-6.350343507112156
4926,13.684428,63.34384772975768,-2.168636333160993,44.45755514138589,-5.967253279077629,3.260842667422372,-2.826194436551864
4932,13.701096,-121.00233817144571,-27.59131776669095,20.24399049859118,4.880409951996399,-41.18305000059254,16.519876427155538
4938,13.717764,3.008809503561795,16.787103830236052,-13.426313000081915,-0.5007506221388163,-14.6963557456701,9.747381745200178
4944,13.734432,-6.4971057012383255,-54.30034547549586,9.945067271755814,-3.392801430137508,-7.652626452699268,9.245524627227876
4950,13.7511,3.540894812881043,-24.9328564091256,-29.80227390485185,-7.271225460165493,-28.655774936640757,-24.91389588847833
4956,13.767768,-48.91652904180847,4.486469671537699,47.54520067976074,-0.5877888459213785,23.27549137366209,24.67770236661964
4962,13.784436,-37.66647877241524,17.08493443696817,19.678468035838648,9.238265244928447,-27.523600128137662,23.649219689997363
4968,13.801104,-10.049762953845963,-64.52363333655187,55.47626651792385,-30.136165555044293,9.201678569823512,8.704536328547803
4974,13.817772,-85.37420173273993,98.50693401647126,47.33077572950896,-9.041555897178174,6.732666017029543,-28.27890504926543
4980,13.83444,-5.092477322209948,3.510982396863037,-135.46525257635338,-16.414800857194276,4.506216110964301,-11.394623418182675
4986,13.851108,11.06783614740151,-8.727428544553593,3.7633293153411382,-5.368390667914783,6.358609274590525,8.222590123173207
4992,13.867776,-114.64686872505963,37.27643790747712,83.67327866687987,-34.679309194413726,3.9844309230977393,7.257877046167056
4998,13.884444,4.731108833038389,-50.52465050810909,-86.5748498672246,-1.85881354690674,-17.712143131620365,29.3028238820114
5004,13.901112,-38.93146480309224,21.01761327275543,18.7071611055742,-41.22642230705508,12.816694181569256,-31.98568462384859
5010,13.91778,1.5777792376023925,-11.031938180075375,-71.835854207905,-5.167771269913944,-4.148353336405792,27.25823603853132
5016,13.934448,-71.4602698484849,-33.73526126335808,-21.475630890665347,-46.32111007948029,-8.602118731498479,-3.1856551319723394
5022,13.951116,30.987322090227075,30.722149375362346,-36.048741621906586,38.76923312391408,-3.073520362261135,20.49484822057908
5028,13.967784,-19.23946122796408,-53.89847927804057,-6.638799379087756,-27.92384257030834,-16.322640067609555,-35.09024472402528
5034,13.984452,-4.182621459946326,-4.685716389540286,-40.53893620843553,-8.678201831649368,1.8960535384994444,58.79575923987602
5040,14.00112,-76.75989895410245,-72.35307879418099,-40.36887112955756,22.849547891675694,-27.18874309441491,-32.38926841286855
5046,14.017788,35.35263154822899,-2.045410223275727,3.123449522032949,45.184869978323576,-27.734895041175054,23.563160423551142
5052,14.034456,20.643994845853783,27.30315873321749,0.4869917626405229,-49.83714533541212,80.79217793628906,-57.8450569860302
5058,14.051124,-78.4439441213863,-25.063547604047088,-23.364634148218205,4.969154501691831,-41.37679938516608,-11.481413338906508
5064,14.067792,71.25483833348297,68.01882846709022,-14.127857734582324,4.048776902998622,41.64393143446759,45.69360222588558
5070,14.08446,-20.85078919342257,43.84311543775777,-19.91364989312877,13.647941976770332,37.12958100509938,-37.66809998304432
5076,14.101128,-29.27079058752965,-4.832263985326706,-9.438255764988298,-51.699502568915136,-60.51323274017608,5.030257128905944
5082,14.117796,-9.778907106175584,-63.07446732420383,-24.272789672455417,-34.16186795105722,-47.97064731110737,61.21218472369857
5088,14.134464,-0.5565059844615448,50.45651727465514,30.059186587088316,78.81052098398249,49.820441665730925,7.293124441691937
5094,14.151132,127.80693318785066,-2.7132709845926524,-29.210163101564078,5.9219486384918,-4.2378605300802015,-10.739964154720068
5100,14.1678,-8.207095644757402,-49.18204705023686,-27.16412787844116,-11.401455507491232,-35.02028148364504,44.13790259813755
5106,14.184468,52.90495086790416,57.97275521450127,-16.06097916387912,57.33155663439156,60.55304316605934,-95.19391137275784
5112,14.201136,-9.590963567569142,5.254118192751016,43.84414026364972,4.462354321155898,-32.4930160407736,45.32565123592379
5118,14.217804,34.99068335330274,-2.555635192926336,-10.828681127115328,-32.71235605952458,2.8993387773748127,-77.68002427588009
5124,14.234472,-36.89479159521155,-37.36942786294702,-9.54843826427764,73.06839933006422,11.216948120457827,25.529121892953185
5130,14.25114,80.13962774917627,40.57246593536139,19.63725983028022,17.985737574618497,5.613596046245107,-11.862332718710572
5136,14.267808,18.9784166584327,36.74988829315564,61.472526756723006,-1.0239110159277764,22.815730293039245,-13.03386396671534
5142,14.284476,46.5403044883184,6.07285972737807,-8.74075378108591,-2.222698139489592,-27.216079212057924,2.6378918709311465
5148,14.301144,7.967163702734492,4.707053408568383,-1.3837606226006915,4.843318008487049,21.90930312633505,-2.3090326256084777
5154,14.317812,50.49398417244762,-13.799146225492676,26.50430427296768,5.256676158347133,-1.46366955823445,-36.77891118463947
5160,14.33448,13.762283358599362,24.642999216724636,43.70507966456445,12.413526791252483,25.52539467855223,15.042630849853785
5166,14.351148,37.93070914100186,60.22859596071126,19.22882288382849,21.04677167613402,-32.54636552362502,-13.938787940155066
5172,14.367816,-7.8673343053441265,7.885545421153511,24.382487254589456,31.28911343154496,5.617543668412328,-2.28168849834638
5178,14.384484,50.34502766654155,11.88753010962027,53.02033855346077,-14.892012924708093,15.394670890593606,-40.10964350275808
5184,14.401152,-53.47850099165062,20.48022668971891,-11.8504130414466,32.12010275104038,0.8268950750605857,-30.04080940438241
5190,14.41782,76.59231893578117,-22.6873137274179,14.630384127136615,11.303749489480818,17.53927964975056,27.30283504827529
5196,14.434488,-44.80835644102831,-32.715574419985785,12.721406628663935,15.84057716867164,-28.64935359211877,-5.209198562426017
5202,14.451156,50.38595396463848,87.82691748179779,91.96809022481798,2.1206317451222247,38.890112599903006,-7.212674935953569
5208,14.467824,-48.26163064753781,-82.21615849588875,-83.58543962042654,-23.872710151366803,23.626046719657054,-26.226313416037588
5214,14.484492,30.382284868627167,-46.893272177857625,-40.20086576641722,65.72134309333784,-153.5410634146697,55.28190084439333
5220,14.50116,-1.1139308698359949,29.370818017591738,-17.147034069199183,-47.80268252932496,105.31812864319036,-42.26444243000834
5226,14.517828,-65.51884824545635,35.94020372083537,128.28630776776106,-80.87263994559216,92.29744412810132,-33.22248091010835
5232,14.534496,-4.820493120329618,-58.34087835642055,-142.88430361773567,81.08185626324027,-107.52622228480628,102.1828643494197
5238,14.551164,-13.941056495289477,-40.95046935232434,-60.58542652781669,-27.35096481275857,-58.0611828930906,4.166677928057012
5244,14.567832,-7.214424394696079,12.184541073739094,-74.01498762091498,20.205619135238447,-7.109099095077588,38.08376317492574
5250,14.5845,16.013526737710222,9.240209292624746,-22.81296885405369,-32.25196771898366,1.396062600273396,47.89836152481359
5256,14.601168,-38.2396623180241,-19.851678808175173,-31.053183889985817,-95.36963913347884,-30.25653642610329,11.248534193773722
5262,14.617836,38.14078395364033,-20.35549720280913,-68.3664906529263,-27.876867261409718,6.727952255323098,39.99521627645093
5268,14.634504,-48.20241471950701,8.442145257185905,-91.3558755007442,89.60338644925609,-25.196902576552823,-3.189428684281612
5274,14.651172,-26.79404374845652,-24.703094824116626,-22.66989221232265,6.573256966251334,-9.948116120066391,49.56353262815905
5280,14.66784,-98.3560254082711,41.10288085268493,-20.907586381259847,14.957738774888806,-24.977404809758752,-52.94251321177487
5286,14.684508,119.41921418345667,-3.9721374772418745,-17.201212192517858,-15.78650697483562,35.7211681133557,2.606867069046288
5292,14.701176,-21.4579617755389,-34.48990119995787,-74.32561643557105,-100.35628503041508,-38.42290966334809,22.15979002173602
5298,14.717844,-5.844882938676776,-54.24215356865048,56.18862545577721,87.61181282447846,-42.78202749320254,55.23020222820972
5304,14.734512,-71.4821563121864,-43.47415978750877,36.991241946974064,59.40948587609408,19.705920621616716,-16.36758897331849
5310,14.75118,13.301670483633856,5.165233814204459,-71.4522978143939,1.252581451718085,-46.58259714911435,71.8082629287459
5316,14.767848,-22.052894148620936,-21.5561323199936,-4.019021072206868,-57.17628962707055,23.87016288344028,-27.77504979943335
5322,14.784516,33.93707354789595,-26.830685516306524,-11.025724523988757,-57.504001245225055,-17.101128266974037,-60.05568292311097
5328,14.801184,9.61404148208346,1.8540641772864603,-13.736151013938889,29.726704884749303,73.93461710123977,-108.6277202863221
5334,14.817852,-75.91856527995947,-74.53891468958642,-58.78740743786816,90.5487692522421,30.67585876054441,22.843328828071
5340,14.83452,-23.79357929275669,96.48462160706066,132.9197789507627,17.84810037166396,-60.03899743778573,58.30259333455359
5346,14.851188,124.01131123065149,55.13622712034479,25.424891093269306,55.35859950673986,57.938558328148375,-61.06489279722874
5352,14.867856,-120.75440940365183,-94.73934283931528,-15.624873934175758,20.30324525623458,24.08452009324525,-65.21788304171912
5358,14.884524,47.17022016547445,87.88281850645433,46.09817772261248,23.857820844663543,10.764153452050971,-30.51144983491067
5364,14.901192,61.28465651813492,19.0928407623428,55.1031637239797,24.432169689818007,7.858059765541064,8.263310263344808
5370,14.91786,-3.191332970405353,65.51393603029554,15.137703041369493,20.822611029770226,31.46228538642584,-14.487121403013678
5376,14.934528,-71.8592486877505,-38.62663882203663,68.11264518638158,-0.8127179623875147,19.780812203756888,-59.20407608549817
5382,14.951196,81.7461537087421,16.29743401809238,21.81329837175319,23.390228253520704,4.305583849211733,-21.70766800470772
5388,14.967864,14.845564106926858,19.22246886898812,28.249198529497296,13.242184451366493,-14.89845333238564,-20.21621234597109
5394,14.984532,60.02096738891432,20.946886028189773,40.77617568029672,54.913397896726366,-31.47534723686501,-36.81539218650202
5400,15.0012,8.92938719067005,1.4078770452540077,45.30333998541383,-13.772395199673504,-6.713640332631446,-11.29598806978957
5406,15.017868,10.381112115635808,31.288875617759423,0.0334419934920777,3.933371061670417,96.48302460928196,-1.289653415392486
5412,15.034536,41.42258856398749,22.63381623548768,20.40132708515528,12.678484668604876,-45.81085945088954,-31.69468746285688
5418,15.051204,16.989168164729215,-27.319312346137963,18.77651806695902,83.39205088092785,-21.900641033287627,-9.565682814264282
5424,15.067872,-28.179960622984574,64.40796729172072,45.05859485598141,-12.170714805674002,0.3556023859104034,11.71861391465252
5430,15.08454,46.59577722625458,-17.274029355905213,20.392502650024547,-49.85865649173154,45.62699894286753,-23.24302753609789
5436,15.101208,37.197589007867535,17.416778572178007,6.959226635040938,47.7550749513204,42.99650177589547,-108.86868047621392
5442,15.117876,15.484274561313004,-0.1039500594971194,-6.247949305026523,-21.03763401184321,-51.25057243361629,37.84754711408344
5448,15.134544,51.9570620782962,30.17708368181507,-5.116582752602078,15.106895416393328,12.653609118230676,27.93813219933981
5454,15.151212,48.7974343714219,47.869683351976605,58.29779657048459,-62.99707378875343,14.77351854320077,-33.118802660385285
5460,15.16788,-67.1456213962699,-28.550243300855897,-23.144689385631352,4.854913675293004,-10.793884909916253,14.928062366397102
5466,15.184548,-10.913635740569434,2.465164456008997,12.541472511105086,-10.946322304798006,15.244531897762055,-31.48817941007152
5472,15.201216,46.19127616076641,-19.66533551835502,20.27786078607429,17.87548635771654,14.051742695828851,14.849484466629688
5478,15.217884,-15.229070511404856,15.754722942500475,-54.37781340197655,27.25274148736329,45.12833518118141,16.073666549545518
5484,15.234552,31.993952058996925,50.45090903215371,33.46850536548844,-70.70869838848486,-54.86564552002562,101.68946347809177
5490,15.25122,-24.28532491493988,-27.382902949786185,-14.764686855639312,8.1965917396641,-22.33128428323605,31.78962114933833
5496,15.267888,43.34969897421734,-35.66421570669394,25.05640868900037,-8.491240673404622,-12.306432716270152,29.027742689870685
5502,15.284556,81.49274733720546,11.248974276866802,-72.63337163408804,-26.45989935977854,10.54492935603998,7.117432652961349
5508,15.301224,13.972646466908632,-10.133613809038367,-23.86432702231489,-5.534774874324386,-10.07515528921232,-2.0712048634382354
5514,15.317892,-73.22487987689408,-8.430853325575708,-38.65308024382976,-4.116287141176239,3.2974729863064534,24.306630491505988
5520,15.33456,-36.15428431072181,-15.3576108461845,-10.681040015243504,0.2020589291353298,-15.95862597709221,28.040022751864377
5526,15.351228,19.782252769668023,13.525657086820122,-62.72341552566607,-7.145060630622753,-14.493632456532328,13.46696508236851
5532,15.367896,-19.59770136235252,-38.58545363935939,-15.173393197721808,-25.36177304536549,-14.538327530125226,11.017035984729086
5538,15.384564,2.261133123206517,25.27573184710372,-18.62295785014064,4.801763471893754,-2.607152161932473,15.429887471700962
5544,15.401232,12.932355561698587,2.874144993481483,-46.9322468358058,10.329740543277188,-12.335622050230448,26.766977085814823
5550,15.4179,-30.006376737619945,-15.12880127552351,-23.43360382276999,-12.001798236368083,-2.9864437720879984,-5.4145501581003295
5556,15.434568,-11.011478011762476,-37.44535350910671,-69.75940722815707,-3.0017910730923614,-17.430416812138386,9.705266242809063
5562,15.451236,-18.86517944727469,-7.099995853346893,-6.246535835018685,-42.2638380585517,-14.438054731814589,55.09369725899394
5568,15.467904,20.110595735270167,-41.02102539339627,-50.377213890262645,38.46264331345703,-5.520285199428438,34.13858302193192
5574,15.484572,-19.47045643140361,23.144622906717228,12.651061287002191,-31.18121292378155,26.823316908858036,-60.98992214711062
5580,15.50124,-48.95748711011368,-60.11810146953002,-23.800358462287384,-17.6014446690232,-14.2994006853959,41.37312213708142
5586,15.517908,-3.367537263647762,-4.764955287006218,12.392214593938151,54.2537556902964,-48.425964697915774,37.63976667303397
5592,15.534576,-1.5210881482257257,10.594391440216468,-27.597188298677008,22.47253184470127,-49.00650183494868,16.957229310534892
5598,15.551244,26.24479412840705,-19.27076056752223,33.0921816255722,-30.622261568003445,9.904660108854769,14.078171701476265
5604,15.567912,-91.71459233595482,40.07712493444094,-46.42787574335556,-25.243514444990726,57.380230192364266,-80.03259061870209
5610,15.58458,3.398666397758655,-36.17565499058927,-16.771764365278557,-7.341384058857768,26.86421201477296,-7.724500637072953
5616,15.601248,-89.90371277221638,-38.37088806119717,-47.091120303504766,5.561859857620342,-18.58284769893421,-27.655510175457504
