Frame,Time,RightHand_Accel_X,RightHand_Accel_Y,RightHand_Accel_Z,LeftHand_Accel_X,LeftHand_Accel_Y,LeftHand_Accel_Z
0,0.0,-487.9084226172658,-535.5030916917907,-114.11219216368254,207.37203789525563,-19.204389759827716,-35.70929504287156
6,0.016668,-79.29005339487442,-29.788898763584385,-22.92028195127074,-45.94899761276815,-21.926212324535825,104.30672332157904
12,0.033336,-10.862830719010546,208.2976614870568,42.26452179831863,-149.13687758556787,102.37633556460116,-47.75067831221413
18,0.050004,-21.117403293018214,30.151696190892004,-54.90543435343234,12.512773769861624,-110.11725132573424,177.01424898324154
24,0.066672,100.04180565391393,-141.1537768225073,58.19371825668101,39.91119648411545,101.38392877702856,-30.378626792377915
30,0.08334,52.2077188656604,26.528541031493884,44.57706703953783,-219.9841101804048,-63.85605145698021,-8.830275351145904
36,0.100008,-77.40550287043214,112.0404093313264,-127.27346056899896,83.90306472341732,-49.18724389318983,91.21984466714925
42,0.116676,255.92932427894843,98.27740212728683,113.27430039247078,-152.24067641423272,34.67335058935939,-41.68519085721461
48,0.133344,24.37904613701124,-4.35119596810045,-52.57300749408181,104.42652597289144,41.77367749785312,81.36282490196785
54,0.150012,60.926339063963056,208.33564979685752,265.7377786245881,16.23475762026215,-23.61193690716265,119.10842404328662
60,0.16668,61.68993367368472,-105.14527629501931,-112.14268172233469,-210.117032231022,-23.78178910746728,-109.0244860609828
66,0.183348,140.8736761322639,41.97105339113187,28.975189960711354,13.773284118514606,78.79208770042706,153.99758616691778
72,0.200016,254.1090801124548,73.70736785445902,-33.77614522572162,-1.9278131620776229,-3.947145512008831,8.0840815572558
78,0.216684,-10.405317189832246,41.08452358543351,38.49928188414853,-105.4616330701986,-25.41062324985033,-28.88076586829696
84,0.233352,168.30724329111095,14.696951905329463,37.69151174292753,-13.23920533837251,-6.177682182277525,113.1613233467926
90,0.25002,129.8882321274777,-47.63292009283769,-59.21228534388453,-5.987671072797127,-39.2888466088889,12.8908362949938
96,0.266688,-105.28433618551388,-144.72942477308692,-47.66783484109975,55.095134197245045,60.84962801821343,-37.53683722520763
102,0.283356,116.16571768645926,80.25006279901913,38.30270563604136,-5.246036904080127,28.570207035877655,-33.691387397219145
108,0.300024,-3.3688431912353174,85.89938605240683,100.75565476708272,129.3644044850504,21.91611579462463,54.42172569199931
114,0.316692,215.66114045345577,-54.65125903471925,-103.87119021946717,81.3852163377081,-6.472610495837042,-139.0552288459344
120,0.33336,44.25337604989721,72.11347503960596,6.541008252476587,129.87863926336468,38.08017766767108,-77.18407988897435
126,0.350028,71.98595926118347,63.30312133805571,103.48997867895706,182.7490650187417,43.36110248808495,-90.99731085441611
132,0.366696,-188.0461084525936,-128.73933754897243,-106.63006392558442,53.03100319731054,128.33345703809366,-236.4553977334138
138,0.383364,223.3957164726352,107.23653550666944,-33.323460282428364,133.0905344706226,65.10775134258556,-164.06471065339193
144,0.400032,-79.62706572036615,15.54402599779323,-71.09387774385962,50.46406906243568,-78.79053826780441,183.9109356506827
150,0.4167,51.811061172207225,-30.009654424189385,-50.81485419873201,116.4777624837314,-22.86062495190425,-124.45639530319605
156,0.433368,-123.164892899708,-36.331470853925865,51.03736362778559,117.12529539023166,77.2344620016647,15.682451609162484
162,0.450036,131.9840850750768,38.95446323870452,-104.12503386796352,-95.53759110000126,57.406798023677474,-230.5656142928646
168,0.466704,-364.5284311263249,-93.54367371348692,-24.930594390107125,115.47816911084828,-90.51944667738988,99.8472727623983
174,0.483372,316.91613963138127,145.075860821978,-97.38410095476335,-31.76115191917452,-34.8384615686183,168.20166083857774
180,0.50004,-249.3407738490915,-139.94012573856006,-18.665363420155344,104.60843904741756,-13.823410324933857,-11.67707998953196
186,0.5167080000000001,-39.55147578837677,54.34634280436902,-8.631383939423166,-111.66697409053732,-92.64387297545846,103.44730102492952
192,0.5333760000000001,56.53675632436543,21.12121690281841,-100.58603538718474,-59.10204134955488,-21.33534554308575,1.6166010298897433
198,0.550044,-210.25062198231933,-115.03931442919814,122.49704781440488,6.24348087674309,2.986754125916548,58.79858956822142
204,0.566712,-48.45071957740711,21.11253784364378,-92.691453440108,23.0718853710205,72.8652216128937,-64.23528748297713
210,0.58338,-221.320611239474,-29.71517907606172,-19.473329764568437,1.8580604216608547,-155.6456940326871,180.15415087615008
216,0.600048,71.56692885368926,18.354126245601005,17.441767218344673,-47.61008609881544,-33.99146546676553,45.19257794077818
222,0.616716,-33.10802476342728,-55.02720005286978,116.2703232890538,14.368314929273478,-33.956926981510094,-103.78372961432274
228,0.6333840000000001,-51.11622557392213,44.28383285762651,-125.9486630374316,-56.93335682282128,-75.82538334441462,161.36068027515242
234,0.6500520000000001,-101.30649510688868,77.12924732309943,18.14095164776249,-0.583034278884746,-1.6949715345577197,81.12163101805206
240,0.66672,-38.929934626098536,-59.55785835734736,-14.571751944094483,48.13468833075278,19.317282225316045,-75.68886552903987
246,0.683388,-4.443231171880036,-10.555448404815284,168.29299317565022,20.99851993088322,-68.18874585629491,30.74809057714492
252,0.700056,-15.979433630799967,-36.87849890494006,-21.075864707042037,-56.88417492661876,-39.03021306233696,-185.24723032753775
258,0.716724,-11.38752248168672,43.32113984927886,132.60321521668692,127.17417239970491,65.5730069269051,42.68614475000079
264,0.733392,90.35438710476242,43.65726053688912,3.905068472958199,1.3141515765120393,-36.04702961024297,-104.30954772475764
270,0.7500600000000001,24.24829410339972,135.0562843338574,118.72401255229914,81.45191929638092,-8.189289261839328,68.32215091091643
276,0.7667280000000001,-7.270892066403462,60.54760220589711,-20.095226826727444,-26.29922117046657,-99.15254982535252,-65.04010231890805
282,0.783396,155.39699482333728,90.95729022466269,132.2680438325279,13.50699075298317,69.12410346750505,19.38900185473469
288,0.800064,-40.870262632727474,-2.4054122391594603,26.88736893649789,105.95275668967616,101.50135376497778,-91.48858127766674
294,0.816732,118.38613495610888,198.22702584110408,32.9528121212504,-77.22053879438369,-33.28276649322674,58.03112402384601
300,0.8334,22.386986779320125,176.6496616718601,36.11737526677123,132.06993149684047,38.02450055905887,-20.44374605234312
306,0.850068,-100.32015460609354,-27.62872464176718,31.76086739648316,5.723241231137982,-153.94339848780993,91.90190348158518
312,0.8667360000000001,70.35850455864437,173.69247923302294,83.81703401517453,47.28966811143184,97.43961090633258,-133.791705516207
318,0.8834040000000001,176.27246396363245,159.44244052251832,-59.95255104267275,-19.51717242908155,-19.798654981039448,101.4254507081382
324,0.900072,158.00506312399017,64.66049425560075,21.740254876518428,-26.486371002994584,-80.77054865260018,9.29380377152734
330,0.91674,25.88622800668401,47.8666568398203,-83.7278526609606,33.78157340074143,51.28969983229487,108.64687144277234
336,0.933408,5.967800939356327,133.70353711088282,109.6479602341013,131.69298740408126,-3.515985216265776,53.99698310774048
342,0.950076,29.405196016034598,159.75304454015622,-105.84577440168252,-21.8047732621531,76.35409985094775,-28.133855475493228
348,0.966744,185.8888984052128,78.84030588508458,-80.23569073404968,37.85274713225573,-38.790392349764375,50.02227916541959
354,0.983412,-20.15893190413261,-34.42134296330478,16.874837283484123,87.20653600054825,-41.49534719743028,183.3542862571929
360,1.00008,-93.8614187322288,104.85720191562989,-70.0149866777645,-86.19998171928559,-20.025803429045418,-72.52104410421238
366,1.016748,36.24127950044616,25.29905625170626,-5.026655396525419,65.45563410133602,58.66369549182678,204.22868157101271
372,1.033416,110.0504760193287,170.83760285459826,79.77615499725569,97.7046769803354,-44.936836862929454,54.49419067234128
378,1.050084,4.615055777681771,47.90817102035325,94.58822748981652,-50.68954035238093,-62.96898628446074,4.767989034414512
384,1.066752,43.10577741397448,127.33208766958788,-114.9460985540673,91.6032443074136,43.6335398969181,173.68627529852722
390,1.08342,92.736222973777,77.38563933527485,60.173366299149095,-6.896534951031786,73.40251109062011,-42.04278480278484
396,1.100088,5.127616595337541,47.08899681089508,51.93623391746722,-96.00574504152424,44.81447348689434,85.12653168727462
402,1.116756,-29.65519163353055,79.91901381328931,14.014572929114731,45.370961214176944,94.75700481525544,208.31942479521484
408,1.133424,36.95289205495442,44.84447006995866,-1.8741880754368712,-68.64490204389173,92.2237935885044,-236.83429693221063
414,1.150092,332.66488345126123,-136.20918395849856,-24.271025991915707,29.060879748194136,36.47781789126586,155.63453912089182
420,1.16676,157.30171995055022,118.75359583762224,-60.06906820107108,-44.86339006731655,150.01899427518956,140.19910765007955
426,1.183428,-115.93891089818302,14.637634039036614,169.5844473917192,-201.97484781198028,-63.82682577443324,-28.96792007567333
432,1.200096,-230.06362680016528,-187.5072725420469,24.52330685984477,-23.259326531057933,-159.815411499157,36.709058959138645
438,1.216764,-137.13617901114327,20.128575009470868,-18.96168915207334,97.29237699723744,301.0989482599436,84.88103791306085
444,1.233432,13.186478013270277,-276.1059346783362,-95.82412381846794,-218.91459230837853,-105.27621395475686,-65.41230159816274
450,1.2501,-60.55914326916815,-52.86784623013772,107.75010993773448,61.860328607540815,77.6701197892696,46.06953948937669
456,1.266768,-206.82188689097447,-94.41547315184584,29.479569907052465,-100.67553858697048,30.50746002561491,68.71740464256395
462,1.283436,-71.73739922426932,-112.09382379810371,-5.020291569053825,5.008857982651705,53.375919798052735,-54.575061845688296
468,1.300104,-231.81213135522023,-60.39395681528423,11.734887781493471,-198.85041205120555,51.01814318020101,-112.81153023130614
474,1.316772,123.84722068099416,-216.6973716537824,-18.981456456346955,113.49225865230304,-128.14760455917104,175.051789135626
480,1.33344,-73.61228483644233,-48.27631361686176,36.6372246424597,-166.06346163413406,231.46746962386803,-79.50454251630161
486,1.350108,-77.17803016611111,57.622973477758805,32.39498887552606,-77.53305184682269,-3.2163075994012864,-73.16145236033185
492,1.366776,1.831349299744815,10.033978795276436,-102.73005999194314,14.751739349472707,54.753570416743614,38.004581330062784
498,1.383444,45.91697536310691,39.32518080832165,140.60399337632265,-84.55671535692971,17.379411445918166,62.18280796995843
504,1.400112,26.55861415050957,25.14608398014588,-89.16553344416587,-21.61209147325276,-69.29994191586701,-120.05400829543542
510,1.4167800000000002,80.95593164773807,152.2900628100676,-52.37051895939885,-91.38096301451064,-126.55251398760647,118.21253450655072
516,1.433448,82.21990052079568,150.64111157225207,62.400743892703744,2.994782939956988,117.81695635413764,30.992902846935515
522,1.450116,104.10816330843411,33.574120853232046,-110.44580117980408,-107.31685230435107,-109.56185858318416,-98.81269938957436
528,1.466784,46.27902102578825,-7.1409772806610405,-42.38949617673805,57.1737767813345,-104.87029232269045,-80.86883116934825
534,1.483452,56.39965376240137,217.50807257084676,-109.07081264836488,33.45909539580055,47.127320315750254,150.59042023079058
540,1.50012,47.6098535904392,107.96305722615315,8.09876687728677,-1.0211020518186835,-113.3667286918414,-73.40976794125639
546,1.516788,-28.896691504660893,180.4564365366643,21.96239607024659,-27.12479423539357,6.489979811162407,141.51866726542744
552,1.5334560000000002,101.8940171872736,21.35633768300736,-32.27736433305411,74.88696705399315,4.284416454343379,-70.45862256310875
558,1.550124,77.88089036640912,212.07934044715776,5.802530334912451,-0.9948057748157736,9.754951592127782,-44.94799577872036
564,1.566792,100.34442708678432,65.42842791758116,6.805808717083302,-71.49817359267439,-55.74465860307528,4.167749372525119
570,1.58346,95.05456574043085,172.450126179027,15.505765886613183,16.467664319685177,23.420689599088348,126.86727360393326
576,1.600128,77.34528223320731,147.08404276895692,-87.70478935571428,-229.9764881492934,-42.681993603669184,83.9215633367674
582,1.616796,12.696082407592325,27.402242971102467,112.7057109175891,86.02797322720417,57.29982806693692,40.57036099268066
588,1.633464,-93.56951101646828,565.9543545689554,209.7668686688834,-31.724173030322483,-6.387716964153533,159.8570382864729
594,1.6501320000000002,164.9623672863074,-254.00202659408777,-381.3976749749944,-31.077359510569863,-11.962551391307162,67.14738369975787
600,1.6668,-211.04239502564263,243.8333727843257,361.9666048078218,-474.06905167258685,-315.20974736941264,-26.417424422192624
606,1.683468,-47.09459489827063,78.21930406638606,45.029231075719736,605.9554863136814,344.9121818081486,206.195285212398
612,1.700136,-171.6694161124272,72.19038286979239,-50.97078190496046,-84.22228135938117,4.827223601612353,21.709127520969943
618,1.716804,-58.30300203327325,240.08502964245343,-98.87955708966982,-102.72934560160051,-37.71108622773615,233.1397458902102
624,1.733472,-85.88855582154872,37.97419921456438,142.2574937689081,-52.16661175287044,134.1080903165415,99.20214599164149
630,1.75014,32.72433998243271,-54.05241317176848,-34.29393747748527,68.2055195775466,-111.47993174046164,67.4592605309359
636,1.7668080000000002,-234.3056922059391,124.60822784771672,-8.041603485254353,-136.85433681287387,7.726865856438923,120.69354917055868
642,1.783476,-158.37087720831715,-97.22130663819397,-95.7829533195137,20.613349273451803,207.21730635276225,64.84147363407837
648,1.800144,-230.48470687192173,159.23145215865256,-35.7353013377557,31.80554733244034,-13.679557934551823,-146.57564007708783
654,1.816812,-254.46284341949325,64.18260701066973,126.6017607482056,58.28543142024834,176.62997275498094,75.85862753343778
660,1.83348,-167.920048694815,112.29558735275528,-234.6825769232033,-97.19815802590496,27.909457730106723,107.95807973692015
666,1.850148,-167.54783224810984,-120.16612522083354,190.00201216297697,17.701971867263346,-35.94864756447916,140.45308633723118
672,1.866816,-106.83427745383707,94.22037503501832,-233.36040380443472,-34.461464346451905,-97.46388087224848,89.61309352118278
678,1.883484,-301.5835270953356,-46.909628394335385,-284.0056810850496,-30.088925318403327,99.59506753387232,142.81384431048062
684,1.900152,-84.44998333267895,-109.761752560127,304.9788725068538,-30.667635961475696,-74.77861683574761,170.56810811927096
690,1.91682,-254.64337174998957,-141.72308397899525,-427.619790846448,-137.66978758843698,-153.92926799884785,201.38315692044483
696,1.933488,23.65021166506787,-54.75519483050384,209.59293988719017,-13.447255771357703,95.1960915687853,80.56905920297352
702,1.950156,-199.3594178491769,-199.74036540073664,-335.6246211254796,-149.7995754295482,-165.73110052651663,119.59580068355744
708,1.966824,-100.4723514378903,-274.25879758523627,128.37015277283814,107.0164691067164,11.124519454903613,93.01111353682928
714,1.983492,-156.45200381949294,-326.8210671067097,65.45289556725278,-80.50061421901255,21.827244494640997,-21.476263405865
720,2.00016,-195.17204153720405,-359.79690554033425,-43.099337004569136,91.56235609256392,-162.4492895993101,31.64929191479218
726,2.016828,-21.34585492077484,-139.89665544996842,-163.01362111985588,50.82770705416565,-125.90209190891696,-64.08673675565603
732,2.033496,51.5343593239325,-210.310464398946,263.09533307685285,135.89867834104797,143.56913347715707,7.169941758306878
738,2.050164,-122.87546215279087,-268.9795288309248,41.33434509886522,134.84814880628784,52.52707454373394,-214.07314850944985
744,2.066832,-23.80896471866771,-315.74188004711345,149.7057813453172,-50.59526576396841,-44.66303853466277,-76.43300179876378
750,2.0835,-56.79148141125161,-389.2589458196721,-160.07916307452172,100.97774866827116,23.30062608137933,-26.87896185280603
756,2.100168,5.893320262708798,-215.2816347062859,346.4803665986743,-110.40100289314157,-18.46341478021774,-38.44411027138168
762,2.116836,-727.5309991536349,14.11645284140144,-2737.254495671428,-56.09806420436412,-141.23981687757956,15.71081789452876
768,2.1335040000000003,629.2456705930094,-533.4103189776539,2895.4302518477098,29.232847453785972,252.82818361133488,-139.61240602824697
774,2.150172,219.14945635187388,-344.136380086076,521.5911982676728,-12.13556756814646,-2.5363529133545977,-213.0002372172287
780,2.16684,924.4373488241544,-442.7805012939248,2162.6937942115364,-20.449071060606315,-68.87320304556704,38.902562756887846
786,2.183508,-78.31186096271367,-68.02435849490053,-705.643989201969,-28.27983773597172,9.717158856381666,-104.18065330166364
792,2.200176,-464.0644823186932,100.83505612660976,-1676.9050132019297,73.08883061389241,-87.5584397924192,-182.73512919663855
798,2.216844,-397.2826142382189,-131.67173312412456,-1051.6082714360791,-61.813093966263615,102.75868111612638,-88.46913469395952
804,2.233512,23.57436065353398,-141.05929967404535,-101.77620339289332,3.7480915320925217,-73.6529228606954,-115.0683552505796
810,2.2501800000000003,284.9736342631687,-116.3699361448575,545.2947053858267,4.278444718493049,-17.886028578583765,-116.91462047362464
816,2.266848,348.3521155863743,-15.021792761735329,524.8246849042376,-110.15461534083737,52.23752867677696,-101.33076994847414
822,2.283516,344.8104725903652,-106.6858577309179,210.49502936523584,21.400357142921084,-28.79226503281752,-172.40986854971453
828,2.300184,102.28882631912012,6.796984016225416,-91.08302226746515,-35.14221881762994,-13.963300366106196,-113.17358366443617
834,2.316852,-95.48971036016846,-58.25604481337134,-278.0602597641807,-67.24318448463539,-7.715646560094811,-171.33367415507
840,2.33352,-22.15175136227219,19.799827098317817,-243.84063643758307,32.9147213240691,16.986221899331795,-67.9732859928082
846,2.350188,55.27654038933791,-78.4090256638394,-37.15747452816702,-123.00868365359028,-75.59197274926964,65.36064553843494
852,2.3668560000000003,75.5814958206557,6.605882423041674,33.68833478043809,105.31583289334094,37.12958082867139,-202.3268179687104
858,2.383524,150.94257686774802,-33.77657507144889,150.23507097270516,-72.12923568189585,-186.60399221646168,18.097573915713063
864,2.400192,-43.02685629229074,65.2466147639,-8.978771728644318,76.68992852326582,153.57895404970293,-71.62918697031533
870,2.41686,97.86768275046578,114.62801325299571,-19.94572658667891,14.400456192016492,-23.45249205300611,49.78689413286848
876,2.433528,-54.15435471604288,-45.06920979052573,-99.37193341278429,-31.969676632853947,-106.52197942971571,-34.07570860517797
882,2.450196,-95.23084894973542,161.65116044254387,-88.80744058297448,34.26679905654692,63.09577198778565,-79.55174441108787
888,2.466864,157.05817938888708,-5.542568956854094,34.8672629755884,-38.44550355878612,-6.347211947473731,-9.11851674368686
894,2.4835320000000003,9.54801784726738,-8.351171556184607,-11.970471563488688,-53.87325567675377,-141.03675125334232,48.57154044742711
900,2.5002,87.39427549003435,86.90604043530726,-2.067150690681608,111.99279457615329,108.76968883141488,-136.5234214462371
906,2.516868,51.50203241359741,5.375408139954255,-119.71490513351092,-39.6978502603566,-86.88370393870204,46.312361467317416
912,2.533536,-16.01369640280528,109.66394501887238,-36.09917486806014,29.994356766519445,-51.75489277414288,17.097828000239417
918,2.550204,71.95599285275169,-11.407362178586252,-81.35890876272002,93.40766847113132,74.80679008454281,18.820085504349045
924,2.566872,-82.24156043758892,120.21140310888644,14.1002450440206,47.73347131222528,31.869871016936,-28.706451532665938
930,2.58354,-6.870752850079283,25.5607100043094,-41.42118404983158,112.19774272017374,87.60109022176783,-64.54401174296798
936,2.6002080000000003,23.33918194102019,-16.624725653746975,-69.07699482804894,-46.20982652735386,-35.03311801904118,49.22952331620473
942,2.616876,-55.64510461943619,77.75232603836241,-65.99801036604747,-118.02897326988334,-85.79598427945393,-28.961364794894152
948,2.633544,72.15822527160645,-42.27790214895367,3.95186971199713,209.52249899407047,174.61296155451492,-110.24531509945596
954,2.650212,-54.95038136711395,137.5810764400378,-29.50284928391742,69.67235158316512,45.20744227147222,36.58634082154269
960,2.66688,9.170521999199178,-77.37878183702382,-100.02841013640038,19.57330482731465,38.70927387258526,-55.8818040501398
966,2.683548,-14.050462641138624,69.01645184740562,-87.41880390824277,52.11014503862357,53.396982546454616,-30.675568007173418
972,2.700216,61.33430078733316,43.12872229113121,101.16765596520908,14.427874986722085,28.906252866201957,8.369660003190678
978,2.7168840000000003,37.292169187302086,-147.39687823631,-70.6525308580353,70.37556334464864,52.982862016476645,13.198656320739442
984,2.733552,-37.67521347362035,122.64560072093607,15.615252672119205,2.9269615843757,29.14794160331569,-3.603337685879872
990,2.75022,109.36733297915973,54.08832536137146,89.39136842823405,-88.80336475574444,142.74018206313204,-120.12962655323496
996,2.766888,-42.65631191129482,5.725581303649324,-17.837065906465376,-14.139301115723654,-35.85531929576079,39.53304971004231
1002,2.783556,2.399321465880945,-11.890598967094252,-63.36582074121979,88.89449629813618,-24.062592943527623,-34.60409414579523
1008,2.800224,-965.6703209752473,61.08983460296536,-1510.158211313356,-51.27168618974197,-66.53031223333404,62.64217795670541
1014,2.816892,579.8715708861075,-37.45235376676692,638.9117897524243,-91.29298770327978,75.7160801534474,-43.68849439212524
1020,2.8335600000000003,89.83737365692112,12.229598940605207,10.794571995499467,-66.19810843969239,-30.451005437648448,-43.80458289809221
1026,2.850228,67.58563941090088,-96.33458699518349,-92.88888630912083,-24.84799084452833,-55.363662588195126,-32.132908006838164
1032,2.866896,127.9306944609095,-91.45231719046006,-128.9590430228257,-26.29674984460945,-79.63938655326324,-24.3163214850456
1038,2.883564,-25.20007213110003,105.03027744843124,-161.6144328259728,-83.75876012489414,-0.2034043128503242,-56.11731110466201
1044,2.900232,58.62150867129043,-134.43982272749733,-52.769178400500266,-68.51041528927597,-51.191334828181326,-49.96743045763874
1050,2.9169,133.21240716026136,-65.42211907402114,118.22985408659147,-18.797350871556706,-40.26320601687448,-62.42674639988248
1056,2.933568,84.22711822836581,-197.65797637851117,-171.45705045192022,-44.63316137921104,66.23755692217199,-22.553825938040767
1062,2.9502360000000003,-85.56306948327577,-105.46253027347709,-243.44582780584363,1.571943327899989,-91.53098196821466,-4.428759042583019
1068,2.966904,163.75755611254957,-37.5898661955365,197.3515044554935,-34.377194751965504,45.91865706240729,-76.36712434645717
1074,2.983572,-117.12726020639948,-124.7161610955888,-72.18528767306245,-184.91246414108284,-172.235776540043,-30.937901927868047
1080,3.00024,107.7759164585365,66.70379228509327,138.75935889771824,104.566655286701,66.70513126338517,-228.0388279481273
1086,3.016908,-309.8439444961368,-202.91999316302287,-213.9367471925331,15.770969782732834,-43.32788567879653,156.23945225680075
1092,3.033576,30.182320953552853,82.0221418360018,79.04733390879107,-107.67617961870364,-93.41533818432816,-86.50551593204575
1098,3.050244,-182.19657748163183,102.541544306337,3.8035872762697984,-179.29721934978463,-109.72544400252484,58.08875622621645
1104,3.0669120000000003,-184.44343957429743,-59.98946592112164,-53.59828379455968,15.219248813966033,9.872457240019733,-34.34185763744232
1110,3.08358,7.493264818746255,62.238592409185365,58.6509529860524,33.15057308398879,8.107061240549857,93.88702399613037
1116,3.100248,46.527110689798725,17.745259081336144,148.74386208879534,-65.9680840219718,33.46038210034855,-133.79849099307154
1122,3.116916,12.149026670942025,54.17296746238866,39.19223088700866,96.80602879449978,100.6854169752202,115.1612080971926
1128,3.133584,64.84577633032396,18.12633824590901,82.29237994467172,5.577028642031988,22.507361935741383,52.800534551588825
1134,3.150252,100.00300773040826,7.198321196368493,143.42083763333892,-23.968966797540517,-77.0709453298378,2.989486624159369
1140,3.16692,-109.51221491356156,68.91363194515966,-15.55786340047066,90.93066188894566,32.36101949665684,-70.7363275327011
1146,3.1835880000000003,-105.01340087831692,106.65083131251929,-13.476348594288094,-59.94156117242089,-31.679939815839127,140.70148550802955
1152,3.200256,59.765787224543885,-54.719195443419096,78.4461026451894,-47.81429654614151,-146.74141566746198,39.001845945442405
1158,3.216924,23.32040712011179,6.637788341899877,-10.8214166858496,129.19039854210217,-3.4686016163077227,135.0095262549687
1164,3.233592,129.45488594183445,41.79598776130682,88.1629125096303,-73.74138381403651,-181.3237429343236,72.90561438591607
1170,3.25026,-5.73487475174176,11.43328319336612,-98.86693374745778,-33.523757834605846,26.963234305804637,-122.87358270088
1176,3.266928,95.2290719870596,37.83520730425533,-76.01079667944046,55.47927324881882,-133.17761383656074,0.0808254682688911
1182,3.283596,-17.684639688115023,74.72324102240287,-146.89078199330504,72.84021651957407,144.76900716519566,40.09031938807583
1188,3.3002640000000003,49.785285631406936,32.97057647407142,-263.7338971196248,-17.077547074622004,-159.02885313421194,-109.95982515290108
1194,3.316932,129.79113843211627,42.99290562922745,81.40912658220589,168.42272938276037,252.2494247948655,63.67232219089982
1200,3.3336,1.1818551248819436,-106.86054130620096,-190.44702222852132,-70.84794819700981,-185.0707860401406,-94.9444383087883
1206,3.350268,-83.71540344176856,-48.0064856721786,98.31928869776588,196.4368675399366,74.95593675635142,-31.328996813622258
1212,3.366936,72.63982021193164,-85.3911897015075,215.48751859118312,12.190420046616154,-55.07661761818059,-77.05740425248315
1218,3.383604,-167.35594415110694,5.120411203245034,98.17838827898048,45.96500090953698,32.87015462036824,37.351837975744864
1224,3.400272,7.2646982067771795,-73.9990080559092,222.3605483342628,-54.40737474546195,47.98304185619183,56.99319057354268
1230,3.4169400000000003,-108.52115087198726,45.82900414359678,1.1559910488182226,42.77791573332068,-14.00233834532976,-40.29429850515493
1236,3.433608,24.20940099146396,51.46478462759648,72.6543849384846,-17.034115936024552,18.78623246347664,39.15794392733277
1242,3.450276,2.161605016248256,-36.80839930683976,-47.480743947754085,-19.22206106921578,46.26030314292786,20.88800875017633
1248,3.466944,135.32817830529962,73.04086819532974,151.14621377853345,-12.891638503289135,25.758485128939604,-31.871902706387395
1254,3.483612,-179.78474154496408,-13.478365006947389,-63.64121324534791,43.74297581800087,-20.759776861920397,74.31297347928403
1260,3.50028,48.73175922102471,-111.6037570390666,111.43136546348926,-26.127649484896576,-103.43782799538155,26.775182358634225
1266,3.516948,97.90046146066295,-4.4007034896164114,54.4891958766259,-9.202525933098416,-18.077620677853044,-73.45633066765481
1272,3.5336160000000003,-152.31131724044675,54.742338600479584,-94.77309579205064,-146.89863252991404,34.4976371523329,-68.83836832540145
1278,3.550284,-49.68091162823277,-20.08064332325104,-196.8886478427214,107.41513338401,75.96788266896144,83.13264830420408
1284,3.566952,-131.84801764587127,-27.70561256756328,55.63061106302352,31.70685948841628,-17.93246919118799,-85.0465141970698
1290,3.58362,26.058094197769865,23.31527711672916,-40.80336619665657,-28.631823894439883,-18.66706166447219,28.64133180359322
1296,3.600288,-71.17355228356081,1.5609904744971033,29.23712181455152,32.83331767798518,-2.195554792352869,-32.2268890753153
1302,3.616956,-161.37969949772733,7.311221781257916,-199.48573201725995,26.303430706270937,-87.76015258500016,-31.886576709863903
1308,3.633624,2.180966526626655,-3.2618811584074145,126.65784022876704,-17.66979503604947,-132.97400803223658,22.067084928955374
1314,3.650292,-144.93520586264168,17.81531626011993,-36.73680393947373,-18.180956608689467,145.61233632425822,60.548934817079896
1320,3.66696,-200.9441066610688,79.5379834205921,-243.34690915709305,1.0110345539824497,1.3122685871317112,-2.7098841757822942
1326,3.683628,-67.9198741937738,36.05367797379901,-23.80774551176688,7.1012577144148015,9.02671088767794,31.157161948599786
1332,3.700296,-332.6898108653276,41.3181393500873,-266.65225015603653,-30.800354569942574,-5.788680470566689,-65.27255318830532
1338,3.716964,-82.9918268753571,84.01512201025302,-28.767399235032595,-19.498844292371047,52.5965574190627,103.40255618383333
1344,3.733632,-255.15882754419965,57.16168776033497,-295.3197500706758,-35.520572682571895,11.903697750189425,36.05492132063047
1350,3.7503,88.41012927419297,16.84236250430513,94.94436818874534,27.30980751701748,41.47435213830703,-49.09166781262587
1356,3.766968,53.603569751404216,43.59677222124835,-47.386031375308974,-16.047577811791598,85.59632414912198,48.71206351838662
1362,3.783636,-195.81868781369923,40.71009833507937,-547.0215289889481,9.11058504706911,9.606237419168105,25.752957397114564
1368,3.800304,523.4585883236093,133.30140651966107,535.8796310596477,35.29340432158229,45.6976879514023,33.82714529269923
1374,3.816972,96.55631606093108,-78.8227054199956,49.05914584739307,37.756509809457,49.79435154019231,24.2113085036116
1380,3.83364,-144.0686007256858,-86.81253771536578,-521.4834977164992,93.19231525455707,-19.45765589958471,55.574006569707336
1386,3.850308,561.0380287485351,84.19064245668173,509.5276750227052,25.16538569391394,31.119686469588405,54.39019723543392
1392,3.866976,78.85137145098983,-178.51864626963248,55.40528096180327,10.37409602006759,-12.318237360284968,77.82213499177152
1398,3.883644,-254.65649235638728,10.538255052695716,-673.1357380928332,60.181767766149584,15.982014588748871,58.05955686032004
1404,3.900312,486.10360120859775,-74.16240775471783,594.2276759332775,-38.92653646165718,79.97424702197912,68.38681251473102
1410,3.91698,-205.28047527450528,-37.67070131475087,-180.1904801336068,33.68493864011384,-18.290434361952368,-34.55146590026649
1416,3.933648,190.99089524834045,68.51184986257765,175.61794733288292,-6.674996950315188,136.71324397487737,86.21278856489735
1422,3.950316,-55.16043152346046,-52.65532644329366,-33.88173689499151,-104.15526225663449,-64.43544699343595,-57.076564398650376
1428,3.966984,-10.189870675663196,32.57006642185523,-2.682607093722037,-41.39011768700861,-34.18893830511476,22.15833568835823
1434,3.983652,62.97135768770456,33.32317278231559,-51.15694148392232,85.08869214482263,119.18936874657646,-91.85398896045533
1440,4.00032,48.725318230463934,20.586510550988496,74.83030995798151,-31.995677327751075,-43.402726144819,68.6415892543969
1446,4.016988,73.80179720221611,38.77511119495637,128.4337466005597,-56.18210160763026,35.73336137114558,-90.35549673694152
1452,4.033656,13.243336246137536,42.0439352978236,-62.7506704258622,24.76550922899437,-85.94312509857164,-5.393579776829197
1458,4.050324,-129.72356131210054,-71.56142786550782,45.22726644011191,27.382869101878523,20.93752378386754,-71.44838308682286
1464,4.066992,-22.07731433015467,69.06966504378344,-63.86885609287084,-42.90839325607867,-21.45592063219494,-11.45792869121625
1470,4.08366,104.90448635444878,2.9869937779732334,49.175411670932746,52.07399966165751,-50.02460252041941,-146.06812454448067
1476,4.100328,38.497939828812136,-65.16149114095813,-66.0176994861062,-16.659942363008497,0.8096492517472358,45.10777543316762
1482,4.116996,53.388907755882016,-59.43346774568404,-238.49639745115772,-12.79707256472818,-17.837227102175795,-100.14476000650195
1488,4.133664,-83.45814188048357,-69.03354317612548,-57.90108606233417,-5.737885220563516,-103.03892457843295,-65.82819998013211
1494,4.150332,51.78149445441136,-58.754931080976974,-105.33716068163967,-39.237791531177095,-42.08185398688264,-58.27222157463261
1500,4.167,-32.32926267488379,-123.96936819271728,176.47657760344285,-95.29385859404286,-111.50229412408396,-137.8334129087406
1506,4.183668,-138.00010191802406,-40.09448681500323,-287.3975229856992,74.55403488493309,-10.357789028290746,-60.35495215623976
1512,4.200336,13.72753846549713,-76.87840328225795,81.29205483851301,-72.8479521625668,-42.087175094729375,-198.28692470450648
1518,4.217004,47.84759608930618,-92.4620972185974,-82.59680589164552,43.97719053357714,43.08671765931335,25.640205464285174
1524,4.233672,-108.01173170607592,-108.73495151676384,-114.02258885348078,-240.0988165802818,-136.13531500992107,-274.4786496258637
1530,4.2503400000000005,-8.336373193143025,-122.83177564816135,-84.49189099648302,92.72207557481453,109.00254267392864,-12.693614083395808
1536,4.267008000000001,209.92393757851664,-107.30404491701644,127.13875087907424,-13.271441185115377,46.40871344851869,-129.15682931129868
1542,4.283676,-94.41242813185966,-107.79531530101698,-206.52743249712745,4.26541184328334,-28.090049427030934,-45.56485769618883
1548,4.300344,123.98679068839846,-97.29832666336316,41.43805791808799,-232.2162442291275,-36.57326610877456,-122.84021020533696
1554,4.317012,-124.67067757695672,-178.88188042858104,-19.778070958680917,37.45914280109845,29.78200990314468,138.9253021356343
1560,4.33368,6.3144037856673805,85.46671531730979,-112.11951979791958,210.79862210737608,112.1465707287176,12.4351981969697
1566,4.350348,-84.7954277291092,1.6385397147697134,-28.89146786745877,-119.62649137524332,0.7366277361194591,38.80612401809272
1572,4.3670160000000005,-61.47340516990364,53.80195690301496,41.38306164227777,108.11867536021904,129.04849420735692,-43.63104056095733
1578,4.383684000000001,23.221709659607072,10.549604693978832,95.85928446306852,-200.9528530468766,-156.74827932013795,174.00023354714992
1584,4.400352,-82.45062111290957,-2.6273067179624,21.930529567283955,209.30082144737804,41.44832106222565,75.8963993013205
1590,4.41702,-226.8160571470664,251.38780238450897,-147.69410088814232,-144.11493774701802,-8.385784612411982,-62.92621591033245
1596,4.433688,17.47628225187301,178.88895402021677,207.3744804896849,64.58948285416398,23.162731026639893,69.43757762883428
1602,4.450356,-28.59145222305329,245.53228209433928,-99.7701470902034,96.17679510659418,74.21916532827024,-71.49771853865678
1608,4.467024,-4.874945604735988,59.07634874550518,108.196043027581,-2.953309304972855,-60.15334683219627,231.04716165170848
1614,4.4836920000000005,40.50784084796759,263.0155154306182,-5.822992550777996,51.07841954731237,19.99521034925646,-138.83908549600548
1620,4.500360000000001,77.12965734755954,179.43749856841106,80.08207052695059,55.5561980911114,78.13298252233761,16.716975577798348
1626,4.517028,197.53118813693783,80.10229920900406,44.31138809089354,161.76557761266162,61.49483720819621,93.18124695197082
1632,4.533696,126.49931371410464,-38.83023049764269,50.96840392226224,-117.7054786256997,-57.58712849144801,-55.26466553300615
1638,4.550364,246.65699874544936,78.84470066840593,61.3656575834821,-158.4954598253966,-102.09810187267406,-162.40922098829856
1644,4.567032,54.59588243428699,114.93037611419174,83.8757631710162,110.55985204822976,138.81215116572508,116.9342517788499
1650,4.5837,283.14884047157886,-31.03671488468284,-126.82396314891074,26.818983831274178,-71.04956483127148,-149.9550311894892
1656,4.6003680000000005,351.7378537154241,-87.09973387229974,89.33558056460463,-50.42157500009996,-6.557964072439827,-11.60878750449238
1662,4.617036000000001,102.219491582897,153.98820567019465,152.65065662075466,-7.918701395637459,197.6318108951179,-104.33333178009288
1668,4.633704,2.499874921642988,-83.44747123721902,-38.73232790839706,-17.10820200775633,-61.02497344665262,-73.69222661991003
1674,4.650372,-0.2549470386052004,-97.78859810839285,25.66465537773377,65.51836917599195,93.39485861164616,-100.77818404064378
1680,4.66704,162.98253786466316,0.7810502408782227,70.4904299733769,-29.82709289939713,-11.578828884291212,-102.2394258187017
1686,4.683708,140.49301164855012,-110.73871745988492,15.080765205494032,9.01585410652089,-28.77092330874564,-27.411107083057303
1692,4.700376,286.1995163240322,-229.51504574881463,141.17176469283223,-140.90814890770244,-61.22569422678029,-138.72149133906868
1698,4.7170440000000005,87.39822917726943,-125.11073198983368,-45.53040831402648,-114.81762736517815,59.16188366922457,67.68599684340677
1704,4.733712000000001,111.27704941556048,-223.33269857961147,137.7210924849727,323.67003992697573,265.0824632463663,24.188456371384333
1710,4.75038,80.82975557389238,-313.85455454008815,122.81825475517904,-251.83379447960957,-242.1604678943125,19.22858382407359
1716,4.767048,35.75360450253215,-53.46963518571816,-23.510777875934384,2.646852236691256,107.87790061297945,-10.08971800543443
1722,4.783716,-96.71648043751271,-51.11810214563418,48.28489866874753,95.90276364700028,-73.45871131092392,-63.74159803088712
1728,4.800384,-175.37371689858966,-175.36789828414442,22.32537627671435,-26.66800606944713,26.56269528168699,-1.2641195026405256
1734,4.817052,-89.1445048837808,-141.2413570785649,171.39498899015683,33.541202599970774,-139.73302502123454,-47.76222781413699
1740,4.8337200000000005,-100.56949949164265,-94.04359208638331,39.86812627045505,53.09384648682213,-11.088606984866908,99.38751052773875
1746,4.850388000000001,120.41120648351968,0.2013512333695288,240.15805205583487,-152.63629406368744,32.192552461365366,-131.33803208372467
1752,4.867056,69.83756427281361,-47.41617198356133,111.60787594073386,-31.33310617291405,-77.26566515257353,25.345328658510308
1758,4.883724,342.19862221962904,-47.15322586044503,392.4540532799532,66.05270698254854,57.219777369660335,67.37264081034503
1764,4.900392,463.5933537841421,-207.0788914624031,327.03723079198744,42.11910784905899,10.094099904322777,64.89075255116016
1770,4.91706,297.63366788676296,-439.1917742798901,363.27716360097867,4.83954101089557,-35.32518922098626,69.00139779897245
1776,4.933728,202.37613748227048,-373.0832538650081,305.54595298292645,-15.35386248332654,167.3406479834673,-146.07408283779927
1782,4.9503960000000005,-105.69525594096945,-480.4255358607438,-202.1325429029406,-36.109654740397154,-188.05306001359145,46.71565057223149
1788,4.967064000000001,662.3996854807232,-628.3587383064073,1063.4559807138914,-31.48218549824516,22.002854216382055,101.43334862877064
1794,4.983732,-182.0104006696858,-571.7485707224888,-224.3128298717847,-85.92615422110421,-144.44266766621985,-34.89985111103131
1800,5.0004,-256.0060170707414,-766.9996994035946,260.05777277617085,3.7859228741201134,-2.973811936553062,-87.94253320837929
1806,5.017068,-291.0586618127596,-585.1428317221599,236.80899110179095,-164.45277322754893,59.72066141289832,9.52259021494847
1812,5.033736,-284.11782511684174,-771.4628080563216,172.38915052348293,-103.93474966111911,-164.40019163375274,-3.4755266118177417
1818,5.050404,-468.9388697686944,-590.7046874974535,98.5264827865581,9.758546240701875,93.64859058271472,67.873809506235
1824,5.0670720000000005,-514.3519246042724,-671.873513238959,171.3760201357879,110.78470561436528,17.891069441043165,-24.468613898742447
1830,5.083740000000001,-536.6879526959749,-694.9520341349692,179.07708028417113,-127.59651610810516,0.1952266520741403,-147.343475728649
1836,5.100408,-429.2383561403324,-500.888862826166,-30.50211705290325,-144.58052806952824,-53.45564349322314,-80.09940238760925
1842,5.117076,-663.8179085876678,-456.1855737633213,-3.989085114591752,63.40124976663876,-27.14996002076044,-192.54583197416423
1848,5.133744,-575.1977704930384,-418.76661959756166,70.87560545223864,-100.49998631366935,-73.18176533545187,51.31482064423002
1854,5.150412,-531.5514111368416,-472.2312560727592,-352.0109951729852,-10.540436629591325,-162.08326935695686,-93.50720493137372
1860,5.16708,-506.8398364342781,-218.6486842789732,8.345064603182578,32.22419423616939,-190.91588416076863,-0.4491253300001649
1866,5.1837480000000005,-491.425172366758,-156.30026001856058,-293.4075228276914,-136.25941322382846,-65.84221387165975,-49.54967112378346
1872,5.200416000000001,-526.2986427822239,-77.28768671536466,-183.64809982428787,-45.05307736560762,-46.0269774296472,-2.1391076974205845
1878,5.217084,-675.6126342151204,51.11331674839725,-133.21422540821902,-49.95159642815543,73.66249333864366,-97.21625715092296
1884,5.233752,-306.070050659344,-91.32232556283634,-488.46743064377694,29.452156354044547,-248.18254617908605,36.288291425427886
1890,5.25042,-552.1458133259339,569.1970270761672,-186.11365200539376,131.0657594869147,100.11523018786431,65.13498350837614
1896,5.267088,-459.7936537432024,433.8741038939249,-458.1741052576424,-62.45041473087366,-52.05305980530065,-25.991992160359885
1902,5.283756,-470.6324220695943,511.03637607150137,-244.13025939385827,109.7239704510483,16.107666437178896,55.76621300701844
1908,5.3004240000000005,-416.8673051979727,606.6883505684557,-404.4904776028546,-44.834127345899205,66.11970184451754,66.86462429862885
1914,5.317092000000001,-281.31113675995965,227.46240919365965,-277.2354482214207,221.8603794957462,-205.30449496216585,-138.68226692851982
1920,5.33376,-345.9623645283032,373.9230209367644,-226.88563381856824,52.800041085295845,54.473727349635,134.99543187031534
1926,5.350428,-126.61369205166484,503.3833229201949,-465.9171473574312,136.79269665539246,122.58358282338028,67.38597431890744
1932,5.367096,-112.09718939308028,738.855513522487,-286.5177684130532,189.02685067660389,169.72472583358012,-91.88510741246036
1938,5.383764,-158.7287472083685,437.9169120381793,-404.3309857604345,279.6086364732782,59.87165856333861,81.99467127537143
1944,5.400432,-183.9089281732872,702.9846679470976,-352.28272699806257,176.84431571739535,254.9613353481016,-115.92795050794196
1950,5.4171000000000005,115.49628956920417,504.8344425120325,-476.1711466809545,314.76259887005034,-215.910651209205,123.05427227207603
1956,5.433768000000001,-4.747346232209864,607.6614068281121,-405.2561636198361,187.13441340640549,318.4265251318727,108.02084131854969
1962,5.450436,120.30726555869413,664.8299076689082,-307.48033802199745,81.05995598536194,12.080490532931409,69.23858299883048
1968,5.467104,145.64442081144986,658.9671354460362,-179.72989149464135,177.9198096541617,159.9642463057961,108.1065650868571
1974,5.483772,148.22443112971305,572.3675488344229,-228.71674151416192,76.22510669323538,-213.4180555497368,202.80300558368623
1980,5.50044,323.9901140870592,473.8105248527254,-179.25942497391358,-81.45789104731674,-27.544568308144243,-55.09412479941024
1986,5.517108,351.5658549102399,566.5452473100181,-80.93894097548196,223.6615184663962,269.85415904969415,131.00427437406685
1992,5.5337760000000005,483.6216036891432,297.1154099710107,106.18856025085172,-102.800792432114,-115.68278571681547,17.844408776102824
1998,5.550444000000001,318.337650378338,369.864464140339,61.70230385290664,-105.83095840569888,103.19100107936607,130.62981710582687
2004,5.567112,618.7746739476157,163.47239010549325,59.71222404173897,19.931726940920488,-174.20705608479494,181.46581827969075
2010,5.58378,494.8596920502848,34.500326576588165,155.64226334205654,-99.29960521739164,-65.11176322751722,-46.760915151482976
2016,5.600448,646.5960243925329,-34.9702380774363,77.12813915084132,190.3741492323379,18.99763901585724,145.62422378561308
2022,5.617116,635.4413621716476,-193.43333041062888,187.61936013117727,-114.1528213193889,-82.20056959076723,5.899716013106122
2028,5.633784,539.3516215852078,-86.28198572286811,370.2198347697614,50.87169412139105,-14.688436933828603,156.40063285859088
2034,5.6504520000000005,506.6885745870108,-0.2721508307594558,220.75849136945848,83.69264784603929,-80.12857448315755,104.19333607966996
2040,5.667120000000001,548.4411612206152,-149.551744070604,342.56297373783536,93.78530631503104,56.30135855366616,195.72370375632323
2046,5.683788,423.41555624054473,-48.14738701547323,177.4882884836939,23.185752252511072,70.29987717024045,183.712475507178
2052,5.700456,457.98852260887406,45.043147659109565,400.0912698402036,130.98932140618007,-1.376287593273537,67.15273676810646
2058,5.717124,492.9116194159865,128.81193798763223,161.65664307045256,-287.4373600537314,-118.21785866838,260.7554937295109
2064,5.733792,84.96508639739321,56.10757906879729,260.02590575444265,-96.34046856366784,-131.17101250133965,-19.678603454702667
2070,5.75046,242.46137191924865,175.35319998432325,513.3672003863162,167.09428157490424,176.76467284707198,217.13400096599557
2076,5.7671280000000005,-27.97905875549404,-30.61347571676285,141.6469904208463,-207.1835157100596,45.226254934363176,150.85027738784177
2082,5.783796000000001,-130.73922888220858,155.8972643561199,368.3805609299338,-170.32033245128042,-118.05712235928372,148.98977061508572
2088,5.800464,89.97899162572656,57.58953866003965,205.21770893826047,-15.782347420938676,79.33921958915981,34.793144920088665
2094,5.817132,-29.74022290915446,142.28397252717883,300.66635432948965,-76.31957597092975,9.793634319553824,94.6477892727131
2100,5.8338,-19.953891032600374,-121.68368242981444,-50.771168034354375,-120.73711620927143,-95.94356420294838,-8.223291342278717
2106,5.850468,-74.28388857021118,116.47735060696228,275.4998580932198,-243.32461356821764,13.438097238964485,-97.84948577943342
2112,5.867136,139.3909854743066,-27.789790620590665,-10.604622553643653,-160.12680572051693,26.8187899010706,9.662816820799511
2118,5.8838040000000005,-31.54164158027468,-12.704489251741908,-105.08802631781676,-131.68665811690155,-10.07826179422527,41.300317659902255
2124,5.900472000000001,127.98807623486697,-15.74564180167401,-45.28175065021995,-320.569511573304,36.34079026890527,-5.529491980902925
2130,5.91714,15.80424267728396,-4.450135355562483,-94.971830657962,-224.0056038109543,-163.3719177056109,69.9675778363087
2136,5.933808,54.077099903749335,-78.57707456711296,-117.4620911609806,-285.7661213489328,-92.01601314981964,95.65403213424791
2142,5.950476,201.4661661082368,-41.07579884694739,-11.558471490051112,-159.33932529836886,-10.997128034728805,73.8630741460403
2148,5.967144,-13.461815968853102,70.84008896394931,-80.12827714170126,-161.02812473174063,-42.6891539281225,107.16206280079824
2154,5.983812,-19.87209770238819,-265.3917215517188,-113.67647092066996,-106.78607864077802,17.992999638964275,-40.62563339559589
2160,6.0004800000000005,-21.88559992404377,-2.541039683973551,-136.68572128772755,-176.24754463942872,-26.570957198777155,167.60057488806936
2166,6.017148000000001,-130.50556448743177,-80.91295002975386,-120.86259479114388,-122.30337467212684,-43.812818477762384,71.34311288595191
2172,6.033816,-37.09140111448187,-111.50353874751322,-106.6167220505898,-114.31654169452916,28.697045624145723,92.59774638132396
2178,6.050484,-228.75120065422877,-100.53185838476352,-137.16042146336292,-195.21563010534047,38.38344613056353,-33.28259785784884
2184,6.067152,-194.1850907358001,130.8025320386429,-145.6920130413265,-82.90374041110292,85.14016206632448,71.25755989725488
2190,6.08382,-41.37769099886129,-170.76880151666808,-34.96766209823001,138.1168354771246,-75.45825013529492,-35.41024253691304
2196,6.100488,-133.70586768270886,-48.1739852953358,-189.26390243530557,28.94511502310285,104.68861179187654,101.69503641068788
2202,6.1171560000000005,-49.25380869755283,-92.89796733343532,45.33839659285663,132.99138351956543,124.14216286710976,-97.76457947066449
2208,6.133824000000001,-211.29020613494896,-16.87092153153813,-108.13467895916644,57.3429637927772,-72.53475009805985,-68.22150322797884
2214,6.150492,-58.78391583467756,-2.597509796590508,-35.89833224218342,24.23500513189317,65.23445478735675,32.75914130927592
2220,6.16716,-270.2631306538848,-38.48894825022352,-68.86125186963233,116.35550645405915,57.90209313484388,-80.28712188829014
2226,6.183828,-108.4215750052575,-99.58508422678617,-189.1192487141665,275.6517965955545,163.58182165947483,-44.61533183785514
2232,6.200496,-163.27287172748763,-4.253817694307625,58.57153893930473,302.9444051523568,145.20639391534888,-215.2722066428627
2238,6.217164,-156.19732646083088,-15.72152745921801,-121.82325220397928,438.5442398438726,186.4798064859462,-154.7127014318608
2244,6.2338320000000005,-77.95469764034712,-199.05479798990183,-51.90279995450753,202.0999108401384,77.61098340150889,-212.2705262456639
2250,6.250500000000001,-53.33830461411094,65.34480659687637,122.43478434379072,203.5703316257461,142.74549173824866,-177.29120963412873
2256,6.267168,-219.86290603707124,-53.67080539060585,-54.31586128655859,320.48688104381256,51.058535627739815,-142.4229998265519
2262,6.283836,-45.15296377475946,-149.78225507157202,38.739158411835206,42.84306694027751,36.66546533448668,-125.62154848813736
2268,6.300504,-235.32042435730105,80.2069035913822,-54.89642323173349,85.78267689323562,169.42887065721817,-118.77821210793866
2274,6.317172,-6.656815348415456,-18.69551860518625,-24.24992032166458,22.180838020949224,211.42213701880476,-76.63565010318084
2280,6.33384,-41.77677921921064,-73.82374121543333,51.78036175492356,-31.54619752750221,106.3437429672606,-22.4733511495346
2286,6.3505080000000005,2.776820583857944,-56.06463505092552,-37.02430943793132,30.07863086051403,19.06470104587951,28.006357615973577
2292,6.367176000000001,-15.001899592475375,255.8542606816339,92.24856355302622,-88.29709464037025,200.12452690152475,-77.8709540289677
2298,6.383844,8.079809292486146,0.048229681176414,-11.93770837677463,-31.20723386793233,47.50728283069832,88.28083159559682
2304,6.400512,141.41007177541536,138.5368710551392,5.387353667196784,83.50561347394103,-146.70325573550934,-35.72521208111647
2310,6.41718,-47.15316211818112,74.83645280849163,287.25731430050564,-34.2477610672656,40.72434125053612,1.5411776583069354
2316,6.433848,141.2857153482729,192.74800710397187,78.11803416572705,-21.68803227924529,-178.6754578012447,-0.7463715421321524
2322,6.450516,-119.75550608769636,124.75735427326134,99.11519339103708,-37.80143199861325,-227.87291971804103,56.973427699497165
2328,6.4671840000000005,133.54282574252142,64.2146140411705,66.02008760103546,-32.15035499032274,-136.9588939894779,-54.75803171553656
2334,6.483852000000001,191.48901112175648,53.66544173289189,-186.25348201188,56.78120855660805,-48.49700287950815,130.66346417260823
2340,6.50052,-26.249957253024448,103.10946694912975,59.45758939355014,-130.03144210394868,-369.6147140116043,49.38775495508439
2346,6.517188,107.14426407438287,-90.05424127480762,-105.96379535110944,-2.467375418071104,-70.66062050774455,6.596278699794762
2352,6.533856,-40.29134663514297,45.43927964438664,-84.01472610185422,-31.43442881199475,-202.63257070165,-79.18428872178265
2358,6.550524,156.19674983574714,-45.98888653045978,-154.03426412612475,-40.149940323861244,-338.511565123349,43.10379764509947
2364,6.567192,182.07786376257332,-166.18329981984914,-2.789680171979911,77.06766096117522,-163.18934079483495,124.8346911476927
2370,6.5838600000000005,11.211879630940976,40.14486792082309,27.14408710576419,-226.7351676646874,-49.14105533215428,-91.87725014306965
2376,6.600528000000001,104.74459161142956,12.95525605565539,-207.90001318045415,-135.27402815891833,-87.92356515994322,46.48855020822472
2382,6.617196,80.53533802397803,-101.0342832551411,-105.00525941448517,-117.82312308738172,-160.21405508593529,-3.716867575136451
2388,6.633864,146.31541625142924,56.97657922383277,39.721524239354586,-180.86066627845872,1.6351806281543944,176.01646366680717
2394,6.650532,14.815337899538612,-142.60586796239895,-171.06161087113912,-130.18330804988588,-104.9744191000286,-24.776182445640025
2400,6.6672,88.73473353228258,-21.95340284804477,-20.30824355343357,-269.491250734353,-219.3246959813405,235.72863989566065
2406,6.683868,35.384417901088895,80.1598550740094,-47.89014906340677,184.97595246470104,251.81270046999637,-28.02109689396313
2412,6.7005360000000005,68.83902119825717,-0.4671847529864337,-82.87612835465602,95.84185840819376,161.17416022952236,-59.61427672742786
2418,6.717204000000001,55.333985256081576,20.48707379649211,-31.950360860688757,23.30416913314321,-60.63737669918305,59.983881525328414
2424,6.733872,122.0523340264928,62.3686693479269,-51.17967478600667,72.56046701633319,161.205210776851,-108.75266181071297
2430,6.75054,-121.86251663178246,4.449686318681952,-29.14861571000923,152.27833988297067,72.5482281605741,6.3930333424936805
2436,6.767208,182.3590393746135,25.57644207381288,-42.01726152258792,175.18782730932696,151.89560863158002,-94.9750603808216
2442,6.783876,85.43762177853944,64.96095632717147,-34.028569638969294,152.36168935757206,142.4780489210267,-145.65215983684251
2448,6.800544,-8.367282837491175,4.706462642775136,-50.61577028272756,131.1560490918622,144.23132579200404,-102.0263755903112
2454,6.8172120000000005,8.639925565008507,-27.52181895280878,24.39300500554941,248.4150152430277,135.84415115796835,-95.88159971501722
2460,6.833880000000001,-45.76566870834717,134.18856257778793,15.489483880818987,-117.31531681295058,9.97809879496104,-100.84130321001965
2466,6.850548,154.2469246238202,29.32752624162177,71.28271278786426,68.20401918924335,66.64045531143937,-53.06235904455102
2472,6.867216,-257.4334336852838,-30.082037128876777,-1.930612221785532,150.8318408041346,-31.41160299187837,48.25764126857074
2478,6.883884,99.1998287257674,92.95718602663504,164.67722730246226,-139.4235725989318,-23.045783634842323,-108.35081007577848
2484,6.900552,-79.38859903853258,-25.018185758831383,109.09349447416795,-3.167756172121739,-10.130974477808984,5.27730405417404
2490,6.91722,25.966587328991125,37.92498121855152,0.6296661244843023,89.9590357691174,-1.1295694130421443,97.76318451741722
2496,6.9338880000000005,-152.3438515265653,-101.43401549869506,68.69807666495998,-161.93833041338172,-104.16855299673418,56.285183897386574
2502,6.950556000000001,29.035171078960342,-7.524225412028869,26.181847754318024,-22.79513074442855,-25.068045881646192,-11.4553443255573
2508,6.967224,-28.95721827383179,2.892064099547307,10.68274435361706,-21.519737602234866,-15.663582792916635,173.60885425057575
2514,6.983892,-58.95520271992526,30.10818727449343,-17.1849170754001,-248.99257057137527,-74.55625547507881,-12.726107194662
2520,7.00056,54.56130748817238,-93.94651858341857,33.55232760222344,-57.809440769164326,-18.171212429126683,53.13466705729313
2526,7.017228,-111.21098066281688,6.65356220425279,-40.17746957945583,-116.90776169635672,-46.730197857104415,69.51755280629658
2532,7.033896,-64.64498476614048,-37.67330409294812,-12.9608904082482,-49.73896092375613,54.83928473984837,-16.340321511939536
2538,7.0505640000000005,-19.663328333688284,-36.99878155984761,-11.611804816795209,-6.891454875283656,-108.35495087740728,37.425037402497
2544,7.067232000000001,-37.74761655689151,-13.954222026079412,-8.550435923903628,-33.6230965484626,1.0248002332779222,-92.49984563847056
2550,7.0839,-8.798534889425653,28.29472579042551,35.014303163508885,-201.1296983047728,8.958285885915025,-50.02926465976005
2556,7.100568,-18.29882906504671,-9.804719207391578,-34.068116753462434,68.84467546111624,8.699906693236073,-16.138817743974357
2562,7.117236,-87.46209534867516,-37.1769125570532,-16.385517199083235,34.40941955021984,29.319616149335328,-41.852487423175816
2568,7.133904,40.66035451852904,-29.774354052023483,-41.23824199046595,1.873689494219016,-13.323356944617451,6.849890500032597
2574,7.150572,-114.63952220391586,37.17196956370761,24.37324120334254,71.10067453912379,81.77347464043794,-122.11973748857682
2580,7.1672400000000005,5.4028625025533845,-160.4759026594217,-138.66357055240303,37.03954406730715,43.12703943295512,-89.85261983987932
2586,7.183908000000001,-5.243400659193471,0.1257553433094393,25.993338976581853,2.500165912300031,-3.06377459038874,-15.39814730527821
2592,7.200576,21.761538029685724,29.996139290006827,-6.891865072650997,24.746745277567108,-35.86614013253476,-36.25142825362742
2598,7.217244,4.178127236467626,44.618672769243545,-3.192741179251282,-32.004103144788914,42.06339706085159,-63.597540164772354
2604,7.233912,-15.0358754695122,-30.679264731486075,-56.05527266730624,-1.0541813419711374,4.950899544629703,1.421337239827464
2610,7.25058,53.19362551936608,8.724394360135031,79.00423770502351,-16.024315342979207,27.71685245070961,-35.93044437451579
2616,7.267248,-18.11962917490188,-28.86900396489314,-61.84411490506893,17.388363445468613,-4.374988675513776,1.9753635402370888
2622,7.283916,15.19550205807066,57.12214710878351,-21.53577036830499,-88.41452664690715,-74.71302318524917,12.157111054140074
2628,7.300584000000001,-108.70994064772134,-157.82933957693882,59.94115394072065,-28.146763647274184,13.379596777645842,-12.087788522479146
2634,7.317252,122.77931941039736,129.04402661105,24.358165705721497,41.85143482946538,0.4148829561593219,104.49608102706398
2640,7.33392,-1.2332576959019796,60.2643214194914,39.63909163242681,-5.144489580016283,15.094770034104595,70.76218435393245
2646,7.350588,36.10172925146709,-30.88437763436962,-5.783008183796346,-12.899027477992874,-7.226723729964679,6.675383198457397
2652,7.367256,-33.89495675776898,16.100842759728216,9.766443170489904,2.671454852805198,-13.679663733445848,29.434103540208937
2658,7.383924,2.0947005411133213,25.959850251527826,29.312752460743184,10.278312099069982,-17.90944592555514,8.937821967729874
2664,7.400592,27.992281045706093,9.49516020077538,-21.08518914893981,61.21925083964455,-12.078114070511528,64.26565912240935
2670,7.417260000000001,24.62465986296287,21.410308503723304,11.769868996067926,21.49589807149532,40.99719827425295,31.347801174587413
2676,7.433928,-79.50526568065021,-63.01185703754056,-70.20529904075808,15.716715296913554,-0.971740790139828,11.119142830179529
2682,7.450596,110.19014537037056,56.61921388420322,53.47895428114661,47.78237949888241,35.87411815977051,4.164106717941578
2688,7.467264,14.66363154641913,18.45236350744165,-18.04213158725508,40.66386093166562,-17.7183997238188,24.135700935650316
2694,7.483932,-58.3008759086177,-21.45392898601829,47.04883783470223,5.9939468820425965,38.99431781185013,27.64904375451497
2700,7.5006,90.81763949737166,32.53199674338505,-22.89278363972992,16.691775902492573,13.29258242932837,34.710352582745095
2706,7.517268,5.8412618560692895,1.9263076661724636,-13.187423580474007,-19.82428617101744,-19.10471399351369,-58.29369793224332
2712,7.533936000000001,32.7361538047323,-13.906246112414829,-14.041329084890872,-0.228921621128008,11.959559417500362,19.41151069704421
2718,7.550604,-4.3083988957344825,-3.3214056597840376,24.428384405224755,13.3805604016163,-2.314019337622387,33.935091216744624
2724,7.567272,7.657731708518664,-21.346110216465263,30.37584053194599,-37.64518459654426,-9.651259224128308,29.13825192973743
2730,7.58394,20.10201631502701,18.43184060514256,11.873072753798631,-22.384809796079345,8.613184553051658,44.94964335685344
2736,7.600608,-5.952076563686839,-10.007651881882577,8.767954061451823,10.660786632484976,-16.956311669601916,-6.032269452585546
2742,7.617276,2.8307374738063054,-19.573153612897126,3.058706813996209,-54.07530256582156,-42.31358014597181,50.59254935030589
2748,7.633944,6.851106231992351,14.62574230757352,13.559338309740838,41.70745549057648,-7.325675409249783,-50.51555038474803
2754,7.650612000000001,-6.295693617221475,9.608658477605363,16.0013574440999,-42.72648029922796,-2.2039147965578305,-8.549958544451007
2760,7.66728,-14.78627909237837,3.709439551079627,-10.298091088540051,-6.0336272981592085,-3.132229638418437,2.407839791278196
2766,7.683948,-12.521135510931488,2.11368318807071,-2.154464463317188,3.276977924805041,-14.063892651921664,-5.097734719299812
2772,7.700616,11.42804829032921,-25.76900134403546,-16.615721800597797,2.399750834392403,-30.99532365086952,-31.09260537085526
2778,7.717284,-9.977435009361168,1.851732005147162,8.970613662110836,-10.17298767500338,38.54309304394153,-26.790114994918863
2784,7.733952,-14.676023827189043,3.9205901486577366,15.27891223851509,-18.96231122458951,2.2698228178664746,-8.446881657220342
2790,7.75062,-47.5132166828257,8.695885299943395,5.457831107486584,32.36662872599874,-11.854202372051317,1.1767124416658454
2796,7.767288000000001,84.15995309273256,-33.56000637873341,-24.97068572757961,23.054721030132523,-24.790585742043724,-3.9351078318675743
2802,7.783956,-30.01754385347888,-6.401234076917945,-21.01572708277785,-14.935905589693764,39.87287012553469,-19.33020406035593
2808,7.800624,3.4211425627670278,-36.30218080905566,24.867089569060145,-11.570163376675968,24.191521010161665,-28.28239447952833
2814,7.817292,-13.503523309235682,-3.353938044773852,20.0673530609552,-18.14094836621934,-2.586380113711069,9.305677425629897
2820,7.83396,-26.25402086321718,-2.9204686974441643,-25.33591238417232,3.5533470661998843,-46.88196944974839,11.347731644173646
2826,7.850628,-24.2265132330626,-33.29838688923084,22.055317491861388,8.10492615614114,-12.927190413129033,46.91456916947345
2832,7.867296,31.238315588882703,54.07455440678385,16.69058166907059,-18.50999425519324,32.585446421994945,-33.49306451734005
2838,7.883964000000001,13.892988528694469,26.274852694423608,-1.02466012574405,-23.66800692377427,37.67374286293105,-26.029759755899324
2844,7.900632,-1.62170799801846,4.733889381490252,-11.522823597578457,-29.239720423575044,-25.80127352717222,59.68406982086695
2850,7.9173,-1.4927368569616908,1.339334557617411,10.9843536575198,26.730299568010704,-16.793101925372778,-43.465641719852
2856,7.933968,17.936854588780996,-0.1855594121679176,5.292219004750288,-50.20327797270028,-35.81948177594936,72.17993837322356
2862,7.950636,17.99696379410797,10.343059034365252,-0.515423228916652,32.743276166727426,32.97995817166142,-57.19671970980709
2868,7.967304,-20.50971798324056,-0.4362505360200828,7.288125425776184,5.184984440950039,9.835618634181088,-7.75566976431973
2874,7.983972,-0.1179685924741251,13.080573668830278,-0.6792796196156452,7.556014372291941,2.46558750805975,-15.707984115669056
2880,8.00064,19.51079512212668,-14.189431873480489,-6.961189778420266,-2.24867754258805,6.900581347924159,-33.6036815629987
2886,8.017308,-6.227397607780015,24.836215921223697,3.107820575253431,8.49575298098501,5.489441444562693,9.571669582854572
2892,8.033976000000001,-1.868463103502075,-19.7415551784492,1.1600497888829508,6.959699094791181,-25.006023799996683,36.07715449123789
2898,8.050644,9.267254061675594,19.024340426668136,64.26719282543209,-4.70183258572799,-3.3459582972907134,9.299538487614855
2904,8.067312,-43.44376055831842,23.38006582936313,-8.68499626042845,-28.512756291327904,34.61150624937095,-24.27598684471934
2910,8.08398,22.7659651868382,-0.0215005060897084,26.62243853812416,30.650134839511647,26.436808591271078,-38.70357823744253
2916,8.100648,2.3841117928967424,-13.17237159486375,-27.49854035149465,9.82907630226071,-7.88682406900779,31.0953549871524
2922,8.117316,-1.8691194003773828,10.340637246468187,8.12966827646088,-17.59068659634696,-36.3003113166188,23.97858313084868
2928,8.133984,-23.541600154172624,-9.528574914322348,-39.97317350751614,-10.872186064799871,16.611012006788513,-14.1440992406208
2934,8.150652000000001,-24.43662603264389,4.880111725158894,-42.54423971945615,-32.31032193941141,49.68064446938155,-12.47555365515227
2940,8.16732,10.687321881373194,17.59263991330548,20.922604443841777,18.01378078506246,-35.790001396834114,-2.2121813518399627
2946,8.183988,-2.82583832579777,-8.433731969594639,-10.164301351560535,19.583290863747276,-19.595219733409177,12.987910504803438
2952,8.200656,0.9148285832619408,-9.54500618794657,24.581098346541697,1.2452430679896498,-9.471251394674567,27.916537025581672
2958,8.217324,-14.404971499968232,5.319693990274001,-24.798403555010484,-13.895720196123262,30.627703116810345,-40.97497632798955
2964,8.233992,-1.3401363124482524,-5.382067525959834,15.384066912597005,1.0796787361840456,4.367260583642098,-29.7477647956648
2970,8.25066,3.674377565304346,-11.092403242427524,-0.8200988227271486,-12.603302176282124,-0.5019777759408142,29.749432883321678
2976,8.267328000000001,7.245960239293206,22.53488359852673,26.57806291048797,5.485986098952536,-41.82484546997854,29.827738446576525
2982,8.283996,5.534381447212052,-29.950568005559628,-29.59993848710066,-23.403287795914228,29.205251679446707,-1.706014912670705
2988,8.300664,-22.118887787983446,54.99603044712632,20.094857839519733,-11.961280849494283,-11.74111671997278,-53.18888003954271
2994,8.317332,16.372321580122154,-16.41419386714017,1.903325235379257,4.701118802137691,-4.531327511148403,-16.306105032344483
3000,8.334,-0.4335044722347394,5.600054099987262,-12.445347824075077,13.275321949282077,-27.27721461178668,48.63587042929552
3006,8.350668,20.73981586261393,-16.070182458960886,2.8588873357682,-3.5770396977062706,-0.6353424631843181,-2.805753007736943
3012,8.367336,-4.884590828668198,3.264565831893906,4.886719331952516,-99.25779970859104,2.4609867308892763,17.760287493671647
3018,8.384004000000001,17.769475387378808,-18.91353567957688,7.88340705690146,118.11993130150042,34.265928684241814,-11.490010838406258
3024,8.400672,5.0864137620690295,-0.8321488675553033,-10.183718308169745,14.771550246576204,-28.467582611669563,40.43692545201248
3030,8.41734,3.184116876983494,-24.51058336534389,-23.949575850733478,0.4681765718865787,-14.142447542016273,10.285278939279191
3036,8.434008,-13.599560055747478,24.848815655901344,2.0334613003027826,-113.43911457574676,-26.72306255166784,-23.92001193841564
3042,8.450676,4.345910309437211,5.809338737685431,-3.6927384431849153,31.629110977293568,52.4092834187326,9.820967023673226
3048,8.467344,14.465452647580314,-28.90258464640505,-10.99560071754876,39.0728256095166,-18.109039588053108,-7.360213520103764
3054,8.484012,-10.417399182570405,-10.580585709611428,-13.670684618708664,1.422861562447702,-13.518245327559818,-8.696003692417339
3060,8.500680000000001,-2.2712644519368643,11.206373633406054,-8.487377538737853,-6.619869556939364,6.518348156705283,-4.190617521844502
3066,8.517348,-7.636974354934585,13.496737476429905,14.69837935089789,2.5472326546038966,15.978437086305314,-0.8528252647121715
3072,8.534016000000001,-8.212780577832913,-6.226126258631124,6.369776775914178,4.462891422225346,-6.063555127171229,12.70825644056093
3078,8.550684,13.508984780316254,1.123123420764039,0.2063465025519772,20.12691120513902,-16.90534955043372,-12.118984355104825
3084,8.567352,-16.441417397614693,3.0605256467621578,-1.864525551938255,-2.6100215804307325,2.6056150706029406,4.893219263798548
3090,8.58402,4.499112317340485,-5.663959985094719,2.8003396698261565,-22.23985933484242,18.757432477673184,8.289747011610928
3096,8.600688,6.718097919377284,-6.529319582719086,0.3551043767642046,15.214678503804103,-20.766273444539245,3.607985262328425
3102,8.617356000000001,-13.733589785247643,-13.994899091338116,-2.383829638466404,-9.573918839128847,-22.75730129094029,-18.947257184817364
3108,8.634024,9.647693415859887,8.076567613836108,-10.495026678507152,-10.554783121336884,-8.92411455647723,-0.9202393987703984
3114,8.650692000000001,16.645066919191542,10.496750969656311,-2.195873420335195,14.124529147889886,14.034884625039624,-4.2255542057042375
3120,8.66736,-3.975198091730258,-2.048105542381953,1.997460548857429,-4.063749496030587,-1.0583601432066505,4.515552713011475
3126,8.684028,-9.473760132815142,0.0768027609086274,-4.790662668322362,-11.52103955389612,-15.61733433466991,12.691977371137192
3132,8.700696,5.363367863000464,21.879077420521973,-4.5747932947394006,1.3153243540009152,9.35518410090358,-4.729084197479742
3138,8.717364,8.932983510801396,2.785397467897514,0.0174129094930641,-3.387726866212277,-10.452529229574251,-12.411285433023329
3144,8.734032000000001,-12.313967888993988,-13.368312293349671,-18.55888989979644,13.925262043692554,10.326495925693878,8.223209724877787
3150,8.7507,-12.599341836867088,0.1109057949163668,17.895950228241354,8.4922729877267,-16.936964975549444,18.90816515968715
3156,8.767368000000001,5.865121302103637,8.45606255239887,-19.934446597154004,2.903027850251957,20.12381635369017,-4.155370733929124
3162,8.784036,-6.337571494816999,-5.989027282240938,-14.23054384574165,-11.031608094043698,13.739860419543236,-33.95885482689954
3168,8.800704,-3.1549437856145444,-8.737734214394388,-3.843090533904872,9.317125351686355,-5.784709542501366,-4.742450701768853
3174,8.817372,10.796711662607212,-20.457332081575533,9.334871955757704,22.258058698747732,-22.090626898319165,21.935893274535204
3180,8.83404,-7.947322050748337,2.112548433808537,-5.516359309446094,10.880945780553596,3.483457673510239,18.25282291561872
3186,8.850708000000001,-1.2286179555753105,-7.201253186388238,-12.280446911827044,-29.609854991741656,-2.241028222559541,-14.811647392889483
3192,8.867376,-16.528421243644217,16.121536356864826,-11.882082997683796,10.421116152622467,20.2531492078928,-18.91598302288065
3198,8.884044000000001,14.990721176349206,-7.752739332962848,1.8822853504204,17.75872154517793,-15.699957639219168,12.303861616797798
3204,8.900712,-0.0082107455015769,-10.814253795633157,-3.644351176204011,23.39409813564201,-3.3390593221499096,24.970261997061467
3210,8.91738,-16.695591534248866,2.4435195460719203,-3.5427748665357344,-5.020326410975356,-4.613296986482861,24.732383433222616
3216,8.934048,19.67849553576148,21.887792464339487,3.76253746483521,-24.41304522717939,22.148544626967,-0.4938281205212167
3222,8.950716,-7.236065419104251,6.36038352232482,-16.3678036495514,9.87800051677909,15.650141167391832,-88.29622571560083
3228,8.967384000000001,-5.655259081215358,2.477472903233868,7.9982081076492975,10.744586173874264,-16.47394456831793,30.47046439098707
3234,8.984052,3.253124246767957,-12.51845697623544,13.78488983782017,2.283384375720921,-9.011671024254865,8.252127251170837
3240,9.000720000000001,1.4376326998336442,7.380283073112739,-1.4333936605191724,-14.656206910159517,-7.335921517457017,-5.658301858529472
3246,9.017388,-6.640102045825211,16.28702125920715,8.495998384162867,-10.650120070565618,3.889669630518735,13.141538241803708
3252,9.034056,-13.7842713644686,1.993193998430108,-8.253419704380953,14.930529269128638,23.6893084090134,-53.453941401260806
3258,9.050724,3.80602463209906,-5.978415715805889,10.189254091249875,28.829564749811347,11.275914247783298,0.1397915210879423
3264,9.067392,18.862825220939875,-4.841211399458467,20.99066155484072,-5.301366226575887,-24.42638414528485,27.972555990874657
3270,9.08406,23.10160928931868,5.777723464171779,11.47828668591228,-4.878179030331539,0.6307502456628136,34.03259976927124
3276,9.100728,15.671380011001228,10.085366124216511,13.19149614026805,-17.34403788313248,1.0750692133148996,-21.08737229587993
3282,9.117396,-67.15058750586631,-17.97180841770917,-77.5937982187036,-12.243938692381647,0.6527704341148515,-17.472127018126177
3288,9.134064,47.88545199585624,-18.03085827917097,26.7137044758349,4.635493468672401,3.791454915066623,3.5875139261008293
3294,9.150732,-11.471797022733114,-22.976077416084863,-25.629174290061115,-3.1133453862351725,-17.283365055653604,25.70006629780295
3300,9.1674,-26.94751649513888,-1.907628521703173,-7.124868104357024,-6.638920939035996,1.6605655263584822,14.873375662480392
3306,9.184068,-18.616114154063105,55.428226101945896,43.936785782486325,-4.912112010021986,15.479709216556444,-33.00253487435732
3312,9.200736,0.3941919725553191,-63.293142368473575,-88.04602537475542,0.5378130869609747,-4.592512600649721,-33.03908207501651
3318,9.217404,26.70314815009749,31.724007681954024,8.158207980529381,-1.5047115916513183,-13.576055289561474,8.233526261439652
3324,9.234072,14.61428842020358,19.263388058197016,23.816974554093804,8.118340298942922,-9.222023356981197,24.0461195118048
3330,9.25074,-4.390727889025318,2.866720348668429,24.84904959827804,-8.098394349464263,16.159122064015442,8.968471075528576
3336,9.267408,-1.0277277275367451,-13.258753556787957,1.4978060284234795,-24.068703566649937,1.7079851485339748,-35.5754723607513
3342,9.284076,-19.110444001287128,-24.762762373013608,-12.25876318322167,-7.891675144681555,-26.631939906014026,-24.59714539687811
3348,9.300744,-8.14998555261127,-4.060649958815066,2.7700031970904293,1.4646198945805349,5.047685289838084,-4.394413975863388
3354,9.317412,47.75012478512125,49.11392664511919,65.98404009566177,6.939514256582888,10.98588056685362,23.31543636613532
3360,9.33408,13.134312665002875,4.288441021237134,35.424011045003645,9.664285233669805,-11.857953544752537,32.64307032114445
3366,9.350748,-12.24990115754719,-9.668887167352628,-39.49024743308209,-8.77134359129883,14.647681524006233,-2.6444639402670256
3372,9.367416,105.63557008722226,4.519467222151081,56.88227921575567,4.248146008394951,8.780645016596157,-26.448021503976317
3378,9.384084,-132.8217403498861,-12.384849475594688,-78.52566915736232,7.149992603955135,21.879687337848623,-4.845497622590815
3384,9.400752,9.445753763186575,13.176255001963808,-8.535544013871512,3.941051635771428,-11.05908759329238,34.8720351338358
3390,9.41742,62.22081670855109,13.750189508044482,50.38920534340838,22.439726698819197,-17.634659630740348,24.896395358484767
3396,9.434088,50.373757897182415,-0.9787711512374256,21.588789418335026,-9.810839052231357,9.83044108887157,-3.3781503255278995
3402,9.450756,-32.28733281553354,1.4967789499500943,-23.2787270022075,-7.245601548763146,23.74560443281653,-19.71158025697584
3408,9.467424,-28.87457163294879,-11.3941618436525,3.750201135421811,-3.6281969390620272,-6.03770776354762,-13.58755127856206
3414,9.484092,12.71889315562658,14.290626023962693,21.83993956968063,9.347296619652443,-7.129247837190401,25.132747642136355
3420,9.50076,-20.374069222649563,23.62956854129021,1.9011660593319863,3.021422100903113,4.079042473180438,36.18834069639098
3426,9.517428,65.15091719088397,1.468493883870206,41.62801413230294,-6.1972159682953,0.5634990283166257,2.000775725646304
3432,9.534096,-77.43574946123725,-35.85751949307995,-102.3709476974138,-14.215646325147802,-5.359889547113405,-40.55751656135197
3438,9.550764,73.66947662164092,-12.652074427769126,53.54215336807151,6.821212182779071,-5.063754032523334,-9.465558199551287
3444,9.567432,-28.027911521194174,6.544772430209774,7.230533072813042,9.512079921900671,8.746314600324272,42.187964117022574
3450,9.5841,31.70011166155785,27.50587794046988,17.439505190385198,-2.850230158975483,0.913396934523238,37.09110298746609
3456,9.600768,-104.0136686095868,-1.087983584934057,-65.31732123908064,-15.935223660753714,22.84458433073059,-63.96654427397948
3462,9.617436,51.798980272119046,-40.369376116954726,-15.608552542755152,-2.8143268306524725,-16.947378923739123,-35.968639837605814
3468,9.634104,-33.44580422789792,18.796410600060828,32.89176831867739,-1.1952850156986994,-7.802958299551676,-16.815194489618985
3474,9.650772,0.2194141515693233,-18.328492127471627,22.839712838273627,-4.1786786613449305,-4.467567659192749,95.86822976101746
3480,9.66744,-3.175723645941975,-19.726769025647013,16.58596871923764,-27.05227376016448,34.25786639882291,-55.18734043802182
3486,9.684108,-50.95530496863216,-25.635017830805943,-69.57067798135843,-22.667098172810626,2.063869623407382,-12.484148482642524
3492,9.700776,19.397167968744352,3.739544073538728,20.58364059346189,20.51732244588853,-5.376942052793472,-13.663105024232722
3498,9.717444,10.49678006047161,8.858335452322883,0.6602790229424098,22.571336192578123,-51.33443503116165,25.95513417323562
3504,9.734112,16.966782366388387,8.406165708167045,18.30849189949816,-4.78648574374246,9.675928480462494,-1.4198006480135772
3510,9.75078,-9.046354041879525,14.675276893285725,3.465321528174992,-26.969285174295216,44.26493728732892,-37.38363102987425
3516,9.767448,-20.43726510907004,-7.787179566423561,-7.424186536572571,13.60417220442937,-38.20337327518577,0.9263351475991763
3522,9.784116,10.738483179307543,15.304034337658896,13.675551445406384,46.7144909619255,15.41058704397274,9.70407282769608
3528,9.800784,31.93978590740477,14.094691413419042,33.2052983488195,-23.76082000290605,-45.86074556710278,14.452707011995749
3534,9.817452,-9.277477379299274,12.973973471717898,7.501978780221732,-19.207276954697065,58.67359130118521,5.051356479081671
3540,9.83412,-27.66893529483001,-8.769581179595201,8.980558242052881,11.950080069973094,-3.6257085227627295,6.111698174215535
3546,9.850788,41.74452113571978,-50.31547615077765,-38.50745353451168,19.162611655071327,-54.5562993035926,-6.491969663551117
3552,9.867456,3.3358790455047727,-1.1874765150014106,29.20154938897819,-18.621341196212487,-29.08968408028894,18.1538767481338
3558,9.884124,-44.337144518755935,-12.493325164001108,25.18383401776148,-31.531994815636303,45.81401713064927,18.830084581913276
3564,9.900792,-114.51389913213748,88.08057721226402,27.499585544049538,-13.368052289274626,14.921068076579314,-13.92957010644152
3570,9.91746,-0.3698533735144451,-41.66588125907979,-12.574571153200097,3.6373695220977815,-38.44033645444884,6.763425725389155
3576,9.934128,45.272252208381445,-18.684864917035902,6.801670290840981,18.99758128405132,-5.3155501557130345,25.051983153460817
3582,9.950796,-24.36708179505855,9.591910188946702,2.4429324508953734,4.665302109260886,-10.814869452151791,-19.218373452475365
3588,9.967464,21.717414321315204,11.906688068522902,-7.937034626162729,-30.151299725661328,7.6590195662991345,14.113261820385508
3594,9.984132,38.04035821051217,-12.232575082945056,67.78073294297886,16.80511124472929,-28.2414423473118,-37.17315849282144
3600,10.0008,-7.014999922729201,-42.49948451841539,-23.507200046681643,-11.355300698886165,2.4126671161742257,44.40436638807858
3606,10.017468,5.043629098275525,-19.18385902089058,-26.930049552685357,-9.233428776285692,14.696530503982226,0.6163245925834424
3612,10.034136,-9.794898845516776,64.28805995679485,99.43403445397942,7.831475923412953,38.24971700079506,-31.732402016911827
3618,10.050804,-3.6565470602900234,-28.074052524245687,-48.17549447374289,15.301430438816976,-13.0201704143138,37.6751645682002
3624,10.067472,16.317293140645084,-18.3066814660936,7.236608922066168,6.243084411779177,-38.38177756124197,26.347127068547
3630,10.08414,3.3228224032246407,2.513516635457675,8.48385237280858,-0.2004654669676477,16.603486752951135,-15.003380067168829
3636,10.100808,-19.27151701062588,-19.35544081363968,-24.6248976009146,-12.151504872098291,0.7126853290434219,-34.41423538866388
3642,10.117476,-9.631328959287863,14.014424386483489,5.60573231179454,-8.054481023623962,7.750641879518323,-5.006346678017125
3648,10.134144,24.69601609752886,7.928468398339405,16.8084322560184,37.894874611379294,24.85240580543047,29.44003266612796
3654,10.150812,0.0137966618208509,3.4205010874270143,2.840118360022754,5.758149865067487,-50.01236409783088,11.4300770241926
3660,10.16748,-10.332168202428118,-18.1729512218506,-8.076872015273594,-4.44088841977628,-4.50141253999204,-26.839802322438214
3666,10.184148,-31.873658860795583,1.283557379624959,-14.293073628806509,-13.734903157115948,13.77023338702942,-5.977005706028168
3672,10.200816,-13.52124181267572,16.888210022657503,-0.9319113782050912,-10.47922040473778,-16.266583255334158,-5.842476035513409
3678,10.217484,-11.692241976929202,10.982032934370157,7.688624115723655,21.69889823848989,5.558607275879597,23.82481582663002
3684,10.234152,7.048054670748204,-4.064550992801403,4.485549636480205,1.6669035712577394,8.567281062380552,27.18687999367405
3690,10.25082,-34.68610177885557,4.750721521985219,-6.150424757144469,-0.7010862524744059,-18.76173190592021,-43.04962674214368
3696,10.267488,-23.246087684910883,-0.1404613313085716,1.7092558217766338,-7.447784434648437,-16.044241803396083,-19.3100417561394
3702,10.284156,-67.36369280131292,28.00985253440673,18.985624059929016,-39.11825291553795,-33.63904813058634,75.28028021327293
3708,10.300824,13.704811059035476,-6.230299201170093,12.4156333416852,33.68031053726016,30.56166606487012,-79.13763346878626
3714,10.317492,9.99468195508285,0.8203987628968985,17.172218998763885,9.777593337598413,-6.993893306469747,-14.458085185732608
3720,10.33416,-35.411221425736805,-11.44423828460947,44.259664952587855,-6.522601776261719,9.50792030411581,5.793197628710684
3726,10.350828,10.565866505800518,8.33342889186121,-33.190755960126864,-9.440561990287168,-9.10390967540298,-8.793495099746629
3732,10.367496,-22.16793004639331,31.860526276057712,53.77140314690294,-5.182953732742707,-1.960074864164013,-4.502595944541062
3738,10.384164,-66.04632540354028,11.367071830811302,-8.87365752174145,-6.084091786007198,-14.01681416061192,10.396920981372194
3744,10.400832,-13.40289254509225,-60.38807750337877,64.04583711931036,-20.26570742867671,10.079355760691392,-2.7328358179896703
3750,10.4175,47.88356064309921,51.94217438090222,-54.420942699879454,6.778040695340716,-12.12994758577644,6.846148463420908
3756,10.434168,-42.37151532463119,-36.22115487047055,50.08790650517578,3.862435584343757,-3.0259155990921704,-22.76277158208261
3762,10.450836,-179.04906804368514,14.185126102322592,14.989795843168093,-8.101528587182832,-6.086364919025861,-16.27260086392247
3768,10.467504,187.9618745257712,-28.75459524135077,-75.65317871663191,3.352961139253556,7.481944549858087,7.334450326954169
3774,10.484172,-43.53211969056046,-24.09130478361833,39.539506625457136,15.740767796985828,-5.879273925749118,-2.507078409814136
3780,10.50084,-17.554778484157573,12.316262791228212,-12.304635603673791,-4.622120109543149,0.098713823558636,-24.307386280781728
3786,10.517508,-78.65010417355305,54.282955279656974,-36.28525498203443,-12.5830240987806,-17.875023374515727,5.221430111992962
3792,10.534176,103.87982800441404,-114.54618452415151,-80.02793869918001,6.010695526987837,14.49121794103812,-1.2019796422946571
3798,10.550844,-91.27703196894764,6.221050598700668,20.06663421817001,4.036579289321045,-22.42856205103936,5.929018916989655
3804,10.567512,-0.9257575239171594,28.86144145554612,-36.051545548367685,-11.45170100890596,-44.7897406461818,-9.422608578857409
3810,10.58418,-7.585264942062373,71.62087246175327,-44.97255728456378,-6.954697045496232,37.37450870854451,39.31763866592741
3816,10.600848,101.6251962306609,9.62750876663056,-46.24445409380782,-11.945877280784613,2.646970668151866,-27.005755258202463
3822,10.617516,30.348668264799024,-85.96304490625565,-45.5113535770514,3.120603626326692,0.9900773109020822,28.984455651817527
3828,10.634184,6.86352679789276,42.53075344872756,-18.80804659370105,-21.046076761940395,14.518569139534607,-3.8502795164805073
3834,10.650852,49.1292626358011,-47.08884582616471,-83.89002386798074,-25.084549843279444,8.678462793215107,10.963629018625994
3840,10.66752,40.826271447351616,-11.661589727906636,-34.161667329526985,52.696926970015525,-24.731481080054387,12.32213778013722
3846,10.684188,7.536488195438912,1.4276919745890204,-96.2250953984495,31.462840605955098,-10.358323371987767,23.46968449946539
3852,10.700856,56.78252732951544,41.20349437338987,5.413650211810719,1.418358967850823,12.684453067073774,-37.95646221724563
3858,10.717524,47.05427136657875,-43.78747092180588,-52.25771415582963,-10.827543160427645,31.77091330747727,-5.119123335548621
3864,10.734192,-38.823143197140446,2.4131235810837275,-6.272092081010378,28.53856256736101,-56.48868280511631,-4.19872604971255
3870,10.75086,119.33511719283294,-9.251456333415552,27.115357474513324,30.105579122341148,18.846408132140844,5.038915726188709
3876,10.767528,111.56857816570268,-81.3935113898167,-140.65698000184472,-4.896206334318182,38.595929206107485,15.101653480199277
3882,10.784196,-126.70518464418709,83.10941141897014,48.8929134944162,-7.180534583481068,3.2795754239903294,-18.931630853990804
3888,10.800864,77.8147857982193,-27.992616361835147,-42.71515196253485,-1.4024505832262817,-7.437384405349872,-28.276606912727075
3894,10.817532,-14.489946718123754,-4.763368585122318,42.331297036395085,9.392320208676116,-18.420126873866437,20.73207038179584
3900,10.8342,-16.91589856976126,0.1833056429711455,-115.2600959942758,-15.126830521717933,5.762499209709318,6.427918005819565
3906,10.850868,-9.1263251538814,-21.074249439312933,22.32388457281488,-20.21930121998817,42.98996921188291,-12.903928770855774
3912,10.867536,123.8070597578678,-108.38905961477934,-37.408163075408304,-18.36875059902613,-7.954110803444196,-10.525669850160078
3918,10.884204,-84.1407498662343,63.0217564453226,42.24008891102972,-2.841480656647493,-37.53862118297571,-3.1565538847700694
3924,10.900872,-15.646545963925856,19.389033981833517,57.0589384775118,5.542187326923991,0.406473944117959,16.13599329193955
3930,10.91754,-17.16218070819005,-31.377648890230063,38.89118962644681,-23.525090263300164,37.2702189046152,0.5423213078752596
3936,10.934208,-37.55807535548316,-39.88332729392154,-46.29161017072424,-27.97895956585691,44.18635632238862,17.138652361222114
3942,10.950876,-56.45264115120468,28.729547192569285,32.48166415272144,20.788560799688348,-59.63953167688344,-36.18003283975128
3948,10.967544,92.57998031514612,-124.32931137714996,54.9370567514773,17.301017313739003,0.2508280676456589,8.68190983266649
3954,10.984212,-13.59333200416739,81.33027452742488,26.606546564704004,0.2760227060500408,17.623571978785385,-3.129225227614702
3960,11.00088,-50.59478420844186,-51.12683580521652,-92.10049413195738,-11.234975730292817,42.78426092954032,-21.368802804265577
3966,11.017548,-15.474369057284772,60.98326294479589,79.88929607157135,-68.05860163988154,-15.155547638398303,-52.01834881190209
3972,11.034216,-17.35542343175528,-9.462266649384842,37.81282523375283,23.108064953247503,-48.18063739044247,-3.868015051222024
3978,11.050884,-2.844030092551498,9.53692575096391,3.000485032726876,25.31794884082461,26.33677638527729,-17.171802904134005
3984,11.067552,-26.110248180643005,9.663554907961776,4.271810458126796,-0.0550734975359108,-2.888902096935372,-67.64858912375246
3990,11.08422,-5.568969947772356,-5.403454819133128,15.692049911236026,-19.10274887900598,-0.9423437166812222,-24.701186285851808
3996,11.100888,2.677049278585824,19.326524997679208,12.580632819093784,71.45389662470737,-21.89760678408335,-26.12924275885532
4002,11.117556,1.270919805247467,-10.266970737040136,-16.822195812487195,-21.48896410635983,-18.437429646099027,-4.44610795800164
4008,11.134224,17.313983282976963,16.906688870394913,1.981387506374736,-57.58530032668872,-44.45888339667865,-60.95984359193413
4014,11.150892,-0.3380858585545461,0.175942735486112,13.036353570649602,10.916287616014028,25.54914550835828,43.9100355482972
4020,11.16756,17.489247243962357,0.8970323495445935,12.409108528615548,7.944117035424721,4.8593879525756005,-7.987574599851094
4026,11.184228,-16.649717936438513,9.055790665660522,18.02010149463756,-2.585638743305074,-18.57576309836101,71.53110406609999
4032,11.200896,0.1279820882779319,8.192596093376995,-10.443529790983543,68.40937295839564,53.930555370367024,43.50238131479016
4038,11.217564,9.887716515007517,-1.5840863214689636,-6.536035436134155,-8.24487035755425,-36.968999061474776,-45.04693572827067
4044,11.234232,6.683486728695985,13.745945877894489,8.883177294363346,-0.329960301041293,50.82486151676035,33.45769194942105
4050,11.2509,9.31235896349127,21.555990844965123,14.7012234375644,77.6040841944774,29.72281977663421,66.04940733289308
4056,11.267568,12.621637699086028,-5.497561115631539,11.463464927928513,-34.40924849984485,-36.06366384731702,26.251843017326248
4062,11.284236,4.218579188087187,-3.415095845617248,-8.19821706925003,88.3013594973693,72.27735640351986,-17.82940670170755
4068,11.300904,-0.6094285412556264,37.41314472851793,77.39505413816715,-68.52725326482681,-26.10140501211569,4.988820788833088
4074,11.317572,94.54791234962968,5.178806680273151,-102.83315527649933,4.5424795322989,-70.4410279711554,37.86091747675699
4080,11.33424,41.4594654097381,31.824899759446083,34.32315871429845,-67.09945318769908,-6.290412041670541,-31.923911129049465
4086,11.350908,26.934693751001568,-34.516183769238744,-64.55813111212913,-2.5040829087622214,4.417282690578278,15.564850029212831
4092,11.367576,16.48108032670796,10.238371371204671,12.6705485447369,-7.605936177384082,42.06025403270451,-0.9821124727879996
4098,11.384244,-2.9233365144067958,21.55581353858645,-16.6618288627501,57.99269455729552,22.98199009146693,38.77618569764967
4104,11.400912,-5.227122074558297,-23.608778254233247,2.950114674973346,-74.78777905437958,-27.84485540392761,-8.580203315801688
4110,11.41758,-7.956183190984596,-29.09721010559157,4.926945048499928,27.656185085273336,-36.39470294889757,51.09191716205257
4116,11.434248,4.640651539381579,24.936721105814936,7.4701151109001716,-50.68365410632784,-5.188302831837433,4.7918113075946245
4122,11.450916,-2.9961417019592425,13.887075894821654,-7.562117549824296,-32.66168073904424,-20.855355513805435,-21.15681038597796
4128,11.467584,64.14584612120186,15.418506460297976,57.24428002088966,-15.578624640721912,-1.0070159894120048,54.46551150054668
4134,11.484252,-18.5100706980921,-6.5201517781902005,28.44692820291872,-2.036783780866058,2.250133804788467,-10.277825332076716
4140,11.50092,-30.41852192511503,-27.96131588948684,-25.8118193421653,-13.87905392192765,8.740618019478847,-0.6469713082979704
4146,11.517588,-18.92820990368129,16.657379038903827,12.96296157020302,-16.65706660229945,9.751295014786278,16.8402407370954
4152,11.534256,-25.72530636989383,3.4803351666030653,10.815909414520569,-22.843631776240205,9.818347095028416,-10.45117969086414
4158,11.550924,-16.008049206947895,-43.04263336052402,-34.87946215922281,6.768119950871052,28.69964007559201,-26.48992809426489
4164,11.567592,38.553406491112725,11.355141299282346,-33.766654033670285,-16.23825636844886,-31.777632166472703,7.746873620216542
4170,11.58426,1.3857641735136297,-4.7414740159167135,21.283805887010008,6.14042487775199,8.64151762526474,16.14046115910295
4176,11.600928,41.762176388471055,11.069035020687192,60.11524412525477,-25.77465094971817,11.374904657552298,-10.764020126046743
4182,11.617596,-77.36171246608627,-29.92352042021303,-116.7491293629682,21.61370277691065,-36.9227077116029,-72.3121081592549
4188,11.634264,25.5834615681198,-35.130747450838314,-34.6757813568489,-54.41495993781954,13.62184790250743,10.34391561858144
4194,11.650932,-21.25155078139,0.609953769297868,-1.273498552992418,-28.344836047919625,-34.39873109496459,30.07559248243573
4200,11.6676,16.086369551219445,15.94751002432604,-9.695782663966725,46.1933794854381,76.56116734360177,-0.4862073429356179
4206,11.684268,-26.126343125829173,-4.465980121766822,-12.893265570837269,-6.414822443139135,-28.61697088618054,37.11487025694231
4212,11.700936,-7.450630281840048,-17.072937046742254,-31.614296676446017,-24.68002182713757,9.91378549080422,-25.46256827331671
4218,11.717604,-6.693244645536523,13.272323803602385,-8.95164207899643,-10.6195186337667,-19.995001657706997,25.919567094573672
4224,11.734272,24.46288244701999,11.289899941756406,-30.47450850597172,-26.153408783858783,-3.4798252651652044,-81.74146064703062
4230,11.75094,-21.01479837351137,-7.023852980714761,25.9733805542096,50.38768199591768,28.96430211861914,-8.619561585145524
4236,11.767608,-13.987176067247,-19.322536649384965,-21.058952606218117,-61.515340875655504,-17.783331504163918,-52.80428676629168
4242,11.784276,21.1133637165457,-49.46889121782521,-23.433137328920417,8.746944009170367,44.22171828576072,52.08262788314019
4248,11.800944,-1.0724184164280688,53.37616259353168,31.426187507643228,12.819274048341704,-24.814401943709257,-8.914629052200176
4254,11.817612,78.19808491622084,-63.61809119453056,-39.128028624053634,-104.44612513217584,-18.616549202375204,-37.37086693492997
4260,11.83428,-73.78571653777176,5.043229310005032,50.715316847905854,101.0720530870667,30.375286861698047,27.071974930270272
4266,11.850948,-22.183650631997537,27.78743682924504,-68.23836432659742,-56.22113048341295,-16.250241144154586,-48.829866179878266
4272,11.867616,41.40797208351351,61.67768312557497,-3.74764719576582,-9.682502316556572,-22.254900038545507,49.12572199846495
4278,11.884284,15.151293269330504,-32.39811401426368,16.65437698559715,65.79796006284676,48.58027662604,-11.46015962224431
4284,11.900952,23.181203502631043,-29.58101411148541,-21.062645295515274,-59.86227502747439,-52.13445195766626,-41.53582174471792
4290,11.91762,9.735414879237002,-5.6752830484429975,-17.53914645853339,-3.193077459845066,-21.684767431154675,59.59427668607192
4296,11.934288,-2.3223685185517384,22.728252683060017,3.815212052070345,30.90703153203424,111.29056568151616,-33.63589270364446
4302,11.950956,7.972489813027451,-0.4810223206584023,-12.848400284363464,19.976635393018768,-52.957903461126776,13.7713436529094
4308,11.967624,-30.743597035236988,8.375030989065909,-43.22245389193383,4.684904390264755,-12.206811711220476,3.0812097325173955
4314,11.984292,80.18010176265857,21.449462865769885,63.8246858558177,18.64780930904103,3.987585304614827,18.82665186624977
4320,12.00096,9.646954083635809,-12.402757100807555,17.205966876933555,-5.857238534269014,15.16783714894827,-4.46611320209301
4326,12.017628,5.746831119383868,9.948718136411305,8.845623474588288,-7.1691714071964086,-10.547706936695253,12.125851565722671
4332,12.034296,-53.76493436539722,30.9145663117649,25.49047969230937,20.068148176046915,-1.6345873799206938,6.929926565022157
4338,12.050964,33.91177124588233,-28.40087205393325,-14.655518964308204,-80.0576332839729,-40.81986885856264,-1.4791883157919594
4344,12.067632,14.344664007575076,67.81512711019487,1.0878437563729406,67.89411681132579,15.906588585891624,53.21612252947945
4350,12.0843,-7.275880712666362,-23.92202122054736,29.17308597981405,-8.172691933443513,22.172670885938796,-22.242204746308644
4356,12.100968,7.128020980323384,10.13960405702298,4.399463556436199,12.715428017650115,8.151862610569239,-13.935013545412051
4362,12.117636,-8.254812116514293,-18.03818003054816,-3.5522664906060597,34.05892032830094,-25.898660743964427,24.95675258994876
4368,12.134304,-10.66838589485582,0.4332838696870214,11.433654995710494,-0.7079203617090908,-5.9561718151786565,29.457329547361503
4374,12.150972,-6.782010952975715,14.270614060496245,9.491789203362526,16.994932912516106,-4.667135867033441,11.971621022309716
4380,12.16764,-9.687633952156297,23.78480829619033,31.06337945266272,3.0293535637039977,-34.014619242751515,85.34725375742264
4386,12.184308,-1.6834635004277931,-6.87827453057406,14.124254676251663,46.08081129496458,47.92108210499758,-73.8123809469149
4392,12.200976,-24.097838901833747,-31.656227768916565,8.08891105040758,42.64145548252024,-8.865925562613441,-2.744464125445071
4398,12.217644,8.804322528534236,16.753655216661322,8.387886987566326,28.33222970542046,10.71343831467225,7.699303314789532
4404,12.234312,21.669521749213683,27.17548042318726,46.70055420809997,17.5818757461134,32.54183700375866,-5.913628577848598
4410,12.25098,-50.77940179428035,-80.02605991362474,8.312490481673159,16.53127505298495,10.81314726206195,-9.393228206000591
4416,12.267648,-9.034583984959156,36.14009831812646,24.254318648925636,36.60991516025685,21.682045165899545,-70.32127485118075
4422,12.284316,-20.74327296082196,-23.774067214138423,-24.11371425953696,-10.64888054134954,-36.77573560827279,54.831348170444144
4428,12.300984,58.15537644804296,43.31672388858454,-4.422037460357274,1.942363491894632,17.628964037284696,47.62646379817675
4434,12.317652,-9.279985955561628,-0.2011000549978856,-24.128235920004503,-24.521009336302495,-10.419153863673404,-22.01820540034098
4440,12.33432,21.56725275398273,-39.9396306893012,-0.5173722950678235,-0.8305569032347501,-27.31047935096365,26.13227912887603
4446,12.350988,-18.309377067420197,-21.37240405587579,-4.59837188028118,2.1931442561231838,-1.3470043923528108,-14.538220822096772
4452,12.367656,-11.281446817416285,21.60035723109296,-8.319451405876553,25.62157681347123,52.76623742146715,24.886921447289737
4458,12.384324,44.41260249863456,3.509551159716916,-24.16693633454899,-72.45767982863521,-1.3556968968840335,-32.356492471782545
4464,12.400992,0.0030228863282948,0.6899550210215526,-9.178809805553966,21.634014518958715,16.47686829470747,-1.655050413154033
4470,12.41766,0.5915996840088642,-22.473818525482717,-14.507219383316723,-31.142073651638853,-66.43462324066468,6.6532010155974985
4476,12.434328,-12.477013080933586,-19.073094205970463,-13.383208198038544,-17.29067189409876,1.6989557687846948,-9.927026890153538
4482,12.450996,6.102697862620978,23.588278087738487,-14.594772651564682,-7.631458103198811,19.1924534610361,-1.846638893563859
4488,12.467664,17.51831611423328,1.49251810079591,-17.484922362766824,-11.170652049241692,-21.054901304217776,0.4455760366179495
4494,12.484332,4.438737253248031,-2.1090330417199885,-20.415455027108813,29.382106010542923,15.98308761089614,34.56296671515626
4500,12.501,-0.6371544167320892,-18.447061441245005,-11.718465362564183,-14.344062096160288,-46.98706036018111,18.654703881196056
4506,12.517668,7.344920353533064,10.97813463505573,-0.8316597080871571,-12.962940477280563,32.727443048655374,-55.64658636249312
4512,12.534336,10.79519088352072,13.005886355299513,-17.59971716664684,17.148946051580992,50.06096750877377,-12.145126782721368
4518,12.551004,25.013877449899265,-0.6764031149108343,28.332927784519043,-18.62282394490009,-22.30101086395172,0.0341181996326978
4524,12.567672,-11.467300835146965,-7.442581550499415,-29.400031649687712,7.999665137917002,-21.61237841298981,-19.973998391867315
4530,12.58434,-0.8331065347529005,3.5012856597907485,-5.73263229464504,-9.693711413105142,25.9254332875439,-12.006162562239158
4536,12.601008,22.612119563237066,0.0975134563616233,10.234563038939342,-3.220378789769023,-3.015196798106318,-1.188938697366294
4542,12.617676,-12.98968620252549,11.838537656592434,11.59742094231466,-1.382409152947071,-8.998226362651366,-2.300602443570553
4548,12.634344,-15.540716457455703,-4.118506108056746,-8.215769424035045,-10.879185529309227,4.342169847683007,-31.32716316804432
4554,12.651012,-9.449101129417487,-2.9957657095625514,-3.196460035700706,-14.752756401938145,21.119724371353453,-26.848701425436023
4560,12.66768,-18.08887499643385,-49.69571560356479,-54.2643175411048,-1.755907907034267,-20.801204306637192,1.9036440747211127
4566,12.684348,-31.447700793693727,1.7683089379333428,9.765873830394458,21.099951429165788,-28.372765909687985,19.148868380759737
4572,12.701016,6.222384902510684,27.866461275125992,36.81983984161163,-2.1009213456195703,2.132452184875657,-9.538161376401307
4578,12.717684,-21.0441401001177,11.33221486797121,-0.3649789180343052,-20.35009606386306,7.3887937538865085,-25.796223563300774
4584,12.734352,-16.039341439600978,-35.18779080520998,-57.13811197147632,-2.6879251727101394,28.129022458197998,-0.9189800247659274
4590,12.75102,5.627182891724326,6.92806567056304,33.9684737753696,5.590607504339451,-12.741962182872342,13.885537167455876
4596,12.767688,-14.004485488581938,-12.712200682148383,1.9915759870796084,-4.433504777173737,-18.432695128749767,10.00293098884521
4602,12.784356,-11.3492565976615,-3.3304103186296503,-4.128492599280305,-17.55332766366208,-21.95588587256603,-49.51509705146495
4608,12.801024,-40.87927706344354,36.61111762330522,-6.62032077111565,2.330427446594403,40.85575853725037,45.16714992819446
4614,12.817692,16.318078001543785,-22.4913096100597,2.9982949136235835,1.9362902758628275,-37.04224401650039,-6.13258866296524
4620,12.83436,4.298802419281326,-9.437231575010756,1.2074539159406754,-2.923901888377263,-0.0623108026654639,8.582465234938763
4626,12.851028,4.503068426014367,10.539558161690808,30.456348419629546,-33.879103592050164,30.10893223936018,5.680213970067201
4632,12.867696,6.9991580874189125,-0.6451472350840888,-6.7244986600438,-20.37749460873026,22.31914538795119,9.034431729186236
4638,12.884364,31.22098713432621,0.4257314581889115,-22.356573724528392,26.61426902585865,-31.0998280521146,-13.239124761233224
4644,12.901032,-9.883435951420042,-29.939868051667453,4.110678292994006,9.476257330132109,-12.427106934829077,3.827556237495504
4650,12.9177,-12.93912191840622,-24.19355029068984,8.897980924568802,-9.695256481285105,-1.755671865455346,-0.623057242804435
4656,12.934368,4.050338272185512,41.97400945839169,2.582741963945287,-2.098815661024372,21.05974455266723,-6.228022349811822
4662,12.951036,1.90621351280552,7.995947778763488,1.907974284890644,22.264554526389016,0.3139826317436709,15.657933260437735
4668,12.967704,7.941433414421818,-22.317941604547165,-6.22812468431741,0.1635688743040297,-19.607007691511257,3.1963377630975924
4674,12.984372,10.612638933885036,8.030154548765086,-5.020252586590887,9.349969984007604,3.3885249733170437,-4.371752223612553
4680,13.00104,-30.603227384221327,-11.355126860403152,-43.3460560639732,-3.414299723464806,8.436072809473536,-2.9223306696032263
4686,13.017708,-14.794610151277189,-15.418649688160713,-32.96753093741043,-9.298678481084533,0.9118814022380024,12.089566113121473
4692,13.034376,37.06652124508384,-2.255666032924835,-6.31285357667109,-7.1824406207843765,-21.82372295457957,1.2591928905990415
4698,13.051044,4.711006802563027,3.2810440562549097,15.32570063304788,-2.9152485293989514,-15.911576740138123,-13.248994057562951
4704,13.067712,6.198815853438648,11.152149925540716,-18.806797662356463,1.4942563315085948,49.75488997060427,-5.636810719960195
4710,13.08438,6.450414686465502,11.65463365948003,-3.3252051784292456,2.642340468914065,-16.341829161554962,3.553976356914669
4716,13.101048,4.9351107651047,-14.6757927440633,-0.7321823012860473,6.455554762928667,-13.280945314371952,7.857767334138555
4722,13.117716,0.9746941093042674,-13.708635960047577,-14.600297642792263,-33.23906479893823,-39.46882324518179,-20.118037361384065
4728,13.134384,-8.473615364174677,-5.256776721745762,11.75496757738386,12.038391777657658,17.01011744428599,21.11607023626611
4734,13.151052,91.68459457198682,0.2734777639520764,-10.30915283660958,-24.897255142825344,-49.15303992017753,8.254757153063538
4740,13.16772,-11.805205413221968,-10.080035592535882,-20.83279829012539,5.87024902455293,-4.535916066774587,-0.6702503609315791
4746,13.184388,-82.16988506488389,-51.84102697307178,57.931870010732965,-12.881971231078854,0.8143899513568682,76.95084405173466
4752,13.201056,26.533678435837217,60.14946077060112,47.67431011916324,-12.207370185457354,54.63373940556984,-61.54821652039316
4758,13.217724,4.94220980861003,30.59770547408422,-10.23712697806361,30.00790599190361,13.311670936526149,14.458120101996707
4764,13.234392,15.16511470383691,-15.102822462215698,-6.55310081892842,21.0187260832663,-34.85678340059511,15.928434766456109
4770,13.25106,24.78023813139749,-24.378294232115923,-18.785167499993747,-22.73347970539299,20.095005853918828,-29.420229774329023
4776,13.267728,-29.65181656734492,24.633440183045074,42.116128493019225,-20.37812287501401,39.3201958889549,-7.311940472351453
4782,13.284396,-2.070870131485111,9.593974234315468,6.347787932757338,14.949571264363456,-4.985758775171247,-2.107105272958694
4788,13.301064,5.63418540328578,0.7659347712730202,19.093856022437485,27.807675892587767,2.2213571491620474,6.525977103578137
4794,13.317732,-58.91367808394187,-41.37279017110275,-5.291790134928831,-22.703527811951528,5.236498778813228,14.141661613232213
4800,13.3344,17.394695249391745,39.66272451876641,37.65775091884652,-37.84064268143754,14.863787404347946,-12.61970978438098
4806,13.351068,-39.8489322474461,-14.68741025772632,-1.171832153650179,16.345221607768657,23.27539650215182,-3.4590588945701586
4812,13.367736,-34.00671117551765,-49.924700877772175,7.234696126186439,64.33623400167528,-30.88473067017579,-0.979071825038382
4818,13.384404,1.6386620711341455,-9.021511345086562,30.039126042279296,-56.32166230098939,-14.49314960852049,1.1709001457264314
4824,13.401072,-39.60731791621516,26.376046279424788,70.52693412858082,33.03116326356671,44.768269709098,5.001825947440601
4830,13.41774,-4.842564722643214,6.701313846037544,-11.60821612925165,-8.248923027785791,9.263949179092428,18.024526970990244
4836,13.434408,47.7765180415589,-17.50188571190044,43.361880000897344,21.49040782898116,10.898722421143336,-15.350313318154257
4842,13.451076,-43.39490248323792,-52.25511834164445,-59.28467035183289,-7.735899272677621,-42.5382790083328,21.849980348089368
4848,13.467744,-108.51165579421954,58.43081404636671,121.81634968640958,-0.7425074758833636,-10.009974073311836,11.71311785075053
4854,13.484412,161.22651238554622,-14.690947371792202,-96.95258456657696,-2.2467882846332348,45.0734517432823,6.68093771059092
4860,13.50108,47.57160748273501,25.23970671578695,112.23459301916807,7.060870253160957,-20.096826199938825,20.296370315200345
4866,13.517748,-102.98202658766589,-52.28437723233219,-92.54932936808105,21.774236628677983,46.53061613827699,27.095092280628933
4872,13.534416,14.84496324175338,-16.881825751303644,34.51576254242171,-36.76571880742337,-60.69388543784044,4.29509663608475
4878,13.551084,-79.04325347432308,-63.1828338611956,37.866080938736665,-11.764446570170518,2.68265469219683,33.53831451277378
4884,13.567752,-16.839638679959222,28.04908274604793,-1.6165737968231468,3.907608304295586,-2.456894179671396,63.20183650362644
4890,13.58442,-1.2355989018088849,28.1650325363038,50.12030705272116,-33.024539337070706,59.4364387840581,67.99036764459163
4896,13.601088,-51.31398801807174,-69.95852424539618,6.917713230194594,-31.861692219452,-29.150117229734363,25.21460821058119
4902,13.617756,-6.933841223404429,16.326245561588248,-61.474273663291406,17.112747970301427,7.39791271486105,50.275442192573735
4908,13.634424,-162.69173871598355,95.59438720608408,79.71231011719854,7.217888403809084,39.35599242240376,-38.25084540024861
4914,13.651092,240.61495876738485,-51.47950039819547,-26.60771828406828,-26.38478847962889,78.05119795232886,42.3445637020252
4920,13.66776,-270.9110038823369,-61.39814898338007,-21.7531504782085,-19.18330209509661,-106.2499692625658,108.1289924878321
4926,13.684428,-58.78521539316256,-54.572463960558935,42.66867380440391,31.046304702435737,28.251094449347217,-80.19982328028864
4932,13.701096,55.15743681117272,65.07629522402488,20.88724989008748,44.77302597022955,42.7460321616539,117.91141754550664
4938,13.717764,24.133852905575488,-64.04332963416793,66.10169990371719,-80.13863144353522,-94.57314656830631,-1.0657244972387758
4944,13.734432,-94.21704655970932,47.549986989797496,18.320003402183907,92.140136483001,52.220408399411816,125.51362787011054
4950,13.7511,-14.635992082366684,-105.17975206771636,110.10038887215156,-63.33161665238762,0.0947797362376521,47.09406564061074
4956,13.767768,48.88065655582079,75.92547661302336,-84.86450632511915,82.18064512358563,-80.99675589110225,65.81410454240819
4962,13.784436,-221.29043923300543,74.72458125535334,195.4647015302805,-45.71079651658772,162.4396416988714,76.15089113665249
4968,13.801104,151.6807969292871,-64.71252998154466,-116.0241729660679,49.40934150815493,-79.72177712301362,99.78157417911632
4974,13.817772,-108.42700285661388,54.52217891862537,124.06302865366416,-54.61272528277381,-39.37189842901356,-21.15770365455436
4980,13.83444,62.93054091247258,-52.34713488038544,-65.2775602994893,76.43031672810098,91.1862881487532,40.903307771355145
4986,13.851108,24.397000625834416,-129.2649959109453,-127.8698657931109,87.50531023185407,-64.44613489799052,137.90274323319272
4992,13.867776,9.593664218924689,124.59405356073054,152.64629873090166,-59.17066070472639,33.40831751937257,-26.339963610044958
4998,13.884444,-84.76608690456692,7.894706658528023,-80.89004592916575,76.22552201210183,-67.59214245352305,140.52331721801716
5004,13.901112,-12.166351631420651,108.60127338794256,142.09092888002758,3.5842283486356017,105.87823568984508,-70.20610296072037
5010,13.91778,126.58830755168192,-130.8701149968001,-68.21559660385093,65.01895688130651,-90.33185801950675,139.4725880770785
5016,13.934448,-17.965804869339884,29.198437937500003,-83.89236237810924,-92.22355872696728,44.55305703653728,-87.46381041676791
5022,13.951116,-34.20039280022596,-51.95751322420321,111.77435372892796,80.82239961980618,-70.069382723143,83.9575003365427
5028,13.967784,-107.78126425116108,-0.3655578850146836,6.797085292034126,30.80132043870374,-36.27849852558749,29.647257958324737
5034,13.984452,144.8740362471185,-30.231552501119427,-117.7839927317787,-110.4193495959795,-196.17581092090344,68.86951076998358
5040,14.00112,-23.14722274049299,-42.36386504484671,107.34593555373712,58.96663302619265,21.98591344826975,136.368479974624
5046,14.017788,61.39232795837202,-39.31991798718069,-136.34447262987163,203.59521401573068,25.60708202906852,68.76146356966053
5052,14.034456,-41.25970472138877,165.53137770776976,120.83383783995257,-127.01437185280636,-96.01039517788608,-123.6061513961982
5058,14.051124,-2.2461372132916573,-177.48878459457055,-79.17949387511183,-33.09453166335603,-11.142860946890778,118.29458766961088
5064,14.067792,-167.41795814941105,115.15965941918016,161.30650192354972,23.994268386059087,103.97159487393888,41.84964949797637
5070,14.08446,-66.10320527031658,45.57959589722151,18.588552552785963,46.05404773972101,-97.97250699218873,-8.632037038272259
5076,14.101128,16.015522619104864,-39.24099530068278,-64.73926148940089,-89.7946518154682,120.72078381611637,-22.471987762416955
5082,14.117796,-79.92287481037394,22.29241533997641,44.4446170560317,98.65843584045366,-86.27715940487047,112.98386700231733
5088,14.134464,38.66715044547965,-159.1409847478734,-36.79680001966768,-117.86789964766848,-85.18297719364404,19.404487613036046
5094,14.151132,168.76694968967354,65.211026718959,7.418994082832706,58.3778649044044,-82.40726382798744,15.49113369867758
5100,14.1678,-195.72742032115917,-74.33432735320372,-22.39127673883173,-54.80344189412378,60.48211359993367,79.80314247237081
5106,14.184468,47.35419588554305,10.873020326342292,60.31154609746952,32.88257609944759,8.05879296132945,-85.62798194318754
5112,14.201136,-67.41093025371347,16.621792204791483,39.86351944657859,14.9985257875232,-15.541022831363804,-8.488848074533664
5118,14.217804,11.17861658054766,-12.80386957471892,17.789663648705467,-121.2922832743652,-91.44361711201084,17.1091670133832
5124,14.234472,-21.547076138981232,18.17655318942975,85.7735579595165,70.51818566443089,94.52684065582208,-9.155456755648938
5130,14.25114,-54.289209541074015,49.07148580089945,-51.80099714277742,-195.1623207759684,-78.06239075266369,-8.681324974969378
5136,14.267808,-125.22109277336789,-70.50121551235941,71.88885836971603,-6.828760229554128,15.160030423009504,-83.56887114369017
5142,14.284476,136.67344117015142,97.23240958553596,55.996878224490565,-195.1661218992515,4.706701840753114,107.27985768138782
5148,14.301144,-73.09208318577012,-27.72623543110511,-18.969713952832485,45.04072217767922,9.35052465996558,-95.46976897916518
5154,14.317812,34.809573806554695,71.95235294377377,-90.5182835538374,-9.5675675042645,49.22406266433467,18.894683550812125
5160,14.33448,56.858422863590455,20.53457165702332,-128.13237137476267,37.90360090521886,70.90091156118604,42.90550421390889
5166,14.351148,-23.107308551185085,95.093605833834,7.425227015694475,21.37918941741908,5.256343363703849,61.613776305781
5172,14.367816,-48.83273809762794,22.235432982159764,-32.976614637959464,-95.6994866718853,-38.83125159025645,-173.03701557713
5178,14.384484,178.4498249125108,-64.23576006363295,-28.231836006166503,108.88728628703254,15.015040939899356,-43.015021936025946
5184,14.401152,158.46580461489256,55.36547300540101,-207.79875609184492,136.52623779023384,38.93050098512046,-77.96225128319672
5190,14.41782,-108.2204805112415,27.80799771543609,-173.4005225388506,146.4490505537217,70.09237384765918,-111.15916125119594
5196,14.434488,230.1729091381925,-36.71682159011346,-21.863214917197237,239.63738168685452,52.17417944098831,-129.4546924753016
5202,14.451156,-43.01454562129892,-92.63503502795474,-144.0257562213402,-70.65883835408955,-78.16724852188912,-114.02099289776794
5208,14.467824,181.9228587149052,108.7459999756752,11.693851883859436,59.93994239219508,7.313704437886271,-265.253986640948
5214,14.484492,-111.06953730440344,-133.41823897478054,-182.3262087590148,108.1313745029926,58.47783280586198,-198.9629498589557
5220,14.50116,206.34076713457375,-84.01140808365574,-13.651645049260718,52.705785801077774,-131.67226380762853,2.349451756012254
5226,14.517828,1.4334491425122238,-60.35357076257472,15.244564691330638,-61.43472116507996,55.220792779772914,-29.730082454730145
5232,14.534496,189.7683342113796,-65.33230469775872,-39.70651161298002,-31.22352115583332,-0.1122526196772832,-161.70006873082764
5238,14.551164,132.79777372970185,-89.40299856749455,-190.7023554042008,-107.3309018063901,-71.51777304755868,5.054673500425835
5244,14.567832,123.79946614839626,29.45549623433993,149.45891807627714,-67.53543243040374,27.448579480638973,-34.39691189378223
5250,14.5845,-9.024051410416575,-20.55209620416383,-95.72860101452832,-11.713423138537436,-31.816653666086577,55.48231290031823
5256,14.601168,195.79730977627295,-39.54481625178252,-52.32367748005086,-290.2782168359995,-84.28180909602106,-62.419389996715694
5262,14.617836,91.519693503306,-54.59423930636471,-73.54331501496996,47.48437336068391,131.15389666718386,-55.87071830308688
5268,14.634504,26.518348992410143,88.51279203539006,170.31232588216676,-134.69749914744924,-67.56842421650893,-27.694795110429855
5274,14.651172,35.26565687739004,12.410024303567283,-109.88657162368833,-48.78087766804172,24.30285001586989,-6.065894329970053
5280,14.66784,157.60997251722472,0.7231199188685737,114.56633912944298,-36.18237127229062,-12.04689732772477,-107.35614379483135
5286,14.684508,121.74403910406008,12.63074417026893,15.772201165834698,-83.12775702825502,-51.589665286862775,-140.0402828604266
5292,14.701176,-69.51031692773546,145.19118035137734,16.887381522669187,-104.7451355892404,-59.39456396003594,5.462157633071797
5298,14.717844,317.42885858558645,-76.72045448032006,157.55675638232677,72.32429643954485,34.09461244840283,-54.16740335897857
5304,14.734512,-18.96223052708421,103.0070966252138,-16.855931483165083,-20.03033562891362,-53.24831122937337,-56.009633663303376
5310,14.75118,240.24957513967792,15.533191250831408,158.14498622683868,-12.365031157693364,-138.02622155486992,-12.013865620523749
5316,14.767848,16.522531386743143,111.91762536794776,-15.837885155701748,100.52686906032952,136.89364238632643,-191.0614372131925
5322,14.784516,-44.57156647771521,-26.17417228471379,100.7280535900408,-57.79700980151426,36.05593143015116,26.51837553680353
5328,14.801184,295.01874017283427,-23.70660455480006,15.27286872326868,-59.83608527233427,-93.86126724333208,46.534442266866144
5334,14.817852,-132.2687676480944,86.6045326354884,1.8588864577142648,-86.88152833215612,3.5342923664176435,-38.01863751819171
5340,14.83452,86.44028184324179,-109.42720201252308,154.53209585161585,87.30327627285357,-82.00290862905015,-85.84951205897391
5346,14.851188,-81.87317769676827,67.16356150919347,-14.12623424348339,-181.789651961603,-98.79217344916674,-155.1817284112119
5352,14.867856,-9.873338672519017,-55.56303474177138,-25.09394269232204,91.97034177608168,103.57512139189588,-19.543093946240592
5358,14.884524,327.0027101643184,-27.639579921188933,1.1290196594455075,-48.022468974331815,-40.9647834010019,-149.73842371759207
5364,14.901192,-103.00217019393628,143.541559344894,91.07245430748308,-5.291432546749292,45.32817595072393,-142.22278063948323
5370,14.91786,-149.30111112082298,58.12666765068189,139.90776147941,-104.51121152854272,-45.964462760675616,-169.0221459528501
5376,14.934528,-14.50934704411705,-7.927162468989287,-134.42645558356412,17.86777382039779,25.401354205486463,204.02300782720351
5382,14.951196,34.81799782984076,-32.80083679750875,208.2951334192748,30.849248178016943,31.82795197012629,-244.17673431993416
5388,14.967864,51.5132071040476,166.89579699255717,162.94181582408578,116.52407702101766,89.9254560019476,1.4373928244802308
5394,14.984532,-73.43178891495224,-47.4802971474946,-51.24065461708789,-97.36597448938466,150.2890605290959,-112.24792907938068
5400,15.0012,199.66903201931467,2.450085308690346,7.925223675758616,215.4785242121436,106.90308151412806,-319.6301023326125
5406,15.017868,-93.2677616707616,97.88573654091408,51.93007288654903,35.78852550280383,27.6491933701474,-12.721280729393555
5412,15.034536,-187.63342271692585,21.384383579060664,-119.01365635237632,115.52138317414988,-56.97730690829857,-249.0096439498408
5418,15.051204,34.25828672529373,-143.5655269743885,-64.52316526641695,25.52345134507346,104.82923846625675,-23.084711942619084
5424,15.067872,214.98418945252425,-72.032412473368,80.16832221887854,221.96522536458653,-42.00571032866879,-83.69639891725957
5430,15.08454,-224.15572443213492,27.747837095733537,-111.16133064896272,-112.3785806611557,-47.920378462389365,-63.461255088031024
5436,15.101208,-90.21944676524151,41.60198038907237,-54.364903266122326,70.04431573146998,-6.049442268241492,-124.05085256889028
5442,15.117876,227.50843722219227,-120.50332847090344,9.098025162309398,-7.231671799619484,-49.30104975124659,160.56802781135184
5448,15.134544,16.968145443306167,-86.96387269306359,-45.72294208601217,-27.63386565412099,-98.03784851098128,-29.278279720817324
5454,15.151212,-176.94394077588348,134.84095836807717,-134.33473958976137,-44.65771738423253,-12.917580645446591,113.56741777650667
5460,15.16788,478.0190510515309,-201.17977910813664,-117.22895515819276,-65.326992609084,-110.67610327458122,-77.07536715387565
5466,15.184548,-323.8429956363333,102.48974926510112,45.00407484547759,-64.65708834065936,31.39127415268744,27.110332975568163
5472,15.201216,106.06331725999786,-3.984281850155304,-198.6756770376776,4.422116832337565,202.07806973993,-11.798740554494929
5478,15.217884,185.05162761887976,169.99191473755445,-216.58434447914252,-159.26926731628237,53.510579524112586,46.97929415267068
5484,15.234552,23.10333695680808,-50.42108357671848,-151.44823916322565,55.54662918435718,61.17157661855936,36.43571671359979
5490,15.25122,139.37999293771043,136.07824692722832,39.00221930402799,-79.05967678464722,-41.984456287102326,37.78457303540698
5496,15.267888,-155.7179734086887,65.64860725334552,-132.30973567783923,-64.77769670511233,18.658351729670336,-75.1362834998251
5502,15.284556,79.28210381413959,13.9075257325361,-41.50677880078119,-0.7438066796626828,-41.11498941476178,33.6653512396389
5508,15.301224,184.2803160641895,-27.21972332574481,112.2029434475198,4.634757352785115,-119.92023068042374,-15.153711131401508
5514,15.317892,-163.8051888735908,-5.11513734162458,6.315303295964007,-1.3915309269710594,-82.89367052530416,26.09681986936278
5520,15.33456,-138.29776227851625,-39.0134715734725,-84.64414687928215,-4.257940579784886,-92.41309548130128,67.74219279089996
5526,15.351228,36.92107850101949,35.15738331142775,35.02077361543684,-182.1523354784575,21.1376811579608,12.297780303089064
5532,15.367896,117.91000065400272,-84.95225661130168,-7.308657615526069,64.57541595848096,-18.59467392944944,48.44426013148964
5538,15.384564,24.81747703716374,33.358202893249704,32.60758692829203,62.43824091304419,-41.77419696608986,74.72108484495925
5544,15.401232,-85.56313920397794,-123.74462556625566,-61.58139958893381,-92.3734039981347,91.09062985521922,99.05307138996736
5550,15.4179,178.68625532753225,-50.11475168427511,31.680782881395764,7.654824935569047,-54.21455660244352,54.36354694032877
5556,15.434568,-215.19317994647747,56.50709240329503,23.24263445601304,80.8677753448214,-21.42387337241347,30.766984637743835
5562,15.451236,-66.28914881631118,2.2524507348611564,-13.166731491586004,-58.7141671576895,-62.7507290605106,131.35018476456025
5568,15.467904,66.06491023755896,-7.922912650036828,-19.41474137229492,72.13223678126734,19.774768740422694,9.799007805799612
5574,15.484572,-18.640755153875062,-62.61892763137952,35.28051585253246,-9.921442359824123,-30.923476366302108,130.27626968551834
5580,15.50124,-91.28184314390016,35.880768893836745,151.17541255188394,78.36668992738454,25.975683210487,-30.19176209728532
5586,15.517908,-123.69254998940104,-24.222201250655544,178.47511454146908,68.64989673035734,-40.06529855131488,161.37013453884066
5592,15.534576,-80.09916382573275,66.96014498364902,34.66542552991871,3.763991565364911,73.92571203268221,-1.2790770284336723
5598,15.551244,-63.50988934817238,3.3416441057604764,42.53264672679718,104.82031368247203,45.011417688354186,7.192377785681401
5604,15.567912,-191.15977426733744,23.6610156589761,53.988598703749375,-40.29626706773193,2.9075827407527197,-39.48980505866336
5610,15.58458,-22.936111523094493,100.71105199519312,172.6070426389628,66.56643985881479,-17.86787487976308,165.17830461434
5616,15.601248,-100.13586197810612,-140.42712340369908,18.3965868878994,68.49292495811017,-37.94644827035381,32.49399620845769
5622,15.617916,-84.60949013983677,166.2430034747087,33.58126753131311,-11.678944301770017,41.85520663894469,51.897466684018646
