Frame,Time,RightHand_Accel_X,RightHand_Accel_Y,RightHand_Accel_Z,LeftHand_Accel_X,LeftHand_Accel_Y,LeftHand_Accel_Z
0,0.0,846.2919325046902,42.38443702726448,-275.51091727967287,347.6858223956683,143.88711147494416,1171.2318709205708
6,0.016668,99.7114312505091,12.670069650701969,344.039696318454,-53.93601905329174,-50.54702250139031,66.81460712351661
12,0.033336,-21.76944028786856,-54.5678864437041,113.1762249821368,-56.7735508670113,-96.82815620220352,120.7184024908841
18,0.050004,13.094933102744308,-171.36737779864194,330.1944563975785,-87.81275074559498,-41.23335801069437,26.766207669818456
24,0.066672,10.221889708056633,308.78224487672867,92.46980270343398,94.41716390907538,92.1441696226188,389.4335128521316
30,0.08334,29.20817014628267,-269.9521739215908,360.1490463057652,-65.35293960003617,30.29992119363766,121.20618813949316
36,0.100008,-27.33910939766263,86.71116228888575,14.07691382146882,100.92320183248412,-129.009102620893,311.0525368980512
42,0.116676,22.03879345897507,21.08414266005133,383.25641966537626,-115.92354322288654,70.8173071474868,-60.22594496674449
48,0.133344,-166.23104877961384,-34.33842140952273,-121.84680340058527,70.21901341633483,103.72415612574132,210.65362235904
54,0.150012,-93.6074548254033,33.638231955299034,45.41329877406042,-123.4518865154499,106.88831819450309,21.907636433094662
60,0.16668,-77.30758581933213,62.47437156495417,117.21106824878996,130.76447484902226,-42.773819122202895,151.3028779276364
66,0.183348,-333.41925312698004,21.974351755432025,-173.8079842345065,-57.32242994293623,-34.27732861921756,123.52916323968311
72,0.200016,168.29463424558153,10.14992144996058,32.540250445473205,134.19811069504505,63.37643406385854,109.13401456473886
78,0.216684,-428.91859883076415,141.4004595034575,-148.31134827547885,111.78910708452194,-85.70401200470297,63.29457791748978
84,0.233352,169.07771057739552,10.150695469171351,-57.096138579341485,-14.117893893126611,-38.2025764040332,140.8654100946594
90,0.25002,-167.5406167432788,-56.91214722436247,-302.7377747439682,114.10817026418196,-27.04922721572568,58.76993992464968
96,0.266688,-85.3544586758054,45.83246413270916,-112.99216094623335,167.0601152402043,-221.1978287264333,132.20179583433912
102,0.283356,-53.80257104769077,64.0270537404339,-209.31718568817504,-23.49373840609612,163.3631153158544,48.66158146132804
108,0.300024,-21.65125993520826,38.89363565649575,-194.84844980365733,87.24016589433836,-96.44449576593809,28.154741895046108
114,0.316692,-115.20930765200411,141.86596870450813,-143.3651939553717,119.23072634158645,-44.81056295394558,-98.84340103190073
120,0.33336,-129.0191353112189,-263.18807298970944,-404.75298772631993,-34.80943702034085,47.3408155062582,-26.00113217355597
126,0.350028,117.8244251111222,41.56413074904128,-130.42455181280604,97.85869331728377,60.71058254095213,-35.00629976953445
132,0.366696,-724.9909813241792,98.86908720779913,-329.5970413093755,76.15610527017583,-140.98926688153136,-45.847367337044005
138,0.383364,139.74530795882765,83.19213730117315,-197.98408744566825,-105.56718100870606,113.46101603618057,-186.77192820731855
144,0.400032,116.87188438722404,-46.24875472423126,-151.4206630797997,82.68596040578217,-122.03274741902813,-43.78914546449288
150,0.4167,-36.73307116010298,46.37960277509916,-191.63849407106107,-172.2861455379928,50.192678795551984,-114.5279080511829
156,0.433368,106.8122449126693,-52.61062537440242,-169.8797641420983,51.78830927526647,-135.15506796460653,-137.65152898884116
162,0.450036,58.93449955461563,-129.36317047261804,-224.46271867153592,34.99599659075784,-102.0640753712046,-269.13102553675435
168,0.466704,88.5844494305011,130.08491666215144,-129.85587113718825,-85.96307475952165,-58.62255451794236,-151.5369441742743
174,0.483372,63.07784717391281,-27.33359360539926,-139.498622242962,-23.81556536561256,-162.7523619980284,-281.5251701324396
180,0.50004,8.768275785841496,9.363546475496292,-125.69803037138496,127.56662491815956,-207.31815867706027,-307.83343681335475
186,0.5167080000000001,93.66241890505624,259.9057533747132,-169.28363425201456,-60.22041913781832,93.44293572123364,-191.4120649164282
192,0.5333760000000001,-13.365615874165483,11.427959670766455,-117.1484923459081,26.99028613035477,168.22062637822876,-230.57386513642493
198,0.550044,-322.3894579815829,-60.94262246040529,-81.30686621510337,112.30877831797412,51.98307458265512,-215.5695241969281
204,0.566712,-76.98688787905255,193.75731513133144,15.481507882298008,269.06514373294283,204.2663022504703,-269.053384804562
210,0.58338,-310.7130164376539,364.2564325960861,-39.39649040416394,104.95815611440304,569.6440001188089,-219.3162716908057
216,0.600048,-180.86248901143324,415.83906471893977,223.39004179762563,157.89053111096203,506.5578430559999,-325.2113265783717
222,0.616716,-48.7457531478253,221.4336007385815,39.3383507343491,130.0716794047982,108.41162268189608,-161.59101185068275
228,0.6333840000000001,-15.493900083867675,245.7072855043513,77.62243746721241,124.59639272596247,172.75558327535623,111.37402729677386
234,0.6500520000000001,22.14369292898612,-90.82490092486913,-109.12013826606744,131.9679523972808,-248.1455976011402,164.20361104743154
240,0.66672,272.8308960733799,284.2453238201764,84.32221836131762,3.768864691486593,117.88138519971416,-45.59497267797188
246,0.683388,55.93940738962957,56.29301366686488,4.839610269815864,95.2302354551458,58.27966621014203,-22.39376834255169
252,0.700056,82.18323461115791,99.19475074635506,-89.2149340092818,172.35923651805723,102.8012977055326,-54.19274295979566
258,0.716724,-69.51348401262615,306.553092904443,-100.23790122901823,271.7863230776413,196.51196455988145,-52.56392362260955
264,0.733392,159.93335242262208,161.62278336301938,224.2253261932221,-28.328140026263792,351.9621591712271,259.7131125413579
270,0.7500600000000001,137.88165252420927,127.75650689229168,233.56294166381176,535.298679696137,146.95083189522995,-148.15023404756215
276,0.7667280000000001,-398.5783442147285,156.74899779922194,14.148861192504768,146.9920795073444,293.527819964372,31.951123009697707
282,0.783396,-280.9542007424519,68.81482464218615,100.07288590810953,117.24031377416844,318.2179794679688,113.84896471900716
288,0.800064,-89.15987004759322,266.85518414210594,139.59824417952407,190.0582895727844,146.6604461915848,221.07455240373216
294,0.816732,-1066.225743268695,-867.8016883023225,-739.6333688500387,162.51172282761564,-0.0357255024774048,209.2702734085904
300,0.8334,940.2207942080228,654.2732045588812,923.01063320839,188.36531417702057,106.39824855023843,380.61289769777807
306,0.850068,364.9928238399178,184.1749942045624,425.1458652644186,242.47754359361727,83.03522000188617,195.4906612639805
312,0.8667360000000001,-140.82115169166747,35.85494900953778,-238.73110458853267,113.26059593697812,-97.1766266996134,276.4460237589018
318,0.8834040000000001,240.30247814793347,-94.2140083483793,56.43646188745648,-120.93626832123924,-18.070502687172212,345.4166336129721
324,0.900072,-79.01368854180468,99.0937926948973,-484.4210038224171,145.21717387347152,102.01179203509568,343.3563001593254
330,0.91674,283.5687127081627,-389.4480987978408,385.2613465166058,-145.19284065044454,-295.3917079835248,228.7483469451132
336,0.933408,69.29279706981531,174.39242609869893,-151.94340062152776,17.924793111032468,-102.90380495972872,428.8862007350223
342,0.950076,-43.829648725185706,339.4375913585302,-447.5045123020841,-235.13396705504945,1.5702769580887337,132.58446614236033
348,0.966744,-485.8598716428178,405.15619709731504,-721.9776402798856,-83.165748295124,-263.5143028510269,312.42492629640213
354,0.983412,560.075131366554,458.9959531519122,118.58492490643012,60.96178933793699,-86.91791646175994,497.349645358796
360,1.00008,109.0401524724109,333.3966514809292,-226.01223373232395,-481.6164697161241,-146.65599836761243,357.50974930453094
366,1.016748,-142.8281853847837,409.0086024945726,-420.6059943429786,-134.2210180546011,-192.2419113608348,305.91408622516195
372,1.033416,151.07153085604978,-38.00206726474879,133.55062271461185,-357.6886553797765,-196.0335057992308,521.0197949468409
378,1.050084,138.69858053429644,159.99804315916674,45.16662187808643,-332.9250065546072,-212.9301860244857,433.7029186955218
384,1.066752,-140.75001548870924,237.9371584559162,74.25727031115991,56.19919718815326,-333.5860931956521,421.0439788915735
390,1.08342,-261.40043292282,41.871049200231,2.1462544151668226,-286.29971512049485,-247.7198117124481,279.4655514816044
396,1.100088,-156.1815156988918,250.44679852218025,175.07115048123163,-250.65208506885688,-187.8571912054476,394.0266357117161
402,1.116756,111.92432435766192,-244.9655002962301,445.7432697238995,-225.21123985255545,-271.0969650160115,308.0515195808696
408,1.133424,-726.2669736812463,622.9145357418346,181.90369600671053,-232.67963920542184,-490.1925415115146,359.33335869774413
414,1.150092,827.6705882491435,-278.02274987444343,550.2021204845796,-204.0986743718923,47.3743088686807,150.58300320177997
420,1.16676,-204.40371824000783,-108.80628103874965,166.29451538443666,-286.5207262740594,-177.7181930174125,311.6706323264767
426,1.183428,-92.5930980379026,32.903881184022545,375.42296754618303,-25.48893575431632,-178.6983613444104,139.06928223258495
432,1.200096,-189.41896894907205,-222.75664629129295,308.0072671256836,-262.6988473330288,-99.90860031466688,66.0658306755509
438,1.216764,331.3789811877669,-502.4931282960271,253.69792956781384,-139.1523522230536,169.5426764427762,215.80963978828345
444,1.233432,132.92821065884,-372.2402352966929,198.72160952252827,-271.0738854383827,108.2759496974118,133.4107703617533
450,1.2501,313.69974888101194,-675.2605491261456,212.6626494017604,-50.28388195577591,95.11943821380338,46.13968557553356
456,1.266768,-123.23585908130669,-61.93222041173796,30.92757420765662,-20.45282454152011,46.86422030141457,56.727250636821054
462,1.283436,336.6058106554364,-347.0826009649385,-55.36743843887165,-161.90684363549025,481.5563595523945,150.1545375679173
468,1.300104,84.18056018448652,-251.98587878619705,71.08471204634287,108.51374029875063,-78.42506028007858,25.910243304023616
474,1.316772,335.27849251595626,-513.246015018627,-45.38349946830439,-43.45694429705227,-166.65442860505925,-17.504635152599015
480,1.33344,143.44378416709688,-229.9455913047289,-172.29022348362005,-124.16318099942366,143.33716588989734,39.66045322078258
486,1.350108,173.81444338981504,-193.0693216865465,-1.8877718916168436,156.1665620478778,7.188131680359675,57.83327130695466
492,1.366776,122.47448570374308,-180.41572638782037,-144.47223125123418,102.1353146381775,-91.48042900554675,-275.28721705368616
498,1.383444,188.0182151195008,-231.95431236103127,-0.5729893473543077,204.64860015021972,158.0950651330075,149.3962743124285
504,1.400112,198.13174351891575,-336.44160031457614,49.64560915177566,13.361342796767644,38.9371453496663,-36.4711749386863
510,1.4167800000000002,145.13054770780025,-240.53350130128763,37.274018087392285,152.6361211974403,-154.4154922623873,-44.7792661305396
516,1.433448,74.89489507308713,-116.50227624897244,-1.9967801823235725,175.7295883324504,-7.771585861797329,53.45658431576267
522,1.450116,128.4222363392753,283.822562154506,120.22203448416236,195.22273878363168,432.6977596380664,-62.71956989165815
528,1.466784,82.42827612146962,-127.70831846961372,56.066126410083896,293.6895422529525,9.170385702151592,80.73737379195525
534,1.483452,12.24127178521108,-154.35581042220878,67.04920732384738,362.3296738723988,131.37021618850832,183.38018955899477
540,1.50012,11.297579036494028,-199.78505140688145,252.44769871141543,154.17850875910645,43.07473096851099,50.35478642239511
546,1.516788,66.95392440770422,-97.56071370964196,106.82042138522588,22.50435634353641,270.08928476313986,-21.41605929840224
552,1.5334560000000002,-3.639866768919816,161.38918274185062,-52.37079875495103,46.64655382591436,252.03783771427885,-297.81754853886457
558,1.550124,99.81480207453583,56.682834678905806,241.985024894072,114.97933476424696,-163.85852121373492,204.5098420377942
564,1.566792,160.37475362781586,-23.1576180492498,19.680410749638696,3.994537019746176,159.9154003318094,-205.7244749885632
570,1.58346,138.27256293195867,-34.187544673179325,57.6775843277234,230.63486340035752,-111.68905017496654,-83.77867942429138
576,1.600128,189.63357284845225,-47.47229489086686,97.49365965260228,314.836042752258,36.69102852065614,-191.32992676441285
582,1.616796,96.2927944841219,-125.04917701556808,-7.910530782214558,196.68991710008183,81.10265039743975,-90.90946265121528
588,1.633464,13.35370150167398,-76.98344761986847,127.90408413098436,351.5974786357981,54.18217485796468,-357.2346126534982
594,1.6501320000000002,-27.254618854510767,-49.5455751902366,22.590052381048245,204.6799117086295,-19.35307181407568,-184.39355765077465
600,1.6668,55.621049710732,-18.76455311348432,43.64817391179282,156.33250623776942,-105.08417606235068,-163.1354383991776
606,1.683468,28.071260110325703,38.989237753818855,80.60935917772854,127.67148116807444,-84.60131360096767,-176.79395103220588
612,1.700136,-16.33033262146615,-89.44779292422862,63.53390012030032,125.49939387604266,-44.48546531941721,-333.6139724808663
618,1.716804,-45.525051508822585,23.18237806986785,-25.34739553643742,73.43159358367825,-20.477167625167446,-237.7164549152199
624,1.733472,-15.42027040963466,-7.35568525546104,92.18889695547765,109.39690608683746,-103.82544831478828,-281.76804135627293
630,1.75014,-130.4268654624401,-134.99156013875495,0.6267204965800897,179.04607521472536,-77.06217037978757,-276.52348923933374
636,1.7668080000000002,-80.06584915326377,-101.50765756535596,41.62333525875188,76.54548626235166,-13.042311620487126,-373.272829398111
642,1.783476,-22.21927495476126,-105.8289557545889,72.8129149291926,271.9419925038402,-178.96914489292274,-123.17164584021992
648,1.800144,-15.689255684274269,-128.99676570405185,27.504925729534296,162.96829991393162,29.79771605701835,-241.1963571769282
654,1.816812,-38.27491387614014,-70.61530815253285,122.03141614409566,138.47773969064525,-154.22756540259516,-237.6892349854761
660,1.83348,-25.55352760172364,-86.64317957913066,-1.1204175254997215,181.8537290662868,41.66287099757773,-135.99942328147438
666,1.850148,33.2417214610911,-120.32512021595214,-39.9717469533867,122.20983035514342,19.691268722799265,-121.78583178249656
672,1.866816,-129.03405546266012,31.10130896070181,-92.39755701897556,119.38125621595788,-24.87585716245197,-14.7445104077909
678,1.883484,-53.50080570065343,-50.72012182249373,23.84971285254553,-79.37317053333643,115.31830351772562,-160.1812669997948
684,1.900152,31.961028477926128,-104.67799685213711,64.873628189162,-430.9211714290129,29.38868197666041,109.04311428992672
690,1.91682,61.24024369656195,-57.26574152132149,-142.01900904700534,37.91854098773884,-125.5064070038836,-84.71423904794153
696,1.933488,-43.66032317819023,140.08424817730972,-123.76440496851924,-179.79970368488705,357.9354088025195,-80.44645280252482
702,1.950156,-116.34708021945718,-128.91171670545523,-51.448232737103815,-53.10575355852833,66.34689891360728,149.5952797369697
708,1.966824,-29.91511216850764,94.33216848188796,78.29986648444088,46.63261186419524,211.5790435953317,13.680902836744131
714,1.983492,20.07382351337873,-86.47691222267923,-50.15145433262166,30.965701097003915,90.33557280402918,277.7576607796091
720,2.00016,-26.218801961696883,245.58263797042449,116.89757410356458,-16.492077772827173,63.97123538758965,16.290792689603258
726,2.016828,-8.102004932741336,-78.55618275833086,-97.56498237463497,-77.21781226293487,23.503554501960814,138.42104150647577
732,2.033496,38.18522976125144,94.5156620743821,152.7369385309271,-93.73514349667028,-23.51774043336871,91.40888706051416
738,2.050164,-22.15889705881476,-471.2627370390544,-37.54894643676098,181.3251377401989,-393.64723808814927,129.28209988131474
744,2.066832,-136.84914245729618,426.0173791581085,166.25028066821966,-77.41149321916032,120.58614934450874,-6.2277295069945495
750,2.0835,37.875644492714265,110.52723546032126,50.90123698352982,-42.94763762167239,-169.66460428158064,143.3172121042957
756,2.100168,-8.928196695235284,148.44474373022672,94.05564590856636,118.98951256902056,-194.1500570057096,-37.018541689367325
762,2.116836,-223.7689520181578,184.2828900454336,-3.1185734373652823,-235.7847754991394,-5.20593466655037,116.08225754628825
768,2.1335040000000003,131.5655790530828,164.61392247943593,-53.76853530898386,-153.53152496815238,-108.44712151558872,91.13687080556863
774,2.150172,102.9701831520274,113.96962224823872,-7.16201090432266,-186.55793912097775,-138.70112506212047,-40.98032798100347
780,2.16684,134.62666071789502,80.02353376732759,-108.66719102672378,31.277627403714398,42.10869578145007,69.68927191675857
786,2.183508,201.81439807993684,97.29019748870827,-43.51501694506077,99.43730935980666,-86.07958962848859,120.00208583270393
792,2.200176,-80.94468698900508,86.76788139574042,-93.1737699234843,79.51343633977376,-101.93277726608456,0.7376467870869163
798,2.216844,-80.57690219327506,4.9658134749743965,-169.88864011191987,-8.05938965158036,-187.48019643555315,27.971549563715897
804,2.233512,20.216033566810665,-144.92764154090193,-3.2606862844670665,-138.456819603567,46.7641637228957,44.02412215680783
810,2.2501800000000003,-50.88533550984873,68.2923880392772,-82.1902860634832,-83.55523098069018,-18.76169942975448,-22.68311964138333
816,2.266848,-64.35083546151854,-94.59138944127886,-54.88203179201858,309.2914247356638,-117.67617242866632,75.68317206282988
822,2.283516,-140.17929334632302,33.25151148170677,-69.08610247889736,-77.12800355147934,173.31140354044103,82.40605154076363
828,2.300184,-156.4421167382623,-46.990942276929786,-121.47560776372,-166.70739877859367,-36.26201072247892,64.26608334125766
834,2.316852,152.3077714769665,-109.1604145870916,-161.81012079019823,-105.71186377069964,210.43334273959232,-110.45459555257162
840,2.33352,126.03378047614312,-67.43004671211571,-224.339754070575,80.19958111915561,-99.77832177029028,120.21715639887869
846,2.350188,76.28028381296458,-261.9398357025248,-91.8708862979551,-77.54589059961418,-19.875181259565306,-1.1038159651091064
852,2.3668560000000003,117.3052917971304,-29.90997084799035,-223.5825546860929,-75.23002431153361,-164.638272321192,-65.17587262166457
858,2.383524,3.995900154393482,-95.22960225636048,-82.85031611161811,-41.34951235397983,25.027583988240806,-103.79348681577233
864,2.400192,42.39171926034314,-92.6283578435415,-138.7397205150903,235.13386335494317,-211.2569643722144,49.02661854011903
870,2.41686,-13.34297148194096,-135.36962310040406,24.44030017590956,196.13252768937016,86.63547573577895,-122.77394680692096
876,2.433528,-71.14836675230026,33.73573289040342,-25.17830708592473,-28.918611998009737,-204.633825461972,-96.97696341585116
882,2.450196,-32.3447107955938,-14.428281328999248,-152.2926662723698,24.835481018964984,45.38749242999137,-36.70211323221549
888,2.466864,90.03367463535847,34.79568787168363,-142.58319089781276,-100.8921226206891,-56.69351439635233,-206.5362281771975
894,2.4835320000000003,5.502903353556567,-4.79419433006122,1.662121880925408,87.69935212551533,59.21948816101083,-68.98982725401798
900,2.5002,67.98721222027267,-78.92475737921504,-75.90137863997543,270.59438007930544,-144.7375544060761,-35.503811631095374
906,2.516868,56.44617114544579,119.7794882233611,-46.4021285603956,139.72279611568766,0.3257997260912617,-161.427646355636
912,2.533536,-10.051060414685084,367.5695301143376,14.183724235425018,-47.917682144347495,280.2601884527017,-279.0317909239829
918,2.550204,-5.175854955526498,202.8394781899772,-26.292671243140155,52.7324528190941,287.8435518193154,-298.8536621762944
924,2.566872,-82.06996044754177,-81.04491802542813,-31.670949096497782,327.6903732439665,-40.89779057941776,-129.30428480781765
930,2.58354,-175.52972130636437,109.50048756441156,-205.26395961165477,329.4405958615928,346.28967530136856,-131.03042858512373
936,2.6002080000000003,-184.7478208503073,319.05390949559285,1.471741311162325,68.97906660654463,276.0671675712146,-210.30158068110572
942,2.616876,-27.491242401467908,122.69329981240604,0.520600454015721,21.394695912178605,262.6057757595358,-313.9714419337945
948,2.633544,-34.9753522896774,82.49599159021899,-181.41188248946972,104.91387905141288,285.70883812419555,-82.49949104296225
954,2.650212,179.11157019932548,126.7496137059305,39.47771913513275,149.6683884042318,187.3871534666337,-90.37087542771688
960,2.66688,92.9688009271332,187.29002195403527,-85.77638858232373,27.185479562948487,213.07718916055052,96.08918444997867
966,2.683548,106.5105435847733,243.76015954523496,8.52780000795401,29.08428906831269,198.0708323121281,-16.67944942794949
972,2.700216,46.96308915011231,27.856371550292447,51.60243238844435,-20.989515558431,187.3993666548953,-90.78071095419742
978,2.7168840000000003,-57.65387351352109,-158.38375168625183,-50.241551099824974,-65.37138113690332,65.74807415579325,-48.72590113969661
984,2.733552,-179.00192094575192,-96.5320841810651,95.81985306484702,153.97742924430443,28.9385761651198,-30.797145797035444
990,2.75022,56.692008801323965,-222.8711658031026,86.40912313160058,62.93893494332019,-79.40431627621494,-160.17185526187546
996,2.766888,-150.91792877689502,-206.54144782196863,38.59730494561198,92.30232883025838,-123.5809169616558,-88.33771326300273
1002,2.783556,-183.71236593020623,-344.3328673394683,35.181108309700846,68.14503391000744,-227.94217196032065,160.15347836097132
1008,2.800224,-141.03798934618482,-317.4852103005853,31.468845210409995,183.11043193909245,-139.25357288720906,124.87468637055076
1014,2.816892,-208.5394810716228,-309.2570766804114,11.031906320031908,-105.7281719890909,-70.23549991487533,100.7845907765942
1020,2.8335600000000003,-204.0340663084122,-163.0993342338635,131.00185909522594,138.59233182636044,41.28371284380248,122.42243742298515
1026,2.850228,-130.4234194184919,-203.1625096040641,199.26939263360845,-83.19183378830391,-74.52317395541812,407.1105869893704
1032,2.866896,-34.57915054067328,-79.33276178669082,114.00460932857744,-10.878210925610098,-2.509840758910027,130.3117993863324
1038,2.883564,-24.415425000643,-62.79232081220388,4.656122418017491,-147.60869601364269,126.52509934322896,213.59770917150732
1044,2.900232,201.730384439408,-52.391615299430455,196.3650554280777,-181.8865780023883,33.96878542549408,210.15652555400652
1050,2.9169,159.289750921009,160.93283035360395,131.6091060773814,-282.7554591651427,-40.60256705131934,100.6093852814736
1056,2.933568,61.07144663183679,22.977106677074453,-1.1413778841021855,-284.901003232236,77.1618498635731,168.43010673569688
1062,2.9502360000000003,-53.67941638271998,81.07462227845265,189.36857790674924,-165.20305845040082,-136.5997034075943,119.7402732691069
1068,2.966904,-161.89302240207297,-136.0541182866043,108.77127786500527,-205.25438007409164,-131.49620490559624,186.01367922069187
1074,2.983572,-84.08519303968751,-19.417423556606263,276.38444286916337,-139.76366253128086,-345.2454444557519,295.97596742616287
1080,3.00024,-227.52332124547544,50.833459554317216,325.1131636666045,-203.9947149257556,-211.0212813320861,340.3314020072509
1086,3.016908,-53.982410200681606,-104.784914350397,184.63051166176405,-274.5999900339491,65.5191776974946,-29.407910997064107
1092,3.033576,-75.10187485561855,-33.71876372416766,89.48785307749918,-222.01213254069984,-153.04749529137172,357.9894803351008
1098,3.050244,-101.74370795679306,156.76830953509696,-99.63103031466932,-57.9790928837417,-273.8925736241377,308.3439581480464
1104,3.0669120000000003,-77.22656514688029,294.033112025294,425.4145229607334,-203.6713259850202,71.96772365005565,179.12033072771936
1110,3.08358,32.90410000591876,123.87255339935112,146.32031346740493,-137.58109529710836,-144.30729320837236,375.4441207462045
1116,3.100248,-80.30342245752317,225.29965370294,401.5685564868994,-229.0087835986258,-97.86543724546354,143.52296077816467
1122,3.116916,-37.34954265191673,-19.684092607938467,-141.4600068626223,-108.34579835472884,-75.51878243050686,235.0916079200806
1128,3.133584,-41.54081236160569,10.490605352575669,98.37153771818431,-116.20363609104857,-121.68276109398649,70.58143601468441
1134,3.150252,-106.12226274095563,23.525402221348727,220.98894717515972,-137.4573697708211,-76.68460809162441,261.9083011905581
1140,3.16692,-182.02230297792192,-39.16688044252629,-19.68862985590732,-232.84495334773823,-129.1252271436164,199.6908589044799
1146,3.1835880000000003,-69.06543052975779,20.03571838731677,-81.24930997329507,-110.45160996548525,-86.05635497848878,-16.45233042213585
1152,3.200256,-13.254809935547549,-85.88242516416665,-67.81316165191396,-137.81663004328067,-40.44845253713807,60.080919803605696
1158,3.216924,-23.341356675226518,-84.14560654468747,-20.421434594752824,-108.7240292130048,-55.7912177938739,150.93107984573987
1164,3.233592,63.82353340188087,-181.0429324622944,-89.70569371299307,-67.45213586626969,14.422446545569212,-68.59051481669057
1170,3.25026,-14.090846339321477,-49.730060236903554,44.60240004329667,-203.93413296400868,89.44155886496128,45.54651062982505
1176,3.266928,118.0032080082472,-43.40755825357345,40.238866241507885,-93.12176962603888,144.59630774700798,-62.95577161369251
1182,3.283596,318.20143467898686,-235.2898696104405,-143.76284865166335,-170.49750136078313,-97.9006643404871,25.565137884893065
1188,3.3002640000000003,161.10961754010287,-164.52278157411592,74.84639743073649,24.51795938153717,72.85173943708095,19.71140802745876
1194,3.316932,89.43740012162155,88.62477453653709,-57.60588812625117,-120.9573693442786,67.56968068369054,-138.69010663805415
1200,3.3336,-60.082943967208536,29.89777157906566,-72.02709919132619,-15.010167864308166,39.425799740302246,15.78021598375993
1206,3.350268,-76.16826683633099,64.08562551371281,33.648305795845275,26.973282767816546,24.658584506074103,-16.75632306418611
1212,3.366936,52.137758924867406,-43.91407702054884,-73.15664504392231,-150.95060085726155,-38.21371548057006,-3.301819462641433
1218,3.383604,-79.5369140525341,72.42253977036131,35.80959690791949,159.76268739803794,102.6142952260512,54.23886402336997
1224,3.400272,-60.89240965200409,63.403408218789686,39.62111194555398,-166.2704463895432,-269.0125243971475,200.08684417963732
1230,3.4169400000000003,6.796376976342152,37.65987030340446,148.14622198267347,155.15347485357552,42.46041262762624,-75.10957760746201
1236,3.433608,67.05164355528396,-15.205524224785954,219.62703887502667,65.57982051344783,-57.97207030504232,-30.42550991304165
1242,3.450276,72.63433355778757,40.96410494491148,98.51068805299258,255.09331745832603,201.78958070277972,17.83968140768248
1248,3.466944,76.3574601887185,-3.7398560007661033,71.89139065871743,107.20969704737794,52.54356529352334,70.4083956116686
1254,3.483612,-8.477212135157892,37.68938663746797,214.98038409033396,118.49411408727748,-138.29781484213703,73.60197362302294
1260,3.50028,-36.455835578007886,196.38698301689607,180.6531553334422,89.86106536173372,138.34978544327052,-14.756333335238487
1266,3.516948,-88.23455459097778,110.62375381304308,198.97802684231053,137.03983034265104,-136.05781578644252,11.435463450854565
1272,3.5336160000000003,55.80080498664973,479.16786668529113,164.77402539093987,117.8676091193353,343.4960490832458,291.1493876510444
1278,3.550284,207.0047583827765,-13.562251138886596,121.62848520863288,93.30329486511071,80.7114602731307,99.71995096244711
1284,3.566952,112.8219870599645,-156.61639777482404,107.03188909015608,86.11882906308705,10.556880397469442,137.1576130708433
1290,3.58362,241.9339738844204,-5.916084345708114,110.95110188847774,165.22622748747474,273.62329352970835,207.6035610539584
1296,3.600288,292.4651270402064,-42.43545488596216,34.9997097358104,56.54033139975222,103.96638064240808,154.07475073381386
1302,3.616956,427.295856196905,-131.42746773268038,-15.950582767198137,71.244152278102,-95.3903451344688,80.16223493995209
1308,3.633624,145.20236176393198,-39.719075838390445,-35.0626586334803,83.20899838079707,1.472852305224878,-88.28986508921213
1314,3.650292,-19.0310199123448,58.89282633034817,-65.00421777883986,142.64200272317532,-61.78541837101333,159.0857109387358
1320,3.66696,-213.3456680405521,-75.9877684801033,-19.41630256787636,134.56810938137386,-62.18119064958094,116.21318763296372
1326,3.683628,-131.01383280348625,60.73325948003456,15.535394210094124,25.84371269421318,-18.883931790318783,5.220230161013646
1332,3.700296,-194.85279902528717,-145.731258409131,78.80458155283671,233.1501112480022,58.32746089182935,56.80294968163922
1338,3.716964,-161.75109858712307,113.82529522745128,-59.402313789544,177.08785431743664,67.97914376915764,109.26352779847116
1344,3.733632,-102.9814278126985,131.91162583935872,-0.7402637372381429,48.47180121423735,15.068558614638462,116.27378172000186
1350,3.7503,43.46126077690158,79.51279898593697,-9.20653986712636,85.04763021220913,-9.519160880339,22.077205304019216
1356,3.766968,-89.27675016113714,226.66274613240384,116.63924886960508,93.92022990107304,3.344216082827224,-20.107166537143712
1362,3.783636,191.00359903489505,170.4883364801336,-101.05204313209788,116.97901648598452,36.03696759989957,-191.69088522459128
1368,3.800304,-29.64471580285963,36.75000535543269,-191.05357119422612,91.0303200794042,152.24649293543442,-187.6981052907356
1374,3.816972,11.352242080055216,-37.4559931962504,-86.44332252533215,-121.07606384824592,-41.17634638388259,70.12586605480516
1380,3.83364,127.89108492863176,-159.4400562595753,-51.7314832690701,170.74141024481327,-206.67403714118203,46.16935504531925
1386,3.850308,141.9665325360448,34.377494843327,-13.939166091835006,168.45517011848924,66.64368074851765,-194.5748485827292
1392,3.866976,42.67460762714819,85.18043288036927,-255.92814352865548,67.24722492292634,-77.43637924874699,-87.04373814333914
1398,3.883644,22.384761595666305,-67.08137546713317,-284.6502356943445,-241.71867979262345,-13.531435512780916,156.85197932551873
1404,3.900312,-67.46014725520241,-221.33345044409,-163.54031354703312,-33.789387151196884,197.6965816469385,-78.6381113426612
1410,3.91698,53.77859498170985,145.54230592137458,-227.81539060283535,-216.3530643273552,-58.25609921133828,126.0526708477879
1416,3.933648,-179.01332738974472,78.20507591697103,-293.4013671370283,36.93448146833819,184.1801956866663,-29.48601931876327
1422,3.950316,-43.9793427561258,59.91523908742965,-203.5297554200185,-220.2622547449203,-92.18319793950336,107.777150464317
1428,3.966984,-58.94817490040072,-28.865773985612545,-208.25547720054988,-14.670011410401528,233.51539027957097,-55.69151752065893
1434,3.983652,-292.53146689953394,-176.99877090470116,-385.0970117640486,-128.1251937486024,39.43063060542364,-52.750370342698986
1440,4.00032,-134.78692255765662,-27.70338963701851,19.185173377632864,-74.82481737377606,-64.67675654921635,75.30173090370793
1446,4.016988,-94.51498833052536,-47.86511267147307,259.67063182146995,-112.69418799226824,-78.03100367744281,-57.69012580978352
1452,4.033656,330.1159232117317,-194.28634982901636,1161.7569606421528,-83.86566915004191,-106.20509239183656,-128.61142468718754
1458,4.050324,-198.3607853607025,77.23979717716699,-64.57550344749829,-26.656479899603774,-37.96315622293523,-130.17231020148927
1464,4.066992,-631.0360295326504,272.8591867299927,-893.3650608718156,-112.59455113657812,-320.4900824343043,161.90364491664303
1470,4.08366,-530.8417072647544,101.05185466143628,-668.9532594467299,94.899714332296,56.856081599712205,-291.7593985645337
1476,4.100328,-110.4352978663905,169.14039201730492,210.92691148145923,-11.791502084313422,-229.56831986368516,-63.302941135486606
1482,4.116996,43.09574544994091,-76.87505610288684,437.6755760964124,16.559853045922083,-67.16654541261069,65.08733053307844
1488,4.133664,80.26268878772238,-176.49005924774573,473.0157990184441,32.671220383452905,-164.70514205389378,-151.58684174142553
1494,4.150332,-103.99848453635975,-0.8270483654460747,-2.886352708007798,-129.68607319491855,-67.04234283857383,57.57778715716174
1500,4.167,-359.12117637822524,-267.2841704101379,-218.13407034484084,73.26276722308884,-94.8873679312304,-204.6234211528797
1506,4.183668,7.1837614585155976,-48.219783717927456,-293.64484200197285,118.36795362846894,-7.507546745436549,-67.8650067124747
1512,4.200336,117.27634748952984,-36.107392582966376,-299.6842239508927,-32.309560370604444,-14.388877143672786,-27.12723120921977
1518,4.217004,124.06137585327372,-130.8177039882376,-23.15163390961871,125.54634199824102,-105.36389797434548,-191.2852053085216
1524,4.233672,227.64757983306868,-90.27661506161417,-14.950917756880791,-114.05429374748644,-54.18246504833454,-1.5410341868673925
1530,4.2503400000000005,186.90274785192108,-223.15768367289277,16.33264034889327,107.53896829034004,-9.222086252145075,-27.52848492787182
1536,4.267008000000001,214.81048930244435,-23.59790041380378,-176.35606035032964,61.22104232471418,61.328133921293045,-116.50203170677472
1542,4.283676,208.27386363571836,-59.190152194427526,-154.78353894025213,87.10875472115043,-156.95657009185152,-148.4645875696732
1548,4.300344,261.19518374333245,-109.49239059024572,-120.89903879829323,0.8893956881429261,-68.08612837952616,58.50546164002665
1554,4.317012,324.89643529678733,-88.46958797315403,-80.13722763752344,-34.673990919149944,-121.5854080698474,20.72144640036849
1560,4.33368,273.17346324160303,113.138955193786,77.94123092941479,59.22667523278785,46.94099034882015,-150.19260560041133
1566,4.350348,156.306146420076,73.59984856614022,188.11259980395937,129.36148379248664,-42.9769639829838,-83.02689664350483
1572,4.3670160000000005,163.14952270319327,-327.5003324018698,363.2340584167706,30.955680529990666,-39.69486238568131,65.92060122312748
1578,4.383684000000001,172.15315538408993,-158.6049100983748,395.8114348469054,79.11341013096613,117.9207780160764,-13.080284428978038
1584,4.400352,338.7318172340316,-140.69355810669396,316.0445292260165,163.43554576837062,-134.8239632052954,-94.99976055757335
1590,4.41702,222.11917582758824,323.2140536375712,130.14802843176753,61.758359600741656,450.540723891432,-62.17173909536205
1596,4.433688,225.5627947357301,-103.6467799722462,-31.503687205672765,73.61770037267506,218.78134607304435,20.054880679247752
1602,4.450356,114.32268148610294,34.52230253284107,-164.2418011800957,44.59410638145362,255.04727843779892,87.12707877906426
1608,4.467024,-19.00306711997401,82.80692917191072,-144.55058233934875,20.000458850586924,196.7386538144965,12.981201718024742
1614,4.4836920000000005,-627.2621979893888,141.04812272967962,-220.23103076477827,-164.4607993333927,217.7764712267304,62.90062896188613
1620,4.500360000000001,-1658.4661520172108,428.4557687845625,-3081.005582752949,-86.64619949796469,12.72347841892585,83.57563894919319
1626,4.517028,1240.3861551949994,-45.26496123599688,3018.7929741666267,20.304728534194787,123.3450907683602,48.95124002722775
1632,4.533696,414.2651573156859,65.99809823138386,1112.4075148906063,5.212600972598516,-71.30229270054346,-80.83636835681348
1638,4.550364,-1162.2541603100897,93.40220439755112,-1922.7852474833448,132.44202605061903,-117.3402944642238,-54.70980029109068
1644,4.567032,125.28465610596676,-19.64107849691924,78.40223285631244,97.36938401641396,-24.684221365498605,37.86277195602175
1650,4.5837,61.67405061180667,-68.99967955540825,-128.25670697838177,-15.94166424924483,-47.98226274951094,35.88869949589733
1656,4.6003680000000005,37.419564665998536,35.77366744162529,33.5754435161856,-72.01422774331077,-114.25280329043837,33.53475436010839
1662,4.617036000000001,42.98559103199057,-96.00308097134088,-10.519537154331566,-143.1883386832802,121.59349650278502,94.78244640732062
1668,4.633704,69.61117566555203,-58.96869692521501,184.8330053109021,-124.5742913478342,197.0878990955886,100.15494408225612
1674,4.650372,22.617001441464037,-209.37909930198785,124.38354653561846,-145.0838453757576,149.5816937538475,151.01825062679694
1680,4.66704,-38.115546373399305,25.627144681901108,97.58161033736238,-190.8046586364929,56.11436062164189,-109.4718114729068
1686,4.683708,1.133357545229121,9.142627265815603,224.26472598215267,-192.10266115521804,248.09864034460315,51.96929131813612
1692,4.700376,-282.2220346984298,23.24985850148645,83.89273773355706,-77.1471071792244,-17.08308436942656,-45.95808987659862
1698,4.7170440000000005,-257.8519548440728,-16.054570890696617,231.62500086883097,-87.03374427513305,-43.55191149769038,-64.32786009602938
1704,4.733712000000001,477.1924667276252,132.79358455300255,529.9563317765069,-211.6527973676641,-133.91110917681425,-4.125494957584863
1710,4.75038,-137.1176817648127,-125.16242160812942,423.9357780634828,-195.9856516600767,-337.3871143092763,31.27656242606431
1716,4.767048,60.86764774659332,-440.3666289327679,366.4703876288901,-121.3274426654747,-49.155738006504485,-5.623490604359791
1722,4.783716,-143.60480846420407,-215.84245649553844,99.28190696008905,-158.91752764578834,5.188881110524366,49.59010969182681
1728,4.800384,-48.45339750187027,-468.4727507402442,170.41646764065112,-315.6047640950944,-71.13929011554397,-10.47337376617331
1734,4.817052,-193.0780263179116,-258.25939554815125,108.75609483456527,-253.98100594785535,29.250413924835915,-10.500879301845671
1740,4.8337200000000005,-209.6275678646206,-701.8500282051161,320.3141679328413,-297.29627052002564,-100.73545223205264,-168.1936578545293
1746,4.850388000000001,-427.4968365724861,-636.9131973942804,43.17800068945039,-344.68356286593365,44.550955580576094,-52.74569883797776
1752,4.867056,-282.9375639274348,-528.3614745850764,92.37918044880014,-194.4288057602135,14.022167163129453,-177.80096257027395
1758,4.883724,-354.404363610937,-513.0436718930985,15.14985211227942,-220.3808251474144,-72.13673272355038,-65.82905067400367
1764,4.900392,-343.29036259368803,-513.430632780463,5.346309887019681,-192.90011319812348,-146.50514073850837,-207.2751212448333
1770,4.91706,-379.5306141828198,-601.3459699564139,127.07637505878046,-113.10144217853224,23.0707928695319,-46.88994505980214
1776,4.933728,-369.4727105657355,-848.6343743826969,-4.669088754613329,-75.0413572127759,-152.38017259233163,-68.48309009757334
1782,4.9503960000000005,-373.0137678428059,-741.7571686523831,24.34648851600926,-102.01126033530464,-60.23198999533719,-99.1324665286707
1788,4.967064000000001,-333.2545909318502,-690.1232353112125,13.026425859370056,-92.5141879481823,-72.67151015325146,-194.090768606596
1794,4.983732,-260.11004342201574,-623.5197601231635,58.04555129766375,-164.27307253137803,-67.03426492827607,-8.683196288423163
1800,5.0004,-432.5403046573903,-575.8543058250591,-131.42451411703456,-36.796178213968645,-47.52076148474226,-167.29450994240938
1806,5.017068,-462.7920153059995,-729.2414717751863,294.4481159378936,-101.53604034806445,-27.43567424005942,77.9351069704484
1812,5.033736,-516.7043597924713,-591.1715131521212,-59.329734273049205,-52.524905834764,1.9698478379823976,-89.81852038814131
1818,5.050404,-329.3116061423338,-541.5125414330596,-360.8633362312495,-147.97266545275994,123.161293684569,-86.84623012673802
1824,5.0670720000000005,-390.8904057562261,-393.3338655537681,111.1965311912362,-88.87239561452473,-58.71276261305842,4.123010860922733
1830,5.083740000000001,-520.8275917572216,-422.0591904234549,-202.87686335959555,-212.25471978412173,-59.612092293066326,-72.27195431264175
1836,5.100408,-364.7652209852567,-604.7071293444285,102.10840908250398,-97.49245881644504,-83.84550157991093,86.36650554376276
1842,5.117076,-302.8782345672506,-137.225609960306,-155.5506684568095,-153.78629173381444,-126.95149632438108,-93.9203096247198
1848,5.133744,-370.0134914940486,-155.93002445336313,-269.4109140297587,-226.26773462702752,-124.36489475247868,106.65100838528552
1854,5.150412,-90.30828301119456,34.66122000794593,-24.954863805478112,-10.28547310504139,-102.78551765679995,117.60486500856354
1860,5.16708,-7.520271062987568,342.7449499569684,-124.6855989995528,-216.276290758542,-149.8062156782065,115.25045202874904
1866,5.1837480000000005,-98.54994233519145,347.2985684934789,58.26332424814413,1.09694851105953,7.874837951309789,152.2593724507506
1872,5.200416000000001,79.44908068945415,423.2037983333103,-221.07632091439928,-6.127381485322587,-46.42595198580167,46.1939324591614
1878,5.217084,-26.18707078699973,907.0008134521952,-206.99135628204215,-65.16611982126487,227.06605354124585,147.9214963509419
1884,5.233752,-292.7765442790599,213.67676536859872,137.75404721249396,43.96233509493501,-93.58634220437268,133.65151873856968
1890,5.25042,17.60190323100013,487.5194545304327,-391.1064626805018,-74.13634068690473,-2.835750102718036,327.0918084876165
1896,5.267088,-327.247431568393,469.3857684905096,-245.13097600329704,-38.63165667040003,32.363678261332126,304.2530658844595
1902,5.283756,-350.0734475133353,1067.713457825987,-341.64160407797567,-6.868412860447535,470.2462794997051,353.3020187160644
1908,5.3004240000000005,-62.61795886197592,1049.0728807296196,-384.48877557245976,112.51622250802929,572.1001662000257,95.1864426846779
1914,5.317092000000001,7.053754300239206,637.7766774759514,-186.6362979939401,275.23004297527694,-374.22639828077007,202.18545652521868
1920,5.33376,160.01744648067148,555.6098421692091,-300.6077480945014,-38.426364903383046,262.719514462157,-253.04230831047545
1926,5.350428,115.52412136128684,559.9399647541007,-250.3726635592871,53.7381540218684,31.09564914192358,-97.74211218018256
1932,5.367096,265.61271253319046,568.2186703180765,-80.4384630498651,275.62232630192875,20.46256520935008,-178.65032476717928
1938,5.383764,289.5624345743897,479.88751792719313,-215.51914787907523,312.02565239179336,-113.45400573116274,51.55696833180612
1944,5.400432,408.6621100736449,500.1158798311615,30.359003450150794,235.23941815097928,-1.9555289098456607,-69.71742736100492
1950,5.4171000000000005,457.4841669559663,294.4939454917575,-76.25798380882814,337.1363223795395,-223.6053411894665,201.7848225039944
1956,5.433768000000001,333.6080493655569,266.3779959682724,-87.59186590181882,160.33525160176674,24.38429823295853,-41.3393962662919
1962,5.450436,501.98789681739015,438.4454947640815,-21.30141477808071,172.9520705386951,95.6032946565841,76.5899893766448
1968,5.467104,520.6800044571287,444.6982875916871,-163.55964020173914,222.06657278760952,144.39855402023144,13.457504172192664
1974,5.483772,460.093131394165,281.33615721741324,-10.417169224549248,115.29586136129844,62.49640101778161,-27.433093503555973
1980,5.50044,458.4655217639994,234.21504783147745,-27.892688822657703,214.4242906201826,-12.79438231586169,4.593948766857395
1986,5.517108,558.9553064904211,175.71934366794045,-57.91822272032771,-56.62567972355532,26.775381766916063,142.09665415844262
1992,5.5337760000000005,416.3584572054394,35.44220087840852,-139.54681079513065,169.81330734400052,-2.537443574730773,54.54534308864101
1998,5.550444000000001,442.5908550453185,86.34667901083203,-6.835825217563603,-11.40243298202376,58.84216556893107,-42.32671379000261
2004,5.567112,362.2091095823774,-34.45018415420442,-161.07926322309515,-164.96554363913452,-258.43323775090414,-43.5568650878818
2010,5.58378,382.6167797707607,14.327981131140046,-114.3979629257953,201.34904618524155,128.71259360567538,-88.44281228445344
2016,5.600448,305.4616903905628,12.136834948528104,-146.78370606066946,52.50699587441284,-193.6683067592851,58.04020429493994
2022,5.617116,237.6306915753695,-37.15979228476857,-116.6239381896639,87.9071845038722,70.09602836767166,-288.4426433823272
2028,5.633784,117.5602652572624,0.5625295500492911,-26.025583010506573,80.40290102823195,-214.11771044922068,-44.26844763390237
2034,5.6504520000000005,281.7222694869996,49.7841858557906,-109.76007770414128,23.244441658788887,146.82438553478482,-212.6954818238731
2040,5.667120000000001,137.5908925815219,-19.08667016026383,-132.91675706668286,209.340636968218,-18.42949341058865,-204.23471925312464
2046,5.683788,178.5237665623912,172.0784644005674,-140.79292675526474,-52.30014914109693,83.55702660493786,-12.040861772666425
2052,5.700456,100.12537441238376,-119.55354344161069,-142.57413294555883,96.12851563827036,47.08734143207937,-306.1515712086285
2058,5.717124,198.25912952372937,-33.01930233928508,-118.61383151090556,-88.73240407920213,-51.00901822367354,-342.68406021960584
2064,5.733792,56.583798602010646,195.58940939784537,-207.44666710753975,-71.13667308926796,5.624820806836249,-290.2930313773645
2070,5.75046,-43.65554552017613,13.22701536696859,-7.200635904944555,-139.5235028915977,-81.91230610355933,26.55004553631094
2076,5.7671280000000005,132.65775187181998,232.77016748306724,-150.19508450702253,-86.15332173449843,-20.65220746263897,-111.49773260203912
2082,5.783796000000001,-48.07805225755479,-10.10559165874392,-71.47704682122753,105.40982324021994,121.39759540996091,-92.26605666187317
2088,5.800464,-20.636060652071293,-24.76039751362479,57.551789924532905,-179.69993732170428,-145.31736913167555,-180.7440928001153
2094,5.817132,-83.93501592134827,11.7366247907853,-62.93794568677675,-112.19212150124146,93.99601931493766,-109.38369274907105
2100,5.8338,-125.88358426640087,21.929630687292192,-40.37350138347877,-46.83065831156395,28.225515789967965,-213.1953419301028
2106,5.850468,-110.731000986367,-264.5272320571658,-135.5033173299927,39.449951714998775,10.61817243970189,-116.66466708601368
2112,5.867136,-234.46653719164124,-15.798741215870308,22.59448714513604,-252.21939529479675,27.764148066753563,1.3241943762548676
2118,5.8838040000000005,-512.701141400892,88.23792126580896,-238.2710708845019,-122.32802966315464,166.98317152871988,-61.99742717671131
2124,5.900472000000001,-40.4462684227896,-126.80472000978574,-63.51966387775633,16.320035853416037,153.5691997515412,-180.796135879112
2130,5.91714,-261.5103926418237,-3.1184311878131616,-56.60264567726307,-181.8905484853052,-14.833888184229572,-9.666931286746204
2136,5.933808,-289.778515296386,38.14016338891241,-38.31576631290948,115.23162506940945,154.0021583652168,-228.5067962806968
2142,5.950476,-441.75615843799096,24.368910465454384,-79.39484241888825,194.4966105729232,175.36155692575937,-360.6254840594087
2148,5.967144,-88.22867070991356,112.96225932742966,-154.7312742927573,253.56915749618776,-224.42258820718664,-78.33454618894623
2154,5.983812,-364.51153638135054,141.98709238066692,-63.16922205936995,360.8767552910844,245.8411917182559,-388.7161164509485
2160,6.0004800000000005,-348.28471419332834,106.63012874709548,135.8955405386546,194.5276110016005,23.82329813433543,-120.5306609856854
2166,6.017148000000001,-165.21282875155777,-164.8665677852091,86.93941920710225,106.88177740989362,-160.35349466661842,-98.33759875830104
2172,6.033816,156.02642096326653,-252.56026172133227,72.35901595180883,69.65433076608474,0.5873079547445172,-28.832518927332483
2178,6.050484,-353.9949599544527,-205.5096913825636,143.48826214728354,-0.5289683964104803,-283.27202603580474,172.58976409723374
2184,6.067152,-117.99215860103864,-167.780442882888,-25.53604621847764,-144.75963880642348,-50.329321021749365,-32.656553052689084
2190,6.08382,-43.11127160839191,-423.9189877275896,62.81702997998811,-4.492608989796338,-48.64441509231848,8.580375415608742
2196,6.100488,-105.42367654797648,-167.76694810152827,76.48057559618366,-300.6249628800816,-44.783984868249206,118.61022318489506
2202,6.1171560000000005,-142.2908741955667,-252.02133627933392,1.6111808768526164,-139.11393220357945,-271.8537873532959,20.55137567487928
2208,6.133824000000001,199.8707866727672,-210.07501921308028,51.23661551059755,-198.3517195048222,-156.27621928978994,164.24958094468826
2214,6.150492,-67.24688137934615,-392.2915960271965,6.985012712301298,-258.45602396981,-165.08181178288203,170.18985780793545
2220,6.16716,9.973568557779272,-90.56940117173346,31.872668565240687,-230.16851686760748,-123.79363842011529,90.5513499867597
2226,6.183828,-183.35094685604395,-34.092854894250046,3.2076580979508336,-262.5493145452999,-88.5028431367135,175.73485924505803
2232,6.200496,64.28617238080751,-48.24022406638869,-79.06301651905402,-118.80069433146436,70.09309368179763,180.30966078083136
2238,6.217164,-33.67544820243457,101.70806757101852,-61.52425438296538,-255.9706381679976,-181.81992784728925,90.69570107638512
2244,6.2338320000000005,-4.935818449949881,139.04855613488772,46.76974563958272,-172.372078538017,-58.76239834209543,253.44555048190205
2250,6.250500000000001,39.53345409428103,104.69865680522165,-41.46830700289165,-122.96580834738162,6.4461874830937855,-72.45188937076935
2256,6.267168,20.842068599621363,-0.0296050929179756,-85.31977047076218,-24.881812144525902,-154.4349040622513,260.6055765920562
2262,6.283836,142.68322971694633,221.64413691676947,-14.858375511299894,-165.02277109003631,100.75154857412664,-90.51264948310816
2268,6.300504,24.811752341961817,108.153841535824,-109.67104456137984,99.76737161766572,16.65541456683443,65.12221603284193
2274,6.317172,140.26851220940708,206.2001423470612,-87.96099944512216,42.6718618819055,-1.748770058856115,51.91538441187929
2280,6.33384,177.66947333249988,98.73569644048824,-11.620768139068913,21.37652644759424,78.20754346769525,-118.01470563474638
2286,6.3505080000000005,193.44994124629795,112.2761220010736,-45.84764380528463,146.2568865766964,10.09821039058038,158.76810611784668
2292,6.367176000000001,252.1827053882433,161.92374242177033,50.58731177428166,-56.457124066368536,-12.280614246074649,-41.19218643255698
2298,6.383844,363.228514563028,276.33476167916393,10.656438918391006,186.691307980597,146.40868986567625,-70.5051092537202
2304,6.400512,443.23461690862894,80.4372784644865,168.74216759208144,-9.266019517268688,-30.20216609341496,-51.53976145994143
2310,6.41718,470.4843757074466,227.5533875103193,-7.095137886927461,249.39898113773015,53.950475429912736,-53.957770302215
2316,6.433848,315.58581496133013,223.74717017964429,64.64095346216182,-87.29703797455313,-76.07150446783639,139.19539097386968
2322,6.450516,534.4135615058265,264.9628998297442,0.6179592964955845,221.7128288816405,90.69792871948648,-138.33242850959348
2328,6.4671840000000005,585.6708393143884,514.8041372699961,-64.10273100136317,-48.7395937863888,94.19411259012614,-17.396758544563703
2334,6.483852000000001,496.3211406832178,280.89590938318725,-150.78327209285635,172.114479045613,13.084302642183046,4.314498753344989
2340,6.50052,669.9395702327945,543.6626205567027,-291.57886027159844,18.26329736987008,-61.15883801684108,198.28882273137367
2346,6.517188,333.43067662276195,507.9528648536385,-149.82862915242976,76.54885340875201,52.34477822077958,63.22798856230547
2352,6.533856,760.2532469850196,582.8130103720148,-450.8050353602114,57.303189790928826,76.69731210492957,-47.177786202112486
2358,6.550524,129.85765238582053,710.6072917131562,-161.69424589248024,50.01864769852489,34.188628506677354,-36.20417011518729
2364,6.567192,120.02188445165817,410.03418653525546,-361.5375781217148,122.8520955281594,14.39320669546164,242.0904660193885
2370,6.5838600000000005,129.53151834426376,750.253374153592,-292.7012119459418,83.77900901400966,106.58103540813056,48.82797649584792
2376,6.600528000000001,115.32961267888736,682.6774602713226,-266.4947480731717,161.08529986561612,84.06406804434461,106.205411648197
2382,6.617196,-87.98988786485458,644.7911631281768,-385.9668057282957,48.26409710564801,68.73287524722949,-91.91566614971936
2388,6.633864,-247.1248181819952,646.8851971792003,-283.98945245083405,134.27124612414687,101.19043500485576,207.33685069579516
2394,6.650532,-345.004511288318,538.3110072796306,-305.4169208708164,30.26227747073993,-33.04304168720199,-48.92700981657836
2400,6.6672,-488.091779986005,627.3628037407932,-237.84058111307183,-161.3056389408682,158.11515355930723,-23.31500409782784
2406,6.683868,-389.2569642756772,122.9785908870582,-497.5190234550631,189.00296940982537,33.90706098894581,-2.001777168956913
2412,6.7005360000000005,-395.2969972437709,408.5337834679093,2.2262116548387434,224.87465868717004,67.10532725705912,227.18202471626373
2418,6.717204000000001,-650.1830650485459,29.89074451933537,-156.88616072824593,-77.46338038339856,-152.73122817670117,142.93711095327768
2424,6.733872,-639.9096689387165,359.7341431822804,-127.54245772111672,-33.67049110886793,69.96058419501307,136.8655700454711
2430,6.75054,-644.2081789815446,29.288095413750533,-265.6985383956165,97.3409487634047,8.269338919986446,-150.76665624478676
2436,6.767208,-668.6891685205757,-62.490935713667696,153.09257258718276,-28.656434561525813,162.07641278676644,-46.94920419507892
2442,6.783876,-575.6976509635234,-297.3907796833315,35.47553757496638,-22.182579492738903,-120.3630971229174,-15.681228976196486
2448,6.800544,-565.7035529014244,-249.2325977740892,163.4793731431423,-11.768823172868512,60.75311140025114,-124.72106190906096
2454,6.8172120000000005,-538.0919793202793,-677.1986411107389,192.9314148769764,-94.17551737752756,-189.1925908266372,31.14665916412785
2460,6.833880000000001,-352.56525433527383,-161.27741748592024,305.9922018831937,-76.62834114497396,277.0442398466292,62.75576342242058
2466,6.850548,-363.0586557670024,-299.8753931490599,106.99027724740183,-41.44155136894869,54.02209142820796,91.24309485280428
2472,6.867216,-258.41863900309346,-558.0297939606543,543.9033294170874,-71.24103523943252,12.984864402943272,-52.94920033185795
2478,6.883884,-383.36151593620286,-553.4810819604895,151.5544217955814,-56.830894821835805,-85.72558497248666,9.122980976462816
2484,6.900552,-381.219937707658,-526.4115900382475,291.1197365288622,-118.479164289739,-108.94763451067992,-10.73933349823578
2490,6.91722,-238.54261052525504,-573.0966121290608,155.8366003830193,-23.38716840961119,-55.02180814840182,-138.1657375407221
2496,6.9338880000000005,-189.87566541620123,-556.4581542752549,215.4346615061825,-193.54372886519923,-55.87699159826425,41.99093019303628
2502,6.950556000000001,150.76913301874734,-665.481161764061,600.6159523580363,-8.432470365570293,-56.020782277866765,-166.8696126178757
2508,6.967224,-926.8263173173452,-368.1871574370248,-1376.1200551123811,-101.97433947784609,-59.69407099762617,3.0157064057368075
2514,6.983892,299.91923145856384,-558.7304501688428,568.2498769757497,-133.28287137401855,-132.30424302796237,-109.14559696058578
2520,7.00056,288.14536805739294,-426.2017287553705,404.3508329505963,-52.11690185760256,-3.5987562229078653,-9.897531751728192
2526,7.017228,267.9286038007503,-419.571273402432,373.9783093277533,-95.31196798497692,-32.218407029613275,-84.90053737090011
2532,7.033896,40.09846434856152,-192.29097113638244,-181.928963958263,-70.21537690761856,-31.52449789570735,-52.80703014131253
2538,7.0505640000000005,404.2399741642458,-495.05679196719046,359.8372298113828,-72.82501968911014,-117.87498721842766,-60.48612420015205
2544,7.067232000000001,478.2260843854498,-284.7224179151605,539.321561052744,-68.44424343918209,8.533153594438765,-97.80505040085303
2550,7.0839,-224.90231735872567,-280.5889346089437,-105.69784176687412,-81.40885005213617,-122.54271274432868,-71.94648217686611
2556,7.100568,461.41532282989886,-223.9925869790954,321.5254393673397,-93.4983105825036,-2.433159124760584,-175.45987961006531
2562,7.117236,464.8017111884028,-185.53959288418724,245.34476246004945,-23.653997101859986,-41.17460509157601,23.318252888253404
2568,7.133904,43.35184096516928,-41.52558410655877,111.19373866145727,-30.494939543338315,-28.007687652189546,-162.0359180479914
2574,7.150572,140.12079429649137,-92.57026180659896,161.033175164618,-44.68702355802763,-2.710423746200018,-93.82372740596271
2580,7.1672400000000005,234.4766059628041,106.98882058411,95.65762795643155,6.038074837760327,-33.95602308985484,36.01946011252927
2586,7.183908000000001,-72.58753708006583,-93.69095141779908,46.787328607260974,-7.523489085455742,105.05513885569658,-86.0130585811606
2592,7.200576,4.905045760318026,16.326019423748022,47.284876147961896,6.74570164759459,-131.77838611795363,-107.34696207762128
2598,7.217244,-30.5515202039548,-34.50370249468372,21.80719327113089,-103.89990023558636,50.93190857847417,32.935308941389
2604,7.233912,-139.5275597906562,2.1075535620872152,17.48071472253077,-11.351486964189036,-85.79324554804408,-94.18538334555848
2610,7.25058,637.2815213158623,81.52269447332567,497.2788098158831,-90.21248721616864,-116.04804151707148,152.54615440735984
2616,7.267248,-894.8282544678689,-105.58075834945184,-598.3101190089171,29.57135580789321,149.6834360197596,-95.3334500074388
2622,7.283916,56.08313840343515,32.795471409407114,75.97270271052189,-10.15115533485131,-42.64391038076313,25.924171994259027
2628,7.300584000000001,12.807586662029438,-55.31244151202161,-233.1875149840002,44.032259024909294,65.03796342704842,108.17008635609358
2634,7.317252,-9.134816909385783,-6.923056374661748,-93.27313348932918,-43.37495045881121,88.77449998498129,-191.58493263676
2640,7.33392,145.08850047839923,-69.2165618032331,-3.996138754089088,134.91138243596038,-8.835449006745172,291.1559649833366
2646,7.350588,-295.3136494124982,-41.518813006134096,-161.03813527631476,-244.54773405604283,16.612188259240654,-78.43638539835922
2652,7.367256,-11.278970762959943,50.33223864302383,-83.74341338052783,111.31937465723792,-7.320516662523941,49.27054750427212
2658,7.383924,684.966416923407,-20.51802826810603,181.3498306407844,-79.22608749230301,73.28193983480091,-136.8743804225804
2664,7.400592,-189.7268122756109,-82.76969118315503,-125.74796483284652,-40.56819458098715,71.99647341057042,90.38396044808935
2670,7.417260000000001,335.0617186724446,-28.290980112125645,58.68096018781827,134.72286984842845,30.19354003251516,86.97292989784509
2676,7.433928,-176.854300309888,-59.61410414259061,2.296952668540616,-60.02813158667026,29.14721343685937,-83.37236058964018
2682,7.450596,228.12242221214404,75.65597224388874,125.23706084623292,163.37032282907165,34.94045165756148,133.11282228947286
2688,7.467264,-157.9153041983875,-185.2516702894318,-58.78963926010107,-114.05088794394224,34.85368893651637,62.15847173657295
2694,7.483932,92.5219885133812,-28.021201483730856,135.27914313563872,-29.386930964142493,38.71672656341498,10.962595185434107
2700,7.5006,-2290.9198726563254,-335.79732642106933,-1253.526810666562,111.45251395442132,-25.188456880372947,100.67289420051644
2706,7.517268,1087.3842179693745,295.8288507647315,658.5767434096365,99.74148771360392,23.976782916213157,11.76488472919069
2712,7.533936000000001,49.11453404272047,25.343387481785943,28.59549378359991,16.018710639477952,60.54838889286893,-93.99107850329342
2718,7.550604,-35.87637342152369,99.51000394849804,107.09310809758124,79.6988303163287,-35.835351111978866,57.79664096674384
2724,7.567272,-113.4324718489269,-110.88759204868948,24.406230168048403,6.456743584187577,32.3594502522546,-33.21917509781516
2730,7.58394,7.542619478552224,29.678372566354973,-49.748312344558215,73.43994025434549,26.20016024198792,32.20405669930775
2736,7.600608,10.981720410484826,75.56463750410191,-2.791037004159336,35.47534347825856,-40.697893092080726,55.41857847165068
2742,7.617276,-6.757847806664036,-41.2147294700885,7.253179351927166,29.704041786865048,-27.292510499457503,-5.529306589300063
2748,7.633944,2.3731294290208487,-26.47955868673461,-112.58709620064846,17.428826650419342,4.479869910777368,-5.359484525852956
2754,7.650612000000001,20.13871498513113,44.42263090411296,-74.52357017500185,4.559636447977618,75.34544886252246,56.54122085522988
2760,7.66728,-2.4301561482328573,-17.438255169752175,-122.76481234643867,27.280621542937595,-27.72356222963081,7.6643420693762
2766,7.683948,96.22591556448693,11.647483439255057,-55.09826995251807,30.58174720739132,25.47712945135653,37.60497265248407
2772,7.700616,-26.68420566953024,-73.18679637874986,-111.9402766235268,37.22194043865684,-46.89928875389196,13.195247600817003
2778,7.717284,-134.3008337064549,-105.59480782378644,-4.033151575643178,-16.563464395237375,-58.62082789378488,60.554760774063055
2784,7.733952,-116.85986533038728,-13.4372818136347,-133.39919399051075,49.013749504429406,15.06213438849294,-9.247885876356984
2790,7.75062,188.20454534582703,87.5362760689741,-16.653900031446653,-0.989730416560513,-15.559866989838476,-23.84449136248296
2796,7.767288000000001,-199.34518072818256,-74.5740786947507,-39.184914803452855,20.798825651475862,-62.30192590581861,25.786137227421843
2802,7.783956,-52.796461684233165,59.07688566013404,65.55406213402881,30.02155200167869,31.57508544071639,20.066332904577028
2808,7.800624,-90.04978696776762,-17.64862532113994,1.7892272428565938,-11.363776275342763,-15.70381546976104,-49.3182497074706
2814,7.817292,-60.733965399208245,88.38442345210163,147.60951962418264,-18.43718868951892,26.83535447098056,0.9369782735840784
2820,7.83396,-111.70491609378232,23.06975523805036,58.26122683686991,-38.79857477207729,-38.34763663407108,-20.21652322251933
2826,7.850628,-109.49541326474458,34.66316901837112,93.13837329088288,-38.43573729084139,-35.95147961790484,21.052499440528518
2832,7.867296,100.0493879436479,91.11743912884305,30.3098421991162,-29.03872945701193,21.51910269249388,1.568538299583274
2838,7.883964000000001,-122.50345963946872,93.22141499551964,18.532196291767065,9.050418130661972,-27.851880208769387,39.46030416078297
2844,7.900632,-113.7781816187416,83.85907202765782,-32.60163788463551,-110.39611281270264,-10.472471696404622,-18.041447828716983
2850,7.9173,-59.3637206302452,193.9564836455276,20.53002408092896,27.30501735952301,20.84397411745766,-23.930713993592192
2856,7.933968,-118.74016482576228,33.16207205343237,144.17181744042563,12.72418282193814,-26.433024204283367,-28.15385413967121
2862,7.950636,217.25937801068375,299.062687021676,118.04332762227205,13.896289222427807,7.470556213527729,-13.073650346966872
2868,7.967304,-205.3575799242588,0.5410720448806643,63.466391990971,33.017342738372584,-4.449842262913158,-26.21659101683849
2874,7.983972,619.7558402008192,53.70610036330913,228.12722494064812,72.45424271051333,63.63297994518803,-32.19734998904579
2880,8.00064,-275.1322347231785,-16.77362484072018,-72.34010575698471,32.74763127306881,-3.432049117719483,14.346359504341311
2886,8.017308,71.46663695672228,-59.54286191374872,-47.97044371947724,34.15691585928539,59.46025158205501,-11.27202327821616
2892,8.033976000000001,191.57293153013865,-183.96815061156167,-53.765471385179694,-18.367446669586744,-14.149971606234828,15.502050710404532
2898,8.050644,302.9189479577435,3.461320994355873,-109.9533078151556,13.909576009177794,102.91944510382244,-35.58034986005757
2904,8.067312,30.42949494465178,-72.2373194533632,-106.04618173154452,58.14051457563024,8.826397331401289,73.49265908136493
2910,8.08398,264.2003215937968,-119.22193109770822,49.31711817430748,-76.49384188895331,-40.84254998384715,-46.94713866565891
2916,8.100648,103.4315700869921,62.01789714836052,-32.606138063619674,-19.38016697860773,64.9332520858226,15.449105569371651
2922,8.117316,198.1479574307267,-23.54689166338827,93.59658540986766,8.934896533713129,-40.63801776159568,5.118121993122916
2928,8.133984,75.66647834392369,-73.1562930975945,-56.93351725712117,-7.663490518054751,14.022392762134904,60.19496786249135
2934,8.150652000000001,-61.38547368322391,-82.81823489911031,17.246547524996632,19.2909906237399,-32.13441689853131,-22.288029947265947
2940,8.16732,66.14913917396314,-54.88445477404328,17.482367941770313,12.32178180819554,-10.699046821931384,61.33251398865208
2946,8.183988,-18.474252308232515,-65.58836947187257,-69.63086400992435,-28.248631620738145,6.082775061017815,44.688560636084745
2952,8.200656,-156.28404409868216,-27.05611520517377,-39.72649141809242,-22.722254483466017,-17.235964621129522,-7.203220571724403
2958,8.217324,68.72240042052788,-34.82576609111088,-54.506425155115046,-12.726007319279464,-0.8119464025423806,-23.73619617567664
2964,8.233992,-109.09645154188776,-87.98028146478582,-65.36078225263414,55.23824460712893,12.03720444246717,-29.98604806275802
2970,8.25066,43.81256654530596,-73.84362150116539,-93.8957689383085,-15.522084034973986,-20.864341121795142,-29.193749279461844
2976,8.267328000000001,34.27095272842486,-60.60089017941171,-226.78382481311607,-25.61611190636261,25.09375043794724,-70.52323783715639
2982,8.283996,-77.10814729154667,-75.49356325504831,-12.588314298277602,30.404908448768648,-21.03495131299173,37.21480874526405
2988,8.300664,16.166067858187247,-59.20575233045837,-219.3362572413277,-34.53464401502554,88.735971691808,-69.87471666708971
2994,8.317332,51.77592282782277,53.9885790392011,101.47461770823782,-29.92863751034771,-21.437977810718515,7.543770673747559
3000,8.334,-46.792987732624496,-139.8373444790491,-32.8759648378213,-6.723733843272534,30.345389234643783,4.766030174112855
3006,8.350668,-176.1052084483129,68.22776077831374,-7.362265227973636,74.82585972241623,-21.136202298688925,5.681422744928187
3012,8.367336,-102.07132106674794,-28.012113118545862,180.6054822819644,-67.97445224038407,-61.11866923664538,-9.426018883885549
3018,8.384004000000001,-181.6292875869013,108.16290691193292,-43.38546251193828,-19.714904111921605,17.833629205590277,23.16363608750497
3024,8.400672,16.305506303413807,-2.352106925464067,60.47032085881373,-30.43023592946826,18.69946466031453,-85.66433552951821
3030,8.41734,112.45275123350376,-124.09028327350296,38.55342905963008,-27.750194313663243,-85.9209133446704,36.53187996024514
3036,8.434008,17.197940285598126,-108.69096528357076,115.75682756327942,-18.24288643403117,-37.82048466924835,1.1046921546553712
3042,8.450676,-17.892433518870224,-192.6193824248364,32.385719241983,-34.87036216877817,-66.79140705039163,4.881137984618683
3048,8.467344,213.7703983580693,17.03386163153136,161.38280678261657,-104.45564688899506,-15.427462102466468,-57.21716923911629
3054,8.484012,-5.429845124697499,-14.703609361671994,-48.50730747936581,-119.31926842819335,-35.26757591180423,45.11647816740896
3060,8.500680000000001,289.9985546953593,89.63220005615926,43.77041259338563,-57.7786000479775,-50.686096173098086,-26.23205468935852
3066,8.517348,22.615704515606108,71.13419623270534,222.29409302114848,33.0260379677014,-12.89849101126682,91.89266070940292
3072,8.534016000000001,166.241784845097,88.630777467277,248.61773350361975,15.215482402047147,222.82013102738915,-53.00765170257826
3078,8.550684,165.2528128878913,138.07334861812458,193.800688756636,-62.16032662146949,-43.63830974838617,38.91571089053921
3084,8.567352,15.893522981526504,115.197667999603,224.0519398781615,67.30146475624588,32.11249455082307,-23.3483433574545
3090,8.58402,48.51480656008693,98.6959754859522,103.20052540850018,-28.96740617784264,-19.405886501744067,-101.38588632445187
3096,8.600688,160.278083480965,124.26744689996085,232.59444836077,-18.58166886640593,-65.87406047759798,-4.749088258644526
3102,8.617356000000001,-18.576620009959484,-19.275859340351488,79.37445761615334,2.408398989735808,-34.75523757300595,-7.238378787637883
3108,8.634024,122.3027916549428,10.450899946377268,223.9682197467392,-43.09798828691672,-69.51674206812822,3.408339062811331
3114,8.650692000000001,196.46751547430603,-146.20240730644124,345.73292865648955,90.03370932665214,114.7745650814849,-71.19202671913746
3120,8.66736,175.3840655499423,-426.8202577207746,242.13070789016095,-25.47275376849329,-69.44356790328351,3.315918073708604
3126,8.684028,116.00794383789332,-209.159703033584,196.28807182198784,-59.1864515948625,-7.519526453011973,-30.11045354842425
3132,8.700696,47.66248178805848,-293.23125481942924,200.492491630885,-56.54457907884195,64.49724749096762,45.18971946091733
3138,8.717364,-44.94365200413984,-398.8953542718563,214.51017459459348,-56.28669236242732,92.46250687997669,35.74839858928719
3144,8.734032000000001,-239.68674876793435,-477.06688752369,131.9792910110334,-3.127391737801645,104.84085518740818,15.292704606210137
3150,8.7507,-112.9946105397121,-514.8656766725663,321.24270637331404,53.12632321763186,112.88613820287316,-68.52331933695264
3156,8.767368000000001,-262.7092486733355,-351.77923520014133,217.8242977851038,25.95424633278365,73.45832424200573,60.1782124828068
3162,8.784036,1.2725211658397342,-242.50080184189363,306.2742956419587,-71.43324799031068,91.2399743352737,-80.50995737473494
3168,8.800704,-473.2541866082887,-457.0891005748063,-1.4810165305187084,40.15457969565896,-162.02030587303335,-5.5115703311990245
3174,8.817372,-122.89154702353984,-499.6914173417605,175.9360235152824,-24.034222172818488,-99.62522227668047,-56.88675015790766
3180,8.83404,-113.66055441478204,-645.0192104599089,449.7372067736736,56.29722067200679,-87.94604818385245,-19.52625627527133
3186,8.850708000000001,-321.08728466371105,-485.5759860811476,13.295370018771166,122.63127823817769,81.21082570331865,-14.081406305627889
3192,8.867376,-121.26880777715388,-412.3846886191008,2.3950486464471936,12.262042018569169,53.1303215614948,-33.2453661819156
3198,8.884044000000001,-167.43531800139732,-496.6206519030675,-19.340154769978295,-9.61797269233039,-49.78870012822139,1.6380873045461124
3204,8.900712,-224.6600141844601,-595.1026272515637,105.45945172668809,32.12511702685191,-94.24695722090412,-81.36616814752358
3210,8.91738,-10.84670112663074,-371.6831847615669,-92.20215600957184,9.270493083800377,-122.52538975258042,56.04471475988895
3216,8.934048,-162.70264762944603,-543.4480553070761,-221.82045749507785,92.38260203724928,-71.9861525252444,68.66490458707587
3222,8.950716,-29.11981436644348,-471.6449708220255,-238.607809950224,-65.76420626523739,-165.97847824110738,-55.60504460825789
3228,8.967384000000001,-128.01188699283998,-314.1325332287158,97.62119876267724,56.39389530891387,30.083057389315755,-21.29889421265641
3234,8.984052,-148.28402588325645,-314.7955841199844,-377.9127142649896,143.691310805332,-268.8512743475618,92.49443762517647
3240,9.000720000000001,-166.6088937572709,19.84725679473442,-14.776340808731016,102.07597283442894,97.76419297117047,-74.07389549707827
3246,9.017388,-197.68482933116556,-195.09301123031705,33.671160467574765,152.71789950141812,-111.02203675420316,105.9699984388144
3252,9.034056,-418.9405954750981,12.287176946246449,96.302184083681,112.75597307346936,54.09209680168088,-59.98706459863144
3258,9.050724,-249.9720769187016,214.047930493801,-650.1708684047209,128.29297773512664,84.84763623191935,190.6775511065366
3264,9.067392,19.4814505479538,499.910505195979,-352.0441124194259,-78.65574885627441,-24.586482936362827,96.82033509842134
3270,9.08406,-627.2463538576976,509.4660644049823,365.4654537785439,-8.168377387161591,-135.54675552163553,-32.98326159848187
3276,9.100728,-331.2244269600629,464.1262785322293,9.628008435399424,-38.8204504754317,29.92754791665641,158.67375502340357
3282,9.117396,-253.2202346214144,425.6902001630892,-226.7968133521273,28.992376209546247,164.10658105976245,-119.26473093676049
3288,9.134064,-227.1748042099253,322.29004866820827,-207.37186486331288,14.93545157812331,-20.24183779668977,103.29258699814582
3294,9.150732,-208.86940713918617,385.1244550003725,-198.2075520317723,54.2140440625996,32.334095994896416,-34.32346554533004
3300,9.1674,-207.9906170927964,456.3289475033309,-187.83089804581024,27.426179949710736,-119.29895310323074,66.45939788022527
3306,9.184068,-182.8765569992997,536.4833659209513,-190.064472963841,-2.861266792839248,154.0871472849758,128.8981727227619
3312,9.200736,-203.3857836061013,664.0858461263167,-393.91064728407457,-72.39853935918215,-6.6221745143210455,-98.46110308986216
3318,9.217404,-113.37172458987416,457.6419324452943,-88.97405806135947,66.96037089810324,-73.33150999056525,156.2204022498535
3324,9.234072,2.421926124685429,244.5571620382776,-469.82779007268425,-11.29886996466624,-158.9243802118684,155.73920485901908
3330,9.25074,-31.434587511670166,250.07419783302663,-111.14684119968727,-125.31972232373936,-275.1339141141839,23.352670318723813
3336,9.267408,99.21256950370756,379.3906975764403,-168.85674511498144,-18.62511838966084,87.74704559873945,13.023397709745904
3342,9.284076,282.8906933338327,454.2253378430675,-185.8809568117899,12.538936444876049,-95.1885269312005,173.04581167847525
3348,9.300744,111.92672980049954,181.1705990839196,-85.67206353344355,-79.00535321777362,-12.871428457734895,-32.71154913877855
3354,9.317412,178.0722741985877,303.7666033221316,-69.67018197980494,-36.31489512830719,-50.15806041814051,58.669883080926255
3360,9.33408,190.5422852429461,219.69904292513385,96.65306233058706,1.922350262566038,-115.35584440167902,147.00510523709102
3366,9.350748,266.62938753341183,203.5003557001404,-152.69382011852625,33.89752438227607,113.56616612676552,-179.39661822682564
3372,9.367416,98.74248481665464,207.12645043018847,65.22036114271836,15.636351917645676,36.12086364808143,148.83507680070943
3378,9.384084,148.44427242711348,225.2881280937588,44.41419413026138,11.705222539629158,105.83657351012891,-143.75707011511983
3384,9.400752,379.1379462416288,167.63416991179477,-13.850685837257622,-70.78119364121002,-88.76013232572797,-3.249601003515476
3390,9.41742,391.4361092185835,220.12399516043703,102.18963214010358,49.93065713264246,-62.30360726530815,90.04681950065348
3396,9.434088,292.75536955181013,178.4704482460695,162.69343949521738,-102.31312312872517,-2.0093756891100014,151.04825205168288
3402,9.450756,374.8400185683658,226.4212164275278,163.2051454282282,-51.28799694584513,-13.65765492080771,-117.55934550961884
3408,9.467424,297.91754922122743,122.51216680879664,-55.26539598037267,-16.70467938612972,-94.00601604953734,288.91304880401594
3414,9.484092,337.6487886544742,103.7427113898108,-35.611761227459766,-32.32238280456093,29.67811668310283,-102.29234402637856
3420,9.50076,77.5711305873669,167.96508081621366,-1.830704263783396,-139.5284262489554,102.48128394454696,-21.65377444097504
3426,9.517428,138.6305326057222,184.9764541085245,67.9273759720832,-36.609641127395264,-78.40232457910153,14.67327302298278
3432,9.534096,305.3320904986308,176.7918176307722,-94.92237253679012,-58.25258637540853,-75.06829327845884,162.82841734334585
3438,9.550764,142.61822128245578,103.97277509455012,27.119729904883364,43.09854645516836,121.14463600850358,-135.46554285824672
3444,9.567432,135.95522495921963,13.608157712892536,-140.937185271128,52.70106661770868,105.98362012542688,-73.15231888482035
3450,9.5841,198.55767843924343,-42.863458110771845,-182.2663933633449,34.9499897515805,-35.76417557238042,178.86244543943687
3456,9.600768,118.7386831985371,44.78329013304287,45.23390393607311,-72.06428701232353,5.19392926599566,75.26710838112744
3462,9.617436,175.803098618817,20.866778334034876,65.07520220884489,103.4233118437242,155.5208510878001,-202.13454521443325
3468,9.634104,-16.724719279976892,2.848131591973712,-49.22328041805352,-12.77433570114951,65.22091872485012,34.79567136057484
3474,9.650772,142.57592287002765,-51.04363568229752,-115.2882470166024,118.4746245945709,120.82747593113164,-185.7827523451417
3480,9.66744,88.53450338150076,36.86200254948082,-6.73943583959246,-103.62163432225329,31.37727621194278,33.88725569956346
3486,9.684108,-83.27213323102009,27.1942986173323,-3.684819803771037,192.16022596832323,57.03707908440551,36.34885668710968
3492,9.700776,32.67998892867879,-27.47989921275957,-85.47887321528279,9.370321190568395,78.7555685231178,0.44356291011891
3498,9.717444,-93.57819406970546,-35.497795004671964,39.99714215485152,90.2749492897358,135.98558270462718,-258.94190719592484
3504,9.734112,-38.1244271361049,149.4725525275716,20.146291294891995,-51.590047624931856,69.59795681554712,-72.63848052567684
3510,9.75078,-67.92529821000787,-120.01789349778863,-122.93792512781964,203.2436973334412,0.9068384715262336,-22.40436081947695
3516,9.767448,76.4233329630868,35.50798820826472,-18.622561189955867,64.91402183681842,152.36475627168366,-186.6143218761649
3522,9.784116,-86.6485446038354,-26.42790534278006,23.915596732373167,11.624267802764445,-17.124250753131513,-142.73543090353795
3528,9.800784,-117.24909566952935,16.539665717223194,68.01845311808034,188.80718920828207,150.50491456429938,-118.06426723999304
3534,9.817452,-120.50265333242646,-203.55095216589692,-92.33137280117116,-48.60843803544621,-13.769818325141044,-95.02020161488431
3540,9.83412,49.25396322063763,-25.15717678848112,-100.9310030695146,11.18418455597517,-44.96750244108783,-137.4678498025644
3546,9.850788,-20.46845696896857,-117.00796329263868,-15.047877432618218,43.33823476779399,101.46490348185864,-208.04851280008464
3552,9.867456,-10.68148345171189,-54.71030970515838,5.093481021939719,-173.9395090730858,-1.44828867567346,31.155578728997007
3558,9.884124,-157.05219796504133,-96.04986428233585,5.8213542509767855,-60.71591341405,-16.65744722477108,-61.44592103929613
3564,9.900792,23.346908469358887,-94.55903887231172,-64.73661825195566,-50.41961185026593,7.485472693569743,5.761876349821398
3570,9.91746,-130.94335415621305,22.421600714843372,-6.6068459168822535,-110.15594597749538,-19.22238967814082,18.361972074223253
3576,9.934128,-43.32647722289276,-68.92910182657839,-22.57555674564875,-117.22719922388552,-3.99944772092665,25.58321221741126
3582,9.950796,-16.712819902336168,-138.11190156352794,-64.41451052458027,-69.68182301798745,-15.3590886795228,-40.34932465920548
3588,9.967464,-101.47117021248192,-81.43263905145301,-76.83721852239282,-52.17758377782376,-1.2615861448451682,69.47336094921664
3594,9.984132,-139.1864168321174,-46.881050755574655,1.593936388211059,-130.54919533315527,46.64186920096618,-8.421647845863713
3600,10.0008,18.30708316685765,-28.65977245818899,-49.08151689462764,-0.1584408156426846,-68.0093389913889,85.45799104373948
3606,10.017468,-49.04182130862317,112.93907858941644,-38.450097743379374,-99.51823424463022,-53.15059023327069,-26.477687205559867
3612,10.034136,32.934897429405936,-211.6728465484528,-27.629447834520704,10.338536962889044,-87.41596749780392,87.43292435712362
3618,10.050804,-78.05736267563753,84.72290062174716,-16.219067590812074,-42.5849734351647,-62.35297815561029,-6.541189846788141
3624,10.067472,124.87169466525748,-41.7054297082983,-94.92152397838788,-147.01380469487168,-86.04935908087315,-44.19379488172388
3630,10.08414,-147.86542944941874,15.729085891216146,66.06896757772802,53.64465780636942,6.561356782347499,60.2243596072113
3636,10.100808,-13.646802853884612,111.25879025742717,11.490691842276746,24.094372409450525,25.11814035528412,2.0033791246994284
3642,10.117476,-27.291864111348687,16.41162961338842,-2.921044849109485,65.64845548981988,19.53115138560195,-21.775152984575143
3648,10.134144,-21.28801771580989,18.42972141526893,143.95279893593346,12.929632384737404,-6.716099592461482,33.70305459285185
3654,10.150812,-21.143068400769742,36.10913818058264,-66.1600435132578,99.1835364696628,78.07772171500869,20.60912630428107
3660,10.16748,-27.639438249837088,87.91192104836566,57.786992059744406,82.47133858785534,-6.8211311122016784,-121.86121178357652
3666,10.184148,41.263687977419536,-47.20995718020913,37.7131617566602,28.964506112196595,36.21347530788528,-8.754608430228904
3672,10.200816,-129.232794361718,-49.09631737695292,-81.93919586868843,51.21651407961793,18.958818574423145,-20.452347739052204
3678,10.217484,-24.677265072540123,48.73793917994333,115.40139708410312,72.29336195296473,61.161013939103626,-50.94734724156393
3684,10.234152,38.53254358507607,34.037874247494784,-34.44573603886793,55.30697989335052,28.512597504075032,45.22696848902862
3690,10.25082,60.7702618057668,86.27017485406697,19.37547535814876,57.95626486061613,107.31551613149436,-35.664048095482435
3696,10.267488,130.52806035998384,-132.582237452137,72.34503034939229,7.232744007952567,-78.35454538929983,83.41242187773113
3702,10.284156,52.94886634650096,-3.0867233639335443,91.87784247207898,57.92741777723235,114.18360528807644,-49.33647931442784
3708,10.300824,118.99339541089472,142.3502594043877,235.75171014383068,-61.91457155475434,-40.35135843361106,2.451890775731549
3714,10.317492,-3.550411005785506,6.118692306420652,-1.9065281553874929,-13.725133055604251,-45.43236383185303,142.65403091128348
3720,10.33416,-13.162461016238986,-5.451286439905886,-7.328043584110018,-1.9869061159258865,-50.89598314685603,3.3636568816051025
3726,10.350828,8.83024886533978,100.9845445645139,71.74713480307437,-24.81746043738441,70.66133392896187,-17.15292027241248
3732,10.367496,46.43412987605284,3.209621958646789,-36.21934666514113,22.675083598949925,-37.71212011032075,55.309099529504806
3738,10.384164,41.71774773643663,49.60876107699036,-1.82108690971836,16.32891059779996,-26.503489139272062,-38.43546342312701
3744,10.400832,-14.548270373543067,-16.910843615240296,-13.833549071866626,-30.99199430321416,-38.07370423461101,-5.370757274425522
3750,10.4175,19.41678998154667,54.56286873606152,-57.06694548368107,34.68931830655017,42.55090497681642,10.134975929836576
3756,10.434168,17.15240771947729,-14.678836999647846,-38.59159111427395,-29.57424041953831,-41.667699671862906,36.6047367087918
3762,10.450836,10.278836766552256,-17.14815491619458,-38.73201709090965,-20.04835700969821,6.648335380717439,28.96547472205697
3768,10.467504,22.610519532540337,-5.9076850923153295,-24.32368930967646,-45.20465132178896,-17.611847675571305,9.388919240606135
3774,10.484172,-64.75094284539192,-30.74954637067381,-63.87140557765754,-5.173610915520753,2.548069070119768,75.18685825764827
3780,10.50084,74.77322350845441,80.65086641088723,-4.974589277630145,-69.4424749258819,5.225366761225818,-63.72641479954754
3786,10.517508,-28.246485274302977,-42.031956316794094,44.14738185618796,0.7421435837134256,-18.000370861412872,-15.694151520643132
3792,10.534176,21.25611043584059,56.47546463189485,-19.12334526533651,-18.000139084557773,22.53503658788752,-37.02710901021032
3798,10.550844,-7.91143303408175,-108.95733903840356,1.878867737581542,-5.10779140506755,-5.543955220066117,6.485393282861544
3804,10.567512,-31.73003121131132,17.70089666396119,10.693237384401437,37.49337951010489,121.0564877267811,-58.50944977783973
3810,10.58418,38.85158658808373,-9.925598448090796,28.361405549193893,0.8378027588474914,48.30095445736451,-48.05177904209917
3816,10.600848,0.9986890189020629,6.051340370117265,33.19380867166974,38.27332766597561,-21.229873213538472,10.90390332805675
3822,10.617516,54.71678724255927,9.999826985357933,7.126856815737561,28.198708510564288,7.829547344086199,17.781783322574057
3828,10.634184,-81.58951142587486,-2.3288923753848074,29.56705166590001,-12.828508799864094,0.1405330464701357,-50.38352651535306
3834,10.650852,-7.526307943650299,-13.807682883869145,4.489440055673064,46.81261359752258,-39.224326754587246,-18.201387463689446
3840,10.66752,-51.348407171607,22.07951973895491,-26.59073335971746,27.586572219581072,2.940724808255867,6.020401028585265
3846,10.684188,-23.87738258754838,2.739632614255629,-20.881552661151417,18.44334720097659,-42.75931493082467,-26.554862832501357
3852,10.700856,-86.5099601897619,18.765368899944228,28.46034428317907,-54.8795229426113,-51.64041509246522,35.562576326410614
3858,10.717524,-10.414354249139398,-27.690944844811128,-30.531439232094428,17.09387030012582,-33.692693462731434,48.12654064907464
3864,10.734192,-42.14001529290399,10.232242140533316,38.15859898101409,43.89569400329796,-42.91251205638518,-43.83086680891868
3870,10.75086,32.43383914705104,42.79677653204603,57.29411974669971,-90.01165920297521,-73.8061655298331,60.00137069735596
3876,10.767528,-46.68359008390707,35.48115330728487,26.043873757918757,-77.6314456293131,-55.80636104901789,16.846284344452492
3882,10.784196,-10.475685432317784,11.09473766163874,-26.21486249022022,-14.870374171020748,-55.919633647939705,161.35969488130738
3888,10.800864,-10.714702507033891,-30.39612303431704,62.66817405388141,-70.470642474809,45.25946644495049,-55.76581707539993
3894,10.817532,23.43731758785046,-15.689876595498705,51.550294174567405,-8.947127976640264,29.555486334665773,12.279291606710672
3900,10.8342,-25.212507596318183,-2.008008932920523,1.3306731686168431,5.285879998425028,-12.009087691626046,62.95046809070798
3906,10.850868,18.59827707104664,32.35505471885516,62.23728779080679,18.47917656292192,42.13486052525772,-50.79591533941456
3912,10.867536,22.36058052571413,5.891260506674706,18.148157822117877,14.281800380201814,43.57280934289157,-45.21559681501029
3918,10.884204,3.985492107865433,-34.1972702186217,-0.7389624096629683,46.57422443562141,16.527983614418943,-12.29101832735813
3924,10.900872,-67.30688890411588,48.90753561311956,18.014644605869112,45.99256524486198,-27.908972145195616,5.209976225279571
3930,10.91754,63.78018517917023,-4.64456936998237,52.15558682950744,36.94728434672061,5.569981069856798,-18.67382209776296
3936,10.934208,7.505126400370226,-72.80645967649727,-69.9563629859042,3.65737701088012,17.96057154293115,19.230529605055487
3942,10.950876,-98.74406242239112,-46.85455286101613,52.18087448825378,87.39818281051396,-23.543565421782816,59.07066780847239
3948,10.967544,72.7280294692506,45.74905764952236,-73.24073333688165,-19.00258612475305,13.008132332045562,-69.06188005061732
3954,10.984212,-16.67621036712801,-10.732338551416712,-27.972251300429765,2.4814915850177126,-3.602988162468412,-0.3797129907328807
3960,11.00088,-9.792349795485132,33.48810080646576,44.83336889123724,-35.22841391374152,5.244773508771486,13.465538797236114
3966,11.017548,2.072076372058996,-13.562193701257636,2.19086022548931,-3.9621092012309047,8.71010308719765,-8.151081879802518
3972,11.034216,33.15864520734343,20.25873582614688,-21.95740336944979,-4.186980626583786,-17.393468685023677,62.03106325292626
3978,11.050884,5.092820274233764,-5.152000125853764,28.614075222783637,6.31596858596809,9.853750821643358,87.1311045256917
3984,11.067552,-39.12291778951959,-10.11962385356852,3.173254053853768,-52.04193424563001,-55.59304033473989,62.20628057576151
3990,11.08422,59.40201832444973,29.451326885375675,24.111626765372517,-14.790100615379,57.66306545051688,-75.07089093677017
3996,11.100888,32.88162301134686,9.455966564614911,5.356891966491812,-58.43337229458752,-20.65415907948639,27.806693531640075
4002,11.117556,31.02878705596983,-6.959870593192409,20.250598870159884,-17.866131980117864,-27.647766524938085,33.68507160982664
4008,11.134224,81.41146627889569,27.86156880341048,50.52378993741811,-14.723078239560202,22.423719514592783,-7.770796344521761
4014,11.150892,-18.575480692136846,-25.43617174982205,-23.21518466085582,-7.319470199951615,-18.6373749008727,-34.50874594398183
4020,11.16756,-44.89021695082053,48.57055596148049,12.349937599934275,4.732246224990185,-35.197828556113166,64.2956836971753
4026,11.184228,60.22033582849985,-50.40208741121855,-58.03530400084616,12.02062419517059,73.57952112135919,-83.53314727930089
4032,11.200896,32.17376123096054,-14.533757935082484,-11.215064273667636,14.500789570204716,-21.55616000327571,-7.1807605455883525
4038,11.217564,-13.663776688585616,7.062045546769403,6.897536025363651,29.75578058315422,12.596661400849683,7.0279012634594
4044,11.234232,9.80024829878573,29.662414973447238,-25.622983210300887,-29.516729545200803,8.95393620247461,-36.45026359203423
4050,11.2509,33.12880840219766,4.793284791258307,-32.112120390743826,7.245730460903998,46.55623384812194,-107.58241762465532
4056,11.267568,-11.132499851160825,-26.86228138420413,-18.168632881329085,9.301783799899887,-1.1728348072102666,-24.91740281687255
4062,11.284236,4.998165642530277,-2.963066405206023,-7.114151322430632,-3.927646621548635,13.220840310779163,-27.75391182195097
4068,11.300904,15.874661590347996,4.011988670170401,9.559642395805133,-13.103341034601232,9.126086423799382,-5.992716546716167
4074,11.317572,9.525902579874897,0.3959778832735825,21.71473150037281,-17.070688266438644,-0.6160595268302487,-12.704579461244402
4080,11.33424,2.482561338786984,-22.77885432357554,-15.586857186444377,10.389333120149429,-36.06717888075892,-3.20505901525458
4086,11.350908,5.738167535625983,47.52842986408781,1.4408496381242388,-18.05045646440159,14.26692658870299,-3.7708848394485006
4092,11.367576,12.985159603675406,8.527202410518926,12.660709457280376,-24.89495701171113,6.802796448058231,-1.8636802248105528
4098,11.384244,-5.330682136705482,-8.11669572136023,-21.77717456948449,-10.739125224244498,22.66462002859524,-5.0703001645062
4104,11.400912,25.773283991463774,14.245820451830944,13.471510576757645,-11.70805592849873,-29.58950005882558,10.369506873785966
4110,11.41758,-35.1112300435397,-25.81109548874937,-22.85250238631429,-12.023956114025886,-15.850142644757412,13.947354236129463
4116,11.434248,-38.37872761237773,71.96860673911098,-40.05478235989487,-2.324654804000339,29.849879443767627,-26.451223167090188
4122,11.450916,143.97740956257837,-24.968502479426817,-36.650819074030665,1.3408670155730429,4.609607883842693,24.87866862343262
4128,11.467584,-25.607410145946467,-63.40521693775136,-49.097946596544105,-22.81793082451899,20.2612540895011,-5.528012164373831
4134,11.484252,-9.64791270012658,-40.12993584739012,6.107023973663377,-2.181712832221752,-48.18139695737682,-5.159461121132534
4140,11.50092,22.93079944699939,-3.0335661394564646,28.635436460886066,-16.168863296882545,-0.2417125424016468,6.084252387305179
4146,11.517588,-14.880706576406713,-19.331576015750493,5.298669890900214,-6.695031323910119,34.98996051482004,-12.951740470719889
4152,11.534256,17.30483276933822,-39.81609340343131,-8.36656573527547,-15.668637685520494,26.063891805384262,-7.665317926530805
4158,11.550924,5.043663755322379,-56.18465874872038,28.16262834032467,-0.8000567864483834,-33.231792855249275,3.658319089594085
4164,11.567592,22.09331503229275,-16.50501364719772,-3.5534618098408943,-1.6582143805082907,4.73844441563503,5.241238888396321
4170,11.58426,4.01287472848707,9.10171762119454,-5.901135084975024,18.31710566806423,7.684069680826714,-2.879008603758125
4176,11.600928,41.6053918909932,-35.52560049459282,-25.18856359847984,-60.97059642706174,-7.379635662984139,-55.77113326346893
4182,11.617596,-56.67011066872063,-9.70857737283968,-16.9949658943716,56.02744464306832,-18.271476568516327,-4.985864655738685
4188,11.634264,-0.2897423606348703,20.85865475661016,-24.419146998572025,45.90124417883396,65.5904281386889,43.07777814767157
4194,11.650932,-15.367780122212418,37.19849763188365,-6.268277363288186,-10.358606275880971,-1.9308570195311665,-16.60665974821044
4200,11.6676,-20.72363964322221,52.64139189554352,-31.34388943490911,-3.450433269737954,28.82261741580748,-23.424847269953776
4206,11.684268,0.4456582842451428,-5.093394327696901,3.6788108620683815,9.431952075284295,-27.02266678389747,-6.6149455424232
4212,11.700936,-15.61709012878875,23.75454792276755,-44.4055051373371,-1.2129659010507226,19.90082386658145,-21.19310500694581
4218,11.717604,-43.86526272657099,-22.977224997464347,23.26974064278103,38.149656269231976,-42.66132272961434,74.73196222305381
4224,11.734272,-24.955367512722837,-17.164872794698553,-1.7613544647171064,-10.685559388251374,-1.220748772638892,17.894337697973434
4230,11.75094,46.6415400121206,16.66302349389869,13.577741214366831,-7.252196604613623,28.62583147997133,12.417969087360074
4236,11.767608,-1.6178998774010953,-33.89065744286549,9.546597367054252,0.235677445487371,-16.170018250125043,23.12935080880868
4242,11.784276,29.479220198034263,30.938874945037394,0.850428155788947,12.619914605324702,-21.381545393182662,7.209427448695195
4248,11.800944,-9.748911941592215,26.64223155638551,114.32329718562474,5.740080685085443,33.153283848380724,-6.495489124341218
4254,11.817612,2.495587516273609,-42.292825628651016,-28.783007684637035,-5.063217565141564,-4.159490491104819,11.312514933141555
4260,11.83428,15.119256076266131,-0.7610521985126479,18.49076038117341,13.533898401606084,1.1469996811166254,-9.642399013504658
4266,11.850948,-29.787827962717568,78.54647967111042,57.9244128911124,0.4722210469236044,-3.243307616826224,-4.42024517936729
4272,11.867616,-20.27181314566357,-38.0708433599157,-30.145086880908902,15.866886012696815,-11.887675039342124,16.97372500494689
4278,11.884284,22.511294380083736,-13.67107956146431,-2.220279427506764,2.0044150159251157,-10.036961801390609,14.860162076099463
4284,11.900952,-16.094998393964694,-0.1147289811166842,-0.5532043871479264,14.132988201611434,6.441540864193519,2.555743688055116
4290,11.91762,-7.991960963638995,20.094262405213502,-4.399178462637628,1.7691024627284475,3.580209256717381,-1.4912738932873104
4296,11.934288,6.676284728266273,11.686822039820496,-16.982268179069404,6.484175272570784,-0.8109432263602385,6.231860233637633
4302,11.950956,-13.546388519930025,-6.910584979756475,-6.744285512252894,-10.424736015290549,-11.417362331553653,-15.090017146108307
4308,11.967624,-4.457405491379273,-1.2640751383506306,1.4307891215364954,25.27628683834604,11.54586253093857,-2.093556744776816
4314,11.984292,-2.346309018182402,-9.797545358927174,14.211732911231556,-5.413541785257274,-5.324955857680645,8.012532894519296
4320,12.00096,-15.844465138202764,1.457639873675646,2.553855628046893,-2.8908310890042985,17.281668620689125,10.163430656456253
4326,12.017628,-13.72238150229488,-2.5969336814393555,-5.8387203101412055,17.90433667660995,-8.630308449843476,24.6626241855046
4332,12.034296,15.382886424191774,-21.50835687346096,6.899443698121584,13.797716018888671,-9.620318601214716,-18.206234297061517
4338,12.050964,-9.602068220533084,-3.8163657663467374,-8.242898282157572,65.97859308952005,-28.31246700578761,100.42144506926576
4344,12.067632,-2.163791552842729,9.123746350755278,15.70066340199942,-58.84853338600772,25.859930075575345,-64.99961004605773
4350,12.0843,-7.611406658886656,11.530671969128164,-2.577243088951148,-2.291577107619146,15.027618149075275,-11.36691020814752
4356,12.100968,47.27230296128591,2.590231496294461,21.17187271898105,-1.404631913135399,16.055776263420107,5.925975461505936
4362,12.117636,-33.7021298841527,-15.355820202723358,-25.737865218577245,-22.56291142597549,14.700608738766112,-8.799455359562177
4368,12.134304,4.885228688139794,-27.73917587034636,14.325925322300831,-44.12916591806909,-1.831577562106772,4.282280834822967
4374,12.150972,5.289145779230017,11.228603551091084,-9.233266436606035,6.657180680491964,8.185915726663588,-9.898886775390856
4380,12.16764,-2.384482325940477,-4.361323316064482,-1.135122640109655,-13.923268612480646,-6.835934746952145,-1.5183336169317334
4386,12.184308,7.4974424090562835,-45.04701714371275,-13.333233597704805,-16.35901220953101,-9.388731294289196,1.6199239186353358
4392,12.200976,3.87957669565516,9.302325136196442,-6.291437193478406,-14.01245967242084,20.348028791953418,-6.058299777388429
4398,12.217644,13.086150803634997,-13.635520694089951,-30.36611760334628,-13.954430160621872,-2.086755827531798,-14.788449982664773
4404,12.234312,-27.348948000324008,24.78455047023716,-18.11031285273141,-10.567196678937558,-4.12499953150454,-0.9016626994150524
4410,12.25098,22.755041915731184,-11.714827759662487,22.918486250972823,-5.213750483089544,5.149164706940511,1.6692740244804607
4416,12.267648,-33.43745874483528,-7.541438089340069,-17.070137582378635,-8.666425111771302,5.000515849863186,-7.258466761179688
4422,12.284316,22.49805237935203,15.102370602747971,-6.6490276386239735,8.937252845491212,-3.9915079722757,-17.335997693157527
4428,12.300984,-2.54110524933936,34.65857889282174,9.87751705541369,-20.76194153943201,23.67790997596484,-11.822401506759704
4434,12.317652,37.73776851328893,-54.45980629652995,9.004883810732325,1.822184451961676,-22.79086349361596,-21.08577598666033
4440,12.33432,2.577524026440725,-15.72296480437464,-4.35887140727144,-5.739395059609146,-8.215138916972965,-39.08600296434642
4446,12.350988,1.5299473981422709,34.43678658501506,15.867345664147445,24.178821586760375,-24.229741635993943,52.99398977551656
4452,12.367656,58.73379002819243,37.12379277929482,23.61167435018311,-11.382712920973267,19.239825672407147,-5.852601037037374
4458,12.384324,36.00506060543513,-25.358170640360896,-36.0205873923438,-16.46807479328737,-41.69679972569812,12.686271515810216
4464,12.400992,-7.863652423790484,27.453899149064192,56.95237850792779,18.802359935267496,-33.02800303680441,2.524829011400019
4470,12.41766,105.8231647570541,25.84048593231848,26.31875092237837,-19.15004373498088,18.212589890910387,27.91212960697753
4476,12.434328,-20.750511332878364,16.167983866109456,-40.81183665564933,1.5618189858621203,-1.1584432941358358,27.030209945638944
4482,12.450996,23.66351486551013,43.516285475693934,11.3506038632357,10.900678049443222,11.19994871611052,-21.225994117323125
4488,12.467664,94.98775666019976,48.15140234548476,28.263579152881658,-2.539610049333392,-32.84904240774833,20.025334476261488
4494,12.484332,-26.39585803348748,-34.6263878867715,-8.594486452393161,16.01998379383214,15.57992636759785,-8.716337716578595
4500,12.501,84.25252077459778,-62.3247008327793,-44.76756293375931,11.40425732918466,20.494312873606777,14.500965138691884
4506,12.517668,101.80198888248616,128.07856941868954,114.35109274929536,10.133671918887517,2.4603951983587606,-3.013270997538815
4512,12.534336,-3.887050027525872,-54.48997702201422,-22.72453085343453,-52.70201613061647,-10.37822007340701,-11.284044684075212
4518,12.551004,-6.409853743901527,9.478417084600425,37.67566633775482,16.94367576101178,-13.975654504448007,-12.85441296155243
4524,12.567672,12.814657272953674,-57.76645769659187,37.72920632927497,84.76283695234538,22.32453323053313,-13.422484993126764
4530,12.58434,55.2356818498615,-22.641567293582312,18.04075511176964,34.81160745795615,1.774800639469463,-30.08359158603979
4536,12.601008,-90.46365315871606,30.183365183084437,-29.3726973573062,-33.268864399237465,-81.53311613902542,64.30411716831333
4542,12.617676,3.848364232690141,-23.54777857178088,98.02071708474548,28.01114578564218,63.52484105089461,-47.381982366328565
4548,12.634344,-52.08674699829219,25.622461121246182,-25.77325498785724,-43.45250068554792,-22.77731172742777,-5.701498708518887
4554,12.651012,-66.7439567173364,-55.683704130240486,-27.823140854106157,-8.850916236978094,30.219389020750956,6.517068075784767
4560,12.66768,-48.68471327506514,5.1774762991507775,70.63865639653812,-20.114403146527177,-24.09060318226996,24.272662689971813
4566,12.684348,-14.258935710171508,-3.781382511974316,-92.43833295669852,-44.09531857858259,-25.10951056430564,6.870866225998057
4572,12.701016,-47.615295876923696,-17.284740770941426,40.91490553948128,56.83423091580809,54.90913880363621,-50.40258950200407
4578,12.717684,28.03146532550175,22.12629538885272,-27.75454145481156,-29.37429470438468,13.187534291045594,1.1633918033243795
4584,12.734352,-113.9258238526229,-40.93307647327737,-35.13707356639855,-12.786387658346708,-27.45411514170527,12.423939125725376
4590,12.75102,-76.54157444128626,14.476316246469416,-5.139557878638881,-4.616716125147176,-28.337763613675225,-3.489891202839161
4596,12.767688,-65.4190468286267,47.81075667864383,21.613508793629336,-9.4479216247105,-6.834670110222296,2.25588165726256
4602,12.784356,40.1543928146024,4.312050587493566,-35.96910922304715,-11.765286074050778,22.35047671218807,-0.7909002686570119
4608,12.801024,23.71818887215383,-7.486370395288544,-67.8434234062638,-0.9165668335462148,-11.905692005896434,-40.35635988895717
4614,12.817692,92.05353564194452,-46.15086070494974,2.935918813690161,13.99724970736045,-7.011642491850795,0.9529814847828773
4620,12.83436,-106.53906353150776,92.54001425024089,50.413204712937045,7.640991833832261,-1.9394299311073908,4.13745700639111
4626,12.851028,81.15193364273202,3.4808118593001325,-31.64233925116953,-19.512677949326463,13.87273751849068,-17.122699719677627
4632,12.867696,18.129946185198413,86.60972617421629,34.200972795025734,10.00615767523789,9.064779428390183,-29.54099544531313
4638,12.884364,-30.692561589507186,-28.271836092723277,-16.42651656542744,67.97994398378684,16.424748213943026,13.35031414192111
4644,12.901032,178.89061020044264,-36.99677760462136,101.273658005817,28.954715701657275,-36.69038338847425,11.375629825243388
4650,12.9177,-30.6031370373478,84.92768147188872,25.693396195769857,14.432012272110615,10.252149347049814,-19.013985316701067
4656,12.934368,63.91051067156295,29.840409093135214,-42.93102237751857,44.62520810491693,44.53753738161443,-44.77403763462438
4662,12.951036,14.620878504870896,106.66233140383102,46.95196644323509,-24.60597184897141,33.45397583015893,15.57023608441295
4668,12.967704,171.1290361799429,-5.463233566337067,85.49104033622056,2.422557885156033,-12.25167701318142,-3.925450448881959
4674,12.984372,80.47303808170841,-37.5147610764343,-71.39332210884125,40.60906868791784,-20.944470622953546,50.24957172660344
4680,13.00104,90.5492764670235,202.98420837670156,187.7752771484166,11.166715002690191,9.635309688738673,7.843609555143183
4686,13.017708,109.36358055526354,-37.3584799679929,-182.97541546115244,5.7810071868812924,63.03473382922863,-36.21205157836884
4692,13.034376,-11.602891915282564,169.24406141610132,162.03435379266125,9.879078102898893,-14.655612201910811,41.27163703114898
4698,13.051044,59.15487726002535,29.281690956658725,-129.10572241234345,59.076965022462176,-21.2080402095201,33.94529076924992
4704,13.067712,116.037616051765,-34.186335643282014,29.17809661145391,3.301160853595228,-2.041712529907316,26.7094505757118
4710,13.08438,-132.4563647190709,77.64041660535308,88.46553736875387,-50.6327169207672,-20.792412745720647,-13.332400126908652
4716,13.101048,135.4968677141515,39.449068515785335,31.5121825615121,-0.4344987343129473,118.80723687070012,-12.09249808561345
4722,13.117716,290.39636446201064,132.9404978290747,-276.83044784142874,13.748023813925272,-41.35317118750699,77.01065214046024
4728,13.134384,-20.50370898308012,36.29748293665793,97.64719298888028,53.74992543880603,-9.824102006413977,28.70369411622646
4734,13.151052,45.671040024929,158.5298898199485,164.39504093844204,-45.81415594501063,13.062970333463149,-66.8833638235837
4740,13.16772,181.80044149693424,165.6020931727347,46.88639519981015,-22.107279080713127,20.476169640170497,63.26805604641624
4746,13.184388,42.262443661416704,17.87039611741536,69.57827485184885,-15.447999916090762,33.9773879851424,-15.16511406944921
4752,13.201056,-202.1967965995963,-2.0981772364180955,157.38585246104333,10.677847043402211,9.200648723374169,34.96282029430996
4758,13.217724,420.2326940627081,-1.562983288392623,-120.58591061656952,5.037053394523081,26.692568529394347,11.921344888220906
4764,13.234392,-231.15985730517576,163.92594056909763,58.4233887264414,-45.726574627254266,-5.538307081194335,-22.84452788371525
4770,13.25106,208.35285503346145,-12.018754662107597,-76.86868103879102,15.370403676683091,20.391559419405272,-15.739413421505812
4776,13.267728,-155.77792442440062,139.881284110352,67.85463219319801,28.980316355493223,-6.744963720963463,17.100894614390427
4782,13.284396,-80.1671270417313,-97.23410242524636,-117.78106443627108,20.7936204116186,3.37037760735474,-51.29047597912934
4788,13.301064,-28.58180426193717,-45.02608276906594,-18.21347042081526,7.01774602514786,40.70463016209162,-75.77138922378776
4794,13.317732,-61.489093556795495,4.287400834233047,13.851076943105298,-24.43505437554093,-0.6130801453367098,-35.48780072127421
4800,13.3344,28.36156288482958,-105.6339572982591,-64.33266827019912,-1.7327133125093268,38.43963976154617,47.5061844093849
4806,13.351068,-215.25197939121307,-7.295261554345837,65.40505722674703,-35.219067076780256,-60.98648452581031,-11.125749997336644
4812,13.367736,-171.59968075377753,-117.79337172453418,-143.37925945166512,33.87396102009026,9.764418219830276,-39.24355105674409
4818,13.384404,-198.1332699077628,70.95202936127411,60.30665165364381,-18.460341532416905,-33.701906040175075,15.887806592362946
4824,13.401072,-201.1795254364502,-206.52681920905368,-98.49627254305196,0.1780331478316581,-5.323885112797115,-28.633588384979006
4830,13.41774,306.710386598622,-271.2868777818624,-85.46924487334192,-16.557324409135205,23.339630338770057,2.248557545643253
4836,13.434408,-407.8177544987981,-33.50661651178182,-49.62256653415215,-46.52654645161852,15.924849770001815,-28.222550829027515
4842,13.451076,-102.36779597638412,-215.98562616061443,-21.698141566856293,15.91663530684642,-104.5990459362112,31.99304932321328
4848,13.467744,173.39726207532055,-127.58826218396636,-87.40895521755162,-19.89831753398086,-33.2578969745302,28.34390862611666
4854,13.484412,-230.1092633425542,-275.90195330980646,-38.1832792565904,-42.3943437812073,-54.75527122999976,-11.616542268977453
4860,13.50108,-216.6924845739881,-290.5952708199118,17.3990343220038,-33.28772852725238,-39.476880868523146,83.80405976614416
4866,13.517748,-120.56373245101432,-215.69654621160055,-141.00556787851522,-62.89180804590943,-46.136671731570566,2.0289727286189976
4872,13.534416,0.954433082879703,-123.0006174127136,-227.52706268286957,-32.03309635834543,6.33025316934086,-31.65832835081289
4878,13.551084,-185.9323827637083,-251.8288685977693,106.62547860819312,-8.186263283692888,30.103215747458886,114.0342855397834
4884,13.567752,-76.89663603650104,-31.01591432744665,-143.88157607404486,-99.64232332023636,-76.33986138664044,3.515316445841719
4890,13.58442,-191.2168385223528,-199.95940296226948,17.775219667765843,-32.42093514119678,-23.921889846319885,-57.96451578059602
4896,13.601088,-54.63308674671896,-108.84268533927175,-50.92992026431296,-16.49760425537137,-23.103760256019825,-9.866168531794976
4902,13.617756,188.2550352916924,-122.19188689451865,-101.5094745431028,-77.54930884647128,-43.05725609220384,58.1851031143238
4908,13.634424,-251.9272268561862,-120.3011846366808,-108.59491182308318,61.69752054767113,54.2660962741932,-116.69747965333612
4914,13.651092,-63.919676022623015,-131.15994910800413,-28.76824434040647,7.949216832390298,-3.940599257269643,-105.08385092460196
4920,13.66776,-168.70872651902232,-20.090206297924205,-11.830813043755173,75.360462860415,33.54546225032168,134.09950047249058
4926,13.684428,-83.60610699850395,-120.5251224863132,-46.67544480389729,53.39196954402557,60.10591195326138,-93.40739389083085
4932,13.701096,-2.0441675289408323,-41.0890518341075,154.92452715117733,-88.82693422590347,-63.64152866514621,-43.459492814652265
4938,13.717764,-280.5510439639072,-7.692148718099983,313.5175149037925,-48.87808558730293,47.13553282420812,-105.02831940726968
4944,13.734432,545.7207115931604,-70.79538734354205,-449.9155978100502,106.24926422410849,-60.01488403285317,140.892087526153
4950,13.7511,-349.00902146590954,-29.591599071947627,170.16252561726253,1.7545502962393251,120.43064829020794,-52.33245593491949
4956,13.767768,-40.74288987198227,86.67467037329905,7.532254867473618,-35.826794701569895,46.77176389492181,-18.572606526278847
4962,13.784436,-34.07210017327209,74.93633450395293,-28.035188187251748,4.734745935189238,-57.38478806170058,-36.71856223799266
4968,13.801104,31.061154637582263,-1.0156659174812148,59.66113930145858,50.29271470400362,44.880829126127495,-16.41553140496761
4974,13.817772,111.36764002277329,-91.09572088609876,-119.9563281193904,61.77272944017646,35.122557302386014,132.58655049399215
4980,13.83444,-32.54622646397472,190.90792332297164,86.74949925030499,-5.644048035369719,25.91374070228283,45.75931712935749
4986,13.851108,-26.63150782897024,158.6127292949516,67.96414243550713,3.402340146416069,-0.6230861164494659,-35.992517662395684
4992,13.867776,50.13384844124114,-24.86314860272217,-65.32919016368372,19.26660246203544,-23.339225678823688,1.4897062825845315
4998,13.884444,72.07413926500986,190.36876417236775,-39.757160762026544,35.88339687420566,61.08164686233938,20.4262404399262
5004,13.901112,58.246011749041415,106.28492300109276,-27.33288892995205,-17.695461452444615,-51.634580243455474,2.2706569275025004
5010,13.91778,19.34095444735766,-7.475350017255408,-123.06073832707956,-18.12006264302996,32.85804255273666,-75.43367309120767
5016,13.934448,12.07031010200307,90.34033277903316,-90.34954899863348,66.50636000517213,-9.97054424022228,41.27870369021045
5022,13.951116,76.47757698562764,138.1578037737038,31.275161511290925,23.335017577815076,41.68677233116704,11.78383548509142
5028,13.967784,163.77060761093355,87.82129598387044,4.347150827342972,3.1544955151180045,30.366523691965117,7.714126524793661
5034,13.984452,94.18767873371158,140.1784721218688,-1.227590758882002,20.403901608701272,13.44888197703224,22.62055572887724
5040,14.00112,61.316264476199805,186.8872524046841,138.31705946946505,31.10859013236913,-0.1066392419555768,-1.4498816000034704
5046,14.017788,280.7352515939437,7.67448287607642,-30.75131102286485,-38.432028933121856,14.913059564471029,59.63788175460069
5052,14.034456,44.624997794269134,107.62765251216854,108.8719164771758,57.6914534960636,-28.826094116005493,-21.82653330664001
5058,14.051124,158.15656267623854,108.39372488897376,-130.1398822696483,26.30101763435212,7.701357587260244,3.809769520632495
5064,14.067792,264.56417159036334,0.6720410755277264,72.00156788308641,45.77729988943162,-13.384120128605232,45.86466431758206
5070,14.08446,257.9221391781761,43.71575749320898,-1.8635620770972456,7.851800435531175,-7.952509676327108,-13.495843303188751
5076,14.101128,67.30604551043832,-25.71008985052222,30.53650791979117,20.00011387256633,10.171133326144066,-22.807750060404917
5082,14.117796,137.00787994459594,91.94760875431128,67.89274452457971,18.758468264691967,11.773242774640028,-17.840796645862333
5088,14.134464,147.87060645492605,-30.5093069158724,-33.2441717082793,83.71168500718547,-19.48626272079596,1.21821749265012
5094,14.151132,139.9832274908021,-43.068971733118126,-48.34570512658518,-54.87032043437833,-37.22675101052665,78.4023763628021
5100,14.1678,102.91982344047211,62.976959258488606,74.61961495380528,27.020927742921497,-1.481245814251395,24.66045909978757
5106,14.184468,72.06453357077078,0.8887612660314392,12.943554275017288,46.48176366773303,53.6484933345116,13.358600076274412
5112,14.201136,74.43947702282233,-54.35698522380727,-74.91676874192756,86.33486560338513,-51.68050647485146,125.59418478488342
5118,14.217804,28.717800025790226,14.647015935924884,14.889520497321568,-20.08309057074855,-85.16417402863121,-43.99384022004778
5124,14.234472,18.94940084325888,142.84552398543985,23.41254429551524,33.75383574629643,103.42069421644716,-1.9721942439783968
5130,14.25114,-38.120846051163326,-0.1860615474254174,55.61902012723888,-62.81787466808738,2.001727932525128,-6.258122249149155
5136,14.267808,137.81894144454878,14.271468728124148,-42.8860672028342,50.65665546720494,8.686315002044566,51.03721003886559
5142,14.284476,-111.2223846355778,-15.960158933094512,40.67562475816574,103.7541613992411,-53.30076660150877,2.436179977600533
5148,14.301144,4.810726855034897,33.678466868988224,2.254818070401811,-111.17081144593506,32.01998418907499,-30.787174753997892
5154,14.317812,178.37083634059223,-6.570274844168383,33.59133959976903,2.050230739784612,-10.055297753919255,-33.42985727658292
5160,14.33448,-119.47495877487556,10.141578723867186,64.00981912499101,51.88958424775171,-7.79415730526793,134.17500618342385
5166,14.351148,34.345022313455374,38.358199226220535,-0.8998354068751269,-9.295748630438812,-35.31015270234116,-42.61771548460664
5172,14.367816,-36.57877538188211,13.18205855771548,110.5206389872162,-65.42339510512276,42.10871732245327,-21.643596936379783
5178,14.384484,45.38967134599805,-95.40542886521354,-54.501044713310776,-42.29345300358649,-12.128204740418145,-78.12369552327137
5184,14.401152,-26.61902045818395,120.63416551993836,2.104894010325939,34.207151396940006,-23.173627688011656,-37.29241113484129
5190,14.41782,33.41249555794131,-5.43410406766965,127.51784166803192,1.501229266671266,-13.666513548238,75.04930577508225
5196,14.434488,-107.1841620046003,-70.02919321587143,-38.68180737752913,-28.47731329608693,-14.107527351117504,-16.00766863775181
5202,14.451156,31.841431888608007,-55.053822917068274,0.2962237819210003,-52.63048143990918,20.99851141202314,-15.647655489719329
5208,14.467824,-124.38410981408916,-6.086310691012562,10.73814321073441,-46.69001409435897,-11.812884441871423,-34.8129714546461
5214,14.484492,45.14846254198784,-7.100494018280185,-2.6526762808015545,16.878389742365403,58.96128690273241,37.550788170730335
5220,14.50116,-72.67438812507872,-89.9959951417151,43.6298076165375,-80.70691141192881,-52.33517548610416,-43.54632233137207
5226,14.517828,-19.47823835163273,-3.2051031007884507,9.732633360688794,-38.585980796716775,-12.742803924256252,-20.94534839593164
5232,14.534496,-101.08254735976824,25.037697742951465,13.877175550041052,-4.987480976978951,0.9442494449369232,-11.199287716636182
5238,14.551164,-27.77031227380599,-16.863211341616214,-7.693997046764211,-71.4519540027731,-42.24916677069809,9.486599318364451
5244,14.567832,-66.3253570213882,-29.540551797501774,-14.73642205675932,26.200987535891144,9.220022614143982,-24.272858676540213
5250,14.5845,-4.217630176533167,0.3964705783916655,-10.144766603894086,-35.217240345913936,1.095674465478651,-31.16409686351031
5256,14.601168,-13.838998343713165,10.33000235721724,32.27075505905535,24.85207405827294,-34.480919748081625,-7.519326440562054
5262,14.617836,-31.016034990739293,-32.57086691891688,12.001024716164151,-27.77919265248465,0.5468419398837892,21.502075664980232
5268,14.634504,3.001625735069929,-3.263579252887663,12.107161023018904,-24.83035699456861,-32.017427053530625,15.820834310112396
5274,14.651172,-54.042650313715065,46.010504764518885,-20.897614595335572,0.3416650361731754,68.68242156581786,-31.497080151665127
5280,14.66784,-52.49308445344397,-30.424253151371214,5.265603197311169,-3.750193991758578,-46.43564724041253,-0.4065982026784835
5286,14.684508,46.56033182989793,22.01224706558761,-21.86298329649673,1.231766931081749,-15.051870613741205,12.154467142799044
5292,14.701176,-13.010827168228884,0.030670281845424,7.931972852866478,-51.39728667379397,31.466306654587253,-85.1837490923063
5298,14.717844,-42.31547886687847,12.074910577960091,-25.35579236227803,11.332960494582922,27.593899673274105,11.520580791524935
5304,14.734512,-32.29816850027869,-9.66850097080837,42.79688985606262,2.1537487316332915,-62.75457684125504,73.81172925786561
5310,14.75118,-7.413718651421917,-94.11932256901764,-23.132338763734506,-0.6284951312511202,1.4473643624048584,-63.368104201807775
5316,14.767848,64.82344756846958,33.05130309371084,-35.83261943899233,0.0547776380527382,3.8782366878821897,25.638684223779737
5322,14.784516,11.355622705660988,8.549966073703441,17.190622939919464,23.796053440998055,29.364743809153502,-8.81829680296786
5328,14.801184,5.933960141121418,44.53838163534889,-17.20279826966106,-9.55537334168028,13.070477187728432,-29.07029032312665
5334,14.817852,70.60000106747103,-5.541067352868456,-5.38362491110569,42.82747231158366,-3.7802352059620414,58.73211452327078
5340,14.83452,-16.713990758980778,-19.670192708927,-44.9887082619599,37.87381844197788,-53.46930079430712,13.465965236033352
5346,14.851188,30.93897553855023,-29.605454790104385,-25.12701076876868,27.672138805763375,-17.179617049450723,-26.215867294500192
5352,14.867856,-12.652588573783603,19.56437679938204,7.434079910521922,-10.953272421902998,28.91807285123013,65.55335655056862
5358,14.884524,15.650140243872748,-11.698836590279628,0.4178677740297623,27.29662368974413,22.20008502339593,-11.515454257848925
5364,14.901192,19.490049501993933,-26.24756935767631,-2.3122675885684405,26.36132544855904,-10.99752053813723,-48.77822349909692
5370,14.91786,14.67863490447102,15.629600623441709,-8.595755294435095,14.043844694446804,-22.01599251160208,14.736582586230892
5376,14.934528,15.241290134053,2.4741777546811115,9.751287576571372,1.5008420948088226,16.683035490026292,-18.57868955002036
5382,14.951196,4.942419473823552,24.577315027077653,-9.46656772372171,23.306483568493466,49.35965466452974,19.24591966361023
5388,14.967864,2.286408309308724,-31.53774444342323,-12.959465892855958,10.587469492938798,-41.82518802876989,-10.56585815670688
5394,14.984532,-13.212515965982004,-20.15883172402492,5.094592295382048,-18.341702217897065,-44.19265933773892,13.821160506334962
5400,15.0012,38.842293538264784,9.522890243164284,16.445538989484863,32.2839975103863,-14.006993671948493,51.89446384300007
5406,15.017868,94.25125342186692,55.01000697764273,34.07100771287903,-55.78424641465189,27.6951933530525,-51.251945408429066
5412,15.034536,-68.4088281121739,-45.428191575634216,-6.420706612773963,2.2587794868413766,9.328462173415357,-10.237355192688783
5418,15.051204,-10.593759866509052,17.263417636866162,-14.65866444548018,-4.640078076216903,11.07397733973634,-1.4840923400992545
5424,15.067872,26.21667864173956,7.0261856505183005,-3.4010198507489777,5.853141677955212,-27.83239252062101,4.214547649234573
5430,15.08454,-25.934078667800527,25.57873784222286,39.15695194445272,42.527538902745945,35.38124525584164,12.788339902219205
5436,15.101208,42.34848888137898,-7.105430335196399,31.835014293304337,-48.07009453358644,-6.462411688161936,-0.7364109899243729
5442,15.117876,-32.04495525146284,-13.90029721068548,-20.89189283519478,-3.742920573112396,22.86256601511156,-38.84839880376248
5448,15.134544,-17.12195926220884,17.635225594903368,4.366096445993618,-13.84377971718976,1.4833817746175857,-19.19728379583088
5454,15.151212,1.4626917684601448,-36.29245966249475,-27.43180867798664,19.87997278443447,-19.94942835413928,-5.086404881641456
5460,15.16788,-5.609366003520643,-14.156709296468136,14.570101638344536,-10.860674178519185,-12.827322078748518,24.572982491543804
5466,15.184548,-7.896456198181075,10.979024056843942,-0.1669892801213748,-11.742030547153718,17.273187281309113,-1.6745509627220452
5472,15.201216,-23.036031650713426,10.379840328681826,-10.076696319862524,-9.953199275919562,10.220191305151104,-41.43178248378341
5478,15.217884,6.31767871008223,-5.839009502593653,-16.888181247541212,-5.637029662710879,9.168487066357011,-3.123770534311836
5484,15.234552,14.34286832755976,-26.10457071985689,-8.170944827071237,2.589624528041301,-25.425363793272226,18.069896628764845
5490,15.25122,21.784767351782552,-5.998185919153015,-6.782579240060271,-23.36613023390759,-5.024118780240963,3.731820564579981
5496,15.267888,-32.250356745161646,22.275710282288305,0.852562765091057,10.947009290065012,22.777155826200108,-8.826724680160176
5502,15.284556,-11.146516068804232,17.886367764587163,20.189371550418187,-23.858880603702094,7.172823125598237,-7.223165844757885
5508,15.301224,-12.044688176814882,-27.36833235294911,-9.793294218655426,13.685520774787005,-26.98802694563222,22.23020683220283
5514,15.317892,4.807564456472178,6.424048417515518,-12.85395309703456,11.953630361972426,-6.363853573752458,3.0595432786743157
5520,15.33456,-8.693142452262654,2.477437854779956,1.2773319438249668,-7.092831210174447,4.307363850678108,7.040343251991043
5526,15.351228,-12.37287420521626,43.80523111534473,6.676543766315989,19.908981361674005,47.712966295601134,-7.393842568294945
5532,15.367896,-2.430291636017107,-5.199800009345886,4.701285734358336,21.87922356788209,-13.508375457595529,-7.360493027960423
5538,15.384564,9.704036758406756,-13.260953062802953,12.325296831248217,3.3582588184825086,-38.393730797374886,1.3875902536172962
5544,15.401232,10.393312449828198,-2.4393864782148937,37.30455377570882,19.97314198781401,-21.593859231457017,-3.425406811361306
5550,15.4179,-4.6530055166673385,47.088079016624704,1.914077029359428,0.467661149549853,71.35973387262575,-13.231915791282798
5556,15.434568,13.805013385026474,15.908973801623196,2.229616957945442,27.028516086220733,26.33018017270172,-40.16989501215164
5562,15.451236,15.263266001667176,8.015289611801306,22.816602070335485,-7.915569442144234,-39.62653554961936,57.66029919390046
5568,15.467904,-2.407826606051964,-35.92709629993149,-48.014809989925766,8.004495547272896,-23.26941841175813,10.01013163644649
5574,15.484572,0.8268626491541662,12.692457116550628,18.93037673474189,0.5155412334132446,18.655801158113213,-14.990692501694038
5580,15.50124,-2.0276392741687808,10.185535774049264,6.762073683938806,4.686083639055841,28.48498452869369,32.0308195952016
5586,15.517908,16.976264347586145,-26.23023772517328,5.199673021518748,7.897399398249632,-36.802288139676456,-17.219893444151914
5592,15.534576,-10.524335665836508,-17.903251939311772,-32.639791403618815,-35.98146550655737,4.145175885592218,-36.29850654907413
5598,15.551244,-16.707974522805575,11.864666979346577,-9.75227335516365,-27.47633239375717,-8.084727464200013,-22.78836948114588
5604,15.567912,6.241454479528556,10.91674260249691,-10.0813743549197,-16.89228354756077,-13.435799651827876,9.43636235943296
5610,15.58458,-4.079149063219322,-14.860530766414064,-0.654487264277152,-6.1821768006144175,-5.247168512917199,5.5241787753615785
5616,15.601248,0.9306278489846016,-0.2853653894822745,-8.97993970043818,-11.953726829176672,-12.576561511945476,-2.0431052635071465
5622,15.617916,0.915205081849988,-2.9631819476043444,-12.6174700457378,-7.098752485965328,1.320525666775401,6.30266387447174
