Frame,Time,RightHand_Accel_X,RightHand_Accel_Y,RightHand_Accel_Z,LeftHand_Accel_X,LeftHand_Accel_Y,LeftHand_Accel_Z
0,0.0,6.912630942390425,1.937859855395729,2.397947445514581,-14.432790857570037,-0.6163510736471478,-13.639100443154579
1,0.016667,6.254398773900478,1.8934769226090582,2.051638443107259,-12.935435374791574,0.14426311902102765,-12.25425823539177
2,0.033334,4.980137915932151,1.775875911469797,1.3112371224815267,-10.169808655959084,1.1795531789368794,-9.749340404390278
3,0.050001000000000004,3.425235153946619,1.6168618232956322,0.2836261834237458,-6.597726262877864,1.805495775006777,-6.758048785090235
4,0.066668,2.3049908602520293,1.4619898580158228,-0.6574455961785337,-3.0860848716403977,1.4073964578398377,-4.047670833990925
5,0.083335,2.2837928191216212,1.1897360929536214,-1.1383451853531208,-0.8574179384839156,-0.3343913903917316,-2.051502629297662
6,0.10000200000000001,3.283004562429767,0.5595418993554837,-1.2245661035165745,-0.7144011586593917,-3.060017815052101,-0.7477511594735866
7,0.11666900000000001,4.356711729905986,-0.38977270287396915,-1.397786727446616,-2.146058772374198,-5.543626109860883,0.07839984337828754
8,0.133336,4.546770592736849,-1.121871420318184,-1.9419098900690734,-3.554433388841293,-6.392692383772385,0.7174951326222803
9,0.150003,3.837132592122387,-1.041914288007498,-2.5435994452253405,-3.5950457765664816,-5.262728902383502,1.6706768063108985
10,0.16667,3.0029623287095184,-0.15536005672166692,-2.711033875342712,-2.224117178130445,-3.173706392432646,3.475518622410436
11,0.18333700000000003,2.607335336925826,0.9082370914609085,-2.396004992995752,-0.4864272972814562,-1.4629229557031722,6.010063327224857
12,0.20000400000000002,2.521030125711955,1.5573492970400233,-1.929883473038305,0.49867199776463067,-0.6838716975518351,8.135787324384747
13,0.216671,2.4411672322415274,1.766612386334606,-1.459990319664215,0.3000860824668841,-0.6983309853748746,8.512660233726667
14,0.23333800000000002,2.47817086225306,1.9062862057632382,-0.7392511396946225,-0.8457715525005441,-1.4196039709538184,6.853198223353038
15,0.25000500000000003,2.9852754723777153,2.193450671522094,0.4618364617231511,-2.5185199437668997,-2.881293542901986,4.0777211199975
16,0.266672,3.9878771166326494,2.4242202282555656,1.8692217610342121,-4.391210231431891,-4.6383894566597625,1.2725538411659172
17,0.283339,5.043693784745291,2.226029282712012,2.8007076329835243,-6.116151500897054,-5.718033543907808,-1.1150755464537025
18,0.300006,5.637980022581261,1.514002637375928,2.8630970433960323,-7.26378968228469,-5.478636771337523,-3.0939373601926885
19,0.31667300000000004,5.544028358569407,0.6497837547493489,2.4501485799540195,-7.597563292899457,-4.255514342151002,-4.672278068284811
20,0.33334,4.85343614107925,0.11612927194409717,2.298006888071399,-7.319203657953663,-2.9299896824235923,-5.82061034802321
21,0.350007,3.864825172874376,0.08325253439463204,2.5870023265813034,-6.878310631167122,-2.0605720509074095,-6.63579426288987
22,0.36667400000000006,2.940620253629162,0.38257446884583246,2.808696007578667,-6.529619220634608,-1.613180758831375,-7.279771658591461
23,0.38334100000000004,2.3419957111746346,0.8454464967879753,2.4833958846736683,-6.095299835222471,-1.2711600879855434,-7.728485210818109
24,0.40000800000000003,2.2221041585326677,1.5081525556203508,1.5907326702450821,-5.1357881165476105,-0.6723119089018319,-7.645686583502613
25,0.416675,2.724608381277579,2.474718473380276,0.3382931709468153,-3.4420201672670543,0.5229209034057634,-6.546901026425502
26,0.433342,3.7742667629836424,3.649175202565874,-1.0038491774238927,-1.5136487969096089,2.354270938645712,-4.150374016492997
27,0.45000900000000005,4.630041174890225,4.541994430945795,-2.048158034736969,-0.4706052993349815,4.18875751907065,-0.6937198159378037
28,0.46667600000000004,4.011962959440918,4.345102581484225,-2.510945206867075,-1.1690279546397364,4.919020048731252,2.9745199096919697
29,0.483343,1.2094880503002972,2.4788449309285374,-2.5030284181772786,-3.241540660748824,3.8356269874399427,5.661820503332583
30,0.5000100000000001,-2.8189432747799223,-0.7195955326485133,-2.2887893597470663,-5.174582070572045,1.2523716236680065,6.457432245412678
31,0.516677,-5.8618280461263925,-3.995871089924946,-1.8214935177594385,-5.551174582451436,-1.7965189253800877,5.372956557555369
32,0.533344,-6.304486889804373,-6.057454203397268,-0.9033424999153697,-4.2650019478511005,-4.21545347569311,3.3856112739511213
33,0.550011,-4.478345704540232,-6.439391336040082,0.16656130759935317,-2.452550655166778,-5.142772860367571,1.6789173240589434
34,0.566678,-2.125276745160958,-5.540051748454081,0.5765086717638197,-1.2764840207743224,-4.235393089826543,0.7767066996350573
35,0.583345,-0.7653055962456436,-4.049504789301221,-0.06891686228288654,-0.9389807366478639,-2.2461444836123654,0.4505683520082945
36,0.600012,-0.6727112242290538,-2.480464996900917,-1.1163493212052997,-0.8693399856773965,-0.8982716900539116,0.3117265089119077
37,0.6166790000000001,-1.1627259898104234,-1.0766370579836806,-1.5521548365384803,-0.5447187926524762,-1.4029366835934398,0.23598582197407925
38,0.6333460000000001,-1.5509806393041208,0.07084797839072143,-1.1349034801159115,0.1357296799977516,-3.1476019881651487,0.265151783137632
39,0.6500130000000001,-1.7343585703532258,0.8788371253449181,-0.4416063976079223,1.0880733816738226,-4.387930276860997,0.41219075032388586
40,0.66668,-1.985249766067017,1.2348667006560274,0.05704840287973468,2.2088789734664225,-4.172655162925836,0.6669397132188963
41,0.683347,-2.4740129966617426,1.1330091575023409,0.47498126849525324,3.213882152636625,-3.0879716073864207,0.9911603798677578
42,0.700014,-3.1370462062960254,0.7599508438915885,1.0512214889614613,3.695321836462604,-2.148297531173845,1.2428558404871728
43,0.716681,-3.8207298603960904,0.2973362874412403,1.677615740951022,3.6126771417102677,-1.56960458440934,1.305531936625874
44,0.7333480000000001,-4.348166565139495,-0.286606803502671,2.0923709984924925,3.5152737734074186,-0.9000282498981161,1.3341356312992254
45,0.7500150000000001,-4.544228001686713,-1.0388621431537826,2.25148942413289,3.970448457185391,0.11547374475275274,1.6275841806412314
46,0.7666820000000001,-4.370983393399779,-1.6699140672484178,2.2555464240551224,4.847147927123436,1.2922710357168716,2.143403900111352
47,0.7833490000000001,-3.994799223508771,-1.7053169472999798,2.068453022579873,5.442644367850213,2.409382142952758,2.3587073308813475
48,0.8000160000000001,-3.611900474903922,-1.0770739829805485,1.5553288046947333,5.312659700005605,3.3419852931794978,1.811763434020742
49,0.816683,-3.260849431668154,-0.2984734370391928,0.7440537307910646,4.74263252963406,3.8254597759602875,0.6603097575448194
50,0.83335,-2.884180841991699,0.13215606844106503,-0.13148973109056553,4.3692828902622685,3.5708941987445284,-0.5136350560535534
51,0.850017,-2.501701116538416,0.3073635289997698,-0.8106055528876037,4.49767137271494,2.756446800577132,-1.3806531341426775
52,0.866684,-2.2364539905246863,0.6400466540767468,-1.110620880531006,4.790312478620228,2.0438517117290864,-2.0518097004540303
53,0.8833510000000001,-2.215090151035853,1.1279227436467822,-0.9619475090878687,4.507073267031515,1.8757305490140448,-2.5542107014451108
54,0.9000180000000001,-2.503306535538667,1.2183702738445312,-0.49211037300308225,3.098436991894596,1.9642831288967777,-2.4820300012605063
55,0.9166850000000001,-3.099670741637447,0.4809160407201133,0.022307985232400185,0.7463797386713713,1.6980222560393283,-1.4450343295447452
56,0.9333520000000001,-3.945561616280012,-0.8409512167268481,0.4192950424370159,-1.6448562304178826,0.9501438786711898,0.2930499161713726
57,0.9500190000000001,-4.970685449714333,-2.119760605987776,0.7713132186846344,-3.138212588195774,0.2915544817872351,1.8925470996261884
58,0.966686,-6.137032147340508,-3.0352340376019966,1.1276370639455642,-3.5339200721610595,0.3947334310469459,2.6843532645357335
59,0.983353,-7.323914680258077,-3.7608322794953954,1.2294657082518858,-3.483203576396934,1.3194795669610593,2.7569595335112616
60,1.0000200000000001,-8.102784759711053,-4.485718269222565,0.6427082137650424,-3.967768074954811,2.4590729526265434,2.79145117269798
61,1.0166870000000001,-7.840813271118909,-4.975332867284067,-0.8042435590655665,-5.698784704487289,3.225571341059799,3.3132094188792367
62,1.033354,-6.278382915626742,-4.78571321664824,-2.8181477060117794,-8.669640535375596,3.689413767386384,4.051176986397456
63,1.050021,-3.908316037827592,-3.9017924800686745,-4.881958256429097,-11.89046432132623,4.317846423781746,4.025004917185546
64,1.066688,-1.6159445808593367,-2.9777559987644815,-6.5265659387841435,-13.697859331052435,5.116831046592072,2.3673482735286404
65,1.083355,-0.11346589285508402,-2.7457099571180623,-7.3416738534382056,-12.875342284828282,5.45902616051033,-0.8369970057465599
66,1.100022,0.16524828418105447,-3.2144704034889084,-7.046587671658568,-9.777657940742602,4.9539138369672715,-4.539727141647045
67,1.116689,-0.9646129077031961,-3.6890678578599387,-5.7683498454901425,-6.259246499818729,4.064572998330224,-7.553189190166747
68,1.133356,-3.139460745766617,-3.6425465681892524,-4.051127296417882,-4.332382516467038,3.451937719108068,-9.300981965460196
69,1.150023,-5.248596383666199,-3.259968725821234,-2.4634612038776065,-4.735415314286439,2.9453622941488544,-9.861274092838926
70,1.16669,-5.850835030417435,-2.853585989895526,-1.3191200655337414,-6.575371529205743,1.6700511342908133,-9.592483764193661
71,1.183357,-3.9313587833452077,-2.0454035516029903,-0.649425516549083,-8.226178972931175,-0.7319584551566738,-8.766789340172696
72,1.200024,0.4841464035136075,-0.14951306798960684,-0.15075668853036228,-8.661779327520541,-3.355013418498428,-7.35615886192686
73,1.2166910000000002,6.100182074745589,2.611659219037109,0.6805918024602257,-8.087558749348261,-4.757385206816617,-5.23290057793532
74,1.2333580000000002,10.863496459868948,4.932018492819337,1.9974394066946266,-7.414924152066829,-4.365636214588057,-2.732503769685805
75,1.2500250000000002,13.255781234349474,5.727763595379349,3.26881483765161,-7.227310639984601,-2.9886165857327773,-0.7193140714793693
76,1.2666920000000002,13.323082572653288,5.143746502965191,3.750333597205009,-7.3084996304115055,-1.9778313563729892,0.24785321735049876
77,1.2833590000000001,12.321562255432179,4.045696878931642,3.2255779202629276,-7.096016191919489,-2.0559392598159594,0.5647023034860316
78,1.3000260000000001,11.395024368114095,2.983922602152173,2.1512330228198326,-6.3897838840420995,-2.9428075281357056,1.043708487092826
79,1.3166930000000001,10.710919945067811,1.968266834816218,1.1349217617649492,-5.485704751885157,-3.824100690344342,1.9349028135051243
80,1.33336,9.734358957484663,0.9436609420495172,0.34710503042439306,-4.685156947385475,-3.9387306202657877,2.771753266808819
81,1.350027,8.088546442783887,0.08368980879205834,-0.5642057585355571,-3.8103147687949863,-2.8648496566287194,2.938402884427001
82,1.366694,6.0468763585040985,-0.3957240680211877,-2.0287279577474466,-2.2824937660895306,-0.661678434299353,2.0789811441007995
83,1.383361,4.186145951613783,-0.4959127935558254,-4.1015672089582695,0.20717404354280833,2.038372573494993,0.16555822732031023
84,1.400028,2.6140646707067967,-0.38784869071142786,-6.405162495603989,3.0613706763612223,4.240934162125926,-2.4869379149384923
85,1.416695,0.7600875989838289,-0.14216708641822062,-8.279724042262234,5.057402318582341,5.173368578573453,-5.247627594797244
86,1.433362,-1.775085879489941,0.3938095881615479,-8.916204651818575,5.467612789350859,4.712761667498992,-7.320711917266031
87,1.450029,-4.177212075542405,1.355130426128392,-7.690761170737259,4.679428727132846,3.1631877540259135,-7.991986867223844
88,1.4666960000000002,-4.690240061150703,2.5010530285315564,-4.6998019629355365,3.5486880757561137,0.7845264285969221,-6.938010657735987
89,1.4833630000000002,-2.323313879798921,3.2754061471872156,-0.861496644724537,2.505557081517414,-2.124616203849655,-4.45196473011943
90,1.5000300000000002,1.8826990814327296,3.3805169111376427,2.7047240623089177,1.567255990843577,-4.704029051229301,-1.373587702654901
91,1.5166970000000002,5.589481295660676,3.167774442923756,5.378854140355606,0.8483289642242239,-5.6085896589805575,1.3101614066294232
92,1.5333640000000002,7.06542243548905,3.2224292917034494,7.16084245153489,0.5790267400554588,-4.1126426454378855,3.026214511538403
93,1.5500310000000002,6.288099033688477,3.574551291700116,8.277426267239969,0.6595974554254121,-1.1179728889305722,3.9608863502049507
94,1.5666980000000001,4.495096078885201,3.5628222919205843,8.79080102026578,0.4765705875858812,1.4142898248920526,4.771960634527872
95,1.5833650000000001,2.9559289218787366,2.636088146990537,8.615327977044547,-0.7022153456509499,2.3385692544098644,5.848370181577381
96,1.6000320000000001,2.1055913451267,1.1771500150780256,7.80899244685579,-3.0424548875091384,2.352325694990658,6.92013363991972
97,1.616699,1.5950664454284973,0.2880885723247202,6.636835327528433,-5.714148174536817,2.8067528681863303,7.409536431903605
98,1.633366,0.9526240486361617,0.7107911124407967,5.310477970658173,-7.196045364314035,3.804989400211946,7.038405443628448
99,1.650033,0.14361833739403418,2.154900972956989,3.8739501084186054,-6.308895681003987,4.029091276444866,6.05048767606208
100,1.6667,-0.37021610695629925,3.732225206682961,2.4301956006304724,-3.239215175607382,2.2744792015260282,4.894896802316312
101,1.683367,-0.01634173547159068,4.737878672156405,1.2361355424520448,0.3928337631288399,-1.4279274379491065,3.7643450479155973
102,1.700034,1.251462528774091,4.81121089053812,0.37433487305970714,2.579127843212006,-6.050889376977244,2.5848666008466354
103,1.716701,2.5229366258423944,3.7440876587490144,-0.4758237875880501,2.246761357050154,-10.195346606206417,1.4683714504898029
104,1.733368,2.4901787599213043,1.7442212224234037,-1.6507203637989851,-0.06344527903495983,-12.447934158387486,0.8676396225416028
105,1.7500350000000002,0.9234014224507536,-0.16182585505818503,-2.935647607199309,-2.485014171616406,-11.873573664952701,1.082360108289332
106,1.7667020000000002,-0.726681556081297,-0.6716114047878563,-3.585461297840947,-2.974739042303041,-8.564959075797548,1.8548098835524265
107,1.7833690000000002,-0.9756631919995695,0.47484803237975604,-2.906902126521009,-0.7934095407024635,-3.541372229510288,2.683311387235082
108,1.8000360000000002,-0.3078290492423543,2.046917820911408,-0.8079756108907994,2.790804393411147,1.8343781754205097,3.3583172558884766
109,1.8167030000000002,-0.3803796975176539,2.5440750897782722,2.026392596947442,5.396874023948523,6.111695116619229,4.013213805879349
110,1.8333700000000002,-1.1232195794536066,1.716222896200784,4.3982279367380075,5.372808590621014,7.883068974115758,4.781634931519666
111,1.8500370000000002,-0.14921331322200393,0.6175303570640618,5.307869834329764,2.9198605295676616,6.475210153702662,5.44421747593587
112,1.8667040000000001,3.706052292453639,0.27120228255873435,4.803473625718945,-0.3850908487738294,2.578050049252339,5.26276699354268
113,1.8833710000000001,7.094136201794157,0.6037635130474259,4.187000024325344,-2.870621266236902,-2.2022599218782215,3.4133993320724643
114,1.9000380000000001,4.497213595991344,0.7984696167455894,5.021350911253858,-3.4964662146898076,-6.2804302792001945,0.12806724417473647
115,1.916705,-5.383739748119425,0.43710639658984607,7.604302430632737,-1.819253905395383,-8.428105175206417,-2.73763740756737
116,1.933372,-17.028720532821644,-0.08054863404587254,10.476798611863131,1.9412456881132911,-7.889372011321986,-3.0759735942987536
117,1.950039,-23.10590086140158,-0.3211629803702327,11.621092592250783,6.54356297769024,-4.980799653142855,-0.6833103581971962
118,1.966706,-21.107069820881,-0.6304419776571011,10.100769590585875,10.022716641765289,-1.3834268116947854,2.480499734491367
119,1.983373,-14.011257041082661,-1.675444412582055,6.495704301346639,10.960381828154631,0.8925641357667626,4.264857424339725
120,2.0000400000000003,-5.948718308081817,-3.243614962765401,2.106825279528458,9.45277160927716,1.0532540897302765,4.093486961779374
121,2.0167070000000002,0.7672974132368238,-4.1475995395929015,-1.7949247087800422,6.703033012766565,-0.1788051618460194,2.902265214252708
122,2.0333740000000002,5.205598047532938,-3.613934334967312,-4.133490172768725,3.9601592099996292,-1.6989583942114335,2.015712526657891
123,2.0500410000000002,6.9641375563724885,-2.2515123420662335,-4.318488972449341,2.0586907455275707,-2.974371010222088,2.134403229086108
124,2.066708,6.500152030355494,-1.2509071711014301,-2.8589709306313686,1.5405226402896723,-3.800497870951226,2.793825422412015
125,2.083375,5.180789552932629,-1.003422135925475,-1.1841364033010917,2.5881452120351245,-3.788358582931898,2.574582115465871
126,2.100042,4.3282755639697985,-0.9131778133138456,-0.22178826486415004,4.76069442069053,-2.6235915303164017,0.15597465069203098
127,2.116709,4.565828631319387,-0.21859275317350824,0.82085255926135,7.2307768978795695,-0.39895753095881686,-4.858410013370042
128,2.133376,6.193933812096008,1.6956449939290696,4.26278581941345,9.609583677087285,3.0146698434042505,-12.680942672916725
129,2.150043,9.733888949488312,5.953370094979081,13.202370598056323,12.449799705101837,8.798463173346574,-25.12535652117519
130,2.16671,15.934322495389981,14.69395298844362,31.468919897569947,16.745070852500056,18.75986878737993,-46.28039030502709
131,2.183377,25.46377315979919,30.56304218788529,63.586524685301086,23.109454012240334,34.070378214782245,-80.91238262784788
132,2.200044,38.3546736790016,55.67083393368374,113.03936199655551,31.91810292649948,55.08526755458563,-131.69981298603244
133,2.216711,53.104214830951165,90.87079090392994,179.0582321786354,44.45759349551219,82.88473420155685,-197.11062370907575
134,2.233378,66.51795072369313,135.70478420292613,254.72597860061475,63.58175846075429,120.78010424626456,-270.9254938026599
135,2.250045,75.76474494878666,189.01393111407398,328.83430385898885,92.53357988256397,173.34895024443793,-343.90875176755105
136,2.266712,81.39620454349885,249.50840553878325,390.7945588656684,132.31906430024335,242.5402566661956,-407.39293353239634
137,2.283379,87.56840473126069,315.04782528094245,435.5674892789256,179.37821426009737,323.64197546898146,-456.5396453660153
138,2.300046,98.40931433290065,380.9411574276601,465.68290083643365,225.30186027932757,405.10870845056166,-490.38983333000266
139,2.316713,114.28185914586764,439.54507179698004,488.6744121262808,259.3023849918955,473.12817099461176,-508.7789705478782
140,2.33338,131.3904403955396,482.4601018288149,510.5056068262147,272.46011303992196,517.4103582137072,-509.6357691239359
141,2.350047,144.1124087701128,504.28465213973243,529.2999164087603,261.5020771535569,534.52043744692,-489.7483722270066
142,2.366714,147.89341944200808,506.04104394763374,535.2026308654239,230.03556125822473,528.4291174964312,-448.1771958385308
143,2.383381,141.38754671597084,495.9597466974541,517.2059887620458,186.4041288909088,508.8988430398506,-388.456666328403
144,2.400048,126.71959822409653,485.6887945640487,470.58874799109407,139.21874035688109,486.9661919267825,-317.0035276307626
145,2.4167150000000004,107.3044088412915,483.55253373359153,398.43566285397605,93.41669262293311,468.7902694822445,-239.50313600428575
146,2.4333820000000004,84.62342624600166,489.857457562989,307.68945223998816,49.40399329097369,452.7029900855241,-159.23131115323844
147,2.4500490000000004,56.7059011721465,497.3346603092805,204.97363828439575,5.295256738829769,432.1258774561369,-78.38275494507025
148,2.4667160000000004,20.123226717849636,495.4269416458046,95.36850664027529,-39.781496883129606,401.081722838131,0.3274117978426241
149,2.4833830000000003,-25.72844110220291,475.52611893088056,-16.49095597508245,-83.62172537007024,357.57012707181764,73.8951622826145
150,2.5000500000000003,-76.25863359447884,434.5092650538885,-124.91688787975693,-121.61344423098079,303.38277576426384,140.0100403926052
151,2.5167170000000003,-124.07289667035045,374.3880737390068,-223.21042176660188,-149.61006639378792,241.70812846952464,197.40813207647147
152,2.5333840000000003,-163.48551214097276,298.66479575842993,-306.0789486365918,-166.2752095144861,174.83038056202082,246.18994187189955
153,2.5500510000000003,-192.33527595054167,209.5206653112589,-372.2032245618327,-172.8707323712403,103.85754808665843,288.16715298163786
154,2.5667180000000003,-210.43239181993067,108.56607048844751,-423.60779132200855,-171.51592952408956,29.984066571411837,325.59049677142707
155,2.5833850000000003,-217.74282362403937,-1.0192870039169808,-462.46289954919905,-163.920253830644,-45.147546139277,358.7083907953935
156,2.6000520000000003,-214.13499551778142,-114.01855901768172,-489.5557652280121,-150.96538271449975,-120.25605466213955,385.51504855879375
157,2.6167190000000002,-199.91189402627072,-224.11874213083962,-505.76028106163915,-132.67115242961964,-194.07127728811614,404.3293729931363
158,2.6333860000000002,-176.20230653411826,-324.80706095949216,-513.0424534634604,-108.56842177628812,-263.77456991132016,415.47393371622456
159,2.650053,-145.0420393060195,-410.3717694947393,-512.9262278048441,-78.5505115048814,-325.1089408149629,420.1130017151346
160,2.66672,-108.82271542582095,-477.30689726886806,-505.1427225813842,-43.78384346431757,-374.6496909992078,418.760609861124
161,2.683387,-69.12464119339077,-525.2451220531831,-488.91659833297103,-6.871012347169712,-411.37607573731844,411.5434367619821
162,2.700054,-26.099584866740933,-556.5594771747365,-464.95166601337297,29.191048163706313,-436.15106031079256,399.21147142758355
163,2.716721,20.843076215080046,-574.6685101385648,-435.4717016026388,62.53727677468231,-450.45372191058914,383.69190793161727
164,2.733388,71.9541009877153,-581.9890768546587,-403.06940931197846,93.31262035616771,-455.5170077116288,368.24987490091354
165,2.750055,126.70283427194421,-579.0552465168626,-370.3865775862032,123.67415824251123,-452.1977780034499,356.8259902264789
166,2.766722,184.0905588862894,-565.5950894635081,-340.9144059264585,157.18572818122965,-441.98799129483245,352.1124638169622
167,2.783389,243.79626665105351,-542.5791549633925,-320.3145451013313,197.49077373340268,-428.337152828739,354.5180167129319
168,2.800056,307.8668506270084,-513.2822111615599,-317.80001475667166,246.66726199687213,-416.01331610345653,364.8052963718743
169,2.816723,381.3909825324653,-482.25375884843083,-346.74574025915877,305.10042198146203,-408.427288177593,389.01363491279176
170,2.83339,470.9011595629958,-452.6003901073002,-423.6725358088962,374.05217405492397,-405.8037030845255,441.19524441702686
171,2.850057,581.0821078370593,-422.4411208594501,-565.3527393105829,458.1293454721897,-404.885633635711,541.6085722726195
172,2.866724,710.9546135851168,-381.9272482755837,-783.7304239731387,562.053535830619,-397.3024560790427,711.2360342821491
173,2.883391,850.3720493557817,-314.0118667254597,-1078.730943354374,680.1667854597392,-366.7855426679662,964.2374104392143
174,2.900058,978.0090775530361,-202.06064072767725,-1432.2287884502198,785.3318650119656,-291.7062781497776,1299.659230606385
175,2.916725,1061.8070356545172,-43.300675041576625,-1808.5808877973677,826.9708863794574,-158.3169466220445,1694.0843223612205
176,2.9333920000000004,1061.0652974119125,137.5913202777088,-2161.266833988895,742.5072121210974,20.106822067122536,2097.523582854483
177,2.9500590000000004,928.8221466682962,283.3811900720035,-2434.0584974908884,479.2581742541933,192.71985405718934,2431.774890044914
178,2.9667260000000004,618.5130793755905,318.2374594655212,-2543.247241788328,22.220848304052524,283.523273926727,2584.373509198287
179,2.9833930000000004,106.15185847606213,187.10345166815296,-2346.22258360694,-576.1914518890852,228.991100255763,2395.9439741999927
180,3.0000600000000004,-567.2336612393718,-92.21723302454393,-1638.1596236839937,-1176.0369800826688,23.880750929683927,1668.8743656410197
181,3.0167270000000004,-1258.959071443808,-405.5941200225442,-248.1653153729858,-1569.7973553187958,-258.6197397960372,262.7843020433661
182,3.0333940000000004,-1751.1079755572832,-594.2641361149447,1743.3398527512845,-1575.6307462492355,-502.3702952034546,-1701.87901904832
183,3.0500610000000004,-1867.5083447722186,-570.3091834099421,3824.015407894246,-1174.9730075075297,-625.7323693703988,-3694.2587585967112
184,3.0667280000000003,-1603.2845239460235,-395.24324864060503,5194.159696793949,-569.6846371655788,-633.2367540444743,-4954.813061631272
185,3.0833950000000003,-1130.3213445522874,-225.24664423266034,5284.359446289341,-57.43271820599469,-589.1692378940378,-5008.537758253451
186,3.1000620000000003,-658.5324843105274,-172.4871885581171,4208.671717895953,183.05163731593802,-552.2785421447713,-4041.6488778628363
187,3.1167290000000003,-302.6076893210528,-239.4129962311042,2660.5091721935814,181.1437412255793,-551.0536726459446,-2716.0178165404536
188,3.1333960000000003,-77.65393388764363,-376.50279807535674,1353.0631529781274,71.10340426908252,-601.4415672277408,-1627.0330598244254
189,3.1500630000000003,31.689281376693707,-547.8969563151749,585.5053536619237,-51.87661475141405,-706.0432743097085,-973.8067525072469
190,3.1667300000000003,39.38433090069739,-720.5146473730433,263.22690158115483,-172.02182786951408,-828.9197824988971,-649.7787525038691
191,3.1833970000000003,-30.87200129015463,-837.9756111703591,167.8218357299814,-305.6551368580886,-900.9641815086695,-486.887943926029
192,3.2000640000000002,-144.1177471556593,-848.7521085961007,147.84271353197119,-454.4026220257805,-868.4725669920924,-381.7459315085538
193,3.2167310000000002,-269.44179580296395,-752.0967968539761,141.73074244664278,-599.4240919470109,-733.2606429783318,-290.6529703238805
194,3.233398,-388.20345966213966,-599.1553919273844,128.53318982952243,-720.6151306399918,-545.6527675982614,-195.38858693113568
195,3.250065,-491.5075947960389,-452.75671945632826,94.35389346408721,-811.9863673201078,-365.1786541215813,-88.18869430288392
196,3.266732,-577.0526645976138,-348.69588033846463,30.380972756828488,-879.8948645309163,-225.6312559498798,31.424246797302438
197,3.283399,-646.7730749789444,-283.9531622746508,-59.83232279318972,-930.6824372432739,-126.0450648718469,158.63147159109096
198,3.300066,-702.2072911357327,-230.4357094994038,-162.95704814968178,-962.3278867889439,-44.95019203351919,284.9740901797241
199,3.316733,-740.3590527531665,-159.75473485022508,-266.92251907762534,-967.0354082056929,39.21937017586231,400.8521699982266
200,3.3334,-755.5997557323474,-62.12765633158675,-367.4149533214582,-939.777405535043,136.4743455443583,500.5483065509229
201,3.350067,-745.8890366594467,51.58244735395955,-464.4088951239585,-883.428451017963,245.90712190933033,585.9232328621702
202,3.366734,-714.6404348620503,163.00731475304423,-556.1074464793533,-806.115065109339,363.12042119139755,663.8550207964423
203,3.383401,-665.5916990481139,261.59707223835983,-638.021212903584,-713.7435040604446,485.9607141617119,739.2283158587859
204,3.400068,-598.5792170447185,349.49668568788746,-705.6592622831147,-603.3714292723008,612.8613724367826,809.958707541884
205,3.416735,-511.97956183370695,434.4013576843459,-755.9760440331968,-462.37551908140074,735.0171604257404,867.4105542979698
206,3.433402,-407.4664253818052,518.2147331026674,-787.2862532054321,-277.16642141336,830.3616147448408,899.9855089942259
207,3.450069,-290.9552893046768,591.3481940646006,-799.3994471781795,-49.90821732561069,868.9653179156039,897.0789434994042
208,3.466736,-169.76741698182715,638.7023860993006,-793.0624601936793,189.59367842786696,831.6367299327169,853.7255052427979
209,3.4834030000000005,-49.58828582724081,652.8234801734291,-767.8669111820648,393.67479154132536,728.0011366938745,775.3320749688521
210,3.5000700000000005,66.65414672970807,640.2660317874597,-721.7197863349736,526.961348087652,594.2059074043459,677.4805872281861
211,3.5167370000000004,178.20145952596624,613.7825017705604,-654.473542958032,590.2700976158696,468.7680330973931,577.9070316764304
212,3.5334040000000004,285.28179014622236,580.0826669184298,-571.7579322051604,614.4845021521965,369.5734045154172,486.8419785110202
213,3.5500710000000004,387.8378926973973,537.0985268395859,-482.94565134429416,632.822231714648,292.1663752514955,404.66088128922297
214,3.5667380000000004,484.38422891420703,481.2052986278899,-394.3895801188664,659.9572628780259,224.00692070851488,327.2772374808174
215,3.5834050000000004,572.0351763992236,413.62257483714905,-305.8687773350299,692.2015558011566,157.02462650120344,251.88220448821735
216,3.6000720000000004,647.6601262330535,339.3279826331016,-214.84761917588696,719.576762531786,90.87959798316567,178.18268194649505
217,3.6167390000000004,707.9894543339562,262.47865950170853,-123.89432462186974,735.5006459233061,30.09441784716902,107.14490936444136
218,3.6334060000000004,749.0142435862831,185.12384754955247,-42.422858394469586,739.442906301701,-20.821386161594365,40.33456635159603
219,3.6500730000000003,769.0194945830066,109.43639870963648,21.12543590387003,735.7092196386627,-61.120431751506615,-20.574392835745698
220,3.6667400000000003,774.7186746491628,38.65183558182585,70.04213616787553,731.2006959883856,-93.51878874111611,-75.1101695956481
221,3.6834070000000003,780.8678709513679,-24.918235393583643,119.63559377209063,732.1527350809005,-120.49561565938023,-124.50943624668949
222,3.7000740000000003,798.631649197189,-81.19116409839181,182.40649376052403,740.6308943969917,-141.87108273370194,-169.97857061633184
223,3.7167410000000003,824.7205303000746,-130.3271751218148,253.18300966992604,753.5456170207103,-156.16879918965802,-210.62032297222208
224,3.7334080000000003,845.3044017755788,-170.03547120124782,312.45740713031967,764.9213102958633,-162.73535149461904,-243.73664715702907
225,3.7500750000000003,849.7937281415194,-195.81025741523112,343.85007932996314,769.0226654851659,-161.24513357120782,-267.0223205724172
226,3.7667420000000003,838.1574301337525,-203.5309075472047,345.63515903204495,762.6323013616151,-149.98370115114722,-279.9413063829838
227,3.7834090000000002,816.7467294340463,-191.2681560765553,327.74465635004015,746.378593010368,-125.95353720646318,-283.1476382672691
228,3.8000760000000002,791.058267374326,-159.00133834169173,302.36273862137,724.2923707132411,-86.10006115139419,-277.27032530763154
229,3.816743,762.4131746340487,-107.36178902799753,277.00370345213435,700.6160075439573,-27.237439771141858,-262.56568506079816
230,3.83341,728.6436751226638,-37.38391146681785,252.65951718060307,675.3002213500831,53.45537412974771,-239.55316957185977
231,3.850077,686.7777593295265,47.063059418035266,226.41101989876069,641.8192050265945,152.8794600535854,-210.14508747110875
232,3.866744,635.4672261598217,135.7751458128033,195.59179506382662,590.1904710305732,253.98682093592123,-178.8044094784114
233,3.883411,574.9674757512049,213.37821058809737,159.71422082568884,514.4063972279943,327.34969044549064,-152.17883536126877
234,3.900078,505.28288331389126,267.74359338021634,119.81672939844941,419.0459007816348,349.17696149982567,-135.4032452944498
235,3.916745,425.8888268021202,298.5075227944627,78.0010687553389,318.774041702047,322.14973038795745,-127.31404992864321
236,3.933412,338.1453378969309,316.0151946644107,37.9278879559892,229.55669826868305,275.9076229689388,-120.4785564974502
237,3.950079,246.81769449839902,331.5403519429865,4.27328276908378,158.4137113342774,243.9708817758866,-107.25648099174833
238,3.966746,157.80624156532406,349.19468068472486,-19.59243526183545,100.7778369282981,240.2440673942591,-85.46048675757518
239,3.983413,74.58505959697565,366.05279781816853,-33.71592095150484,46.98689489769597,256.17093481103785,-58.35687816533989
240,4.0000800000000005,-2.8314540883568924,377.2679325180262,-41.26874202348185,-9.532587287931387,274.7602054988467,-31.040790644127505
241,4.0167470000000005,-76.44040157002974,379.9983746507317,-46.03071232943017,-69.45955902461536,284.0588445374145,-7.552507090496226
242,4.0334140000000005,-148.2384142296196,373.7335729413186,-50.09891283168431,-129.7697432009275,280.9130433928373,10.072867840394666
243,4.0500810000000005,-218.49866903198333,358.50302466702266,-53.79974939074013,-186.76070228075787,267.8147778045712,21.74053402958311
244,4.0667480000000005,-285.15768137292446,333.57444237111713,-56.94343493127107,-238.01847972417895,248.29099825105857,28.78397411093479
245,4.0834150000000005,-345.07872891563466,297.78721793805477,-59.341786745276636,-283.271404424133,223.78460749684143,33.1572686388972
246,4.1000820000000004,-396.07376077711615,250.4787034536838,-60.51919028273926,-323.65858280574895,193.19958896184812,36.59110896279237
247,4.116749,-437.7200311082386,191.86620628551066,-59.84984419196077,-359.9353100258091,154.77555265745406,40.011467305220776
248,4.133416,-470.588935279012,123.34131024505083,-56.96589160238802,-391.5991001930611,108.27127880697122,43.24657903688832
249,4.150083,-495.1045830556043,48.061856964276146,-51.48084522485568,-417.66471928953956,55.64424303872506,45.037102464291735
250,4.16675,-511.36261470839213,-29.27064978940131,-42.365737638112314,-437.7920295560189,0.2890525373563486,43.86117836990985
251,4.183417,-519.7576355828844,-103.95882540834961,-28.281147541750126,-452.5389052373087,-54.30197697059164,39.44705678842273
252,4.200084,-521.0545400388144,-172.70448716598918,-9.303536600646712,-462.8146901119585,-106.03893530441044,33.318965346309085
253,4.216751,-515.9934481331774,-233.8418391613488,11.536236738698205,-469.35362776320187,-155.01336222828866,27.435072525263674
254,4.233418,-505.8479064057725,-287.13920385817704,29.395009875198028,-472.6766039218044,-202.35427482454486,22.505897351109613
255,4.250085,-493.2362091542979,-333.4220653556772,41.28255322645012,-473.1617625252952,-248.07756222587088,17.939566882062156
256,4.266752,-481.09012296451306,-373.5366549131211,48.390760300077304,-470.84707667862926,-290.553391291647,13.084542816717706
257,4.283419,-470.5750423543585,-407.46924357091564,54.286298370010364,-465.4512910406751,-328.01505347628023,8.015891736488932
258,4.300086,-460.81244112074717,-434.65143583664394,61.22284576448374,-456.9829982682961,-359.81358371429735,3.1447100623940885
259,4.316753,-450.63146570129084,-454.5960149502107,68.76456243207943,-446.2021409818143,-386.10904475302516,-1.5261589748762368
260,4.33342,-440.00033527853,-466.9110117123204,75.51429648320675,-434.31710344794317,-406.9257335662982,-6.575228673650702
261,4.350087,-430.026985940606,-471.3704308420678,81.05327863526445,-422.44443769942114,-421.6009420608575,-12.707852100935002
262,4.366754,-422.138891193585,-468.40175054716246,85.59771563843634,-411.3400731854846,-428.80812192462633,-20.16431447599404
263,4.383421,-416.9652686670065,-459.0492339770963,88.40436129652464,-401.2182648329988,-427.08211159294893,-28.56862361189408
264,4.400088,-413.6331192938093,-444.12632251056993,87.86521260116507,-391.77699500885785,-415.50126067622455,-37.47469622713175
265,4.416755,-410.47986289774553,-423.47063061532003,83.65266818570697,-382.7443031360637,-393.8834617897422,-46.984680304640435
266,4.433422,-406.7075171614938,-395.862570533096,77.82767788684288,-374.2811349658341,-362.2329601307252,-57.51988935030215
267,4.450089,-402.94216456428717,-359.6839090268438,72.93963269405306,-366.4647964586554,-320.1669449366695,-68.95131455934684
268,4.466756,-399.8613610566579,-314.4024542776009,69.31249978543607,-358.63169404056896,-267.53546266951497,-80.18804578591724
269,4.483423,-396.7081860822997,-261.71974988585725,64.77867759049242,-349.7467695703866,-205.85257743954205,-89.6789312838641
270,4.50009,-391.4729333649591,-204.28322512601602,56.94321908019059,-339.16970570307876,-138.2640266952941,-96.18943485582193
271,4.516757,-381.9105583719091,-142.62304029516946,45.20559949288691,-326.3196574614479,-67.55238952497862,-98.96079240077601
272,4.533424,-365.92507145985593,-74.23155562244068,30.60339111402169,-309.61770194275744,5.088427246024429,-97.21745891391397
273,4.550091,-341.70985527311245,3.5982386669619153,14.314073072870986,-286.67756318785086,78.9244720459226,-90.0536568345722
274,4.566758,-308.23328161585573,90.75900233206423,-3.309620527568212,-255.95362505654958,152.38171468780357,-77.31322251631462
275,4.583425,-264.98102915596974,184.56466675110016,-22.50205859491039,-217.57498787952835,223.69131187307642,-60.41145810501509
276,4.600092,-210.4046074010563,281.26100371308183,-43.29021150874265,-172.14476719052115,292.0406023624824,-41.74188569111773
277,4.616759,-141.27805455957912,374.7802434214648,-64.74943267028995,-119.21976522370045,356.6415914072793,-23.01842470668476
278,4.633426,-55.17292902539988,453.5111123647677,-84.37724688757703,-57.40081990236146,414.06971922089826,-4.1375057752483855
279,4.650093,45.54375558459525,500.9055338297999,-98.20383667367983,14.21865092997218,456.94807842134475,16.37969687204515
280,4.66676,152.1420410733451,503.07285335463587,-102.63941809769366,94.59153808616051,476.02130801575424,39.66733313854138
281,4.683427,252.4278087298772,458.1286581774039,-96.96335913456542,180.11812641116794,464.50743740569624,65.01902025704027
282,4.700094,336.3222237109776,378.7048491511821,-83.58055203188158,265.19591084464844,421.87584106424686,89.8781573870763
283,4.716761,399.7353643094839,285.311036660857,-65.7442036918873,343.6366441450468,354.8218153061453,110.92400971150175
284,4.733428,443.8843234180233,196.33002734568163,-45.69033174278909,410.0808184305617,274.9919910171871,125.37531113232677
285,4.750095,472.24421443505116,121.70475531869371,-24.595444329664712,460.87924738930826,194.78595602756943,132.3502115635665
286,4.766762,488.97458554921405,62.71899907724284,-2.8669880361137765,494.82914476383286,123.48209080394184,133.54421517617902
287,4.783429,498.47234807022016,15.665244390874523,19.755946550092112,513.9051250761861,65.40339902953212,132.06815069311187
288,4.800096,503.7739153655275,-24.171549143090136,43.32507592825695,523.1098904430485,20.22888499107632,130.22405922323577
289,4.816763000000001,505.2438643829243,-60.28731306573954,66.80171739773458,528.7102338521328,-15.429402921112057,128.44127539047804
290,4.833430000000001,502.07842188363225,-94.18980499150332,88.90501310499346,535.3497269929965,-45.695258968219186,126.19005969971718
291,4.850097000000001,494.9047265025272,-125.09511640670314,109.77507306991255,543.8210014219342,-72.85148208685227,123.72585913097663
292,4.866764000000001,486.1788397876964,-150.31922354527313,130.83188067975166,551.8424667770746,-96.03047832014528,122.86379813344683
293,4.883431000000001,478.29757241656057,-166.679203336296,152.8809918670587,557.8926335903803,-112.55126154714003,126.00822355848322
294,4.900098000000001,471.86987941549614,-171.7276275741573,175.4492526413267,563.8849126324534,-120.99061701027395,134.902244416396
295,4.916765000000001,466.11148413067565,-164.11022888811715,198.27494365267816,572.9533085871909,-123.02811987694764,150.55632128857928
296,4.933432000000001,460.5808697611002,-144.27636121270532,221.65960380988977,585.154673728357,-122.07226571499959,173.09079043765638
297,4.950099000000001,455.53325348302917,-115.8084945128189,244.26028585270592,596.5966496448227,-119.9782856219461,200.42533606595345
298,4.966766000000001,450.4427578976672,-85.04499898458158,262.5425878878481,602.1893667469731,-115.24431027583488,228.01815786178935
299,4.983433000000001,443.3629488232839,-57.90080479559612,273.9026291911382,598.423345564034,-104.67895523408336,251.2340924065461
300,5.000100000000001,432.3344270066177,-36.552837027550325,278.61280409004905,584.7579018925105,-86.834256243878,267.7950446505938
301,5.016767000000001,416.7716139224108,-18.687918335698953,277.7541246885447,563.7002801629042,-63.19418144537569,277.64952586499084
302,5.033434000000001,397.105131662596,1.1594581301965796,271.16221425917183,539.0046598996043,-35.33173600656445,281.6849255054003
303,5.050101000000001,373.670642886475,29.58218794970914,258.47474359407204,512.9023760480077,-0.6647982407242896,281.87174829999947
304,5.066768000000001,346.65644753224717,71.83078319670511,240.90940327587737,484.77952206749904,49.0963584792995,281.9702411549426
305,5.083435000000001,317.1475409029896,129.0774743397941,220.9801245573682,451.5966836597702,124.24844692732475,285.7890691880828
306,5.100102000000001,287.29963410696666,195.90606455607215,200.6709766252455,408.3529657075825,227.41638293293704,292.74421281842694
307,5.116769000000001,258.1567349433841,258.97289474004003,180.06590000121486,348.9175830631094,341.8643054670687,294.8136315201415
308,5.1334360000000006,227.2466138136084,300.02410812194404,157.7560449930382,269.4961053382092,430.3342079804123,279.8997924823472
309,5.1501030000000005,190.0555376451264,305.9056659491833,132.76594509667075,173.4979833401897,455.73933493060235,241.54866601914523
310,5.1667700000000005,144.86536079042,279.6951119092819,105.80946695455789,72.0446494481039,412.123912158543,186.76336236752746
311,5.1834370000000005,94.91894336230173,240.497490836473,78.20033657159941,-22.28032144737409,333.18810827043467,132.47289040683827
312,5.2001040000000005,45.07284835918488,209.07574763408672,50.22257541513133,-102.53447612179403,264.30432949634957,92.6524131239045
313,5.2167710000000005,-2.095727205491258,193.06567218450357,21.8060140234701,-168.69619681227803,226.69098701486914,69.17769729492113
314,5.2334380000000005,-46.05143793173711,185.43479467280326,-5.573912261289345,-224.1231831742291,209.98826355139522,54.495527171628055
315,5.2501050000000005,-86.33110039020445,173.89921621542572,-29.176284406338453,-272.17994460630007,192.6233502191539,40.369989937704005
316,5.2667720000000005,-122.5649692548604,150.1998022687902,-47.317945543354256,-314.86057463852495,162.12459199330473,23.08699021911633
317,5.283439,-155.36868656434234,113.35078596179603,-60.64918533955258,-352.63528491136464,118.90933520489891,2.9270220666408866
318,5.300106,-185.77438744537233,67.97915235337362,-71.31680916922033,-385.10190175083505,69.54483733744497,-18.428069300640434
319,5.316773,-214.0083397029452,21.028816337578565,-81.31425801969687,-412.00503794965516,20.724896881877022,-39.783145982007035
320,5.33344,-239.53635376360825,-20.92441258638815,-91.33263221704178,-433.87147067826874,-23.136750661864426,-61.26049995710159
321,5.350107,-262.2903106071641,-53.62068435414454,-101.00571453504219,-451.9048106092791,-61.182115203703304,-84.10822705937012
322,5.366774,-283.1823770280439,-76.73143334196654,-110.36747999124054,-467.0307485988971,-96.2294597080008,-109.56231082449332
323,5.383441,-302.8486188325244,-93.91609164424753,-120.63252954196518,-478.70058092361666,-131.9766506188523,-137.5956587880139
324,5.400108,-320.1851510937885,-110.21473526507562,-133.00734430526938,-485.0716874180301,-169.46420488404297,-166.58790132514224
325,5.416775,-332.97127509124346,-128.62659118962443,-146.9949681678496,-484.87760789490886,-206.92669086040752,-194.23928316237448
326,5.433442,-340.13956948384464,-148.82648578724965,-160.45649645851267,-478.6447980297522,-242.50365041838617,-219.09930963239105
327,5.450109,-342.7853517539097,-168.49933731117991,-171.38776133971416,-467.59666126025,-275.8877986141076,-241.38208407709885
328,5.466776,-342.78186853616904,-185.4688733354531,-179.4347530967236,-452.12654528322264,-307.64744645087967,-262.10313650841243
329,5.483443,-341.3058845545823,-198.85890289836377,-185.9238187538803,-432.23189642966327,-338.02785031989595,-281.41424273851715
330,5.50011,-338.9921249420226,-208.7729104414679,-192.87790936549646,-408.8786023961478,-366.5989029972948,-298.3088331185785
331,5.516777,-336.1488307133741,-215.19139946038004,-201.70151272135286,-383.84120679116995,-392.4828537479175,-312.07842978015026
332,5.533444,-332.0114337716332,-217.37683606204854,-211.8238113016804,-358.3520609318763,-414.42529566939567,-323.16786827867253
333,5.550111,-325.01771115927176,-214.55582628863752,-220.50824573640992,-332.6440215780342,-430.69184297239497,-332.0457763339067
334,5.566778,-314.8453269058577,-207.26458840403984,-225.01235885667086,-306.5232927589111,-439.4105472194412,-338.20123257296916
335,5.583445,-303.38301034090694,-197.7039470100074,-225.33748220167817,-279.80190137025613,-439.401662895806,-341.2748806002505
336,5.600112,-292.8409976661902,-188.21684135016122,-224.2150762317089,-252.86054142407102,-430.64428941310825,-342.49138603481606
337,5.616779,-283.43270265959353,-179.30055091264273,-224.14578192578364,-227.73071119902966,-413.8950573446022,-343.80774925397276
338,5.633446,-273.5431897231009,-169.38876356384233,-225.0031966012412,-208.03400573424872,-389.9422646114509,-345.81959295440987
339,5.650113,-261.74678564821056,-156.39383616100446,-224.77038609924796,-196.7128221450503,-359.1179817678199,-347.209234818551
340,5.66678,-247.9972780539204,-139.0255405025316,-221.94448542698964,-193.80132340460585,-321.3503318649892,-346.1001024908687
341,5.683447,-233.04435005730085,-116.96992213266688,-216.4138096860268,-196.80305088831182,-276.6746682102738,-341.31565445310935
342,5.700114,-217.40196056182316,-90.51615938201988,-208.2024381265453,-202.84541813938387,-225.53282521770123,-332.1571555310285
343,5.716781,-200.83475455062236,-60.02351953866406,-196.60829858790282,-209.91729461744552,-168.32065017557633,-317.6340388108411
344,5.733448,-182.13775769829095,-25.55911729851489,-181.3887410763227,-216.26706064520206,-104.84432942387627,-296.80604891675296
345,5.750115,-159.60232670744543,12.43105900468441,-164.18359786198334,-219.3926562742645,-34.889947627873,-269.67181467371074
346,5.766782,-132.51670158932242,51.5481646656375,-147.591232002577,-216.01790108273326,39.94375582580844,-236.70842197103104
347,5.783449,-102.07906389497825,87.08017664568797,-132.40779706327388,-202.89842517958613,114.68998781964214,-197.71930907701525
348,5.800116,-70.22521062182159,114.42778867159831,-116.2706911017668,-178.0063948809965,181.99624305943942,-152.3656652050494
349,5.816783,-37.8651558495054,132.42309422725404,-95.6997662336137,-142.05481692454362,236.02544584833345,-101.89154618380712
350,5.83345,-5.295511195297026,143.64108891036884,-70.12094542177039,-99.09720597189408,276.0783703841404,-49.393544931635056
351,5.850117,25.551009695204147,150.990084588345,-44.492357564883264,-54.36647082065059,306.49660498743026,1.7794802785781108
352,5.866784000000001,51.26910718512357,155.37413828056506,-26.74637077789744,-10.603740445155484,333.7091729774844,49.962073472570395
353,5.883451000000001,71.9701067690633,158.24487178121836,-19.215092774219027,33.90270506105247,362.5993667986902,96.53908042845228
354,5.900118000000001,95.38758073840647,164.09031351919862,-12.107481352509216,84.79969004951052,390.94787986345216,145.45361404001972
355,5.916785000000001,131.45130594311703,175.55118949074316,9.56730180364421,148.43965329325903,403.63085826824204,198.95351186686986
356,5.933452000000001,180.5062767881629,185.8536901819458,49.76763718405283,224.85261858644913,377.4154447116441,251.78200920074164
357,5.950119000000001,230.29898627306125,181.36678938561374,95.86622755159259,302.12968005354713,300.9923442337045,291.2258674136591
358,5.966786000000001,267.24872355319377,154.48940340911633,131.48787282164884,362.15256131360564,191.26736932009177,306.1766574666601
359,5.983453000000001,288.14972342940985,111.43383220693818,150.97452873702787,395.28869408182777,83.46307048042117,296.6940388837183
360,6.000120000000001,299.13097711040734,65.92010225761477,159.58139619488745,407.33216143714634,3.893577843322241,273.38573248886337
361,6.016787000000001,306.8153388531306,27.875291591620034,164.63558908973437,411.16276766292725,-44.38969506478097,248.07252889831977
362,6.033454000000001,314.027982743152,-0.6422509664841978,170.56021356508998,415.2993563622099,-72.61732921821203,226.5316625095063
363,6.050121000000001,322.1360379245817,-21.79432879792632,179.55305868231954,421.52618879907874,-91.04868188368539,208.9198378345306
364,6.066788000000001,333.0660300478853,-37.60096766923534,191.86645703063948,428.95769442782307,-103.4775476939336,193.8278849276738
365,6.083455000000001,347.582029774394,-48.6283734239217,204.6501726837904,436.80780383504083,-110.22703423939299,180.53700235435542
366,6.100122000000001,363.53212442162544,-54.21549584051595,213.62011282081562,444.4079932527394,-111.26917049845787,168.95148718967
367,6.116789000000001,377.426566569123,-52.54138720239783,217.2875957907368,450.9517705501544,-106.24538974575692,159.2777602128947
368,6.133456000000001,387.32520227463476,-41.37021940072724,217.82357387524013,455.8947581046525,-93.76123743565694,152.0369227475826
369,6.150123000000001,393.62053377284326,-20.20657838739889,217.01324651348932,459.2643866909015,-72.64129024006289,147.67316476593385
370,6.166790000000001,397.58115407553566,7.951811823389988,213.33553409895742,461.2167498671496,-44.49431543817114,145.8783176511091
371,6.183457000000001,399.5544959045193,37.515727674900994,204.2126801195446,461.05573375715164,-14.421879064131435,145.61888080546956
372,6.200124000000001,398.22698278195514,63.38704441438527,189.6976089510085,456.9163915561474,11.896240845824504,145.93422374235203
373,6.216791000000001,391.59125037398303,83.59795185096102,172.69143594434183,446.9045315805502,32.65699046795626,146.3402063294946
374,6.233458000000001,378.9642482299614,99.79805907055757,156.18325968152263,430.48552382684636,51.918319870023666,146.34634514046138
375,6.250125000000001,361.63576567112165,116.04626553819854,140.89198447305444,408.3278520500038,77.39422534201063,145.19540604705008
376,6.266792000000001,340.86551710176605,136.95913729203602,125.08676294516583,380.81609733795665,116.21660544268843,142.47558956544765
377,6.283459000000001,315.8752670250683,165.2655432564572,106.44602684283275,346.8211597381264,171.41427972656876,138.24507034999903
378,6.300126000000001,284.95605946134475,198.51533749585195,84.4764602755022,303.68288150668315,238.83942852819902,131.43466545601405
379,6.3167930000000005,248.1186347723085,226.60587502087085,61.08997405760428,248.89848385201387,304.0808696946021,118.16925405865106
380,6.3334600000000005,207.54120080778068,234.1056297074415,38.66863236987664,183.2778257146516,344.17476557616607,93.27261698061979
381,6.3501270000000005,165.76542209405443,209.2707353634461,17.96095002006236,113.07969148205854,339.5225968127861,55.2208344821164
382,6.3667940000000005,124.17528260173239,153.96888983890162,-2.2943361932652837,48.158831394977646,289.6121265493162,9.762267335943335
383,6.3834610000000005,82.70789328626115,84.45985067331674,-24.548606322234026,-3.3230544785339795,216.07253015586082,-32.675500119035966
384,6.4001280000000005,40.88541271675372,21.019588539657345,-50.579448947305366,-39.587379820943966,147.19105871509444,-63.98884531801387
385,6.4167950000000005,0.16151653077887396,-23.6903369130491,-78.4726345004544,-65.75199585498571,98.87831097878654,-82.98808187576044
386,6.4334620000000005,-35.298006554404715,-47.90740103052061,-102.04171924771799,-89.72856483414166,69.72118587363022,-94.17365902724558
387,6.4501290000000004,-62.3162767661281,-56.69355165209299,-116.05234020940142,-116.40121800476425,50.00459976060232,-103.4511471141177
388,6.466796,-82.88869522639433,-56.81094506999199,-121.95328120508225,-144.755690958073,31.835488092482766,-114.70771429814474
389,6.483463,-102.38856477051228,-53.65925528162747,-126.13470887349837,-170.56637769059986,12.181025470738842,-128.6661511734695
390,6.50013,-123.79225593583783,-50.26429146460569,-133.115643998887,-191.65381382025953,-9.257578009380296,-143.6308912688444
391,6.516797,-145.66045596870396,-47.78573002031587,-142.35172264053904,-209.71957266720122,-32.155946542743074,-157.2022034312003
392,6.533464,-165.5132550284198,-46.51430018102969,-150.47363553130026,-227.40338734722198,-55.80356545516338,-167.78277175440607
393,6.550131,-183.02058950324098,-46.47381073393494,-154.46537780476854,-245.35214472073426,-79.06406507252423,-175.1634748150976
394,6.566798,-199.16849810630148,-47.81316552135091,-153.18632302794,-262.671704968375,-101.20406860342877,-180.41468268910683
395,6.583465,-213.7594238173559,-51.086050149625876,-147.29517672723404,-278.6609954286382,-122.4517692895587,-185.21950207328825
396,6.600132,-225.35019413122163,-56.86329098842954,-138.01304821877784,-293.01250457111837,-143.28381848882668,-190.50338701501607
397,6.616799,-233.59728197164978,-64.9921839470776,-126.10541444703537,-305.00176517803607,-163.51294617071994,-195.38141089285318
398,6.633466,-240.25844399469892,-74.66636040926619,-112.32565014395769,-313.47729980879416,-182.40463713045233,-197.86123132144172
399,6.650133,-247.2532425268937,-85.21946259087295,-98.26593437898504,-317.7897980405568,-199.21653390432178,-196.49056703006028
400,6.6668,-254.81718195074973,-96.41518843896253,-85.96476765620578,-318.47461676576637,-213.08980133715647,-190.9002362544922
401,6.683467,-262.29199500716555,-108.05045566061662,-76.45703626860575,-316.961200230352,-222.69034937967024,-181.4978244411483
402,6.700134,-269.7940201475416,-119.74471299197735,-68.83732606144281,-314.86697733086754,-226.72624746327057,-169.68698500593558
403,6.716801,-278.1720541258751,-131.14887912735497,-61.13124652578634,-313.8292354082918,-225.09199950923096,-157.74833654666384
404,6.733468,-287.635642782593,-141.93568489824335,-52.46847937596842,-315.5034671478209,-218.85921036173156,-147.2531533083988
405,6.750135,-297.13442827955737,-151.1869693575108,-44.17336834654938,-320.6542884509662,-208.53225219971978,-137.5410081144965
406,6.766802,-305.1108026357414,-156.92650647333699,-38.24066496513324,-328.07186920308675,-192.8418847872022,-126.27662148551693
407,6.783469,-310.25219470615235,-157.13319763652152,-34.90326668232049,-335.0901312682229,-170.128460026023,-111.70818563017043
408,6.800136,-311.144717205258,-151.79726518958535,-31.971986819676477,-339.2918989256506,-140.61930683597456,-94.36139472002075
409,6.816803,-305.6540950889224,-143.2613589334661,-26.251230379373716,-339.27068258226893,-106.63856061841668,-76.35247607719046
410,6.83347,-291.70874561957146,-133.78888540989226,-15.509739266947923,-334.1044064246567,-71.17391604147737,-59.17136343762315
411,6.850137,-269.54596548906,-123.45547523053241,0.34740311329386764,-323.0505483749721,-37.09870820793006,-42.67426368656521
412,6.866804,-242.88850850585453,-111.34740097921932,19.422349103483928,-305.78843846274435,-7.068558638340401,-26.08258086621879
413,6.883471,-216.89028586459517,-98.34324610129033,38.75117766034643,-282.61890424597175,16.979232747319458,-9.147145552567283
414,6.900138,-194.67946377883297,-87.4347603605848,55.10452315796267,-255.21205794797615,34.20815999462237,7.631330153642596
415,6.916805,-176.06282737020607,-80.88766935807338,65.88492857502129,-227.55655853956182,44.715841693353326,23.209971852143767
416,6.933472,-158.80832929927337,-77.71606029018571,70.60978682226512,-204.25251303306507,49.80831062772292,36.49779883956173
417,6.950139000000001,-140.46786180791383,-74.36238969486033,71.52556856126941,-186.19647269556665,52.55093434905949,47.29720064522585
418,6.966806000000001,-119.67771737059992,-67.41748931677537,71.757024468107,-169.48081506153594,56.64622095746508,56.79174454880071
419,6.983473000000001,-96.527224145737,-55.41562766194137,72.73260544608482,-150.23177848448634,63.85163867292459,66.60412785663775
420,7.000140000000001,-71.77399819959402,-38.755521256482716,73.80334376330148,-128.87446559203113,73.19394524920553,77.29693299984194
421,7.016807000000001,-46.09982753216923,-18.83290549913071,73.84785003437626,-108.22712534735997,82.93368371618476,88.20547244407288
422,7.033474000000001,-20.1287574990787,2.774610151292657,72.75751324605628,-89.58728598487306,92.24698513956871,98.68311661421612
423,7.050141000000001,6.125730555746072,24.973392601904905,71.82213905084281,-72.2255155664972,101.04723080978607,108.84899157757816
424,7.066808000000001,34.609703145722094,47.41186496401584,73.00288154276876,-54.78838404167506,109.5504319291954,119.01535343677537
425,7.083475000000001,69.16093611594852,69.9420232545928,77.60068577530825,-35.93155403153009,118.25042986099136,129.07185192205588
426,7.100142000000001,112.97677518849466,91.55222107968875,85.55386622549074,-14.82092274785205,127.40294572094953,138.6985583724447
427,7.116809000000001,165.43962027537836,109.85750979603199,95.89577105003931,8.362983641120055,136.1611246864035,147.77967778470213
428,7.133476000000001,221.03894881610228,121.86554463057958,107.50945154624802,32.92139037753954,142.18812862043302,156.3632021469339
429,7.150143000000001,271.93440959869315,125.22959658449807,119.46209650267173,58.21880146130084,142.06114539532925,164.3321435739085
430,7.166810000000001,312.6697813344901,118.87182904703423,130.85108340479388,83.09434384088698,132.85192102712605,171.3232221633601
431,7.183477000000001,342.93551954071586,103.35941631010499,140.31767835251983,105.25889722926831,114.4870706304711,177.00366038858118
432,7.200144000000001,365.94919073843107,81.74723441784313,146.03212025074328,122.17373037166776,90.50663725883567,181.21898261930065
433,7.216811000000001,384.5929423903322,59.72032404984754,146.94136193527547,132.71822470382787,65.76458244502757,183.92396129472257
434,7.233478000000001,399.2427581603421,43.36374920497962,144.23496703110405,137.96911280048334,43.440372919562506,185.38387711183654
435,7.250145000000001,408.64503519198934,35.537913577261946,140.80792925332463,140.52221469257208,24.36624256271941,186.3409086071757
436,7.266812000000001,411.8834280700658,34.1852546069834,138.56285964633605,143.16429467397091,8.224082704678883,187.3559162518422
437,7.283479000000001,408.99836465163276,34.45805002470309,136.35648437918834,148.10178856277705,-5.55453934638722,187.85929343590695
438,7.300146000000001,400.2485353755287,32.77497065445343,130.88718936189113,157.0814097549934,-17.511174810790955,186.07040374473394
439,7.316813000000001,385.8599331622329,29.28066313996645,119.39507401991024,171.4033086908863,-27.576710504984984,179.76121119031393
440,7.333480000000001,366.58000028277115,27.218008216449505,101.38202413604752,191.04714658398032,-34.628436370540534,167.42799984989526
441,7.350147000000001,343.2979398252072,30.460266803180676,78.32619850728739,214.03983874728715,-37.28351363140002,149.5903055326241
442,7.366814000000001,315.57612166529725,41.200399269447395,52.499972352943324,237.4722257995369,-35.139068190359524,128.84706538126707
443,7.383481000000001,281.46948708054197,58.98399922772188,26.104698505231884,258.9666588569207,-28.99851781510126,107.7889955975341
444,7.400148000000001,239.71636039593866,81.07651411014925,1.0310456433899229,276.43301470962615,-20.512961507092797,87.00087799244778
445,7.416815000000001,192.1145710597478,103.28043895763429,-21.11914750928755,286.9781891166627,-11.97004255466199,65.64333655482015
446,7.433482000000001,143.31750473703823,120.70453278654043,-39.30163530464203,287.5841123526696,-5.4231601812806485,43.370049259385056
447,7.450149000000001,97.70867420635679,128.99339488248498,-53.547658668015615,277.2779609386437,-1.2812962799928553,21.030142575779664
448,7.466816000000001,56.07199923297013,126.12442028016315,-65.03948456201582,257.85755496390755,1.6693344655926745,0.04451494503254089
449,7.4834830000000006,15.669810725815495,113.58915437665834,-75.44799893542513,232.16065097875463,4.730234791755529,-18.244666783839165
450,7.5001500000000005,-26.200432589843764,95.92658948860722,-85.94832545016706,202.21968499873748,8.845098687742224,-32.84311306004234
451,7.5168170000000005,-69.2567128545493,78.71732304244435,-96.5004610388974,169.3066702183438,15.893341063516978,-43.390095323460685
452,7.5334840000000005,-110.62842736927186,65.73918910953377,-105.9454511180439,134.88230128134515,28.844391030645582,-50.486313023970936
453,7.5501510000000005,-147.00033964051457,56.661389855703256,-113.0194820201586,100.69895382666814,49.209275470327924,-55.516642245430305
454,7.5668180000000005,-176.28127780367612,47.339472936730886,-117.43589474070673,68.11696583470221,74.51996168551035,-59.81774716453997
455,7.5834850000000005,-198.67737296137233,33.36163270875225,-119.88911320721803,37.68235162352351,98.86600973438286,-63.90340420277492
456,7.6001520000000005,-216.82436845387218,14.058037052532924,-121.01956670520056,9.281370832601024,115.6307195492924,-67.36125655532393
457,7.6168190000000005,-233.75154167830186,-7.045684736972002,-120.79848904845461,-17.558490684827785,119.88877216554152,-69.43127751811386
458,7.633486,-250.02464450763927,-25.6591309871709,-119.1857398868307,-43.394196488281764,109.92429663604825,-70.09066886781757
459,7.650153,-263.55850580604465,-40.10904164203939,-116.76971891843587,-68.36494354533295,88.02379475840172,-70.79180625758445
460,7.66682,-272.27585401912495,-51.50795861916224,-114.08019146501454,-91.64179001135463,59.410639077052636,-73.54891668480958
461,7.683487,-276.08903460593626,-61.585022053950794,-110.75073494945386,-111.69728822388223,29.135950322679236,-79.03039654076446
462,7.700154,-276.4981727773596,-71.074345681595,-106.16076745984853,-127.63746648460244,-0.7547088100374921,-86.21729255139705
463,7.716821,-275.32451518436403,-79.98044236681109,-100.65016683391494,-140.185025978565,-31.520469905674354,-94.10807901945488
464,7.733488,-273.8954651110092,-88.2730626137341,-95.43006580765767,-150.92976282051313,-65.43802192908797,-102.73380291380658
465,7.750155,-272.75197563890686,-95.49732446247091,-91.3726993812098,-160.70934303363467,-102.82602539934665,-111.83820219081514
466,7.766822,-271.8551225202911,-100.36722291399687,-88.32413609609043,-169.07578017699367,-141.01180467293463,-119.44505230441888
467,7.783489,-271.0406576940427,-101.90948219312325,-85.63297446931114,-175.19355569504376,-176.09188952091614,-122.87240489347752
468,7.800156,-270.2310609277727,-101.13868347074842,-83.00615336004445,-178.8318645143781,-205.21601492331928,-120.99728688536902
469,7.816823,-269.30749870012005,-100.9717844192198,-80.5094059110394,-180.36128840140321,-226.84220479016622,-114.81503217929864
470,7.83349,-267.7547729967848,-104.02308701649177,-77.84796227778415,-179.9803810353337,-239.49365309296536,-106.02830790860884
471,7.850157,-264.4172777261984,-110.32529369658026,-74.18408055148244,-177.32184535312078,-241.41082799859703,-95.86380336037809
472,7.866824,-258.0125456682496,-117.23278100858386,-68.88514575604367,-172.15159295390797,-231.67015725363694,-85.06679023007791
473,7.883491,-248.07545076289355,-121.6009032723334,-62.06212633560379,-165.1742864138661,-211.09942892878865,-73.94579326398652
474,7.900158,-235.04547541193813,-121.99050233157872,-54.09960313131501,-157.48263716814685,-181.86141150744317,-62.033592045838475
475,7.916825,-219.60380902722034,-118.7799218679524,-45.0601536184987,-149.2655782414737,-146.39819036090194,-48.4328903577354
476,7.933492,-202.6005369981258,-112.61176744700174,-35.008658560342596,-139.74652910432974,-106.83095058360504,-32.98959223081197
477,7.950159,-185.49689831353038,-103.39838820960964,-24.62765363868712,-128.5175399145019,-65.07616311874168,-16.92921698871026
478,7.966826,-170.0014949803546,-90.92797889242644,-14.885824024514982,-116.18240843784044,-23.245191905182118,-2.3290626375876498
479,7.983493,-156.82091318237298,-75.76710606692276,-6.046888956300402,-103.10777445243926,16.2589578280911,8.799553133220416
480,8.000160000000001,-145.2628059900141,-58.88278674153921,2.6538715947168545,-88.08178940158888,51.23821155455357,15.245353230276503
481,8.016827000000001,-134.51986550851146,-40.53328450876196,12.14289347018983,-69.13786334957246,80.50328456222834,17.107771598113363
482,8.033494000000001,-124.4546823732023,-20.382680242675598,22.18113964985038,-45.65456897168336,104.19871448602161,15.666798527631817
483,8.050161000000001,-114.31564171068709,1.0594259073736858,31.009401457527005,-18.962465524416313,123.06555023847673,12.387885562817356
484,8.066828000000001,-102.10160349224512,22.013798930098964,36.72215884444563,8.984953027054258,137.15135020730335,7.94981174315547
485,8.083495000000001,-86.7626877717659,40.79632262918153,38.94098431884919,36.7017169299954,145.26092326365975,2.186130454029348
486,8.100162000000001,-69.87552972499883,56.63144376510597,38.653163730269085,62.90975325240483,145.65886144858297,-5.321378199320229
487,8.116829000000001,-53.3962449015772,68.8545546771326,36.671655290740034,86.19169894297889,137.2477182785168,-14.573142613380721
488,8.133496000000001,-36.52662100707466,76.47651247867054,33.15769433665092,105.59292094592669,120.36156035064705,-24.650061585095138
489,8.150163000000001,-16.44438445949992,78.92431769966109,28.642521630213714,121.27273518400376,97.02844729023298,-33.82750449615422
490,8.166830000000001,8.049999233832732,76.52873368058002,24.608880103473346,133.93344530274186,70.79125683497338,-40.547369909821114
491,8.183497000000001,34.52805500527679,70.35539140624378,22.774573333961904,143.59501369066376,45.919625876790136,-44.328259258581554
492,8.200164000000001,58.614461462671436,61.79603121448484,23.881740517962125,149.60243036067772,26.08460651777804,-45.523276444584766
493,8.216831,77.63556600141823,51.54305473814412,26.625560948663118,152.07554407330707,13.248708263665751,-44.31769775620562
494,8.233498,92.98811973152453,38.8999077967958,27.73099369625878,152.42271875058532,7.456363724045071,-40.29808806993435
495,8.250165,108.66229936089206,23.600996448467296,24.45351544212332,151.51854102504757,7.4027176601079345,-33.14478977154193
496,8.266832,126.52707822013284,8.51112822928788,17.587862276697393,148.04235151378958,11.262239185857847,-23.685025951992106
497,8.283499,143.59084753615227,-1.4534953864292728,10.687903210123391,140.04425612696542,17.345363877757563,-14.05404963475082
498,8.300166,155.49924184640355,-3.7938175433121746,5.808427397450701,128.25250395038017,24.286187208730915,-6.531528645632795
499,8.316833,161.78004234162114,-0.4386502136044932,1.3686881325203126,116.57669330228848,30.880077987671562,-2.1746624101625653
500,8.3335,165.1534275865584,5.005815397412636,-5.324508538164597,108.6134080681293,36.045828334384,-0.6948402672104306
501,8.350167,166.97774918869467,10.83225573285052,-14.828749621815954,104.25461933802436,39.07609414600886,-1.3157816346787565
502,8.366834,167.01442185958032,17.963850034595023,-25.727675559301886,100.30977715125269,39.86510270917577,-3.311943606355854
503,8.383501,166.73582856620104,28.171346586469625,-37.11972372511153,93.85307197889928,38.78047974625215,-6.127188397619181
504,8.400168,168.48313282654513,41.83166023758539,-49.51954663231414,84.21963227925815,36.16946797456636,-9.661830726323267
505,8.416835,171.31225548864413,56.93272629072085,-63.13437758504623,72.22989557861098,32.00458339162815,-14.310512992405236
506,8.433502,171.39664778433536,70.16472859376624,-76.3346016650795,58.610540949549446,26.240214340955625,-20.40336343648579
507,8.450169,166.77964685840928,79.09212841184589,-86.52519204124184,43.54586384109474,19.41316375199872,-27.908405345319757
508,8.466836,158.96121403452327,83.18245373583233,-92.1947519316657,27.22732143277229,12.38834866733214,-36.71346201779608
509,8.483503,149.89343316763836,83.05086538957246,-93.7954934414715,10.251970084522869,5.522126143209328,-46.55434960110878
510,8.50017,139.7123351939848,79.37586227271805,-92.92828164949307,-6.619441003922654,-1.2699189159072557,-56.467734251691525
511,8.516837,127.05937500513849,72.61905606552165,-90.7800370038211,-22.828841425264983,-7.524083792101278,-64.83383721547682
512,8.533504,109.56395449674889,63.351578658892876,-86.80923044647324,-37.87617371687311,-12.173055588240288,-70.15141280022559
513,8.550171,85.04978204812124,52.77629262590669,-78.78948427319347,-50.82581696015197,-14.979989606402984,-71.57555503449458
514,8.566838,55.25245202463205,43.03447115872778,-64.94544425765521,-60.178205502254315,-17.250458928597897,-68.88224305277848
515,8.583505,27.91386577640756,36.425864724514,-46.61129799262784,-64.38138166650164,-20.16691772410694,-62.30511197830792
516,8.600172,11.628084175194326,33.396864465727404,-28.17427494842469,-62.650985081119245,-22.680298289245638,-52.51225596454194
517,8.616839,7.107332740042301,31.1497921709717,-13.899333173314986,-55.67389384707681,-22.033354369966233,-40.60934359554852
518,8.633506,5.40517613857247,25.053472193414635,-5.308017542526713,-45.726205065884045,-16.699584548026863,-27.87016133868118
519,8.650173,-3.7940066735394797,12.389820006376832,-1.3252453188794693,-35.84780349949005,-8.348437708807053,-15.200481599924942
520,8.66684,-22.891969143602132,-4.80315447916762,0.566507246770974,-28.496991251672277,-0.5533192885573931,-2.9526947810548494
521,8.683507,-45.688696223391375,-20.93715038828065,3.298741585481677,-24.673577092022406,4.2185829966271475,8.656659804283112
522,8.700174,-64.43151530668753,-31.767917848791665,8.630525524564256,-24.03665065304402,5.901515144355592,19.297563049611306
523,8.716841,-76.21581124416709,-38.12886951903245,16.05819366435444,-25.707608708179073,5.351883077329201,28.867627014552532
524,8.733508,-83.17065592566436,-43.984916850650166,23.778466092638315,-28.89884112499304,2.6575331492350527,37.457569450753795
525,8.750175,-88.47055847239929,-51.043503232824236,30.316620523062248,-32.746830385689606,-2.330525707089792,44.4366551280949
526,8.766842,-93.31437893744679,-56.81954204694992,34.839014670644964,-35.965842018066155,-8.525956829963402,48.30316747005563
527,8.783509,-96.99509549047849,-58.41728342911249,36.93687642762722,-37.429896915955936,-14.185468840546159,48.533262518027485
528,8.800176,-98.72053740807777,-56.64406512142145,37.161030272492326,-37.20428302408054,-19.29127403056582,47.271069021500864
529,8.816843,-99.2553801593022,-55.194477335319576,37.29069919003349,-36.48222724265839,-26.06359170671271,47.961273995706776
530,8.83351,-100.9883574064161,-56.56431790707431,39.09415497077415,-36.42715920173914,-36.124196620240994,51.989359324813336
531,8.850177,-105.78447381101124,-59.85600047637745,42.60851176344069,-37.36639309487718,-47.83392358626527,57.28569946504325
532,8.866844,-112.33706855874854,-62.17312249256717,46.02113806144504,-38.87799065633259,-57.35034274877549,60.40869086569076
533,8.883511,-116.33778291793917,-61.18101034764628,47.481251836584164,-40.1622812565745,-61.888348049641294,59.67810120251351
534,8.900178,-113.93211558595598,-56.453396558818156,46.756497444112526,-40.46378423332289,-61.26747660904206,56.44023462982105
535,8.916845,-105.12913724280608,-49.251972487430734,45.018611285304345,-39.62921039432625,-56.979148768188466,53.713337219487926
536,8.933512,-94.08277882895166,-41.254170750433275,43.592873411827824,-38.20813386783599,-50.90494132530297,53.51234823417305
537,8.950179,-85.81219690183491,-33.04474644187448,43.16376099929289,-36.59825658459431,-44.60772804890986,55.183891338404834
538,8.966846,-81.72894588412149,-23.724743614942636,43.57639769781251,-34.238526568343154,-38.500356801146,56.2816244975935
539,8.983513,-78.55468712917968,-12.385323320560625,44.09925366087845,-30.284757136454914,-31.393752997626937,54.91728855752001
540,9.00018,-72.47525258585515,0.01721963482232717,44.188638031355,-25.19562733735866,-21.811290393216673,50.977533427265016
541,9.016847,-63.453789417255294,10.935522277685951,43.941645508458016,-20.997793694770785,-10.11784688595655,45.1178817397696
542,9.033514,-54.315280000301854,18.60185183779535,43.66917798340154,-19.511043985899292,1.2747209120950926,37.02516816846984
543,9.050181,-46.84154552255616,23.378139494595864,43.47418222344473,-20.576540341765128,10.005102058420269,25.078927391681383
544,9.066848,-40.14175394418038,26.540936666494524,43.417920711078814,-22.34100561233409,15.614286026805004,7.839817250457034
545,9.083515,-32.24265718557252,28.681632885389785,43.605275477652484,-22.950984568598166,19.256749976848624,-14.118280748096492
546,9.100182,-22.659149568433726,29.664977340999435,43.923133266070735,-21.623854385420053,21.973877710351466,-37.68418196091099
547,9.116849,-13.289438695339937,29.218847182558548,43.927200050743,-18.52138174238528,23.48527477185207,-58.380502764294306
548,9.133516,-6.151941597229457,27.079016038041992,43.11916514775133,-14.221079293976779,22.767178641846865,-72.44792131835598
549,9.150183,-0.614782975934912,23.24188382643738,41.50870773788007,-9.29870559327863,19.794955622590393,-78.61223388459061
550,9.16685,5.642726121198555,18.423625888276455,39.91200189245283,-4.132104965667664,16.21043550437197,-78.28723986117464
551,9.183517,13.414540404107619,13.754129739282288,39.264019539739806,1.0686290597886292,13.724618867649443,-73.83588236539198
552,9.200184,21.725854496052996,9.760542714761385,39.388513516362494,6.234741096714304,12.263928443687353,-66.48346584913848
553,9.216851,30.38752954751488,5.980813300268417,38.71177632088147,11.441623163335342,10.592354944088783,-56.14278313702415
554,9.233518,40.6123628114277,1.8557559662978453,35.463323345279896,16.726743427086465,8.487828763611175,-42.880730896900225
555,9.250185,53.087915230108884,-2.036308079632944,29.29687716071375,21.889565596558974,6.9732258687276065,-27.650889747805877
556,9.266852,66.88662778298067,-3.9002231940774292,21.86771076265538,26.401733323695495,6.334955649481719,-11.81412766066945
557,9.283519,79.89330718585956,-2.2101870883517187,15.706633140636505,29.282018396961462,5.469709467010445,3.1068482633772505
558,9.300186,89.37035438735418,2.6634569791736276,12.234230258665512,29.463097465208413,3.6361577339577464,15.565025905477711
559,9.316853,93.28461678409084,8.549476574867198,10.869468833070533,27.05955152180242,1.473805056106087,24.91421187460588
560,9.33352,92.38907859327924,13.322291718038642,10.037390032334951,24.14412636302529,-0.1756927237633059,31.889648838100015
561,9.350187,90.0748027771383,16.62649973755634,8.490758785493647,23.50611874685044,-1.1959050846456962,37.31517547376593
562,9.366854,89.06702150877558,19.830955132945608,5.3830372669114155,26.387872215756946,-1.4796862264064912,40.57301740219772
563,9.383521,88.85009230395659,24.28599011912342,-0.19923424244375365,31.562305084335726,-0.3988175468094781,40.05337690773671
564,9.400188,86.86107080521492,29.44423195663652,-8.843360356405746,36.490935496495155,2.437989161113655,35.04150404193142
565,9.416855,81.51808144012097,32.720082715870205,-19.907747363209634,39.15070479103619,6.582598774979079,26.59995791045349
566,9.433522,73.78501455089156,31.654666230892705,-31.6695014703797,38.912474921970045,11.279600125794616,16.501154618697832
567,9.450189,66.44827566108226,26.48008638687615,-42.72125723422677,36.28999691354369,16.04788323938905,5.763149882507995
568,9.466856,62.02117347402012,20.166692204093607,-52.891324994935374,32.41517463548709,20.362797912029713,-5.427683451605693
569,9.483523,60.9173633881583,15.714635110716138,-62.544952892566386,28.634090922476084,23.263101491228568,-16.642949581485155
570,9.50019,61.64482610585714,13.861789388922945,-71.27493977167403,25.87953047284315,23.922387556396806,-26.677731975552277
571,9.516857,62.459832838819125,13.455591954318274,-77.57883626215238,23.953414121112942,22.58208211816436,-34.29601079418255
572,9.533524,61.997399093609744,13.083846051024128,-79.85157160124143,21.648675361765022,20.447810520794537,-39.12942156099646
573,9.550191,58.75298271880721,11.926775614384317,-77.73166290472638,17.954917478325065,18.46273735429064,-41.462800884953154
574,9.566858,51.51694075082858,9.778873548767418,-72.60797690218985,13.117636350923071,16.41005453017185,-41.25494568371978
575,9.583525,40.57376505953193,6.780124502059223,-66.83384208015286,8.35638304160857,13.438915635625476,-37.74366098526501
576,9.600192,27.609727755356985,3.0552522206283577,-62.2305558612243,4.738268485773954,9.379872941282466,-30.2323222734642
577,9.616859000000002,14.494724734605391,-1.1973816932331525,-59.059300828314505,2.611668681539175,5.352799698191352,-19.273814519796378
578,9.633526000000002,2.5940058709086338,-5.149269024900102,-56.276728742751835,1.8612761233353825,3.0554519508932927,-6.9480180163346095
579,9.650193000000002,-7.445458927302694,-7.680516388321083,-52.770552971442285,2.036800461024655,3.4316370378832275,4.166615806561333
580,9.666860000000002,-16.074380930954355,-9.06379034663051,-48.40462922187591,2.089382143329613,5.766497278895405,12.309469696060837
581,9.683527000000002,-24.472092994911158,-11.625078575307018,-43.90355004062205,0.6955376961496298,7.86276300696213,17.00876380305756
582,9.700194000000002,-33.09281797990549,-17.44772387998597,-39.897685257899866,-2.4562968072886253,7.454554672368469,18.814248084782474
583,9.716861000000002,-41.04666694307127,-25.537249747481848,-36.39881144378463,-5.815944942390161,4.0402269633209755,18.93603589048133
584,9.733528000000002,-47.313252571006444,-32.28896387895703,-33.08801800582699,-6.953489093638815,-0.7067759913533214,18.801508915516013
585,9.750195000000001,-51.93020458901898,-34.74251684991492,-29.59933503179559,-4.67192453013296,-4.679014596581035,19.364665114822092
586,9.766862000000001,-55.5888411275005,-32.72949097253817,-25.550152880686642,-0.2647738948678195,-7.243583880623608,20.539255675577056
587,9.783529000000001,-58.614339629494644,-28.31743740540354,-20.8191557850534,3.0924904774112263,-9.152360395630348,21.228229549202787
588,9.800196000000001,-60.77210917223898,-24.138195944856726,-15.799378811306411,2.262302283995308,-11.092626347713662,19.980483318123795
589,9.816863000000001,-61.738290439107985,-21.952465515514852,-10.927558460383356,-3.8332160575661844,-12.930164288169344,15.9441910810576
590,9.833530000000001,-61.37687360557012,-21.83123283982699,-5.977015781404301,-13.347460606383477,-14.167789038188097,9.58628596916606
591,9.850197000000001,-59.82241125832626,-22.513459637756327,-0.2580138184282299,-22.618296203585025,-14.55351502307352,2.6142583962010697
592,9.866864000000001,-57.79184111353317,-22.72414051729096,6.406013385513115,-28.639916780611422,-14.096721195711499,-3.018630846117928
593,9.883531000000001,-56.55797564178022,-21.96340691142175,13.223585730712678,-30.889561605560196,-12.839183660454303,-6.329005617259066
594,9.900198000000001,-56.62181074939576,-20.129788799665246,19.089026022071963,-30.990797044290144,-10.828932769768594,-7.709431603069914
595,9.916865000000001,-56.189451008354354,-17.025065623504364,23.591611426794536,-30.810388847704772,-8.137403778565584,-8.23525797608015
596,9.933532000000001,-52.32753397370581,-12.571710218950997,27.287060475011277,-30.951844409671313,-4.833611253338632,-8.689695570412706
597,9.950199000000001,-44.83093121395929,-7.3629272565492085,30.884906022861824,-30.808260500653468,-1.2615781240901227,-9.205798622347936
598,9.966866000000001,-37.948029507924886,-2.8160083216311493,34.22999170808616,-29.56573682991863,1.5882970361276418,-9.466902902231926
599,9.983533000000001,-36.28285190707255,-0.5666201457925424,36.4106372531361,-26.92284141245392,2.552966189392013,-8.979048365216833
600,10.000200000000001,-39.178254199998634,-1.3732857767757691,36.98279418731293,-23.16089456906483,1.542829574498776,-7.43676571526756
601,10.016867000000001,-41.106621853973394,-4.319231234262901,36.75311577115436,-18.926363068253536,-0.07641697008443926,-5.2371439482318145
602,10.033534000000001,-37.55535906893175,-6.956247576685942,37.18828708382722,-14.89693382644995,-0.7696595076276188,-3.513537156356377
603,10.050201000000001,-28.699241328776953,-6.633596218895107,39.244323849308216,-11.414116969300638,-0.21678409223600892,-3.2215618410838975
604,10.066868000000001,-17.70008000907641,-2.5937919552606026,42.62325863664225,-8.382516448911241,0.8538335895408534,-4.076365832972234
605,10.083535000000001,-7.694041831458015,3.0195904018383866,45.72839507964313,-5.424150685177317,1.6772534381035564,-4.665114812732689
606,10.100202000000001,-0.6925389277187053,6.934714629627884,46.466036788774325,-1.9803535822814153,1.8170122769110237,-3.7788180714498063
607,10.116869000000001,2.407385010734256,7.643896185150926,43.64405872840104,2.4401071335551596,1.041103182996092,-1.5136823845560197
608,10.133536000000001,1.9885772591184865,6.071976279444967,37.809618890067796,7.624643902591194,-0.5237760495249641,0.9577792884353191
609,10.150203000000001,-0.07204560580193298,3.8946460238920686,30.656857182364064,12.385486586176757,-2.314067470740448,2.4753357058187038
610,10.166870000000001,-0.9663360943434856,2.21815151980877,23.72126215914295,15.370651286032377,-3.734902024911758,2.679971597950186
611,10.183537000000001,1.43435991549674,1.7274838351352462,17.881792177850883,16.170926781995483,-4.4615884209161765,1.9299523275783685
612,10.200204000000001,7.193348687721453,3.0141713504382266,13.874674332666071,15.549385528364681,-4.308642654249391,0.6429263582501827
613,10.216871000000001,14.606982531157218,6.152395197921717,12.328170422115553,14.800393808100509,-3.2167461567022775,-1.1366538886999573
614,10.233538000000001,21.64590003084446,10.13846644420161,12.675319179889616,14.872163989819231,-1.5107785160906033,-3.446191752813145
615,10.250205000000001,26.958527104199803,13.152767508152,12.69564456572481,15.788584426354747,0.1600012970868393,-5.853271923978058
616,10.266872000000001,30.043618404192088,13.719933764740528,10.21640304511033,16.874380414827588,1.31016425080211,-7.512529502573688
617,10.283539000000001,31.20607669510772,11.902525472060432,5.25894284197465,17.62712827328489,1.9127132167944787,-7.863903525998986
618,10.300206000000001,31.530039140537752,9.475853533407738,-0.3349355293273637,18.18301582705963,2.218864381278289,-7.100468517885927
619,10.316873000000001,32.43712154703074,8.692214318780746,-5.341060821293189,18.867945448625704,2.4569108504180477,-5.86593455505706
620,10.333540000000001,34.61274964997557,10.447872677686087,-10.17086896403766,19.582590815520113,2.6924786749890273,-4.648221846592873
621,10.350207000000001,37.20639561722736,13.495053683138726,-15.318401118340715,19.74762416140714,2.827766528447678,-3.6275766294400293
622,10.366874000000001,38.51040448156827,15.50692316452772,-19.954760647831836,18.682193720005642,2.7036767823266037,-3.034514223470638
623,10.383541000000001,37.635581056040614,14.938890606560006,-22.709997669160195,16.095298900232486,2.283606582536171,-3.3436613009525056
624,10.400208000000001,35.297423692408884,12.042621263513649,-23.21671986543901,12.55247589554249,1.7800324319177432,-4.820165617447039
625,10.416875000000001,32.9392159906482,8.434812604148815,-22.359312385280177,9.5225930519839,1.5281790982271355,-6.899591099552248
626,10.433542000000001,31.37122617183209,5.731734615206599,-21.40872639015864,8.571806514071417,1.5771928555119636,-8.370637075086883
627,10.450209000000001,30.31803675493837,4.318137092283215,-21.276357358176593,10.16341260163268,1.3508934069869762,-8.369741920254867
628,10.466876000000001,29.005973193642212,3.370766881547308,-22.244836016218272,13.231163408969728,-0.04174798613912789,-6.990076482210954
629,10.483543000000001,26.99282125907716,2.217203986873601,-23.983177819096056,15.997439633123467,-2.7998551616150857,-4.843389523838791
630,10.500210000000001,24.536754673458653,1.4441106669673134,-25.878547493709803,17.23265802879723,-5.7177268504046985,-2.4081395815960134
631,10.516877000000001,22.419780892563672,2.217984236367274,-27.481363456892225,16.85219975989175,-6.8165918867582675,-0.033040495027473304
632,10.533544000000001,21.490845556801652,4.603353594513607,-28.479432737544773,15.523843775837825,-4.966680565995121,1.7663384306782188
633,10.550211000000001,22.048804585165012,7.115953576313595,-28.33968331276708,13.811906021363148,-0.9792703370786653,2.434512664570647
634,10.566878,23.256207443248982,8.064461736528578,-26.57346536196834,11.648978242983407,2.864928473659283,1.818380333411042
635,10.583545,23.285664110742243,6.869970075279772,-23.65873257374131,8.609462906155006,4.438200589415159,0.31827382376656166
636,10.600212,20.623377433131488,3.980152344398466,-21.18311750316755,4.773018648264581,3.1795241130022083,-1.3892860328927108
637,10.616879,15.475544002113473,0.252341923145335,-20.4063019998534,1.2165165573262786,0.258743743326313,-2.6524625902718935
638,10.633546,9.719361285645137,-2.9471294643078494,-20.622906082388674,-0.7593604131639687,-2.3567409522642966,-2.977864819844924
639,10.650213,5.453962600529239,-3.732284694083363,-19.374411121665624,-1.0523204411714364,-3.065536727711812,-2.2334727006845285
640,10.66688,3.6570424876422103,-1.2217754155751954,-14.690458810200713,-0.9948566998525659,-1.4851351817567138,-0.8679303913397802
641,10.683547,3.948599226266229,2.712172911622499,-7.183230880012394,-1.9268009018404357,1.2520724930703448,0.32334933645053887
642,10.700214,5.215493963913313,4.549167906623007,0.32970382724503156,-3.835663844066977,3.1778340000638026,0.8603509210119437
643,10.716881,6.3356151392322975,2.7383137934499957,5.3465200378286495,-5.537553146864426,3.0530092662332216,0.9805390837301227
644,10.733548,6.431023479445619,-0.6855392218486411,7.582511533523426,-5.942036895280726,1.5114202968088732,1.3544833655541733
645,10.750215,4.754275542446324,-2.8055464135147345,8.453526927625987,-5.090202016741645,0.4153648209023648,2.4008493423291983
646,10.766882,0.9131821047032176,-3.3164241943917294,9.144436588878712,-4.095491966101363,0.8833070630687239,3.816883398420512
647,10.783549,-4.431466573825976,-4.424910953890265,9.47174008249767,-3.9869593270510792,2.14913228338501,4.7721159991883795
648,10.800216,-9.439369084794258,-7.674949448695126,8.673756822102792,-4.589767628582742,2.618335424231267,4.639794618360764
649,10.816883,-12.186847032392848,-11.722658650384197,7.067892426408923,-4.86133594301138,1.8432266679287275,3.555362358626774
650,10.83355,-11.873976477486464,-13.340322903732751,6.418854022124961,-4.379115677435527,1.0019338871258423,2.2293328948707565
651,10.850217,-8.87880357664208,-10.316552364829276,8.438528988998955,-3.9887834073140747,1.392231032084081,1.2900961438583212
652,10.866884,-4.227323502888764,-3.584592422463528,13.111162230940854,-4.761774207911545,2.8433080574035183,0.9107702145086063
653,10.883551,0.5442807784209247,3.247887963830446,18.61916105094646,-6.866419381701043,3.8626340632693803,0.9304657778708325
654,10.900218,3.7525914113464496,6.909779058639865,22.77884968810347,-9.877846327861233,3.2909779540366557,1.0438278914724721
655,10.916885,4.653478753738837,7.310792082936414,24.41503833770883,-13.582912012232311,1.6414134558852698,0.8916979899478397
656,10.933552,3.8346603660110126,6.928131574190142,23.506118526785386,-17.683646181343395,0.5519385541461418,0.31552687950701164
657,10.950219,1.9841954234094028,7.310892495792251,20.480379772165314,-21.084170370668645,0.824824151667937,-0.33353809475070545
658,10.966886,-1.1555679203893403,7.265645422234467,15.852955126777378,-22.450656837198565,1.4615108772379757,-0.357102599340555
659,10.983553,-5.800311715896584,5.140857199070677,10.65650656868914,-21.57707966694162,1.050883314868746,0.6422342050975286
660,11.00022,-10.555802230624911,1.7186010858850196,6.816099681707894,-19.707958471631382,-0.3939130475450558,2.2814361697612764
661,11.016887,-12.882055724635112,-0.5599096285843821,6.42907438086666,-18.59557083368997,-1.7095395254435886,3.5650204794828957
662,11.033554,-11.178103377443001,-0.654985197779153,10.231298216786985,-19.5440130330556,-2.3907384351860737,3.5397158347209734
663,11.050221,-5.921083444678581,0.24081352610117035,16.663171353951565,-22.914849639913783,-3.2444415853770603,1.9381685616314535
664,11.066888,0.9752138202632352,0.7838278564228432,22.470046569899548,-27.763556877780978,-5.048820719299155,-0.583508591869695
665,11.083555,7.363575635981658,1.157857572084199,24.582373335946716,-31.993296444331186,-7.148480392894262,-2.7177812971622757
666,11.100222,11.717647807565118,2.423623400736304,22.115728222337815,-33.690583691453625,-7.867830726707784,-3.171104811315447
667,11.116889,13.61242036722193,4.892945886614656,16.768841220885626,-32.74720327302868,-6.210321155518667,-1.4567991648390781
668,11.133556,13.784211813821202,7.540820983512013,10.963240965984467,-30.816683721485898,-2.8641856956849328,1.6648132543388916
669,11.150223,13.547810865199148,8.889972109366582,5.755690275744325,-29.471231289681256,0.37668129155922725,4.598952424813839
670,11.16689,13.863925696040535,8.336248349056138,0.8939032968333638,-28.84769400093939,1.9693468028139784,6.05741363498924
671,11.183557,14.918408692090019,6.685667371487507,-3.800496641369865,-28.255324859241966,1.6114046060829863,5.917656453072079
672,11.200224,16.477727689572795,5.437051942706828,-8.128058172221563,-27.364408280356372,0.2735657700906866,4.920110193741371
673,11.216891,18.26909498819217,5.397730990811924,-12.286734845837858,-26.231480242220414,-0.7296590542495831,3.662124933146541
674,11.233558,19.9026555750761,5.973508155831521,-16.84811140942414,-24.6164089028017,-0.9117190481465193,2.1828661984649327
675,11.250225,20.89541223860124,5.9980275351353445,-21.725257401148387,-21.907487940192258,-0.8667589927338629,0.543183936538737
676,11.266892,21.26851861701589,5.189396918573511,-25.937360940768045,-17.786668616648278,-1.2727349928599245,-0.6167788514516479
677,11.283559,21.84506354329011,4.378724819553657,-28.900208595222004,-12.932766458067961,-1.8876408825197213,-0.5748768671813291
678,11.300226,23.225021652937706,4.239575558146647,-31.469227735338148,-9.035865031378934,-1.9113364766191525,0.3452975261185127
679,11.316893,24.543365215819136,4.3057771822554205,-35.02949610392106,-7.641905509723803,-1.1913365135224419,0.4923480150963271
680,11.33356,24.095505406168048,3.6079037397020945,-39.68428620194143,-8.62270695943888,-0.5480588819304818,-2.0127415758141933
681,11.350227,21.262267975026173,1.9683256540136669,-43.983387101162,-10.219258932538843,-0.8398193382169779,-8.048514474562403
682,11.366894,17.092944852463106,0.1605039944562067,-46.590285905766436,-10.89175762142646,-2.0686850997288007,-17.447244409954706
683,11.383561,13.198002190699205,-1.0442942777753772,-47.683140270528625,-10.559013514315957,-3.4631922907114348,-29.77419325370056
684,11.400228,10.816113213278893,-1.3381028639171775,-48.33271132447676,-9.817936138633726,-4.19282054667184,-44.69015709868577
685,11.416895,10.371643127464985,-0.370904393749955,-48.97371836047658,-8.873033871795823,-4.015640509830417,-61.449135516811516
686,11.433562,10.926247417886989,2.548890784232672,-49.268832723509746,-7.838689249867458,-3.348912262945619,-78.26505287815534
687,11.450229,10.422610330846197,7.886359175898253,-49.354513851378776,-7.266347605726918,-2.658246352884042,-92.46736006369431
688,11.466896,7.188186971222304,15.175092186967113,-50.243608519185486,-7.361355843283887,-1.9778589590883158,-101.3832449779222
689,11.483563,1.1865235177929054,23.02465623105155,-52.618158777607846,-6.974313240071538,-1.3206636320357015,-103.2518793951296
690,11.50023,-6.085385491348699,29.735869508362526,-55.92228150542643,-4.323095701456706,-1.247496269482438,-97.8056508244531
691,11.516897,-12.472555797631568,33.835396971022504,-59.0972093030897,0.9944552377616711,-2.529012785744784,-86.29384486441266
692,11.533564,-16.10670482965864,34.29186091838294,-61.60565891067776,7.1021327288959295,-5.303329542317724,-70.7080139859315
693,11.550231,-16.23498173886835,30.755689610977456,-63.1921367803765,11.324665274704625,-8.880328585386739,-52.71721204404717
694,11.566898,-13.54971282071324,23.80286144827223,-63.181333847051775,12.47317556949678,-12.464651587759661,-33.44529689467566
695,11.583565,-9.716705958746411,14.606698589724207,-60.84466167229061,11.439427704335179,-16.032785942963322,-14.179279830525045
696,11.600232,-6.484890812507251,4.072960987915797,-56.45945456157259,9.96028629268089,-20.46564779625485,3.4562424292736207
697,11.616899,-4.946789565608861,-7.424948753569609,-51.48037414842253,9.438263781404993,-26.63655354414207,18.568690705854877
698,11.633566,-5.193148064956276,-19.082350929649778,-47.53316923258651,10.507990655022175,-34.032117193958136,31.659628696215346
699,11.650233,-6.489658042245297,-28.817299353608284,-45.51010940240013,12.769095275953957,-40.213539505923634,43.39436424784812
700,11.6669,-8.023314459868821,-34.14177822460241,-45.59464772106668,15.035620431755454,-42.01077654795416,52.93333155887363
701,11.683567,-9.69572275242903,-33.89720258487863,-47.682389005023296,16.467063809965907,-37.46210688050561,58.1288169032358
702,11.700234,-12.010448710429854,-28.69430596116502,-51.582565901474275,17.24801817267339,-26.532811868954546,57.186548347362006
703,11.716901,-15.09688920573867,-19.893860607076544,-57.09962020448059,17.682647368477053,-10.583479752764374,49.6415533963014
704,11.733568000000002,-18.340441398303216,-8.81836794303772,-64.11768516257592,16.86843057959138,7.855507018814854,35.97559310484778
705,11.750235000000002,-21.182052930440467,3.0932061518964575,-72.55432813363466,12.87936907154415,25.249415272827612,16.915985156198353
706,11.766902000000002,-23.441365397504846,14.069824755404776,-82.12983482915301,4.497741064465589,38.41155664715728,-6.679789059184083
707,11.783569000000002,-24.344269576323235,22.39190582650511,-91.98974532283685,-7.632131466862695,45.79482063176357,-33.40900638387484
708,11.800236000000002,-22.39877753632358,26.929043503666954,-100.60123860185115,-22.107978402838555,46.86140938168593,-60.857139381992795
709,11.816903000000002,-17.328312619746058,27.215798065134535,-106.45355683915739,-38.717345153371554,40.93684803285099,-85.35049867192002
710,11.833570000000002,-11.222998717680401,23.369919978320677,-108.8360926230203,-58.2434665367322,27.903419136371724,-102.33396009703691
711,11.850237000000002,-6.674092856255648,16.44360426329726,-107.60239170001549,-80.00900222590474,9.791494254197397,-107.93245614920953
712,11.866904000000002,-4.4418615180271415,8.622008251325607,-102.77221374786652,-100.41229003631554,-9.36014441294797,-100.95439534231434
713,11.883571000000002,-3.7488505268344654,2.3867507263742436,-95.00064790007937,-114.46094886826434,-25.53102422902662,-83.30657293158544
714,11.900238000000002,-4.134919551579241,-0.7547243910263228,-85.56147471502044,-118.51633216400889,-36.424649593457374,-58.412100390761836
715,11.916905000000002,-6.075303047508907,-0.7652799381221953,-75.0840083085634,-111.65434083345247,-41.51239247496598,-29.662034418640324
716,11.933572000000002,-9.925493681181425,1.4717753244232714,-63.189466161842574,-95.23704127475989,-41.1987895062629,-0.10286717845541227
717,11.950239000000002,-14.844933553862324,5.313047064516963,-49.89262047105893,-71.80337532423441,-36.34776290806256,27.541397798174607
718,11.966906000000002,-18.876211571814146,11.230568197407258,-36.270865956072626,-44.45713170158351,-28.310128266909295,51.12378265830097
719,11.983573000000002,-19.997447233515352,20.176985995189675,-23.330830857064793,-17.21530311701996,-18.932807328481452,69.19127676694488
720,12.000240000000002,-17.454732405396918,31.466961145182438,-11.341717003918053,4.908937768958439,-10.336440884770337,80.98438548714792
721,12.016907000000002,-12.580476588689645,41.499694541367276,-0.6672522835999597,17.843250651693808,-4.625977433853924,86.77431334268266
722,12.033574000000002,-8.14744990031196,45.73209831940828,7.960427943376148,21.22924769241784,-3.4972590744618044,88.19159908422627
723,12.050241000000002,-6.076688238856312,42.88610962827899,14.989316142481274,18.44067095995616,-7.363815860893652,87.49543337566679
724,12.066908000000002,-5.151862540788073,36.957308648001515,23.401946148506827,13.378237372988021,-14.2750386041151,85.82109479020545
725,12.083575000000002,-1.1271099866699252,34.255713256738616,37.225859239608326,8.077485717824135,-19.88095876726058,82.33407899635102
726,12.100242000000001,10.300862386233685,38.46782416081188,57.86910590452034,3.786992167745648,-19.1968072666995,75.58351365296488
727,12.116909000000001,29.80620819207252,48.74934985148607,82.14872571802141,3.0758774304215755,-9.211158715396689,65.39905054297759
728,12.133576000000001,52.85648569321488,61.66467500351145,104.29329477056119,9.41497717990136,9.574875333784602,53.077477632131306
729,12.150243000000001,71.80609280953101,74.26602020512509,119.5055051159773,24.520783803530584,33.86741598296018,40.19908401712863
730,12.166910000000001,80.89076644346986,86.11936661378529,125.47424857377624,46.63790111107127,59.98077903429517,27.683256323910868
731,12.183577000000001,80.62438964354307,99.15714155399357,121.6794767103901,71.60573646609558,85.83531335453222,15.311576005485783
732,12.200244000000001,77.48329481717732,115.29453420754973,108.60684014253712,95.57720073329087,110.85584597904898,1.3271255706343605
733,12.216911000000001,78.46299819664824,133.98071576459867,87.6012561942265,116.94395859744242,134.43699728889501,-17.25458963408261
734,12.233578000000001,85.24298240760972,152.05077287650613,60.72409063765501,136.26654997570415,155.08925438278183,-43.060493830210575
735,12.250245000000001,93.32756674356641,165.1858012359045,30.425398824714158,155.01093833776338,171.05697778627308,-76.68902505166999
736,12.266912000000001,96.31029017615225,169.0085754139679,-0.8094903930798218,174.22548465610586,181.31234289182603,-116.63263765504304
737,12.283579000000001,90.25922069636343,160.04921298072875,-30.722759675280322,193.572438689573,185.8417698111175,-160.31795368910863
738,12.300246000000001,74.4232093644984,137.6198939329388,-57.19857904932339,211.2273702295032,185.4588863411712,-204.25401269949498
739,12.316913000000001,50.060698630493675,105.329594190393,-78.27854494835498,225.10641141175293,181.8176449579745,-243.35570541947342
740,12.333580000000001,20.631370395242573,69.96865908658583,-93.36755550464056,234.35630216873582,177.39283303345888,-271.8190197566442
741,12.350247000000001,-8.048739976850955,38.093307437105125,-104.73634755277914,239.24707750285995,174.81309508473706,-285.8615531114086
742,12.366914000000001,-30.54822903837027,13.228934783126725,-116.56700946513763,239.61125589665545,175.92977227249804,-285.386607968779
743,12.383581000000001,-45.021420260190695,-4.050509414191519,-131.6523005063487,234.0939297271384,181.65920365201362,-272.70900293109
744,12.400248000000001,-52.57271411009279,-13.733875422896253,-149.46193841244366,221.41014632716377,192.59410798995395,-249.96083628932388
745,12.416915000000001,-54.1578845422859,-14.449074095306717,-167.42033362734526,202.0445331646469,209.28130299622603,-217.8566190057794
746,12.433582000000001,-49.34331027824657,-4.079930358050294,-183.27087736781164,178.17300332392333,231.71803569337874,-176.94955382638747
747,12.450249000000001,-37.363103055442885,18.00377053361947,-196.19549944320545,151.9493934966599,258.74622502539586,-130.02355075874576
748,12.466916000000001,-18.168625768248358,49.51781702499589,-206.4669857706329,124.47093115924235,287.88332803925385,-82.41681954740025
749,12.483583000000001,7.306859797851493,85.72404012907501,-214.368460241862,96.62039082174601,315.44179314857683,-39.11695605511769
750,12.500250000000001,37.07645796267583,121.29644265738318,-219.11360463219947,70.14301401996525,337.01210728288186,-2.1943258438690525
751,12.516917000000001,68.08832982722895,152.45915075145183,-218.5784075862091,46.820545186598885,348.84736701556636,28.010876600557786
752,12.533584000000001,96.50722135415674,178.1891858157898,-210.1811552074716,26.37986994819449,349.6698930310472,50.36382584033801
753,12.550251000000001,118.12825360833139,200.03038534070066,-192.17359407032663,6.1232332020930045,340.93518814480535,63.74968228299868
754,12.566918000000001,128.81133717640705,220.7128200217944,-164.46815190351717,-16.409576306280123,324.7868703990869,70.74156294656694
755,12.583585000000001,125.54327575142958,241.61898304185405,-128.7463761280617,-40.37955224921738,302.1438271259953,78.89202611890154
756,12.600252000000001,108.27906154616582,260.5262202457834,-87.65502153574997,-61.83104368305387,273.43709154548975,96.84771267033187
757,12.616919000000001,80.8044633978573,272.9969829411672,-43.41489292581123,-77.28314531756874,240.70617991409122,128.52821793215608
758,12.633586000000001,48.71118456365354,277.15195978686575,2.543432330011994,-87.1216885290365,207.73237747674654,170.903776849696
759,12.650253000000001,15.67803691764253,275.61107149168726,48.409410238161,-95.44746973226214,177.37807157961208,217.27061054918954
760,12.666920000000001,-18.156882928353273,271.5703478531142,91.85542933140172,-106.58701354214188,148.7864228586443,262.516014377465
761,12.683587000000001,-53.85734448349456,264.8734202032495,132.477313591797,-121.53238668426235,117.80636797654938,305.3012166010401
762,12.700254000000001,-90.2721791733918,253.38214624744307,173.427924352303,-137.55483882621655,80.96036858113654,345.72801074464155
763,12.716921000000001,-123.99415941965742,236.05407254715715,218.77277282080223,-151.02276460953993,38.75280475696858,382.1420439960016
764,12.733588000000001,-152.45322579685543,212.37808001256,269.24863334880087,-160.2121470700854,-5.851037690646937,411.4614056272027
765,12.750255000000001,-174.93542353386513,179.89418547677968,321.47150326873924,-165.38843672942022,-51.95530789819993,432.24087811031296
766,12.766922000000001,-189.32799183493609,134.45627071592958,370.5560871911965,-166.83184332181537,-102.72427041100445,445.3533626123814
767,12.783589000000001,-190.0363460782641,73.1203684960777,412.2387565775757,-163.4088421014242,-163.04864459739719,450.48572751171275
768,12.800256000000001,-172.36633484493285,-3.787673322917566,442.99317627952007,-152.9324910760464,-235.84671185772703,443.46707734393823
769,12.816923000000001,-138.9886172793054,-92.65171174396751,459.9166994846705,-133.60908372062508,-319.7481879901094,419.26736285247057
770,12.833590000000001,-99.58285379336084,-187.27751273522432,461.6078699783236,-105.62565476919521,-408.9038154230923,377.82782766640526
771,12.850257000000001,-63.590461145570806,-279.66369805524863,448.9718929084148,-71.93065701063338,-494.9572928193252,326.0970681802344
772,12.866924000000001,-34.87059087926902,-361.73791787675526,424.6276277004771,-37.00698120058814,-570.4425935067637,274.44589349545004
773,12.883591000000001,-12.796918037363934,-428.1600912983063,391.48470191082276,-4.3253523812698855,-631.0957412152483,230.96235307523654
774,12.900258000000001,4.450000540473639,-477.82793952996934,351.994166499127,24.1942908107492,-674.2351931801627,197.42835568088793
775,12.916925,18.469401247476235,-512.3199135095205,308.21262854622546,45.31519401810705,-694.540402371956,168.90448331154144
776,12.933592,30.12447380853216,-533.3790935716938,261.752019353076,52.37187847744595,-683.5028964741157,137.4940272208948
777,12.950259,39.030762282297104,-542.0915877836859,213.56899184879288,38.77261553064953,-635.8244392833732,98.83759795123385
778,12.966926,44.43556686502493,-538.8850033808521,164.24165658454453,5.094610300475739,-556.7063065204605,56.71355967942717
779,12.983593,46.82897941580133,-522.7271267691223,114.52413475012969,-37.8924230982086,-460.9074247802371,20.71466591523929
780,13.00026,47.78330318125599,-490.64058942345014,65.46736730807639,-74.62617135526236,-362.659754636804,-2.427473078587841
781,13.016927,48.52686113452965,-439.24053418314395,18.173420231427084,-94.44149910820414,-265.8584234899764,-16.49831704275699
782,13.033594,49.47238736875592,-367.33822773047325,-26.36329501367394,-97.00734662987705,-164.42235178686474,-35.333305437360266
783,13.050261,50.203028248838656,-277.118158035184,-67.32093463145195,-89.0622327419485,-52.10656805532961,-74.46345718358762
784,13.066928,49.26923028098036,-173.46281561539567,-103.85461159889311,-76.64213567879378,68.89123494810134,-141.27108392928565
785,13.083595,45.35536663991702,-63.292067240207544,-134.44325163442318,-60.87959731486461,188.67734977981655,-230.10861837899898
786,13.100262,38.79827904647208,44.75254481196506,-156.86313103572456,-40.12689072154679,296.56770642334914,-324.6752738262447
787,13.116929,30.41548740837227,142.09422600551756,-169.67214029326362,-13.983539029227316,385.56125805825616,-405.37269036301154
788,13.133596,19.530496633148562,222.84224087709703,-173.36440123687674,15.259519561505805,451.41491206085357,-457.429050386094
789,13.150263,5.07652693306864,283.8664197010298,-169.09666342278211,43.5108287331624,490.20776782670794,-476.2985886253148
790,13.16693,-12.315274630299333,322.3108448339454,-156.77023422434527,66.25437673702925,498.16459993391936,-467.83932167601847
791,13.183597,-31.21437477599629,334.80392546503873,-135.85929573822676,80.42694777144861,473.3713477359795,-442.7138054202825
792,13.200264,-51.514866802588884,319.96991507508096,-108.26173389147976,86.43550206780046,417.1402736045437,-409.0756927285628
793,13.216931,-74.02876790079179,280.8734903389327,-78.98549793756303,87.91070646717219,334.2539631573975,-369.8843340810884
794,13.233598,-98.05113377270784,224.4026200755436,-53.291072548107216,88.71517451977685,232.62800448905972,-325.83124031285575
795,13.250265,-120.09046508318465,158.07787194388283,-33.56808318780094,90.60693078835472,122.10343841123016,-278.48581025812007
796,13.266932,-135.68083863199763,86.73510743780744,-19.271823246859643,93.75257280186644,11.775755789846743,-230.1929796945326
797,13.283599,-142.98681193996327,11.89725692236216,-9.465542717889873,97.81317971391185,-92.60954560882664,-183.13242911855724
798,13.300266,-144.43006451742724,-65.16576068234114,-4.681212843195089,101.36580344673787,-188.70485204462568,-139.93921395233014
799,13.316933,-144.47744090069608,-140.00156402548797,-5.8586462660105365,101.38517992795242,-275.6551770271506,-103.9801254406687
800,13.3336,-146.0462423665113,-205.8735305425231,-11.831393514305706,95.1306736034229,-353.29621322299073,-77.05640122963493
801,13.350267,-148.74170879233827,-258.5390313940502,-18.665412306822823,82.94210490560633,-422.657522996911,-56.85259898088962
802,13.366934,-149.68736689182762,-299.2826248249216,-21.91067065976713,68.29097573524916,-484.8167789013635,-38.37146615362147
803,13.383601,-145.9017280923598,-332.75496408533763,-19.5878251172467,54.3268947779341,-537.8660167451828,-18.790445662544073
804,13.400268,-136.50319707275355,-362.2296871504466,-13.319287451317507,40.488565939096986,-575.8894915372197,-0.18439521032515938
805,13.416935,-123.22987775938398,-386.88064945798817,-7.259559893816184,23.17112036599556,-592.0290634144403,13.200269636684006
806,13.433602,-108.91876837401908,-402.47709345009525,-5.971770143491618,-0.20599996904532647,-582.2597702173916,19.837981220469196
807,13.450269,-94.95594617134307,-403.4578027950717,-12.130719873907355,-28.72868447411208,-545.5039604952789,22.1852443566827
808,13.466936,-79.93380871239309,-384.5344745327589,-25.317071882962964,-59.65453670008007,-480.9847229555529,22.825188555419444
809,13.483603,-61.22044938106576,-342.0352324887149,-43.30484428966723,-90.63509029207194,-387.54350559068575,20.069002052184352
810,13.50027,-37.72857357191369,-275.14249114519987,-64.43612051095106,-118.90261160645734,-266.0381607973639,8.54479071608596
811,13.516937,-10.580954596892727,-186.04148169624057,-87.83542890479268,-139.85684936958194,-121.3381415714863,-15.327503861844445
812,13.533604,18.337467609412357,-79.23828726173701,-111.69764040995572,-149.15913188965416,37.563276764423634,-48.79699445224204
813,13.550271,47.524558986774935,38.510440842793614,-133.0197335016689,-147.0608928870808,197.98524329278814,-83.7930690728302
814,13.566938,75.78419837571543,158.21813564375915,-148.96689711778689,-139.81243708630964,345.4202104310637,-111.826574108242
815,13.583605,101.34584981321639,270.1000168617132,-156.75304077445452,-135.4193541110175,467.7004187028666,-127.48809231356742
816,13.600272,120.9011008618349,365.15346181566724,-152.33683102127296,-136.40083238804607,557.7845841518438,-127.97518401255121
817,13.616939,130.0252420345044,435.0427766187714,-131.73051479917854,-136.1687415573901,612.0082802858267,-111.46970243137932
818,13.633606,125.6113240207822,471.9808064487014,-94.80811360334887,-124.06915105688995,626.9913989916517,-78.37211630796313
819,13.650273,108.44505124825453,471.1676744554937,-46.81797731027453,-95.57448513966511,600.2670762549255,-34.02915895235694
820,13.66694,83.43255945570462,434.2746482488683,4.341085531726639,-57.24682877021544,534.5669182589666,12.735941480169311
821,13.683607,57.0633151203209,370.1653082207972,51.735517835766984,-21.432846571694995,440.80016089440187,55.975028029485486
822,13.700274,34.104262044164834,291.7862745533253,91.01751688086449,2.819518915598996,335.44571385007254,96.80556404741974
823,13.716941,16.03241017388049,211.12980644238795,120.48615001240825,13.702062960138665,233.35769315987886,140.7065487649303
824,13.733608,1.9721994101382938,134.75008504212607,140.3784710954461,14.240391160743012,141.5856639714333,192.3143198700856
825,13.750275,-9.041790911839373,62.740809293881725,151.5359929131293,8.270481154740473,58.87711963273641,253.64688933233776
826,13.766942,-16.307274296961772,-7.296092956088046,154.65519202693778,-1.7967449557306703,-19.848344386199713,324.04777435046395
827,13.783609,-17.828561161469402,-75.01997948459322,151.13220805705265,-15.400787816319497,-98.42763536675344,397.33991936527514
828,13.800276,-12.737589201936533,-137.01388712410574,143.86730823501938,-32.94041302267748,-177.04918983659502,459.669331158694
829,13.816943,-2.9278503148205184,-191.24211841836913,135.81703235632165,-53.75303090536074,-252.8436985097386,495.3864969628892
830,13.83361,8.556792427421184,-239.21600785171978,127.5225260303537,-74.83602336861873,-322.0269336305006,497.72119661290253
831,13.850277,20.433372634029098,-282.10722793101877,117.09510940798882,-92.36557860335334,-381.7648766402749,472.4367729329179
832,13.866944,33.31279114971877,-316.2571559555256,103.06761887630276,-104.36621574867077,-430.68002835767277,431.09770303369396
833,13.883611000000002,47.098649421829506,-334.8863914422933,86.60680722046392,-111.07104167498495,-468.2497997786967,382.4391604626932
834,13.900278000000002,59.8217916281522,-334.6177736950394,70.94238164012825,-113.00898064081292,-493.86078709292326,329.50941057093473
835,13.916945000000002,69.58194348514517,-319.03530652836974,59.60114277149211,-109.61642248453174,-506.01416014519816,272.6383343775892
836,13.933612000000002,76.50036820079742,-294.77468966853905,55.204445125438994,-99.57956561940091,-502.1596646505753,213.97420336886353
837,13.950279000000002,81.94155868196101,-264.85642926598445,58.78963611694189,-82.13027959109114,-479.3107833449234,159.08814424734592
838,13.966946000000002,86.34539061190733,-227.72830596892362,69.52145084992588,-58.14605256844932,-434.7777834792563,114.0924222990931
839,13.983613000000002,88.61190407965442,-182.5126729136303,85.10126941894993,-29.931783273341473,-366.3755758987078,81.21703311008363
840,14.000280000000002,87.59211370670164,-131.7803034915277,102.69676707868354,0.31975635950380743,-272.196184203528,57.14289327729492
841,14.016947000000002,83.73714917956224,-77.46681311057556,119.56619176145387,31.63736290830832,-150.54446032328894,35.24779436415464
842,14.033614000000002,79.15733814261105,-16.941983857496936,132.51386657592428,63.902329112176375,-1.1991254579371162,9.44464252672486
843,14.050281000000002,75.98607676105982,54.15308854904477,136.67660106452337,97.08018634767255,171.34084184820867,-23.45671375001459
844,14.066948000000002,74.5082489713257,136.292060291559,125.76528587660296,130.8181349366053,354.68588968750726,-64.13686976320685
845,14.083615000000002,73.3192249345577,224.36139606278465,94.94945901291709,164.01509123202376,528.9241468263656,-112.40879833509523
846,14.100282000000002,71.70736726634416,309.6547819331346,44.364634168661205,194.8834790624938,671.2512560178141,-167.70738781374314
847,14.116949000000002,70.7758538762604,382.2981898589775,-20.173005645472426,221.95206114990953,762.5835271736121,-227.9004313653886
848,14.133616000000002,70.89559466932278,433.7861888708437,-89.87893321015713,244.11078845593917,793.8402866294518,-287.7707169340863
849,14.150283000000002,68.79465977850407,460.01060225219135,-156.0064806024163,258.520865155397,769.7173908275036,-338.6904488386454
850,14.166950000000002,59.094314472939345,462.6856601305117,-210.38655600292282,259.43387765582605,706.7626789189014,-370.65436188084345
851,14.183617000000002,39.22719074623219,447.0017449097172,-245.4671389798592,241.2337051139097,624.5495222149284,-376.817454279313
852,14.200284000000002,11.798474286428144,416.9139208377686,-257.4068364707521,203.7214048877862,534.9113614679862,-357.98711439816316
853,14.216951000000002,-18.018941037488837,372.2367012269613,-249.8192742446962,154.23448269700026,437.6406449531236,-322.9873947848594
854,14.233618000000002,-45.83026927993941,309.81895549354033,-231.99830894055697,104.07627631150169,325.78151682932713,-284.01648740919256
855,14.250285000000002,-68.39088508821743,226.79006814939487,-212.3033166018948,62.22381792353336,194.71826642545938,-250.8305881250913
856,14.266952000000002,-82.98180111726373,123.02080759140136,-194.09122028970984,31.67332483055779,47.13025220353947,-227.69661440620018
857,14.283619000000002,-88.41598914878782,2.414035105535933,-177.24194897756541,10.91548744289084,-108.19607385691329,-213.5636350306272
858,14.300286000000002,-86.37633655561052,-126.79160608630487,-161.43257038141792,-2.215348141453113,-260.28679938255004,-204.12681977120943
859,14.316953000000002,-80.8765878118502,-253.7254671072351,-147.42978788532733,-8.648501676107713,-399.498924462366,-194.68702248329464
860,14.333620000000002,-75.79327930216924,-368.4503967096026,-136.03980543257342,-8.591617102236832,-520.0102644107185,-182.54689876506274
861,14.350287000000002,-72.24442582609933,-464.90753214105564,-126.41684395357993,-1.8005313848068765,-621.0402177024873,-167.8117124981868
862,14.366954000000002,-68.2363962888011,-541.4678387959602,-116.24271165971021,12.939490239039218,-705.8952716555814,-152.58919133748026
863,14.383621000000002,-60.93846605454797,-599.8000596638188,-104.20227287292904,37.100827595375236,-778.8324542812784,-139.23465544317364
864,14.400288000000002,-48.7120821760145,-642.9317448603014,-91.45126565479099,70.19020161501574,-841.5279658622585,-128.2359655647378
865,14.416955000000002,-30.980424967481767,-672.2130989969844,-79.83629290107908,108.55371685939525,-891.5272383762338,-116.76558329188276
866,14.433622000000002,-7.780949620508095,-683.9096163803086,-69.51772359122442,146.85208289483464,-923.3856076752031,-99.25557467285054
867,14.450289000000001,19.411960125291664,-668.3037903374594,-58.86239581508933,180.23062431074658,-930.4194270781685,-70.29348082517777
868,14.466956000000001,47.42638789547817,-613.5719159436682,-45.02692698469688,204.31725900665737,-904.6200421875283,-28.589886391528026
869,14.483623000000001,73.27261396899783,-512.5536676291294,-22.871279285914824,213.95657423501933,-834.6258148381277,19.450962794559928
870,14.500290000000001,96.20268050299109,-366.5550716259913,16.281857649792016,203.74476075178006,-702.1423817922397,57.20384087931021
871,14.516957000000001,117.54528480106586,-182.04927626270552,82.68766579964274,169.3591985933689,-477.1032992522556,57.28048748376734
872,14.533624000000001,138.80175858212505,35.24890075481048,182.264423382455,106.63902527271703,-118.42756359959913,-14.21687892427817
873,14.550291000000001,159.36292579612552,278.79113215568026,309.50984940284457,12.787948837347361,406.2768983618515,-186.08387650654754
874,14.566958000000001,174.09745220552796,530.7542521953803,443.79127327606363,-101.90296943450045,1081.7176407387606,-466.8158730061613
875,14.583625000000001,172.69838055694487,756.0832742304374,552.7931997828188,-197.33694483247095,1814.507982646397,-837.8926006648442
876,14.600292000000001,143.92472495963344,913.1323315738621,602.6787885626629,-204.20711810297524,2448.1287589250633,-1265.0863315224406
877,14.616959000000001,82.28400634637806,975.1299201325919,569.0864764796181,-55.36843957408409,2829.85826230374,-1718.4446974659645
878,14.633626000000001,-9.785602553219285,944.588279041239,443.37337729104087,269.26666822694256,2888.7902352942574,-2175.300805948292
879,14.650293000000001,-124.5434489719882,848.7624438990941,235.37955402761415,716.5862035746989,2662.172953412138,-2594.668588952124
880,14.666960000000001,-249.92036245021634,718.3279974590811,-24.056835495657033,1166.7511917076692,2241.050000551833,-2887.228435895967
881,14.683627000000001,-368.1278373407411,562.5441901938746,-285.2223651202818,1462.9202882207442,1679.291630865563,-2914.5389975978833
882,14.700294000000001,-457.7365258722009,360.6075814289409,-492.64604319072106,1457.050025586323,954.7230495443346,-2519.868743603412
883,14.716961000000001,-499.01236065569526,85.01789163321043,-604.2612719699305,1074.87140848103,32.5665232311849,-1580.3970659300016
884,14.733628000000001,-476.0299188564511,-251.81509992241732,-604.5867033686184,382.8429959932524,-1016.3435785361542,-97.09379466069441
885,14.750295000000001,-376.4081137164279,-571.1967415806264,-507.20436539655384,-399.97860580191593,-1965.648335153095,1692.3358723266297
886,14.766962000000001,-197.36273785035817,-766.1037588552006,-348.70357734662764,-995.8813218056207,-2543.332598804123,3305.6509246864875
887,14.783629000000001,41.62707156460263,-784.8875769758097,-175.74706932617252,-1232.74437919883,-2635.317520141608,4238.520140875697
888,14.800296000000001,293.62952183947806,-674.6902655794327,-30.29620010774506,-1153.3746401147998,-2378.16435476107,4298.900685556141
889,14.816963000000001,498.6548742476427,-531.1443426001867,57.856841775518035,-969.9344303834367,-2029.8452397587157,3735.4615615261055
890,14.833630000000001,610.3624449450456,-414.959611385243,71.47113059656294,-899.7888440909046,-1765.5552201908458,3017.877856274581
891,14.850297000000001,614.4000079149043,-330.72932882634,9.656595840489004,-1023.4499467881192,-1612.4428104485237,2487.4986038109782
892,14.866964000000001,526.898866756039,-265.81391439712667,-104.28569001695882,-1266.9249781109374,-1523.2566318808188,2187.6178342655085
893,14.883631000000001,380.5568853492446,-214.67942000285868,-225.28095330581857,-1484.9122115683508,-1439.0419392660897,1952.3653100586114
894,14.900298000000001,211.52802861200053,-166.57379912468764,-306.52816167878336,-1553.770895213348,-1292.728243282043,1607.3895516809248
895,14.916965000000001,51.71685412122038,-99.90277036873687,-324.2431538459013,-1420.576035179734,-1022.9186414089891,1107.8605198524729
896,14.933632000000001,-75.99767936277652,-3.296284502250252,-287.64946919739583,-1109.7885493396348,-619.8219312035214,540.8102537349876
897,14.950299000000001,-160.768563099777,106.7584172238804,-227.43732763970414,-700.0540423473033,-145.95649791069977,31.064906244840202
898,14.966966000000001,-203.37323632415774,197.6778088064794,-172.9449234473122,-282.083298565909,301.7837176347273,-352.32038700872334
899,14.983633000000001,-212.30746282025257,248.9181488605002,-135.8777244545413,78.97395274077759,652.9678079003921,-617.9747106717383
900,15.000300000000001,-199.54920448279023,265.5933640144174,-111.07477592246221,353.968980028446,892.7166249385461,-809.6522472438205
901,15.016967000000001,-178.21143139153347,266.6116731202586,-88.49999868492847,537.0647846829064,1043.4887426291846,-956.5508853448281
902,15.033634000000001,-160.4406469986673,265.93666520929537,-61.802128806527676,632.2732642238122,1130.5096414659738,-1057.0794300052632
903,15.050301000000001,-154.0670049922811,267.60130029629534,-27.317457115935934,649.950088603314,1166.4329808294356,-1093.4430337194103
904,15.066968000000001,-160.14098254293737,272.35809860116285,19.3793248011635,606.0903311298922,1158.0507225855447,-1054.4459027225494
905,15.083635000000001,-173.7236210932051,281.59316275345986,81.93512142240733,518.0253398482635,1115.3018557187127,-948.5591986817872
906,15.100302000000001,-186.98944422833432,293.91791620136723,158.5450938812483,400.9884674664918,1050.5841070758147,-800.3265481230965
907,15.116969000000001,-192.43524817864372,301.3492111584491,240.1646799374096,270.54239713099935,972.1465803845399,-635.517203487805
908,15.133636000000001,-185.23058965919404,291.5399387523925,313.77761018305824,146.358465451013,880.188901560967,-469.0627376563756
909,15.150303000000001,-164.1008336032466,255.29636313646375,368.4535323911633,49.19949313337459,769.7017162989189,-305.34929830951614
910,15.166970000000001,-130.22932440098856,193.17705143373556,400.521412379804,-8.541101094813296,637.0995443200115,-146.78114706713347
911,15.183637000000001,-85.71543241378244,115.1757261182345,414.3578043563583,-29.033696049545817,484.5780925396482,0.37362387024580457
912,15.200304000000001,-34.25176369607816,33.42472499099577,417.511511802628,-25.027705098363153,319.7291470679669,127.77173857569882
