Frame,Time,RightHand_Accel_X,RightHand_Accel_Y,RightHand_Accel_Z,LeftHand_Accel_X,LeftHand_Accel_Y,LeftHand_Accel_Z
0,0.0,141.91699541093973,119.95434111361055,83.27897693593899,-105.1272274213847,-62.11857464640116,-16.50387900980374
6,0.016668,39.59773577507196,-76.27973882036615,-60.45566736355842,-4.784356931377445,3.619800560976227,54.22435858123799
12,0.033336,-40.74512853581616,32.0997349485878,17.104153194897528,-86.36670078916572,-32.50952173432117,-11.67732715721015
18,0.050004,23.70409050223201,-7.848659731462961,-19.566960167020557,-0.9799360573274676,9.801538845907649,-6.997234431380088
24,0.066672,8.51714666848187,2.721876186420173,-9.308065665943625,60.78673883693037,-41.80160294764125,28.430931773787886
30,0.08334,-17.318527511856814,15.227184473833304,14.365646262575368,-38.814794239039045,-22.061852539273467,10.217137337237734
36,0.100008,33.18329885117329,-53.73330158985186,-51.75107516912985,30.394740737099056,34.725608449521346,15.963395184892384
42,0.116676,-59.982990345476175,39.80299709677315,74.41652088645031,-43.26671565870166,-17.041441475891535,-0.3174225699342319
48,0.133344,22.845253598004252,5.391527937274258,-17.677906653186447,-48.75604372143992,-24.219196223949726,-63.57077303887526
54,0.150012,-7.878365594575965,43.98749908040072,38.68625876820465,11.458517358137422,37.61353550992328,0.4388286556896457
60,0.16668,86.58584331081013,14.232065001110922,9.754947521324912,42.56409161434999,84.50730080610191,12.482908089148324
66,0.183348,-57.937551402673975,-48.81076371471194,-70.39990992542994,-5.929506984937793,-19.254863177762857,-15.704609856167243
72,0.200016,-9.76802660639792,39.85558841039854,44.8086755968441,-31.4517566708711,-36.90136451926955,-2.419215541627569
78,0.216684,-18.730506836309488,20.830740027987385,46.272750708532215,86.31141776183745,99.68885934345018,-40.054007759165216
84,0.233352,-14.396487760002223,33.42441151760518,21.13299240699903,-11.620777155924824,17.23721889696439,-2.137819727554777
90,0.25002,8.891395268974904,-3.689769014743789,-5.362791193151521,14.537232319481095,23.439400975376135,-12.839686217672826
96,0.266688,-18.290893605838097,8.514456680818633,44.24270429612782,17.091473368625017,64.12955070834437,1.0390235822059577
102,0.283356,118.448424493431,72.02822771617726,27.409659624723027,-1.001872361550776,5.714728803395104,-17.678834431461993
108,0.300024,-41.62434828213748,-10.50583751176371,45.06391719867453,26.95712153132356,50.38392311486595,0.8323690922004445
114,0.316692,-19.34728585475323,27.40691014743136,28.86391883900348,-14.641406264337304,46.75056488442991,-28.413917867491215
120,0.33336,2.5723636408095727,-7.030468590952633,31.037601954899777,-2.038446854192588,-3.065113156517429,1.9335833886599487
126,0.350028,-46.28586784402127,100.77696241502596,29.454810336877376,6.763737579434828,13.930077921527705,-14.407251866890206
132,0.366696,8.80908410140726,-121.8077535553393,-55.97643393631363,34.96225033301065,31.300500104952263,-20.00335900833353
138,0.383364,-6.2003304546078,2.3816021832176117,51.15234167967198,4.287418963228977,9.088005104810158,16.31167580067366
144,0.400032,-6.029866270409176,41.45767874759143,-30.520354623675797,10.747672353722358,7.991840072800594,10.643140646806938
150,0.4167,16.68507184060516,-35.12762645890705,7.031674209746793,14.167193594688438,6.792957837167077,10.88621342948504
156,0.433368,25.893552366331196,-68.0564609080798,-29.425701682332356,-17.471972009701574,-43.09003292372429,-3.827651014714795
162,0.450036,-21.99356320306657,-23.808192419686076,-58.32849431395746,9.918480984465326,-24.799233131944384,11.694683303687285
168,0.466704,14.002787559816948,26.519491297092824,9.457437501485662,-37.33256912399712,-37.34392454318517,32.076217479691145
174,0.483372,84.05103270914998,-8.248165461684561,3.5571779697697368,20.112661706884857,18.629930515034992,-14.509865807838551
180,0.50004,-42.9090556275336,-0.2003353567716779,-71.22459954419708,10.034708042318671,-2.7150691559337883,-20.74880610924315
186,0.5167080000000001,-14.753637626287029,-28.973545481411666,25.94156325867784,23.73059159035156,-35.274751763902216,78.62094117235381
192,0.5333760000000001,4.880338849148814,-44.66668732145888,-2.201048441137728,-3.1103033052670166,-11.508023745708453,17.072030744895766
198,0.550044,-35.17746603898863,20.191315811923182,-4.969812402339672,3.220140146266333,-0.7972572934114384,-6.453370026290815
204,0.566712,-48.88452978578381,26.82956976249279,1.0156114184766674,2.479268997226596,13.855207374140772,3.687926320268045
210,0.58338,37.156034272545234,-24.29170474943461,-47.86406719634559,33.89982047279738,15.011186241567042,13.83233846251693
216,0.600048,101.53920997712268,48.01610972689518,72.6130200875901,-6.235163829950039,-38.03819308326887,48.15012708000637
222,0.616716,-118.40678585556566,23.82481018474044,-55.80389530292865,-1.094504965290617,12.89900474155912,-38.51790057660925
228,0.6333840000000001,5.515694666008039,-8.741706518027566,13.89592453691674,-7.53980758854185,-12.702726155607843,-15.180379444498756
234,0.6500520000000001,-164.62733345420668,-118.300624344841,-78.59457266429231,25.32742007034205,37.21757712844988,-9.868334502838756
240,0.66672,-31.596879381508813,15.712969106681872,-31.72736893325224,1.5149887962888346,-23.919205839073424,15.96712084191265
246,0.683388,53.701776841040605,84.49308034944421,83.69095057908413,24.45700896842339,-35.702215614309594,-17.35569890800901
252,0.700056,6.075427081253618,-3.2483787101804724,27.5130455701528,3.283954096136973,80.5151233620152,12.757716967774048
258,0.716724,-9.26057626578458,27.6833420503379,-10.43001541533053,-33.87739110656185,7.671496934906359,-56.87629503672475
264,0.733392,-81.47567803097837,60.124998603459886,25.535749711925348,5.754343217981668,-2.4061983382520404,8.085037760074393
270,0.7500600000000001,66.42829065910954,-18.512772197725848,20.27591413611041,-6.033039461692377,16.247292975582944,-6.181097216396617
276,0.7667280000000001,-45.577634830583,-34.04012304220161,-31.16023150248574,-8.255568457158066,-8.166126233849283,-16.638157046791974
282,0.783396,24.60670698275758,30.62213745579864,43.320114404386274,54.797669439123126,64.54235347858297,18.93582557323307
288,0.800064,-4.386633732197119,-16.667579328813314,-40.584010195196974,-28.35584438527379,4.306809840632609,-15.24168530280414
294,0.816732,-22.298803839201675,67.26433893545048,15.993425171691651,-9.701419151647372,-13.684994508168447,4.695587200336763
300,0.8334,-49.59911542711778,5.657678730503921,0.1286078279370739,-13.023134743762832,23.69770549471412,-37.09114916546899
306,0.850068,67.84279315015016,6.8705334046913045,39.30407779239769,-29.70619176237041,-36.09494402143216,10.304089575527572
312,0.8667360000000001,-31.423333844975875,16.9591720710171,65.74799631505468,-20.967414258371647,-26.28266036524277,30.79709352590558
318,0.8834040000000001,64.89226174989147,-18.151220658677914,-20.954509975954235,1.9696986086636443,-10.8463104793073,-47.46547336162957
324,0.900072,-26.133664550967765,-15.022001240732308,-14.581523391476992,10.559228381006232,14.536798423022509,32.23890100770883
330,0.91674,47.30809312353449,-37.31278267606776,106.78390548345652,-5.293256068125272,-0.7133627056933811,-28.7122611692657
336,0.933408,4.485499259439273,46.54951951808364,-12.553407463902388,21.221134948898637,-1.890022227551425,35.42277319783506
342,0.950076,-38.85054331413069,16.633047759593993,-29.4168699480134,-7.982511505898787,-12.936705557096236,-13.078038780218243
348,0.966744,44.211469211664415,15.35298837540434,13.867350074754524,-0.8219240716900704,38.01535219404744,-1.3633187363790311
354,0.983412,26.753238796624856,-21.18377201473828,-30.13920211203383,4.76418355863585,-31.750537253531533,-0.8902813015384314
360,1.00008,-6.144892915227915,3.5881091539376344,-4.412029861447409,-52.20392832222856,-13.00864692001796,-17.701103797848393
366,1.016748,28.264391929087,-3.602311334541266,-11.41841170005302,11.254809971355206,-9.82297350273633,4.620441196508897
372,1.033416,-2.920517676119445,-8.55163385938946,21.95745245653672,-5.6272108015381015,35.03449290907587,-9.651189743439952
378,1.050084,-29.38695736814965,19.88007220307172,22.967494825263422,-14.542344956580385,18.725682429335,1.1658689916194067
384,1.066752,-89.83737800934271,-23.580209770969592,-67.7549435521489,18.863799342038075,-54.060537606296045,-29.489362203738143
390,1.08342,73.30785204382369,9.863505301883103,10.210578845030682,-9.110643888881151,-13.309118261736629,33.935886900054264
396,1.100088,14.693425292475784,-17.620058473644082,5.492225470864141,0.7604327815988725,41.92003035908719,0.7685597611323942
402,1.116756,9.956690216249404,19.56687766067696,-3.1111973089069807,12.923582116621446,48.67663219957525,-29.303246751975863
408,1.133424,75.61460095536549,12.183556767753952,22.35968219707349,46.04258104718802,-20.38027702292063,9.444143845056717
414,1.150092,-46.76171645735084,-61.999522814367324,-54.137155854881854,-13.949342290550652,-15.3605684052894,-10.106501814553118
420,1.16676,10.043884311541444,-5.999534122524267,5.83639536393726,1.1828675356441956,23.51467596088606,-3.939168201424434
426,1.183428,-3.3486400268825705,14.769198578759909,-5.161635236357401,2.513215019948384,34.561252607119435,-25.78660982359984
432,1.200096,-19.885791700840567,0.2271260840784279,-3.351488460130033,3.419549823206953,-11.8441305251358,-23.00154626723608
438,1.216764,-23.22018495358117,-20.881383802715916,-4.092729856467944,9.919761279975818,-15.646321172326122,4.793008607468149
444,1.233432,-66.69909554690837,-17.534542724556196,-28.1371149922663,-10.51894523555106,15.348947486598664,18.615634455038656
450,1.2501,51.15964983962884,38.41290129787987,21.92026847291155,-1.0990422054656748,24.35293771533753,-22.8409435737751
456,1.266768,3.8981848337911886,4.586378825241695,11.702393653312928,-1.90675765026078,30.60957205732316,-21.337137966598583
462,1.283436,3.7124838269034406,-5.9263340370378055,-17.561887378507375,3.4883397772592715,-18.19745245677455,-11.260505470737414
468,1.300104,-27.11779877500934,-19.027803468408237,-16.16746001594975,-3.7835376247825225,-21.522343052089333,-1.5986852979540371
474,1.316772,42.88234354003814,6.125808108676029,18.14248413681155,9.86308743787456,8.159691741035093,11.355265671056022
480,1.33344,-23.41543132098164,42.02220540065062,24.109438136399056,1.2608454585096645,41.30277764181293,-13.740528549990064
486,1.350108,6.834862804738856,6.205589085498964,-8.490167102576612,10.10392795143624,22.382473975179348,-14.56533220214756
492,1.366776,6.956127958050812,-7.275614559081532,18.47963727216406,-8.837279140639074,-3.027018837208354,-0.6070667394450006
498,1.383444,6.017090180641247,5.9906301603445735,-12.755005553126129,-14.617155597034971,-18.056064858472425,0.7856240868621729
504,1.400112,-13.474152049209328,-6.725151267203497,-7.570871877581136,19.178550252945342,-7.209659143711093,10.409089418020407
510,1.4167800000000002,-0.5977090949509206,7.873948905180942,17.627296076092797,-11.602499877949048,14.629992478213428,2.559397421398887
516,1.433448,2.30930850776864,13.430558208728652,15.481586634381232,3.761416503124983,14.723733473143202,12.445975193094457
522,1.450116,-12.047696931803266,24.049404432198745,12.193161874716491,-5.141481376846516,40.725601798788325,-41.80518425044294
528,1.466784,38.49938214167621,-49.83855643356765,-14.20613830267412,-9.949952246234297,-41.97554286760844,37.82306916691186
534,1.483452,-0.9878121143862127,1.1121034798010965,-0.0756679630225329,13.3988106166835,-11.256925612271091,8.188600356741219
540,1.50012,-47.557620042478064,46.5304159813544,50.1226501623639,-29.21591781621885,-17.555862709446952,-10.550448008307017
546,1.516788,44.15452095972721,-2.7455084674056582,-8.17619480367405,-2.673491024127585,-10.181782503727623,13.976981489929136
552,1.5334560000000002,12.237652670112382,22.67249518148465,3.0250722281090816,28.947997442039725,10.588610737323844,-3.4786535605858204
558,1.550124,19.317833650935825,-49.810258763632135,-40.66856987772307,-1.1858171706890168,3.8466778520590457,-18.2502054472918
564,1.566792,-32.068435109587945,-27.09897037690573,-12.769340927864969,-12.107030854286297,-13.547457100979544,-6.373146831845142
570,1.58346,-13.925207990757633,-7.601021139627994,0.0042704004930576,5.190064814139812,-21.500327526269363,25.228063897714257
576,1.600128,-1.8217964626162733,-10.394234210831838,-13.77421722735719,-9.599312992426016,21.451670615720086,-1.7106905079020924
582,1.616796,20.30672217836772,62.38174323184069,32.78806285996474,-6.071893574171085,19.56271974024303,-16.355855679988434
588,1.633464,-14.687341791992464,9.18115601608438,-25.35529027701151,-10.80384151902826,18.22189049180348,-7.037064191841038
594,1.6501320000000002,-26.777108382888,58.09779311123727,30.258178984186117,-3.4425806761509463,-30.648875713274784,12.776460416717432
600,1.6668,24.52074308875473,6.762022441150229,37.77071127220867,-3.4482543268875343,5.9530285024355205,7.935364460775212
606,1.683468,-21.49441926053288,4.1755569310866605,10.629657464420234,-28.128768410058555,8.11247407890118,-9.545314560498207
612,1.700136,6.812936338010268,-3.9362352450765874,-3.10129386424896,-47.49066501124223,1.8011550121032087,-40.11021100508174
618,1.716804,-37.87433778229831,-10.519774326836163,-30.05496451200853,44.15547856512758,5.923255982234741,10.783681187052592
624,1.733472,27.497631085770216,14.736582998670611,24.92605849223255,-12.920545990711291,-4.045396968047022,-5.678539367046808
630,1.75014,-31.737233879912807,-6.207427383268529,-2.3391630253351128,-10.550036743330311,-9.304543442276856,7.856370325386171
636,1.7668080000000002,-4.636107691483375,-1.8884265423649056,20.89405475919846,9.006455451694887,22.58574121502225,6.147865941891903
642,1.783476,-78.8368058828843,-56.41262869881929,-61.22621061351004,4.069390523428526,13.1505227576826,-30.6110614564338
648,1.800144,57.44129028320268,54.46578592506404,50.44940864517692,-22.83443605030961,8.238691629946304,12.250170997400843
654,1.816812,72.05151514499352,-7.419951973270277,12.166015813769132,12.559234676815798,10.594254710035903,-7.985094537778192
660,1.83348,-13.593566962489383,6.960844891650576,-4.568777606682336,24.567971738156,7.907968313060387,-4.858730961374185
666,1.850148,-73.1935983075175,-88.5437924220945,-62.76756287138368,-14.750008381169645,-31.064389339383773,11.841448942198628
672,1.866816,11.875384116396589,54.016935713023685,9.640102388334,-1.602672286307226,-17.87491279896858,10.22011184475355
678,1.883484,13.914681503605909,50.74430716534023,10.59669985952083,24.374643405039684,10.586550945554745,-10.127892266200906
684,1.900152,-30.21750841156053,-30.89714504420109,-9.289949686391669,19.708775976406915,-31.910783049259813,24.783958753780794
690,1.91682,37.46947453980965,-12.003668552229492,10.373146787492049,-21.460746552730544,-9.771176166753015,-5.95217331149996
696,1.933488,4.563191308784841,-56.14790091043564,0.2726656628617092,14.431200802197004,0.7210951970409134,56.73104582784836
702,1.950156,-25.219570317557128,64.68162549854473,-27.37357643675656,20.605906935096087,13.365072260450985,13.94490496634116
708,1.966824,2.5781466636875066,-4.975761551715653,9.471296255370737,-6.176333212626174,-7.489604254145156,-17.455185773500688
714,1.983492,3.54853466822685,6.866332788950567,-1.055382440127584,-8.272160342359022,-16.89385877729985,-8.365248810641766
720,2.00016,-45.32407206248567,9.894211524290393,26.404983514643863,-15.373115962004018,9.699428016039889,4.76683861072992
726,2.016828,33.27890600771847,20.654871804372508,40.6139049531312,-6.180858101373823,-31.231398803402477,7.487575699817132
732,2.033496,25.36902373060792,18.26740857248231,-5.252900359436545,18.43129852805266,5.641480431749249,-31.91831467988611
738,2.050164,29.471311016582767,-9.193339130943826,-24.18174284354123,-1.532388130434725,-15.065098305619742,18.679249796999525
744,2.066832,-29.98467651743356,15.823694454148876,44.23325786470115,-17.92329302233126,18.08587835938291,-18.62379522677677
750,2.0835,-4.851985504696069,-5.0007699477708885,5.085054241841075,61.70273024636018,-11.90643837184482,32.485972817422976
756,2.100168,-11.997740497583354,10.408761579916618,1.6708320275869326,17.237678353428038,-31.829060814200915,54.9336819471621
762,2.116836,13.173452546938462,11.683561811125584,28.886405975123477,0.4491064098461912,62.122010719335655,-25.26516330027035
768,2.1335040000000003,-0.5060769302813504,-1.8960089636849105,3.456814914565218,7.4670162891370975,-25.467165603417264,-3.308530188803721
774,2.150172,-24.515526455328377,9.295237600085656,1.1198280293244345,1.0991909280338268,-25.701463879805317,8.595432523103334
780,2.16684,59.95316698481086,24.20921246768581,15.353819008879778,2.636832416641456,36.25397383463027,5.01176594018092
786,2.183508,-68.41178155114699,23.27984999702705,31.657529157230844,-42.77323766602059,1.8003322963655073,-7.590362494992099
792,2.200176,71.75292453456952,-9.539033140643,-60.83330239814528,43.41121300763402,-11.589578132898142,-10.837209310012836
798,2.216844,-26.977778167804967,13.59065692950072,7.449277874294337,27.35385860350314,31.52280600459069,-10.101013780434904
804,2.233512,-35.32389142359169,77.76556239268345,13.701438191060737,11.801999382940126,-9.36017109606972,12.505187236968029
810,2.2501800000000003,42.5329304034469,-48.35798064494232,-11.036326492266308,-16.78599777987478,9.51702569454556,11.685476258002687
816,2.266848,0.0613105879605768,-23.738188749037928,-5.962941474348133,12.644853660375311,-14.38352494538208,5.172971193518456
822,2.283516,96.02007054737967,-7.547475296335236,14.735839180141296,-1.386277561257976,19.936672957435103,-10.565798402025004
828,2.300184,-19.95136930159389,-9.7445112016726,-7.680485127798808,3.2238436822649588,20.07851855442114,6.16075888999162
834,2.316852,19.607109169992697,29.126971027323037,10.197500215238907,5.065606164673342,-22.69842754965159,5.6342033255734405
840,2.33352,15.459970713930533,-17.20973004772143,-14.397147536407433,29.882961835327286,-1.7381303847849523,6.624919053206494
846,2.350188,-29.680140547486157,-16.565132247077564,-12.875102369556666,-1.718670485257204,12.80511433969749,9.31745715830266
852,2.3668560000000003,8.960790427188495,-16.253193542969935,-14.160967991052626,2.99177277384893,-20.13704753067453,5.965218129385176
858,2.383524,54.01516231483309,28.308704048262214,35.28808199934619,29.13372364456551,15.504467450899089,-11.355828789087177
864,2.400192,-95.43394640843482,-47.96685793341837,-5.3174302285576704,1.0614723470168297,2.830140002236508,6.736496506931012
870,2.41686,-16.15383549493993,10.977773724503702,5.031137042896109,-5.184352436588579,-8.230779460560814,3.754885653052893
876,2.433528,15.646313934973556,3.086377930799464,-24.320413288725987,9.610949347321572,28.625381602107748,-11.275896044796824
882,2.450196,-22.744884370277628,-33.02653577549332,-11.666601574324975,1.377354667508822,-13.532314424359038,6.5791504526519375
888,2.466864,-8.186133380731366,-6.105597598195917,-3.464475263443516,5.007350401470994,-0.2883585829542743,-24.03901883567697
894,2.4835320000000003,-15.064092185026489,3.596046165361396,-63.348791498681145,-11.04873675735028,7.582030420186522,-27.46112411526325
900,2.5002,42.946753092900046,30.500133946920656,44.37812714636192,-8.197963424274231,48.95158395565248,-7.685801688943727
906,2.516868,-30.39483217732691,-12.4568394532464,1.1480709263003743,3.5912862428517838,-13.41802609514694,-12.257548016992487
912,2.533536,4.729726202570054,-12.952079740553048,1.0056296021653166,-10.864005219670023,6.928910082197836,-27.69817298184192
918,2.550204,9.932994440127072,-6.20232274799292,4.915524645741603,-3.982498504047713,-15.051772735509738,14.430973334782935
924,2.566872,-28.19397018206488,-6.006821451851006,3.273112833096119,2.080665461075358,21.826543572334643,-5.082076762383034
930,2.58354,7.312055536209597,23.04810578505744,12.71794654910024,1.8511280787407849,15.600014585970593,-14.975951639476804
936,2.6002080000000003,0.8575816013698603,-27.12061817048222,-19.445487186256248,-26.52688469744738,-15.378227290629594,22.467537228471336
942,2.616876,8.998924592472218,-8.45953480884767,-6.585426875957671,4.19806988474504,-4.909249116894232,6.645708942205732
948,2.633544,8.160826590058004,11.611869139143328,11.822831036151836,-2.341081089029938,2.256973553600464,3.4288368766947324
954,2.650212,-13.366441075361887,8.592928166639572,-4.283931581595426,-7.992330927973376,3.1433781684913957,-0.2991872836285654
960,2.66688,28.792281473931048,-2.9846353031113564,-6.013990358755617,-2.982039159746876,-4.464110201083848,0.7835578655465945
966,2.683548,10.023075974469286,10.205457306485446,-0.2201597571933726,-8.863057308843295,-30.788642877422426,10.147735287919671
972,2.700216,73.16754180973227,-74.72896528609223,-24.44512957015942,11.4800482266998,-16.28693340797821,2.7556155763500523
978,2.7168840000000003,-12.306297387039496,23.35990920586845,19.159986614217377,1.476392969597235,-1.5116731324927422,9.024477218983186
984,2.733552,61.38296939377765,-18.11314589932155,-0.3261122379007037,-4.135364999923585,28.655208739013933,-5.216949636256661
990,2.75022,-44.81911689877342,18.00876484120386,9.388795357820053,13.338275231456285,-7.096579851488713,-1.5424074960909104
996,2.766888,56.4129705492077,12.617725338785554,23.605297304197546,1.7989266590641615,-3.510641088308699,6.8160736528627535
1002,2.783556,-29.258245170928944,11.74065759062736,24.57662559756328,14.096766447720071,-24.528006544349548,5.00617125869587
1008,2.800224,22.50999810920942,3.335799208498917,10.891366181433249,-13.278240027868572,29.28206584334028,-4.784664900868062
1014,2.816892,-20.135050087151527,28.005375003237056,-18.34645954963562,5.6916098057202245,15.097114078711668,-4.201678855889617
1020,2.8335600000000003,5.285333611571254,-19.797464135549035,-15.86493321449285,6.004138802404632,-17.335332175406684,10.828785921358168
1026,2.850228,-11.268846546727104,2.348934066233764,21.110914469527764,7.876301626032811,0.619794044270539,4.685829076900413
1032,2.866896,76.82218866189714,16.961957955886305,49.11697101515787,7.610446344618264,8.17640503464677,6.710721203942203
1038,2.883564,17.078331080283093,20.4291561269561,-34.17384299960024,-7.813719424065837,14.14306021767588,0.112599297796277
1044,2.900232,-95.40960461385718,-83.28515493049024,28.217481188844484,7.619622939713086,2.103405428989856,-2.006957384814905
1050,2.9169,60.27918416014776,128.77215137807838,-6.165745720058489,8.482984501750508,36.060808828546016,-6.074143479029815
1056,2.933568,-1.662795363384209,-36.63609649350471,6.545701216199587,1.5203257347504855,2.665598810740776,-9.99866468656188
1062,2.9502360000000003,62.536059317449215,21.75106172133342,31.02288456866332,-10.183576863765612,-0.5350581385816415,2.828555147222981
1068,2.966904,31.906674298132195,-22.067398630752265,-39.58041698570207,3.7802508694036874,11.17658411916131,0.5681516081695346
1074,2.983572,-42.92986653800992,2.679395658779507,12.989375363013176,10.57235858459052,5.776224285525808,-15.178991888653467
1080,3.00024,-25.809480612951013,9.485794900573977,2.9063741970361376,-18.999788694047048,-17.47346326927814,12.903921151137483
1086,3.016908,-2.22676033820897,26.15860907303981,11.976007876207987,-15.720639689852078,-6.173840167839133,-18.213510796471468
1092,3.033576,36.2068349400267,-32.1883064907258,-23.8792438829075,3.904158273291954,-10.060987225323489,31.391318528424
1098,3.050244,-77.92910115885913,-14.609290901857491,-32.858671132012844,-9.70298919749279,1.753303267849036,-6.906136982763954
1104,3.0669120000000003,-23.09118056103316,-6.266022740712831,21.363489517616685,2.3376657031996517,-2.038294279253285,-11.65495004807714
1110,3.08358,-22.573468387258607,27.72636911577848,-6.7188974200372105,-0.9990777467522522,12.406853176642825,-8.951813254630132
1116,3.100248,-44.32588307088517,-48.79440670125791,21.40806923280601,11.08182223794942,-11.454809157644933,16.020769480938952
1122,3.116916,-59.933007122853176,-41.98308052059222,-2.5340550997259363,-17.38390678363473,8.575103208661947,18.330883538643427
1128,3.133584,11.078779880910943,37.41006632873431,17.34177828312791,0.5960090879967227,5.674118798146758,9.352476764656627
1134,3.150252,0.1572252913024006,9.472208426883892,-6.097411509377821,-5.351663476448362,-0.0364638306366416,6.411375595200923
1140,3.16692,7.904902799140228,-25.008608291317746,-30.41924029276736,-0.2229093545105249,-11.325974358025343,11.875080990143536
1146,3.1835880000000003,-13.532239767765017,-19.141412639049744,36.42548644091761,-4.381702594153467,-16.416038941788898,1.9647934520124772
1152,3.200256,-11.279515204411748,12.755086494316958,-8.348687267319438,-2.358457351512936,11.359901930876864,0.258281641851859
1158,3.216924,3.247859340401217,5.785396884055176,-2.316501778471768,5.220874131249258,-21.3395855483518,13.493465295297131
1164,3.233592,-43.366465038713926,-32.08284476635343,-35.19057633732584,1.6461892990539997,4.4064045008186135,-5.769950718526463
1170,3.25026,15.315138549845097,-15.200109488709552,2.9284449463177697,8.670341746476746,-19.3837701680319,10.378729632424662
1176,3.266928,-8.712648152638545,-18.29826523513095,-2.262228578866317,-2.435308215255084,-41.255738637302656,13.886103330883522
1182,3.283596,-12.397550298263498,-9.444489668654956,-13.454905886169218,-3.089426318242211,-18.744461182130166,15.951419391536204
1188,3.3002640000000003,-41.11563334543675,-12.293595828352558,-23.34593210042265,-7.247457058241974,-69.2357707345696,23.036240381870343
1194,3.316932,98.8953851025407,-77.11809905221283,-32.454290664743105,19.5015239950918,32.7487584556834,12.910645325120855
1200,3.3336,-17.14153313329195,37.707683588028544,3.147061066313292,-22.12895351952224,4.002445503071178,0.2097916493465508
1206,3.350268,-2.413420594594648,-4.257179925734226,-7.825681789833071,-2.777001192268884,-20.818004545836445,29.457212074488677
1212,3.366936,-7.869957371368397,-10.694704052809245,-11.820701569530874,25.13773809337031,-13.696897596342184,-21.287321802721134
1218,3.383604,12.71171768942981,9.236366493902109,10.983324870004424,-17.427187080233715,-13.267293023771073,59.42306259303703
1224,3.400272,-4.201000029459571,15.803813340246988,13.343428884791006,15.120426466639508,22.18389325216706,-60.63302841234112
1230,3.4169400000000003,-19.019632441221283,-18.982747836932905,1.342171591000801,-32.86759384666121,2.994899780014812,-11.02383453397199
1236,3.433608,-2.470307166821219,15.957135406239288,4.923159995151825,14.504720210795732,15.433703632283905,-47.336419077853
1242,3.450276,-2.326956578846179,-26.058547026821262,-22.33783067328499,-46.60430919520093,-3.8920536312836873,-9.438111243049942
1248,3.466944,23.22781319096581,-6.010986939532717,12.570995855513704,-40.225574031517226,-52.5170917742464,17.06526070033303
1254,3.483612,-30.34828703314617,35.5688130759102,18.413705739933462,-23.484102799174053,18.581791909062552,-35.293048268170125
1260,3.50028,-68.2660329994998,36.005713116569765,-2.7871689719427746,10.197459080260128,44.4303043540714,4.60566984328495
1266,3.516948,31.382387487545287,37.307894696113,23.245854008959565,24.079576434636515,19.435044627304023,-20.697078964190325
1272,3.5336160000000003,5.66290801102104,-2.464875613146201,-2.880730150033745,-2.8978003733179776,-12.993561469470135,6.080693933122364
1278,3.550284,-53.564313778702825,60.17614608119278,63.35045617532084,8.611079227912361,13.358706405564604,7.1397691797403215
1284,3.566952,37.13137741082828,-38.76215643378214,-36.37685677780708,2.4235523587776195,9.874670611805998,-24.216847048888173
1290,3.58362,-40.63431853180593,44.104504242670856,-13.972049279217924,6.932254751244456,19.780697340206736,-16.43925380200788
1296,3.600288,6.288022899410183,-39.25606107446016,14.117192129022955,-21.474024172670667,-16.91070823562665,5.160537864303095
1302,3.616956,-18.39587576349241,-0.2492417015944763,28.206570488265186,0.7809405311817379,5.105974973742164,0.959899245776724
1308,3.633624,25.29741682259513,-13.404680256415276,35.30650740480519,9.647027160091827,-1.5316811124984149,-1.9432007253509287
1314,3.650292,-32.727319280079044,-7.078972078005704,-40.04522041052054,21.158192519603222,-10.672614530246596,-0.3947685110011176
1320,3.66696,-15.468467033503671,0.8763284661678648,66.62195899718432,-21.82441714747391,-32.11579271519797,9.226587816425702
1326,3.683628,41.15830381599324,-3.833152525440216,-52.626386640899966,28.4121612178937,30.23416608533583,27.50040293227859
1332,3.700296,12.382989704089274,7.106530596560783,-5.934893861207772,-31.950990863580166,-11.605705942515929,8.188506134349211
1338,3.716964,2.850156477134143,5.691275478177281,0.4852658972629835,17.575590618320803,1.1165479375586642,-11.14922249662761
1344,3.733632,7.230344759614853,32.550305508102774,0.6290445411978318,10.745627414771295,-5.952967409082395,17.974520639967444
1350,3.7503,31.100304459201556,-44.47552934556657,-6.47685538922645,-11.7755725226723,-24.122164188026723,-6.768481484760703
1356,3.766968,-8.923790115671943,-1.5713531421364495,5.278092918076909,19.295891423391453,10.777828946037529,21.66746120400161
1362,3.783636,41.15394892508517,8.243725802090568,-12.733973943594094,9.361043232003755,-45.85685685146636,37.7582788000125
1368,3.800304,4.198682814245091,-16.54671211815464,3.42899917797137,7.667884927024875,0.2553113800303102,-0.7330525127309195
1374,3.816972,44.23546643582655,-2.681409704355968,-24.280849785387723,62.433466384472,-24.36766494129688,54.16501812517217
1380,3.83364,59.69084119193603,18.2289423612557,-3.902916615417364,-32.30834420889127,4.301708688023634,-5.195879930167551
1386,3.850308,99.4274263367134,-77.16219177308804,-31.77155460661366,8.398717287470166,1.3616462765033126,7.060344994362911
1392,3.866976,-30.18020192282134,-2.5152886447382192,-21.84224876619725,60.0122369299354,-47.761548510641504,76.91257864899242
1398,3.883644,45.90642302121409,-20.66156759958952,-2.085871464509183,38.91367014101717,-3.336644320387082,57.51041479654948
1404,3.900312,-0.078863166415406,4.345645316126815,-71.20212933642759,50.24000104115413,-43.08226789623614,55.28721341193196
1410,3.91698,184.18913808890244,-42.62631131747391,-61.29832302272212,70.84437282779207,34.55509025626403,103.44816569145408
1416,3.933648,43.09193509615822,-104.36585282574022,-92.91716225474386,95.45774369131024,-104.56120255269866,145.68092236624275
1422,3.950316,-11.315587357050774,20.22245950148686,-65.36446927910092,76.52445581364563,-33.89359977508239,77.78069042983199
1428,3.966984,179.1988145726309,-97.7175945982526,-114.66925061286906,38.020836240960605,39.950019064393125,177.56255409933937
1434,3.983652,1.398355523861568,17.31645977694198,-188.8938754053937,45.48149322518921,-21.376396380401108,161.72975949715692
1440,4.00032,363.7157559915296,-35.58497577308839,-134.42161864417182,173.29478796992527,-3.582803085708484,225.9338907572401
1446,4.016988,-99.93904244560136,-28.838862043168657,-193.2984063638644,136.40788732520895,-4.556121161199151,139.4462556717187
1452,4.033656,-33.77812119124917,67.71413816634931,-37.79632540014886,-42.0395044037825,-47.17701947699512,197.0276031356001
1458,4.050324,43.89783376670785,-155.05375520596527,-212.0218917936291,190.30342521440363,-19.595161052105446,211.743476316358
1464,4.066992,211.721030126872,202.3756752250229,29.73020330289488,-43.57470383412458,43.57253794978783,135.79184307048206
1470,4.08366,58.88988509754493,-31.27086060673432,-172.60177209596606,155.6406759154133,-79.35029431442858,200.26558981721516
1476,4.100328,18.038532608067623,-50.881880279114455,-141.10819360177547,71.92048186595957,-35.84424312042186,101.96943302433895
1482,4.116996,9.63312834091785,-17.721839131332597,-90.13892099465669,-26.13446965536927,-26.96829773619049,186.8979581959056
1488,4.133664,361.35504807277846,44.40097362204511,116.39657902404626,92.31712672647224,33.369744878490124,107.0610466048544
1494,4.150332,-608.8974257181554,-166.6647389919031,-443.5018009901157,129.78104512263155,79.20539338894046,118.8481802785066
1500,4.167,302.23297839506984,5.732737827314551,24.91724328380444,-62.53102601780092,0.0016841888547318,-15.465552102735876
1506,4.183668,143.45978414437485,118.97632101439794,-53.01755034512564,-30.44623851633136,1.749665348679791,103.78848887183744
1512,4.200336,382.76532300601394,63.111758283281446,-35.342201016448016,8.025208189874931,-3.886126444737153,127.1318343310838
1518,4.217004,-576.3055196266428,-113.3668294727068,-441.5341854359188,-18.37845492763157,198.2257042587141,17.816035150374425
1524,4.233672,107.13023179677148,69.771049063927,-122.04454435962305,-0.0806374017868805,107.1520941670646,-7.332456306621125
1530,4.2503400000000005,-122.01548673371612,-310.6498422321226,144.51132878219786,-73.19851343040087,-178.1428047866515,-32.984096552375824
1536,4.267008000000001,42.840913395831066,195.881337312131,-178.86129468598,34.55550692766984,189.40192876521104,121.24145187879512
1542,4.283676,-177.78990601936655,-206.1342618157704,-201.4541400384128,-90.58797532874937,-107.0955725202518,35.61072832235521
1548,4.300344,132.9729970202184,176.7844608467069,-14.092664414079778,-78.93678579878345,134.10634059623902,79.89049202305671
1554,4.317012,17.038006206344033,130.47321147347242,-96.25043877978575,-51.61876024992343,-83.30050042041661,78.44768432258103
1560,4.33368,-241.52986484779456,-334.2667278560769,106.09841275836168,11.675646179469766,115.35017596001887,-61.68200291578515
1566,4.350348,-63.7442981975117,180.29549289768968,-157.67537732068652,-17.556624872959198,-62.028680518697016,86.45091069962264
1572,4.3670160000000005,58.7082692839809,-159.1486565466039,-217.1631345139382,-126.7552835678248,-46.85480503057742,78.01608362786791
1578,4.383684000000001,30.64673534486974,-3.0968378823194733,-84.93144218204228,-78.57321829249378,-124.55375522056156,74.27185789682773
1584,4.400352,174.59889929544755,103.78082282420314,33.501382443652446,-90.51192551206177,23.729422316057544,40.24567132783623
1590,4.41702,-11.439423490378616,52.15717417506771,-85.58228745809163,-90.05189274443701,70.46830609938631,-42.79688878101502
1596,4.433688,-28.598109078747328,-15.187381220806865,-37.93928485469333,-11.550748281136707,-217.9210011024482,136.42201748503751
1602,4.450356,-13.755058426011344,45.67162757944191,-47.02776549642007,34.751036523373536,63.251909082859086,-82.21876724100233
1608,4.467024,220.5850868250873,-47.092793199387685,17.038885027350155,-108.33115833843075,-86.65474023629888,-105.77711109375794
1614,4.4836920000000005,-384.5818517795044,8.344884123319508,16.569823079641807,-75.0030688911132,-59.619640743229766,76.59857762489436
1620,4.500360000000001,-95.56686968315556,114.44002742350604,6.5000490586990125,-46.56458947666741,-54.84716574718036,-2.970145114092375
1626,4.517028,-186.99593450645384,-29.74500610278557,-33.92013927561211,-27.29281492552839,-31.45037309722052,-84.3623855449118
1632,4.533696,58.6612408425629,34.73613868066495,74.02396413281369,-11.52766170442014,-34.08959328849976,49.87708899739587
1638,4.550364,60.34669807548889,-29.20686910762289,74.99066095878159,4.702503340536243,-6.333135025775341,-116.03287548567872
1644,4.567032,-63.23746082999852,52.41675470159332,-21.8514905824466,36.05254411353357,-22.6106497694666,-27.180531504462188
1650,4.5837,-227.15102540010307,-19.420382848502413,48.89750220513214,-50.66705648447446,-19.05156275032502,-121.74719522122793
1656,4.6003680000000005,53.13090387902262,47.27347285839136,46.44822847365755,-28.202101226236067,115.12711411764832,-47.22348095785554
1662,4.617036000000001,-131.85934260528043,-79.17986308532339,1.386824436797106,-55.42394293614424,74.22435757869533,-122.80087833103126
1668,4.633704,-50.78534503601445,-7.144868323370986,24.14463735636732,-159.85231708434844,-125.06262256270476,67.35149953546055
1674,4.650372,204.4236518257978,88.69645677121257,41.57387571143296,85.73619833846811,174.37905203501165,-29.83560607182894
1680,4.66704,-118.20826701228071,31.880081844941174,-1.585259840971183,-133.06126029717254,1.6664696466120166,-317.01170805578386
1686,4.683708,37.97132587204042,57.81733811089814,155.21527356673022,-13.860205118494878,101.43359330558596,-194.54855433244995
1692,4.700376,-87.81264904391793,-321.68881218813266,-7.214002069228316,-66.35919149067485,-66.38249062397831,-202.4897297191241
1698,4.7170440000000005,-172.8550214790955,-128.9011953085663,43.92857930207784,-97.59423119620016,22.058842463551585,-94.27111123942451
1704,4.733712000000001,273.3733820956832,257.0428989660928,142.32620481737302,21.728994086341253,-102.53650736691742,-197.79396700176792
1710,4.75038,-15.06806398088178,-36.12725401693048,69.49208279033087,-165.13599477082803,69.2637288826439,-116.77583942367627
1716,4.767048,-506.517461009985,-230.89137274424155,257.6033237607735,-110.029296248762,58.30933995590448,-102.93007734534952
1722,4.783716,84.09467347509496,187.71845832748144,168.1630887561892,-9.448267770071393,-36.72938695172361,-78.40707721597904
1728,4.800384,156.89452404565543,-146.31295652006366,64.06406563289204,-48.32840730039491,-177.91295137222738,-148.61911484233923
1734,4.817052,-341.135552362955,186.52163530901817,201.6394461352352,13.04527001328512,155.32717895342188,-230.02917489504844
1740,4.8337200000000005,-94.3198192889646,104.92042235588896,329.176683200341,-57.96428928063709,-137.87920886117195,-164.09128495141312
1746,4.850388000000001,-9.768575773599736,172.25772840151393,279.8745467601942,53.96206492788738,30.96667874450857,-173.6118438537476
1752,4.867056,-3.5710758461103893,62.33109466893077,82.75037351296483,-2.0422729119579763,89.24992677135589,23.807763225744168
1758,4.883724,-154.20169714262263,181.7925762271335,191.36607064472344,-125.85800314889153,-93.8450039582996,-251.76454215758335
1764,4.900392,-84.91525117917392,-241.15069761385087,-2.416443450068706,-1.3659536799633305,35.29935630672964,-125.55980823766248
1770,4.91706,26.1738987800622,-181.7346691372823,164.22634681916304,75.93888237577565,-70.6604934924602,20.46985815681609
1776,4.933728,-36.64495618757245,-26.8707421001844,-50.02443520377437,32.30608018241854,-7.502069622564871,-118.62429585546488
1782,4.9503960000000005,13.732367811080051,274.90265381973904,77.95173697241944,-129.75600842371097,-91.33379863148386,-23.79333920879121
1788,4.967064000000001,-61.26932496706532,-63.73771177073633,315.9577244410807,149.50814366727857,244.19179606892988,-212.83391597769295
1794,4.983732,-32.66360402934261,104.24040272368936,84.96965099251734,56.656485925564965,-121.07619487480396,-57.51407792420011
1800,5.0004,-37.13951920106493,-87.423394983373,103.41458725582804,-73.34564828709193,18.505558176488087,-67.78897586800883
1806,5.017068,-163.3049243063736,-58.32954064455323,162.52722970361242,129.39202771203713,-3.990534814089453,-60.954632039712
1812,5.033736,-58.64866414716735,0.8050217516827161,31.527682055786265,-26.70384311421133,-48.59882881372843,-62.38892342010719
1818,5.050404,-140.00655746317372,22.90664679040994,77.78865750589233,50.098897354003455,-41.46185156304787,-103.08933534682691
1824,5.0670720000000005,117.03184629968118,-6.980025631651198,96.76268184070616,39.72944427559685,-37.13822989508016,-54.62442846001467
1830,5.083740000000001,-178.91507447607444,-162.74111616263468,88.92896300144115,3.669535323842636,-29.458256445120877,-2.99472254229088
1836,5.100408,-42.23854907454015,17.013937911997722,126.29076983174744,18.417531990575085,-108.4265623384021,78.36925947138906
1842,5.117076,32.82036373897616,100.1228653172216,137.6349866968203,-21.915702519717435,192.5738506718409,-257.77031100065307
1848,5.133744,-82.35448211225395,-182.8415249990816,-70.98583475701446,115.95254985523472,2.699684319159701,70.43767715749476
1854,5.150412,-20.145499184756567,192.9180350506839,195.20064558186317,19.635429796317435,113.46211886415486,-75.3174795250219
1860,5.16708,-194.70813163451933,-18.63507164333168,-14.836691053290018,77.84921961931013,87.08376872740169,39.39932745231211
1866,5.1837480000000005,204.87267242097516,51.443717338802514,-53.83653831740006,74.0466853272811,86.17912433368356,53.44510335980199
1872,5.200416000000001,-61.24739845925924,87.70310135183368,108.05544421379446,40.90580258550937,68.23572081091399,-51.39927472553905
1878,5.217084,113.409606776855,-51.08187664523744,35.876556091960694,-28.921214679232836,103.58410155629882,56.27472005847844
1884,5.233752,298.8133179081117,22.25441645122485,-41.17585490845277,23.148682328613845,78.39594254576355,33.7130587323181
1890,5.25042,-48.39477415236646,36.07255758518483,169.58143251827684,-58.06430411728136,64.09384047169301,-116.77032868982472
1896,5.267088,174.61366354424538,-113.93845636438031,19.92292108708986,119.66236578543688,97.7358628309578,70.8186850384963
1902,5.283756,47.63888799830861,81.3469985141891,73.74547678694833,-92.57296835751676,15.260157974813367,65.9835574983485
1908,5.3004240000000005,138.39477134431206,-168.18879024175413,5.462437719534286,14.396602243477163,102.38065334799484,1.385772688133244
1914,5.317092000000001,155.96806127864022,-2.534208861029136,94.0060575629388,-21.94107445393913,-105.9591355775612,121.84585314572104
1920,5.33376,77.40358905229289,80.06974582593844,101.94919669525126,-31.43925519938437,51.00293319448882,10.720710310467725
1926,5.350428,199.81034812552983,-64.60690618486869,-22.28829588964459,135.84671755321028,77.32289437985645,63.97139440222249
1932,5.367096,204.50330934736849,-141.92317352845953,78.44450170614229,-98.5950517258688,-93.8131164456261,126.26440711758669
1938,5.383764,-145.44429577042263,244.1766366163003,283.44775292086183,90.46548541161316,35.94979113280778,54.82793544713783
1944,5.400432,158.77476069154363,-79.52527576021541,0.6363805607096715,-1.4797511892909103,-99.0162769751454,104.84868539832593
1950,5.4171000000000005,295.08898483768803,186.8681877715704,-37.40051577496098,70.12546137860404,-9.54268246972434,54.98383323513576
1956,5.433768000000001,106.45382538537407,-60.276214024190864,132.85936962398551,-13.358985269646103,-12.904238418602947,131.65422462969244
1962,5.450436,65.24718209000613,285.88221835799646,100.56553917229964,-15.524359418500238,-62.87627646755207,71.68325070712677
1968,5.467104,-15.646365065225808,179.87256407115876,525.4692797024369,-9.571954707462243,-129.14969624051184,260.9648440526153
1974,5.483772,229.7327755975354,-67.66575471762683,-560.3015931632881,-44.60316596635015,37.86576944556671,46.04123076017355
1980,5.50044,50.25469474368664,106.84538290676426,-16.286383789718414,-6.736091666361748,71.39852301928951,149.15424539530326
1986,5.517108,-188.11227903580496,238.7329501721128,180.75983067305967,1.6117008766825442,16.366137613420285,65.67016981574983
1992,5.5337760000000005,60.97817885229743,-134.92757797586296,-35.61342663280863,45.41436739399819,152.05885967497133,46.85136855063547
1998,5.550444000000001,179.98764892666574,132.76992225008863,189.369401667825,-101.81746895396934,-213.90362431324385,148.97148029223018
2004,5.567112,-178.1406728512011,-135.9677758318221,116.34658006568348,20.431491783448884,135.14209761184006,163.82449295111027
2010,5.58378,-201.47579447136425,239.97003483728577,-28.710446789663067,-7.714808081251466,-39.42212757072605,113.50059023158336
2016,5.600448,199.4309795154104,98.86946483762438,-22.614938832707445,211.92834286735345,46.67715085249944,-242.0613421678451
2022,5.617116,-98.92317122283852,25.815284477419787,-9.859058168469328,-12.829583339322784,61.03601468567075,41.82976048291879
2028,5.633784,-408.2594706106047,-119.9557345789468,-16.93680034558745,-38.71181626199083,-167.92672424131214,198.2016101141516
2034,5.6504520000000005,96.81011532398269,141.98290348036846,-99.16999161156762,-6.217312123288213,54.8816091322911,57.22089313357074
2040,5.667120000000001,33.01108286903485,-130.40269503388177,-181.58124005803808,-1.7923241993177117,73.10563948615065,-12.56662958701724
2046,5.683788,-52.86553159736138,2.436004007834619,-42.25037479633622,-11.746163539893956,-123.74288754631948,5.624015187078321
2052,5.700456,-71.2835078633469,-222.21879074524404,-79.76625710472005,70.64910540813577,35.462421298733446,-199.17831313136952
2058,5.717124,-44.806211906130606,12.316076681057154,-192.12685094489976,-69.205934593881,-29.194692738605188,-101.11456951095244
2064,5.733792,-25.90427143068196,68.87108520827374,128.71752695310926,25.21674694420463,-1.9465981605961744,26.432511738549746
2070,5.75046,-23.340400903703003,-12.816167156411597,-152.0281654351374,-14.019916880806896,-18.84211926827954,67.03897186595862
2076,5.7671280000000005,12.953912809843846,16.670866469894257,-119.94808804147888,-11.550594894723506,51.83292313596968,-140.8589724881851
2082,5.783796000000001,-5.870475605726092,-28.065489800338668,23.497607951162564,19.67671093942723,-49.88330634131548,-43.66642038392039
2088,5.800464,-199.2539712047355,-50.783763720603766,-106.69483376720764,-78.8750557278122,-29.720868132624705,-74.07550079099923
2094,5.817132,1.6462151064756512,63.1732032314216,-104.43945186199056,8.506304788654408,46.096272221392525,-58.30373077432483
2100,5.8338,-19.8273886189504,-116.69580933510076,-7.268018852971277,29.269622054160006,23.28854060856243,-100.57370578073386
2106,5.850468,183.7757366423654,89.76404565141952,-95.59017578806814,-44.57769438471114,16.657622873489697,5.433901296281942
2112,5.867136,-241.0715008990686,-67.51832982229999,-92.1352824941686,-17.27911274402601,-81.26723353488725,9.507114527769613
2118,5.8838040000000005,27.997352821126988,-81.3034120749551,-83.71866290306008,23.76441169679816,-4.456782401486699,-201.1681292403012
2124,5.900472000000001,64.9731133147437,-5.864720359331933,-11.364249610527615,-59.83907688159597,-48.699588176674624,42.55884156470074
2130,5.91714,-104.84796587807104,-29.15370935090274,-70.35258801758648,-69.13560787145005,-1.9813692239988132,-26.34391275869421
2136,5.933808,-14.85695953315306,-17.78556342427761,-68.7359823370679,-54.40498786835317,70.00221780662943,-26.00067889680656
2142,5.950476,0.5658679983020818,14.765478023959464,-36.07070475282612,36.91143741991051,-43.929300799519055,-111.39142901900765
2148,5.967144,27.67747578883308,42.44337007537668,-13.192923934490793,-14.399632324418112,27.15664631523821,6.3858647018380985
2154,5.983812,16.656251667683474,35.333256239819555,-64.18356307340365,-34.52055714036655,9.839756763799606,-80.63119584149541
2160,6.0004800000000005,-53.72298167858872,-107.13879425033755,44.75381690192764,2.13717458780863,-91.61933367969436,-15.40450320316917
2166,6.017148000000001,-43.15486710330064,-19.20421669074011,7.411867538657576,-56.838523070716604,-24.146773728013272,-31.77407194909665
2172,6.033816,61.94241382142776,43.647356893487554,-52.04940200364508,-30.48435405312588,3.124418500403051,3.875280965592365
2178,6.050484,5.221176712231933,-5.061350421805553,-21.718481666688405,-18.83406551103147,-11.013462630393722,-7.686509401158638
2184,6.067152,-44.26596365127922,-24.70858312069258,-79.92214380547239,-55.24587405602253,-25.334610087155973,-8.159946190803518
2190,6.08382,56.42612223120555,105.91040198032884,5.071641141558704,1.3668157036803483,23.234265951910764,-12.71373768137096
2196,6.100488,-41.59700726227396,-36.27774402007724,5.732197758020512,-49.04443750636106,-30.8222368485354,41.50957771167988
2202,6.1171560000000005,51.7768501249606,-45.35741733600378,-86.41585086588731,-8.171861243807008,-2.6807202688685856,-12.337700321375497
2208,6.133824000000001,-66.70805027711879,-36.684049084704334,-14.98244935137917,-22.9364180091603,30.66497098508483,62.05991438737146
2214,6.150492,13.28705312668937,2.5862717285711696,35.738005462743565,-1.660627091312854,26.82102169598445,-53.70145552347815
2220,6.16716,59.97055753139665,-4.692353479723394,-81.74909262312518,16.20173337272016,3.551894305846752,3.635963384954513
2226,6.183828,-86.12449571695437,36.04326858346335,87.07550306972772,8.841822433662971,39.998273170204754,-0.1565707172932331
2232,6.200496,84.3873701923342,35.412439044273505,9.858578445455692,36.43522722767697,33.93751201194366,-68.72450405558493
2238,6.217164,-176.0167863145731,-121.940749607705,-1.785386363587227,-42.49950703928885,-50.16434713972838,46.97148476880143
2244,6.2338320000000005,67.3036639106138,44.18933587809551,25.525774799609216,10.887152568708016,-17.24559634116699,-10.294571561794502
2250,6.250500000000001,-67.03416521857677,-69.30371455789066,79.74215836162013,-38.94678999399289,-65.95304562309667,91.64483233808394
2256,6.267168,-19.0661108310847,37.31991360702397,33.679799153099296,19.85097106639789,46.88007456309592,-61.31176209103043
2262,6.283836,-46.21296477999081,104.53523012877218,70.05399469031485,-21.65197536744284,29.108304730494204,-58.8584923643617
2268,6.300504,17.194185571051555,-41.06872898916283,-8.061347684188036,49.55958657455926,-11.532841518537197,-61.04546515789299
2274,6.317172,-24.17412733386954,14.640055579722752,33.867624234163735,30.90872497929671,7.184784821039176,3.5698291977517984
2280,6.33384,31.219639651313106,-59.75944197308346,-39.236298831874976,-7.4594062509814,23.202287308817773,10.421574691448807
2286,6.3505080000000005,-39.04752691374777,23.662917922092262,51.56471535354372,1.2769411479458102,-11.118022368931394,-17.52280046045402
2292,6.367176000000001,39.98435574372297,70.98796993029303,-6.82159756204711,-25.3611742459736,25.344407490101027,-49.79503114063753
2298,6.383844,17.13906249309957,-72.57005580212325,63.538152957665226,11.977184839171144,-5.253158588704475,124.52513808587108
2304,6.400512,0.4423934563990155,34.426729244558416,44.48834591969767,-25.73751053134171,5.781629976978692,-143.234820645488
2310,6.41718,14.580765033783065,137.17713542106048,12.703788991084927,22.21591938100868,12.897980683179536,8.377913514667853
2316,6.433848,-36.62297840759472,-42.279615909204175,46.928059062194,16.046146722562973,-26.896484154021696,-9.065796547394084
2322,6.450516,-31.039048651443288,-49.79743398689994,-114.14299617340652,-29.491118424466784,18.246737610415945,-23.27845208169528
2328,6.4671840000000005,7.363139537943535,8.890948899736074,-20.037711903256017,-35.31043220682929,7.717124645585147,-21.98481818955538
2334,6.483852000000001,4.940651730905449,-11.346296141852406,-12.032195607657004,28.977841665959392,-54.30736192684932,-2.4084583001615725
2340,6.50052,34.604808406625054,-28.402377654441928,-39.96339729801919,12.717780889881306,-49.58889807573647,-65.20786825156192
2346,6.517188,-77.32567741104768,61.444145858152304,58.51467221627098,-2.740278461949896,-16.767805787856833,6.63429180534556
2352,6.533856,26.18879436531575,-23.79685901400886,-82.36951129380822,14.822792158708603,-2.795192656110393,-24.804187786647745
2358,6.550524,-17.594937883544965,45.19541541707692,-46.48472201837234,-4.617418969493213,-19.54571510512387,-81.77600521861763
2364,6.567192,36.440270124747954,35.74269917501936,-45.62157925533029,-3.903311469266781,-52.806668056280735,23.75358552030651
2370,6.5838600000000005,-18.111085939826168,-59.85628174284304,-73.95414477146878,1.3826570124236603,-48.30320951329779,-80.34281795201488
2376,6.600528000000001,-26.9919620964121,133.7524267215697,27.057165519949844,-17.456757589569776,4.866412196051008,-47.29524849875696
2382,6.617196,-82.46734109200608,-17.54922895570946,-15.191257740571936,1.532271084366874,-76.4065320407963,33.41390074331875
2388,6.633864,-58.231792525979,54.961339922334375,-49.55867085030475,-69.43599932447256,73.78360289691352,-76.79413623524243
2394,6.650532,-64.5757754768,51.15809935626967,-6.359609455701065,45.39781562168967,33.82970688002796,4.860557927831278
2400,6.6672,-122.67748206608276,-157.10415672666323,-295.08682200909385,-245.37380747945417,-90.6536086225268,-210.0552401354106
2406,6.683868,-38.48127562937324,102.95255126566872,-109.81737631612182,61.05399614907793,-35.24970904468427,101.60112535388927
2412,6.7005360000000005,-88.65474920396149,-144.63743627773545,50.95937962143976,2.1225605975842035,-85.12206488305834,85.77646850103187
2418,6.717204000000001,-86.02981678851455,-42.57935641937429,-174.5212970275497,27.142646319551854,91.84604257108656,-44.620421186458586
2424,6.733872,-73.68109398974794,68.31205946309682,101.12507341262253,-72.03493952818418,-29.93427376045521,-100.39237834883733
2430,6.75054,-19.576780970650496,-9.373288194564983,-327.7962332534892,25.264029887714827,-197.0721664694024,-38.58441427362964
2436,6.767208,-85.08536650010257,83.32990436732979,108.54779773799608,-70.64317247356237,23.098337868750804,-35.919739914736894
2442,6.783876,140.9549179170975,-88.14834737574454,-90.26470370735235,57.131453245408345,-167.89338762911078,13.234831836103014
2448,6.800544,-332.27769950061924,-11.331376237934428,-156.07007950260788,-58.70255450858748,61.58459802534704,38.64550644356138
2454,6.8172120000000005,48.72216557044703,-110.14215706279026,115.497311349055,-86.58597936610967,-18.92289784706918,-7.256936532003888
2460,6.833880000000001,261.72476559748566,-96.59085257698104,-97.99029643586812,31.920651481320707,-174.8591280236155,-6.833178041363393
2466,6.850548,-195.94572779665165,-17.177762072348646,96.34976961742709,64.27544602127801,146.26234816333573,14.741992395315576
2472,6.867216,185.87958846828036,61.5768741920886,204.7970346165925,-32.41487096082604,111.01082711346722,-97.81189434270588
2478,6.883884,92.18234833774312,12.817093355141672,-75.054229272241,153.06609841932206,8.657153441862075,136.6279201087228
2484,6.900552,-121.17970279327818,82.50548840517848,122.03657080089904,65.53472133080857,278.08739231743505,-125.9768762123294
2490,6.91722,143.46099532148338,17.231720560906286,91.2418747694777,97.1722738259325,67.35703701012949,55.849177185699176
2496,6.9338880000000005,-139.15014532140285,-118.33566982163394,46.539884434553954,169.00895509587042,138.58073623249442,-28.038200065184704
2502,6.950556000000001,-48.64191077548525,-22.777357595694077,87.45845657362896,-110.04726287068571,53.060946982460464,114.7113733796011
2508,6.967224,173.054173375726,-42.79141542715796,94.2389176238079,37.82621569782895,52.68225954785609,43.68467713408203
2514,6.983892,-144.13500987002482,-155.7189378758916,57.99434669262536,22.55835072015135,102.52760932775062,10.32304685280412
2520,7.00056,86.1755035273091,-19.557911124307356,134.38794670285267,2.04112223592284,-8.662491264890761,101.46916096789758
2526,7.017228,-21.767479354263077,-106.26934686349674,50.37248979676621,-33.83978114718513,156.47630662684594,65.52438980221629
2532,7.033896,87.09175659656493,14.734019806916542,97.46710126549968,-5.289498372372883,57.83503388539881,62.85746730216522
2538,7.0505640000000005,69.95535066439379,-11.231229782885311,128.15680764082862,39.31823666327791,1.321729876368341,42.99998654901742
2544,7.067232000000001,124.2621263325876,-67.6133840163555,76.6171501667145,-70.28445269997977,91.37282163702928,-60.30564846682696
2550,7.0839,91.65460951787468,142.4470928200965,150.02514250869282,27.001157174990684,50.07845685137142,161.0248146176258
2556,7.100568,180.82594260191985,-69.68286372455057,-84.01973514283456,62.58735798197664,30.689741262844883,-5.984694903384
2562,7.117236,126.98059955952112,130.46526084819743,288.7293816369858,38.25999260372484,-55.40003668785121,115.31797935828116
2568,7.133904,130.0952929447172,113.95662691351626,156.82496714632933,23.9397828681373,164.22955840895193,-185.5041904299124
2574,7.150572,108.38096506883323,138.58834335923805,175.0464355000879,107.19238119937368,132.13564470171883,35.0905399002451
2580,7.1672400000000005,263.9180541362351,430.5766817719012,436.7039680260967,237.48626933030224,377.340989803082,-313.5451057309326
2586,7.183908000000001,-1.376125678090304,317.7649488992431,312.592880963248,264.8246741689519,475.1541358010128,-173.15556731911892
2592,7.200576,55.19392274291053,333.14004729543933,388.93944698060034,177.84251232155026,217.760603235672,-437.1857720736669
2598,7.217244,143.68810090250162,502.9380296315261,430.0209193687706,366.0107412208575,295.4018327536535,-466.3111206398215
2604,7.233912,-79.12804281666877,338.91585360145746,345.05628677052454,335.54432526108053,449.4250458464098,-452.19933863201777
2610,7.25058,103.0797945262578,583.068655135208,403.5445765952004,365.246048588312,409.0881214815126,-534.4224630247189
2616,7.267248,-42.749289713428645,571.1261092503407,466.7428539312804,267.3293099619316,562.4058988457743,-630.0878197435683
2622,7.283916,91.849938145795,595.5272008943002,235.4872119884438,163.38638936058695,488.3524742762088,-462.888056906186
2628,7.300584000000001,-159.2194123909734,377.8613378899112,27.113070647329465,-30.12312458997645,347.6549731508373,-627.9317177710988
2634,7.317252,-126.52280187520468,419.36103201715423,467.22443338414735,-52.28742096322097,454.91533094418975,-254.54546783159145
2640,7.33392,-168.63532231183427,649.2616212926855,461.03962387679815,-137.23336678928766,306.893847510082,-235.045492840629
2646,7.350588,-281.8599339948648,390.5385331189751,369.8542781408915,-232.0913568990915,304.1749722017908,-330.4383033578217
2652,7.367256,-451.2601087248062,103.5420734184708,389.6911243227324,-314.9964784193507,85.49804348603753,-168.0625922401587
2658,7.383924,-252.23698107484705,-19.591170652911345,37.08669100000528,-457.3763059288864,134.36369308352894,188.87630804505972
2664,7.400592,-397.93504311442325,-139.09229723636403,-222.3341869910566,-308.2003101341745,44.9587008047625,100.79724651216058
2670,7.417260000000001,-481.0093181837543,-333.81868512277055,-96.4098413639018,-380.4789298763756,-368.1149855955947,393.26701108426914
2676,7.433928,-267.0935733137219,-255.56666288369868,-328.69611347529536,-253.9575099350621,-12.39083207282534,182.7986565644428
2682,7.450596,-206.7151794320677,-464.8260171947161,-472.1272817994882,-174.80965065564115,-476.9252334213928,522.4429695187357
2688,7.467264,319.8408381381744,-493.6152947075208,-524.983606669871,-278.71139734399463,-387.9290497392226,143.0676572629459
2694,7.483932,15.853097299709034,-347.34566156416656,-428.8616896104314,-210.24709264817665,-264.9530305998186,209.26921755489872
2700,7.5006,303.6090589562736,-572.065394359114,-712.2390101959737,362.7304503150588,-528.1742233902788,1117.8595988802035
2706,7.517268,301.4225286531297,-339.1793222892451,-500.1704670825398,46.35669623279523,-457.5239699692608,509.6431680781079
2712,7.533936000000001,175.30770345546372,-411.8086274516243,-481.3509834121237,180.79918040033053,-375.79553091610205,464.9469108065167
2718,7.550604,213.23594579795505,-358.5967689303876,-491.5146129974213,148.19295724945022,-407.898365568802,481.17635665614745
2724,7.567272,295.68917990862667,-337.0245857450153,-418.28707142417534,141.67258352131876,-353.0432274727581,370.9502239676383
2730,7.58394,525.8321290934352,-362.82102442640974,-441.5929214540942,196.54534505059203,-399.9025682875734,330.3382162209383
2736,7.600608,141.98864752298894,-188.99457316029225,-327.374063709177,27.52668753769051,-363.3511437816835,235.6044151507053
2742,7.617276,247.90679811563535,-317.4523654732126,-436.81380555323454,247.81121032119853,-270.16180009709257,517.6829185057273
2748,7.633944,162.48780650957713,-118.01916400008363,-368.3701579592739,194.63372083668676,-398.7275084002853,228.877491201408
2754,7.650612000000001,214.61304670948107,-108.09804539718088,-204.32057534014965,231.7575487601325,-257.9847329989748,459.3859004454841
2760,7.66728,327.8400458519301,-163.12476734565627,-404.3083938874795,289.5260602473345,-87.84668286111686,499.4623391681544
2766,7.683948,311.7858216163572,-135.69432499970395,-371.9750687160465,240.60355258365436,-148.01760247184555,361.0658580767909
2772,7.700616,446.3347363533119,-111.53358823202667,-532.8680502980878,224.60396369425317,-247.0522488596664,500.1542565266411
2778,7.717284,558.4872396168792,-104.63124206442144,-586.4791470025192,275.92057189476304,9.497889045055553,618.9509822464507
2784,7.733952,642.1505912000227,-80.45280664989076,-851.2671000847594,317.57653332867886,-192.8516736829432,892.3135570571321
2790,7.75062,1031.1645114292337,-180.19163962185556,-1129.537129593176,392.3292037474156,-32.72443736746327,1157.5530586087732
2796,7.767288000000001,847.6476162720769,-41.89402879890041,-1571.3863651886595,465.0763977051851,-163.11677480593957,1804.918919840392
2802,7.783956,1140.5572475283798,303.5953099517411,-2248.1065457341538,387.4876156575716,-85.87054371782912,2328.216553806573
2808,7.800624,967.1170782022205,447.70759652020206,-2904.476182079834,259.2949649968698,136.59216617473487,2657.2647752497983
2814,7.817292,509.4707306026583,293.4989644172821,-3284.016228589768,-482.7857291741379,303.8550079333256,3100.5110055178693
2820,7.83396,-564.3498430581537,-505.7549735353306,-3270.077781607919,-1803.650489357348,-377.2829745613739,3240.4809133236395
2826,7.850628,-2014.724892849259,-1031.3098215795026,-2783.131392607954,-2305.8481938598698,-606.8658955846417,2606.097322088387
2832,7.867296,-3149.39674942963,-1437.9520613331997,-1644.20661246667,-3705.68636673796,313.93373076329226,1781.514017079035
2838,7.883964000000001,-3715.361261896703,713.0844755284887,8597.038974000248,-2925.0927292888364,-2614.743751293753,-11794.94852481351
2844,7.900632,817.3106774934253,4432.87357705568,21179.28739541766,11928.158995026171,4004.506543161972,-15254.137775337407
2850,7.9173,-856.4769419972987,-4362.436575553935,-5909.211851047094,-5966.090354268215,-2345.559091433016,2344.485879263252
2856,7.933968,312.57681065568744,1012.7110221095422,-1168.8921127242434,11.60451668770014,1137.0536460750477,1640.5465410664558
2862,7.950636,-5.325541150741202,-1592.5057521520118,1562.291095234737,633.9606662873666,-93.39520537129596,-660.8302385997717
2868,7.967304,-436.53490289948206,-580.7709346025364,-241.6407147951366,-315.8681174720832,99.15715510989074,292.980376394031
2874,7.983972,763.6458673437542,-525.8279129256343,301.1023570567653,242.0115500113208,-1355.6536803747615,-1283.541226600917
2880,8.00064,47.94025915438964,255.72676626907116,494.2237448748684,230.8528951793292,-161.6377982651785,264.5426097162217
2886,8.017308,78.99789612915055,524.9778316321942,1029.3857017132918,-128.6585073690215,419.4820559181565,389.7050711820221
2892,8.033976000000001,-177.22562477216027,1058.7393703837006,712.6922337406014,813.7025971488595,886.7247463590106,-3656.076652671316
2898,8.050644,-216.53134610983312,56.89782621957379,549.4184766379016,-453.377265882216,89.31818783608884,495.1667528522547
2904,8.067312,-439.9861869841354,295.455412506636,345.7796732118284,-37.9774008275581,75.37073452152691,-714.9724164068322
2910,8.08398,-405.89032462891794,-123.14823173419018,247.33581292194805,-269.4434390887015,11.761530418769976,-472.28549990579546
2916,8.100648,-639.241981451747,-576.442026732363,464.98667691025474,-187.9127622046008,-243.99873667333716,-68.01390924375927
2922,8.117316,-310.72715912253415,35.64978562021942,-71.53546615148208,-148.18570032210584,137.67241246589077,-551.7887806363369
2928,8.133984,-230.7503772717081,44.11444799559865,-402.4454518557354,-302.83944972018685,-164.43799790676522,-118.85063647833424
2934,8.150652000000001,-348.1625383658069,-669.0959120845803,149.04460955405227,-119.33710035867408,-407.0143544957344,-74.43897888092732
2940,8.16732,-463.1410155550906,-274.92878703314875,-172.1863786059664,-126.38515828078344,-300.5743379451681,-199.50422873936463
2946,8.183988,-106.37730817239984,-380.9500912463157,-536.3648479376184,-275.4842780710607,-331.09596683819456,113.53288223040612
2952,8.200656,-278.8143277186284,141.04152493655585,-109.84306576879548,-120.88676734406178,-191.1243980647999,302.09162961092625
2958,8.217324,-288.2982042964346,-374.6983770687305,-459.28811964551386,-217.52117810500528,-401.1774040448929,439.7693278671404
2964,8.233992,-282.5650006555063,-298.4023236880635,-430.97864774109377,-256.7888893306685,-330.4934424177286,280.3552718492556
2970,8.25066,372.17055408676384,-42.54219272664,-735.0857618248763,-198.77207670559017,-1.8347356471714988,603.0591098006466
2976,8.267328000000001,-264.68822225058705,-86.97369934471557,-311.0012303036581,-256.0180310635826,-70.2668722622814,388.2668577974722
2982,8.283996,253.7648626907804,-78.44945265675368,-597.1888444645898,-153.7237637549159,202.77414294390667,559.2181098415174
2988,8.300664,-8.344792966370456,293.22917670733915,-340.35899937557326,20.495351919449423,229.28073472176072,338.7370782446997
2994,8.317332,497.3832626514457,287.5699258865655,-397.4862652907453,189.312607956526,527.3706935837154,429.512506856919
3000,8.334,182.56117749457775,339.8110040654558,-368.0799020391155,219.5404367120993,472.5037311136974,401.38709170160814
3006,8.350668,380.56203725520857,340.1226024241446,-158.4921483002134,248.039468784319,249.80276952302364,255.6921402091593
3012,8.367336,517.4353343541181,614.496257865038,-65.59698415106298,504.5317519674445,631.2273614044782,250.73195883925288
3018,8.384004000000001,491.1618435331764,517.2472669476298,-128.87910680654753,385.2164864581979,451.8511571219732,207.13435915400865
3024,8.400672,425.5621523186726,338.23718399039325,-32.700232284425525,467.3504075659953,277.95048834549107,250.63378348529687
3030,8.41734,425.6146172765389,487.842735929974,36.96024992626322,388.3373864051324,341.67243779724186,97.56887740405392
3036,8.434008,261.39214632718614,87.23689012551445,77.94377341148997,416.4681358282734,265.2506532325966,-45.50870068884131
3042,8.450676,482.1853270138922,445.460559550372,30.8695077032123,383.5045760124728,269.7270461881636,287.67608024142646
3048,8.467344,262.20265303600644,188.17421709611816,240.8571508829439,512.3746543624818,419.7575861812401,12.90113478798726
3054,8.484012,378.0202223043831,22.12460240865361,-74.66389110246257,338.2545949852752,40.76233339580049,175.36968564069545
3060,8.500680000000001,78.41856450838863,66.8083649790385,5.597019972821784,58.50473358562991,331.0659805837494,17.371209471996234
3066,8.517348,155.5072308800719,170.19867423948722,187.88722142004667,415.6691099150441,56.41781841978087,356.2845644402464
3072,8.534016000000001,313.95196606913703,52.62527386480927,-270.09283057263684,-12.135344465789132,-58.60576120134587,-4.184940737418515
3078,8.550684,53.76304727746869,-15.935157062651244,-90.47570231796104,-4.176438399963431,34.709376380938075,105.1543331809522
3084,8.567352,75.92540825807887,172.75500936316442,-190.45661647215417,101.84842040070704,83.8193513564473,168.23378953551574
3090,8.58402,177.42251072153925,-5.036058534759555,-184.63692437149172,3.123017183178071,-136.21387067813208,169.6767479930037
3096,8.600688,46.64324632350741,-44.76358830489629,-305.6347271443816,-82.90225989913466,-156.0686743204718,151.23062566337117
3102,8.617356000000001,198.08843047138708,-148.1547886650507,-267.0401054281876,-120.74634446606092,-183.1622470978152,176.16472221901788
3108,8.634024,-171.2726456429071,-113.9279364633361,-31.45455791999041,116.39583337043784,-104.23207711087235,127.81702496775677
3114,8.650692000000001,154.60033849009764,-20.161241250593008,-75.87771040547754,-141.08094182500508,-309.61829299558667,-9.143780531339566
3120,8.66736,-2.026458310073906,-161.64656049668363,-397.8609735241654,-176.17061906726263,-140.01601725442248,93.03778831944496
3126,8.684028,-148.3539088586866,-108.83234736109314,269.9646600858219,-118.37215953034506,-321.2440617473736,169.10197319374558
3132,8.700696,-115.01720364852672,-142.7688200441959,-193.8190118400232,-138.86275503816998,-185.2066892199269,11.890451398317524
3138,8.717364,-45.67700871503169,-199.27812302451088,-132.07596549001784,-118.8918234074824,-35.83193616057151,-187.209436743674
3144,8.734032000000001,-120.15575047117775,-15.617003032079769,-103.92594915435912,-179.41090642176553,-166.31255674141192,51.94489235492392
3150,8.7507,-77.51885726313157,-176.81898472106218,6.363477920979872,60.97380034950096,-117.26424633995404,97.43559645859872
3156,8.767368000000001,-55.69903260632896,-19.51394867104414,-11.21481571610694,-213.11248950968368,-95.0490749545323,-197.1108896831298
3162,8.784036,213.2029121956428,-325.35441349203177,-270.144027806093,45.14103443596163,-158.0006046312432,81.90433139701469
3168,8.800704,-266.11390928204185,64.5134465604415,82.39589480361124,-83.2056107905034,-33.79659993675871,-229.1388087737914
3174,8.817372,47.23226664611873,-117.59471054247314,-135.22764461077162,-128.52195108452727,-209.82490870206496,33.35448750386344
3180,8.83404,-169.00991751342053,-92.74441175048156,274.6877699068649,125.19842492934096,4.045487961549142,-109.87150133764636
3186,8.850708000000001,-58.80054737962075,-72.91002681052825,-204.2841341429801,-131.7678059933561,-21.561766344567985,-5.810120935482068
3192,8.867376,-98.10545630281815,-95.77100642318332,248.6713906453736,-15.786433231949534,-65.75478047209697,91.98783338412312
3198,8.884044000000001,-1.838922063635959,-56.73820129408784,-137.80239575209433,50.12168690380044,-191.1347678318205,-107.57473485198636
3204,8.900712,-133.87730529152924,-106.12989562450082,44.83886496270516,6.403583115960473,-104.45131705702693,110.16912974925144
3210,8.91738,56.64474279938514,-161.61215043757582,-108.30225803229584,-150.47659261494488,-70.76412169578052,-127.74728975880522
3216,8.934048,-197.9951633991722,-272.0377748627947,49.02148740432148,-56.20485492272889,-158.83285161167032,145.2204909995835
3222,8.950716,-74.02953214267174,135.156738528853,57.02479769388464,10.71352224878952,-202.2059802206728,265.5955635621968
3228,8.967384000000001,55.23569648300091,-40.40771671066711,-74.99806353308463,-60.8205911801065,-327.33196462202704,68.74166015722126
3234,8.984052,18.97307995845668,-261.5040029195679,-17.452209565913282,-132.3880163063524,-111.67683904156544,-26.066539742277516
3240,9.000720000000001,-10.726948362416366,-267.7112463592248,-135.73417071174262,-23.222662701765604,-358.2398044621069,82.71974292189356
3246,9.017388,137.1643589069396,-153.56599879498378,-113.03877914951104,-103.14293010210493,-229.95495538756103,-84.45965501049405
3252,9.034056,-154.74038189579585,-350.1018930603209,-52.278620221648175,-9.428318007130422,-392.00763611589286,184.96578362468048
3258,9.050724,26.88455108663952,-172.02842953354116,-90.22928897730525,-24.10416662487228,-199.1974844188436,-122.96978873138434
3264,9.067392,-200.4791164624922,-133.02917647610542,47.72192684065108,-88.68568784725537,-209.7866062118643,-39.19790499830941
3270,9.08406,23.223951435948635,-205.84430557123164,-76.76693019789047,-38.803559805087886,-367.0734479440653,116.938071540179
3276,9.100728,43.68521778448013,-146.1054850505998,69.73827558275728,-114.02579761410104,-97.48299387931068,-38.66274272927514
3282,9.117396,103.65338577537406,-42.06600311289085,61.21963945152899,-133.82700155498122,-54.133881569908354,-14.97232788230491
3288,9.134064,-203.83432621819668,-461.7739354649731,-146.6221689278657,-95.39511966644127,-140.99040871681,37.20516003120149
3294,9.150732,-10.266261960889253,-231.25698005013427,31.040090226589285,-41.55822077144988,-121.98620630991316,36.9783911932644
3300,9.1674,-210.3272295942108,-138.4941041640338,18.860843169841782,-299.835383527938,-29.92726991580887,-135.2258002670763
3306,9.184068,89.31837377958406,78.52179921451393,-106.2251022691464,-28.114546653840108,-120.89514029580056,124.26602385168596
3312,9.200736,-366.2873954043852,111.06419291771566,162.574169067753,-220.48729810618573,75.50448538867998,-328.83511100863143
3318,9.217404,69.35652096301402,-118.43154964816785,-297.50111791766045,7.2218740722248285,101.0490888800156,120.7236560389676
3324,9.234072,-217.6464628053113,-108.72417927203082,86.4382557968129,-157.38115190855922,142.37710177904256,-80.18935986938929
3330,9.25074,-363.37044585506,31.4364142698702,45.73096121742492,-58.976554367670815,172.27617865917315,-159.56251465032904
3336,9.267408,315.59184834374355,494.0737729124386,-137.0937685610967,-81.79331701961209,295.12917672374164,36.22433315247776
3342,9.284076,-206.1469417438782,284.34946316637564,-35.67174399718422,-107.90398212463434,334.3333400179541,-113.43064391957924
3348,9.300744,-223.3352033115684,185.9234077756143,-191.06572454562303,-131.81238735864792,205.3775697887056,104.70347023550212
3354,9.317412,-268.8703092725277,423.1048580474664,-24.98943401923742,93.21662232617987,428.73144620347296,64.96818999127912
3360,9.33408,-139.00745162204018,471.2499541423632,-49.53476933248673,78.50476080157935,470.6236666854952,-47.69335585887379
3366,9.350748,-76.0708688925052,337.6833558673834,-51.59434630371288,-135.02859165462598,397.2160231824901,46.85323876645961
3372,9.367416,119.29843246085068,452.66510271907447,-100.97693057555546,44.8358173986787,320.72407831865246,40.42059391405036
3378,9.384084,305.46750991276656,493.67043091841856,143.65871306436233,191.09256980031373,212.05103369379495,-3.803543408465052
3384,9.400752,-318.0037396915136,-183.6986211778203,-323.3107748006719,182.43581582743724,184.68953184006264,-157.10801328052372
3390,9.41742,462.6601399407828,368.794055615965,304.5927209028294,198.62147229708185,93.33708435785267,19.88290453437876
3396,9.434088,176.85552378132255,213.54533180460123,93.40012165896631,85.04357048917095,-6.044411530915816,-127.26113780703258
3402,9.450756,166.0485877351927,-126.35733876529588,-11.842093039419956,229.77036374444515,37.65913630710831,224.5034401790427
3408,9.467424,67.82442597340506,115.90572627097956,150.52357250642615,299.91969244703785,39.28278936814303,-155.67636149983463
3414,9.484092,178.714540429177,-47.853511700809385,39.96726964648141,90.2753807020818,-99.47047759918016,-37.00475067587773
3420,9.50076,104.8207565385784,100.70953573837392,161.95165899785383,213.0189607809777,90.0831615560056,-12.046269322999295
3426,9.517428,189.03106975403347,88.58048219663984,158.92152130986608,180.19425878228665,-179.75124679397135,107.33809341757464
3432,9.534096,82.31589262899273,-124.11694251370317,18.90179815052537,141.09322009455067,147.27683199938372,-21.18937877030836
3438,9.550764,-79.05043931383184,118.11568904501009,17.518606677827666,206.73300998668552,44.04585009062651,-27.16445338266817
3444,9.567432,271.920871887811,-8.10840890036917,144.5826262737816,81.49388224086978,-4.820792089259513,12.554966930869057
3450,9.5841,-62.77408741435977,108.523207914763,-70.93854207791905,265.1541351952263,-27.943180678155414,276.0549433319313
3456,9.600768,85.57271068360588,-40.68591628461381,164.48804750584628,-50.38428660699412,126.07509556424112,-367.65176162693496
3462,9.617436,185.99953504062836,177.08094863850778,47.82934214797814,83.10034454856523,121.7090739035649,127.117175857713
3468,9.634104,-266.10431376162785,-307.5391705497432,-104.68785150276368,218.93811854869563,48.3960414490069,63.346702554647365
3474,9.650772,122.48661644976312,-5.314043439204951,8.085640365253113,71.86553507964175,33.196085839969086,145.50641933918087
3480,9.66744,-73.52861751453723,186.6455212187398,-6.4097222266096345,-13.30754342937982,91.3691315118988,46.193727012288086
3486,9.684108,301.8486263766919,103.143474146668,187.70087276337316,28.877011606121822,-21.327090211381268,89.70792149494699
3492,9.700776,-342.9576814553426,-105.7915753366685,88.01395455684127,11.768941129576518,91.59109760485728,138.5179602255905
3498,9.717444,331.0408409878274,-2.1439611242901133,7.903269355703959,103.87624760067813,150.79608832496072,-48.19650341137552
3504,9.734112,-274.0885178409477,-32.94412421894068,157.59719329688733,-78.86441932942543,-214.05477120546303,122.2059353840628
3510,9.75078,293.9825662002449,-28.593607774352613,146.47794042736248,-7.904280160848053,251.4981844201228,13.165661084113824
3516,9.767448,83.05689844129154,-12.527592151239752,12.7970524305425,-15.58318563987376,164.66127784339665,127.71553473109262
3522,9.784116,-137.86481067409872,-223.88247846997035,183.15485033944657,-12.9561481079094,33.493876057263535,-94.30331035862696
3528,9.800784,139.26737660783584,-193.5222504909012,-4.788800007775436,-53.57097969922332,36.35263960271925,-98.65218069844474
3534,9.817452,161.44066770763683,17.647672965170663,165.23994544183864,-67.1158927340557,163.13871001866949,107.13019087675131
3540,9.83412,106.71800214602422,-201.4100520267894,86.20971114735575,8.618742158985327,2.9018292400581487,89.65992153816231
3546,9.850788,43.555389526690085,19.971883055478248,102.99919482953136,-199.01157643849024,137.02034289536817,-19.88592368036928
3552,9.867456,201.97283349066683,-84.87391385143094,49.259248599396,-39.8141517594788,177.33553878575756,-64.29889185535767
3558,9.884124,-266.39147219290743,-61.45334401976456,91.70081811244457,-200.2919831863069,39.78827504278144,52.47196563299201
3564,9.900792,50.05374889721427,263.4397990641985,246.42989651395948,-244.7911451385378,137.23264276238675,8.063485636476422
3570,9.91746,31.091857117032514,-128.91439004585655,-98.30876846722784,-187.41579232248785,-125.20009955233456,37.99588161493238
3576,9.934128,150.49399435223177,29.61361866723909,141.75446825537506,-63.07878162547772,33.304851872287614,6.330903584865995
3582,9.950796,-199.7283779126592,163.14051578357424,49.04464953559173,-116.57961585856604,71.28375904340464,-9.09854091850008
3588,9.967464,77.8942569437045,-44.36361766336666,115.00925286759524,-148.79240408408216,-24.307851675651825,69.29587581967704
3594,9.984132,-101.1888851076207,11.034635058163165,-53.76262804315324,-140.16581092871067,-41.665426442256944,-114.13961387534766
3600,10.0008,-215.0346487203824,86.55819326920874,263.42866478304416,-280.0767905275843,-185.15566434094623,319.8497117806214
3606,10.017468,225.2245067074857,-5.981553649667884,78.04207262065455,-45.01761241005868,40.48851169308794,56.1158550483093
3612,10.034136,-336.2671084098263,206.21515923597437,160.50267296000874,-152.62982607451724,-85.46697193901126,67.2726013559025
3618,10.050804,24.593293489743736,-138.03447892767355,-135.63580287958877,-65.52332678857682,-288.1798579906157,166.20956274537667
3624,10.067472,-44.13466166774699,-281.10136416468526,86.80205431520088,-126.72134566823938,-122.4872381888591,-5.968158999894705
3630,10.08414,-96.72261834970472,98.70086114071574,-121.06703672253002,-30.922651384813804,-38.49386098240312,-76.94592220743417
3636,10.100808,-236.33519972491132,78.2421554350624,224.8217005374894,-122.19954061449118,-123.16734810258572,187.35599695770716
3642,10.117476,223.48347548644017,-101.38954112796738,-131.66604849058538,-135.39392291435706,-45.55413354110566,-63.58152619099408
3648,10.134144,-114.25631152560808,-131.95638435724564,-167.8435896669667,-169.47539575463827,-97.05182317928684,106.42832480012687
3654,10.150812,-30.3396866050224,77.61174737059017,106.37338084343952,-50.3228062008856,-34.63219069591668,76.05283263121447
3660,10.16748,-189.54508032254603,-19.1272076593158,-78.92418364547484,-67.7652604053908,104.82679229925915,-72.26890491233402
3666,10.184148,9.306027769914026,-150.41513253916844,-32.14872825805841,-58.38079998516426,-105.25386513248972,-31.45125757981292
3672,10.200816,-209.888159765684,7.706819240063692,104.32212968710004,9.460397835468378,-19.22249726116513,104.99145782464258
3678,10.217484,-32.67927780280411,-149.54226606830755,-107.393334031134,-128.9819012146591,-10.321223636987463,-44.24840723378428
3684,10.234152,-26.78673495994461,-46.14940940693769,-1.0860944661690866,-103.35395391092185,-104.38080455601336,68.4578401350985
3690,10.25082,-20.606546154619185,-226.79223017511865,62.79916621339254,-40.787793074219344,-7.133084894147011,-30.930136584397047
3696,10.267488,-1.0729268761050648,-46.93000391559725,-88.30263826138989,-40.56529297380333,-63.6947011094241,-228.77863229387935
3702,10.284156,5.094184578829612,85.47992980936824,-107.34695400993397,24.623059367503863,-137.29550266310844,-4.609694600366893
3708,10.300824,-17.552968547195203,55.941179904492486,-94.34280429106909,-103.91776502979036,72.28485774523426,-170.83479812314226
3714,10.317492,-4.114164929640538,-59.21507578918829,55.95863334149215,-66.48044542643565,-91.93771981293138,39.914931989843495
3720,10.33416,-38.85415624342159,-25.72460431135846,-84.04049823789806,-88.43705335280794,90.57627729576026,-32.04517698293747
3726,10.350828,-5.64649474608084,-167.27301066451935,-22.404076997719,-74.37214385672448,-39.75113922200752,-29.795206592360984
3732,10.367496,39.37409861827668,36.260495596583496,78.07995258079976,-30.88921014039797,-62.315895862149375,-153.91943911756076
3738,10.384164,84.5664350941411,-41.16222608223175,-9.292447615203834,-64.84231590088238,32.09654336037998,-139.78528695613238
3744,10.400832,139.5028363828817,-25.35747089522522,-134.90135310252384,-96.44290492876854,-73.14245603501344,-33.79440238247362
3750,10.4175,28.857763475987387,-67.57452003883662,-5.675989615661393,-26.437900312193747,113.46431433411875,-244.68383623325715
3756,10.434168,-84.02378907839825,-40.87428957163341,-2.8692992321594275,-20.397812392097528,110.95869665736484,-34.30350812319141
3762,10.450836,-161.25394739923797,43.11858591916388,-77.09884842330337,42.77457700345298,-32.509138419474304,-66.65475965305419
3768,10.467504,223.4395421329622,-21.670020444372696,-34.79953043004657,71.78490889436773,25.45947452030585,-126.26473527785248
3774,10.484172,223.79980936028795,-53.39679796683747,-59.14976884936427,67.47723924843166,120.91635589895888,-120.85478078735848
3780,10.50084,22.81679705522912,-13.939059447203933,-28.231222162026917,64.04328246194464,-4.046139601031513,-138.19043041612696
3786,10.517508,-33.956492185368155,76.28714239025993,66.02696423800805,42.19254537004493,214.71792246157304,-145.63995395019003
3792,10.534176,102.43288662682453,-94.94325867044336,-178.38673829313905,127.83357005238724,-26.46384246420819,-113.54730850329284
3798,10.550844,213.55114151102453,-195.28357627340756,70.3628671647322,101.82824143045778,-43.93068196662698,-115.27341326942752
3804,10.567512,76.67574486849672,63.75983812341156,-60.57355272034269,148.43937926299748,121.52049267797044,-2.904403391739152
3810,10.58418,53.12670671039319,363.15532237545153,-6.218796805266923,132.0393707695233,-20.656310454211805,-143.56148709398497
3816,10.600848,0.4616870514133673,59.45516868425014,-127.29777286937332,245.75398218221972,-50.03302124395569,-7.29068303485321
3822,10.617516,132.64842807990672,113.37704044978356,-132.2985019131862,88.22394473404013,126.64969754937756,-134.0472373070642
3828,10.634184,148.44699388300845,9.897672676182662,-85.35527669618136,157.80466342893993,73.22218151139015,68.18862726089436
3834,10.650852,-63.38957507576436,398.209485009356,122.3830627777472,-6.512494463395797,-138.15415838516762,39.6712529326139
3840,10.66752,158.42241417420266,95.86187703224124,-173.81286303279285,165.16014369807016,178.48737614957616,-53.855177935028834
3846,10.684188,-217.71322672825917,368.61265230297806,151.99243869403915,215.9923716530968,-35.2960599268519,-54.51005355291049
3852,10.700856,296.6493889999454,-228.5612249938424,-269.07930481807966,77.85026140829143,114.3935779162758,92.6051635740765
3858,10.717524,156.6213806270949,-5.004512921480092,96.49456440411146,73.23325287883868,-44.7228717645208,-15.650968772613815
3864,10.734192,-43.41491870690172,166.21395155777583,-77.14657121381214,192.12348948264443,-153.19862602729555,45.85757413402058
3870,10.75086,179.46542970241143,-365.33988493740287,6.142653559351345,182.50867338312904,19.92892701816176,-62.83041955047005
3876,10.767528,55.604029184079614,-111.05744474556322,5.555778301633756,150.688350979605,-266.42949565391336,122.95492856143248
3882,10.784196,-22.382638567596352,2.0840582299378383,64.37391087518964,211.4783426121976,-24.52040117425554,-22.403005951024515
3888,10.800864,-5.239051295062396,-94.2637943008998,-11.667383149110302,189.47461938564484,-42.39975877555508,100.82521584564388
3894,10.817532,68.731229590485,-188.74104755963015,72.70430923565425,14.811043972853057,-220.53244099809552,14.159961543808254
3900,10.8342,-114.80319467453891,64.8240716780875,46.962621698646565,119.36252605300028,-63.70079426152162,101.58506682432476
3906,10.850868,-80.97708459895054,58.1401033808428,-63.25252895960716,89.28593289520502,35.83036784886778,-72.08334759894767
3912,10.867536,104.44106847378788,16.2076176989533,-119.20282900969436,149.48596433110714,71.84238629226036,179.64636985780442
3918,10.884204,35.06586081120633,-99.96487813835842,77.11619761803544,72.69015511199683,33.095429349661785,-93.00169598304224
3924,10.900872,-1.53786246124492,-262.9724237245573,-113.46701661615832,136.78611717518172,-91.70403615284732,-2.477383632133716
3930,10.91754,61.16333755112065,-48.84840045967927,-153.42937763046262,13.33296781915098,53.90692801106466,233.33393217739015
3936,10.934208,-50.661634801850376,-61.8616702794439,-135.52096767010522,-4.41801693821877,105.69865514621596,-163.5805068551937
3942,10.950876,-21.392384384892345,-63.9663543084013,-76.01371697381893,-69.99229271547223,123.64249405242704,115.01293781592608
3948,10.967544,110.00665631346816,219.7626317285257,-84.4452571748444,-206.32474063288151,98.14143591215746,163.55870837172964
3954,10.984212,-145.63464645396996,53.15163647084373,-151.20339420457097,-134.4814317643893,234.4470305834388,-39.71278821308195
3960,11.00088,-154.8538797195194,126.28304363865024,106.59377151685824,-14.44516884736084,-26.67617369286514,-80.87572369351957
3966,11.017548,360.3147046074058,-145.5444648237517,-74.77731015656136,-12.621065204106948,113.4506666896268,113.34787066336423
3972,11.034216,-101.54109187716986,-3.550801169836234,-150.62207941867956,-64.03805817035823,-123.92439301228816,-114.62111773201272
3978,11.050884,134.791357862548,-56.84123389677792,66.54703023941212,-84.83375503054069,-164.99034685761586,-15.742231317221949
3984,11.067552,-46.84025263758726,-174.0399772387502,97.87283006823525,115.47183496147086,-67.69289454961802,-117.38865581700858
3990,11.08422,92.21421183664604,-41.08778494146145,93.86994210007629,-175.5223010874803,-132.09863404440148,5.817931513591361
3996,11.100888,-12.530705316370865,-104.47639470530962,-0.0431254795440878,-100.81753703033198,-152.61584608243408,-113.03432027576102
4002,11.117556,77.04717981003537,-31.56141724415998,-62.46932666358697,-17.59254156990771,-19.646438806156343,-59.74888881902795
4008,11.134224,-110.72131823935386,95.570155445736,61.073453575970994,-29.03305270726872,28.187482273478054,-91.06512274564848
4014,11.150892,152.221546891833,-6.618327236114254,-328.95861204453183,-31.792323553566217,-24.226769848284984,-61.04112566657854
4020,11.16756,21.03592194782581,113.22216028911808,56.21141541337941,-95.50666827283356,60.47263666613,-19.267483917277666
4026,11.184228,-26.42435403921029,63.9797725645079,14.525617848862364,-26.21892467975212,-60.16960446145535,-45.49991991739228
4032,11.200896,-29.022245701834837,-54.50847996685734,-100.04649850381048,-57.58744993099244,8.867812006579461,-126.03973548307472
4038,11.217564,61.02619498631759,162.53088847475377,44.03883047091786,36.282577116234776,24.489640390268143,-23.914710125624744
4044,11.234232,0.0308505725415209,-40.288299444463895,15.061013175969247,-35.890296192644875,-1.8316252790861327,-19.91237032835948
4050,11.2509,131.77917202333063,20.6765267015986,47.65077818775076,3.871890599658944,-10.163629032901651,-171.7778738298718
4056,11.267568,16.7639315946347,-80.36306724904557,-9.70165110345221,-23.240870667063326,45.72551873843805,2.613082737020214
4062,11.284236,-6.765024981533207,41.81054363008538,-136.5943160778246,177.84579330583833,29.05890021409335,67.3330343409645
4068,11.300904,50.56893944862961,48.83610599556136,158.4376548486071,-25.93209424845694,-3.588923143706477,-45.80809617427919
4074,11.317572,-82.59879874837974,-31.990711989398083,-13.251089378567698,64.79839839318738,53.72755055473689,30.734276494595694
4080,11.33424,25.613068945143983,60.76204672569322,26.06717175949777,-41.18077474917578,44.45917541760872,3.4558817999318983
4086,11.350908,-46.34391732834969,-58.892923678177766,14.083568737629532,49.25224478315653,94.13322086386236,8.696088654707282
4092,11.367576,-18.165395684203958,22.05955888576707,-53.726584608243485,18.63107771500152,69.71645952324798,-47.734745013871546
4098,11.384244,109.96700559652206,67.61232896116168,-38.91669451434791,21.65852103478501,64.62319695555945,109.72681128513152
4104,11.400912,-70.37749999141285,47.02321154266866,122.39162886314452,61.74488962992294,128.43452423967415,-27.73755688109643
4110,11.41758,-78.24133676181428,102.37491450905831,25.08572180380739,115.84714179563912,93.44267798763616,36.41670256480664
4116,11.434248,98.25783023479912,51.01589086809435,-82.02757793752454,-13.832834328399452,130.90931035973614,11.029587071033731
4122,11.450916,151.48755818745138,-19.94420270740228,-203.2621438001853,217.24923818600476,-30.47603504026432,157.04734364757417
4128,11.467584,70.65594615063394,308.5318154006773,144.53986783845943,-7.462783651874295,378.34558890207086,-44.84428055185568
4134,11.484252,-20.13106341581692,209.85065190957317,138.53676575372214,123.24936382772052,212.66604732369603,16.122776711347438
4140,11.50092,95.05615653128942,80.10726438306156,-306.4055324792167,-14.763232897663116,179.58281881614525,14.03178338545809
4146,11.517588,82.55324260491336,170.63540819966556,-31.09392036344156,59.957516207146455,156.41380759499697,238.9579604593959
4152,11.534256,235.66153634091296,71.8561091395112,-18.12746164481527,65.40434845763197,60.92806796170553,56.8301221027241
4158,11.550924,96.2029817270666,187.7098643143056,9.787063153749934,-1.702570745037157,300.52206112663805,57.4606933138495
4164,11.567592,120.15425273685015,78.81239056869123,18.394612333223968,-128.83555391125503,180.1281183064416,45.98918169158449
4170,11.58426,136.55489879906065,83.64611472943304,-206.8039219048003,-58.44969817178291,6.721879987398545,-30.256274470447902
4176,11.600928,-52.775495241405935,23.528644770800888,-228.2394775204032,-18.800824221472936,-63.52712057065152,-28.08545600632452
4182,11.617596,91.1351634164588,60.75657948386639,185.557916601928,-90.56457061572144,38.97058883210879,8.895554937396215
4188,11.634264,23.61721590167292,-53.35159857458687,-243.31987329497997,-17.015639834419204,47.32748849676297,-56.98187778803009
4194,11.650932,92.99010087999098,-373.50286016057794,-50.29764042652863,-171.3707690881366,-685.9497884413137,40.35052456029148
4200,11.6676,-198.28867819935465,161.61934314174516,-84.27961729022728,-23.89696966521616,12.830535995082826,-49.42722110568631
4206,11.684268,27.49444109833697,-95.30780837398147,17.04250987643257,-66.32110220997077,-155.14967525130987,-21.851067371693457
4212,11.700936,0.4947965667497271,-48.527622623325655,-112.41682577908438,28.631113923399734,-139.47629540152022,-78.42375055577972
4218,11.717604,11.43575169606705,29.88819509615585,-93.56548936158308,-33.86510038869824,-91.76989705493052,-102.91089121199649
4224,11.734272,-239.3207308422932,-171.67039172034674,-46.29131074649312,9.329176868178834,-342.39637837155027,5.916685305553996
4230,11.75094,-48.07806864026283,-154.0395903016671,-43.03006678733368,94.79230249572744,-67.82048175359562,-53.186140696769165
4236,11.767608,-82.48144258045824,-80.45421945005104,46.07865195621065,-79.16916100556365,-477.22864088272286,-187.15118923693265
4242,11.784276,-255.1201210352981,-45.84295077148547,30.374287949889208,5.0274912735204005,-155.2327671825755,-16.0748137604971
4248,11.800944,-125.03439421113356,-116.894708822329,318.4149145544533,52.1522414075548,-286.14966946651634,-122.43594381425147
4254,11.817612,66.70038851241142,-218.86125193234608,-399.4349825978833,64.11806013008214,-272.16281153631104,68.52757490075194
4260,11.83428,-118.04178723775236,-229.5540580461379,103.60757569820274,-5.541322483603416,-140.11568236427382,-75.26413271445722
4266,11.850948,-206.07374124822644,-233.29402220974856,71.68727838134853,118.67882437548896,-319.8546405061303,-130.62928845254893
4272,11.867616,9.772784914998644,-239.41860779199612,138.04731446620826,-27.29617593179244,-216.9378222988495,54.10331312985223
4278,11.884284,-53.624125913999016,-139.90047528879705,-48.56118764179139,62.179057443027226,-235.2248416487789,-47.20756516568503
4284,11.900952,-134.9876321868354,-326.2074567534916,-61.79400921016692,-47.64293157721431,-46.18692278003336,32.73185827733849
4290,11.91762,40.053367303398126,47.48849728801055,74.36876865760244,115.16817503778402,-85.15880529660575,-9.954888766669187
4296,11.934288,57.38853814618308,-206.422152343388,-176.78357098609348,139.77201524952315,-89.02534217873563,-123.67816207224976
4302,11.950956,-124.06394133397043,156.75760723245637,309.8477917203666,117.7078311417834,149.79482638270298,-31.082179494133776
4308,11.967624,11.463102367613672,-10.44884083183446,49.528696723682174,46.86941233258055,37.90480305549055,92.7339009948198
4314,11.984292,-25.415299256967597,18.570801746875617,42.91442460353389,180.61328191298287,97.56838650701668,-95.9416452743721
4320,12.00096,103.87917015502592,-99.58761768560952,-90.6509462467775,218.58276973252023,104.1444801158574,-128.4856207041322
4326,12.017628,-111.03595153041236,134.35876491822535,-16.990585014373572,190.8643996060456,238.2747499576462,-43.425637460340695
4332,12.034296,67.10247997825104,-98.96287803564915,-218.2605851491701,138.27285242715948,183.30655439171173,83.99647251763619
4338,12.050964,2.9659124157414567,3.718803008064924,-115.59680780081104,81.37069225967063,205.9798998505356,-178.13677407484778
4344,12.067632,-53.72864135962379,12.00170298525753,-125.74778670675772,131.65562770789694,167.7251840660173,-26.20698920864334
4350,12.0843,241.03491689383785,104.60138358856912,-23.233277291815924,188.51629801744548,266.6019166010988,-170.19959814590416
4356,12.100968,100.0452516772584,123.59281763309042,-173.69256883142867,127.62961489480084,166.13038006137285,-89.37047105063951
4362,12.117636,-141.80247716676956,211.01012419925144,-121.4242876356557,27.18169354042633,131.93302583663814,-40.28688506290624
4368,12.134304,48.26479005307209,220.0047011085793,-224.97982021354923,89.0884725134907,119.95533955557175,-114.54434748011376
4374,12.150972,249.801333527295,-500.9702022903063,-262.9413669363342,21.5766735161332,-382.2123129324783,-204.58285815607437
4380,12.16764,209.44150914141196,695.2556117124584,41.281337952647,258.18885665060145,540.4636514277584,76.64107797776273
4386,12.184308,117.75890035005668,2.824924913830316,-31.34639152736557,-80.16002408436563,-8.943682019053234,29.62509729530985
4392,12.200976,-112.99068559696627,-278.58806105024786,55.64909681962064,45.27642136394991,-111.75601549559138,-71.79445536095565
4398,12.217644,112.819990653843,123.17828415642464,109.64415967786744,60.09792236554072,-69.18203588433845,120.76290471318929
4404,12.234312,36.76525668055199,149.74221281279534,27.483667299214996,-94.01629028864828,-65.21596114198758,89.90703568443388
4410,12.25098,35.91816472016785,138.35928616918966,129.50150595903182,-13.59105397096829,158.0675430018484,55.43675834461203
4416,12.267648,-3.281194210900264,80.22518728682668,204.0299822064052,108.40829287304204,-42.81334679627493,79.86275446880136
4422,12.284316,-75.40475526501336,86.893281356818,23.52621251001724,-157.04355236156508,52.09561984678828,-5.328772952334608
4428,12.300984,59.52206891939633,104.59225750978936,-105.27529649745122,-197.31137616137488,200.99907169817095,138.89193909659937
4434,12.317652,62.80863293054311,-4.091072403294703,463.9935571885651,12.541606036015605,121.02769749673628,166.04642709709304
4440,12.33432,-174.73726807213208,80.73986585208831,-1.8760661148909603,-260.6684710314715,83.54821551234457,3.0987454578294784
4446,12.350988,-199.7872754191956,27.335866292147173,513.9969171504279,-294.2292637110676,176.738059295425,109.3866156493078
4452,12.367656,-8.726809147483458,68.82180732132832,299.97534068935414,-115.90948808350774,125.48644528537264,62.52572471272326
4458,12.384324,192.36102116184415,-436.8572952278335,-12.05348372455763,-365.0092519981516,191.5195217195737,-105.71096333081066
4464,12.400992,-296.66136439516805,132.3765329752018,387.15778447502623,-278.84340925347533,186.35986612612572,-7.172718419399363
4470,12.41766,67.64216607845117,-218.43853662490383,210.92676865084067,-148.28965351042376,-75.3066387405468,4.114193617498485
4476,12.434328,308.4366427339627,-76.0163052077793,164.37118798225407,-192.56933671748183,-102.38204705739123,99.7594831190104
4482,12.450996,-174.08882586224718,-44.8738466631832,420.6386311719696,-273.73363756129106,114.48305518155357,-20.87153267715282
4488,12.467664,294.72081990077345,-63.20113346315441,-250.22698039803905,-214.915196948306,-181.60090706186128,59.407331753360005
4494,12.484332,267.3348552118756,535.6759054987979,118.64631553536964,-293.96831664774663,350.5345152112057,118.42226049633342
4500,12.501,-81.2409587843204,-486.5100446684325,14.791572091412725,-180.7534287901248,-481.3601270053597,-54.976948128822656
4506,12.517668,-203.3474071047984,-269.5543222585809,406.2380961757423,-164.8799204989288,-509.2604604678053,-17.05485654138639
4512,12.534336,64.0571616405502,148.35152761261108,-22.65628312351224,-461.8373085551709,-285.10134093182273,97.55531522080987
4518,12.551004,156.713259207655,81.73060924066534,-119.13097120981328,56.79874338349303,-275.92314204473735,28.65731104391977
4524,12.567672,-138.76919480153455,-68.70737838198157,-163.2660824205848,-280.70638185469693,-47.3031923356034,-71.95606286006495
4530,12.58434,-115.32812856732124,609.1614330151851,245.72497178874417,-164.10289426549815,-90.85661053819108,-10.500233387184268
4536,12.601008,-285.7010917676883,-230.81355621360183,-114.23741703120768,-222.2483875367099,-241.3751301971514,159.21967142140988
4542,12.617676,-41.09080028344404,235.30339393434065,212.3421773796871,-94.25269484333162,-110.43489466098072,6.394676474529234
4548,12.634344,-44.23841721930533,-276.98639680508813,-73.41821688849473,-188.70226372215848,-168.61608299156228,69.93214381766967
4554,12.651012,4.187280716502677,-263.3103814609826,-156.59917973234894,-188.19071498787184,-19.28331409748617,-35.85538875049758
4560,12.66768,-290.9317694289845,253.03190997401376,-37.13376726651485,-181.6252364836421,133.76176550671235,54.998949519293696
4566,12.684348,-354.28744451079507,-196.47818699745068,91.71268900137572,-53.31509185750301,-23.017487749725,156.17386664889162
4572,12.701016,87.93578405362297,-91.97783738244937,-58.65453469667815,-70.53804623401881,-139.0953906045409,-5.239271467593195
4578,12.717684,-353.3837640914951,-77.89823862057449,97.08827458347564,-54.14093370664376,-39.84798429345594,21.78068729123108
4584,12.734352,135.3076043719315,-102.43953514660366,-34.191016844852314,129.72048995820677,122.99773552594613,-68.27376737214428
4590,12.75102,-525.3958208130193,-406.6987821410766,-319.6509280796716,90.90750472199856,50.4103960832698,77.68295045432879
4596,12.767688,85.33243249315409,375.3037069392757,458.84555177536834,55.966641044087446,4.671243950080563,139.50440479310828
4602,12.784356,66.74009914295031,-174.09780663837347,-103.41763509726512,15.36768227683566,-17.143384515865257,62.98370639368605
4608,12.801024,-144.3661452209548,-154.88599407356685,-268.3414755502981,215.07238916993887,119.95391759579311,-48.358993270248526
4614,12.817692,30.2316079741838,-482.7755432887511,-269.4080212811789,129.0659286772458,27.5959755677992,98.76002263311923
4620,12.83436,159.587964785451,8.854125377478898,110.44367840258454,156.586781235151,75.05341723038956,-34.76680142920537
4626,12.851028,-133.379711196863,212.32045702057687,148.4210207529955,120.06695613593524,75.02934407418718,17.054477903159245
4632,12.867696,7.183528517534349,-285.76112369274546,-452.0904474561068,169.0211870243358,101.45189685276333,-47.95280307509039
4638,12.884364,-252.20945678305847,233.9290861133964,314.8150772963663,170.88570705842545,205.14235185243712,-53.33175109615257
4644,12.901032,129.19394332231906,-75.26575637594752,-74.685655187089,131.9835322107689,120.91890863785,-47.69095345144745
4650,12.9177,-24.80393264067609,-652.3102101460166,-541.0803906592478,229.63128823584097,-314.9839657601765,-57.288074793515904
4656,12.934368,-12.213075018446432,273.8090937258036,285.58712759808543,197.28099862412392,593.5978036081343,47.34663245911113
4662,12.951036,62.9032152965946,0.1280139633952757,-228.46216296363008,196.87957230768723,73.51035322261666,-102.08908508872128
4668,12.967704,240.1125446044402,58.59305544093096,17.691682401524865,134.04058517481138,18.29178700276101,17.384963154996793
4674,12.984372,-63.21135998534072,236.07214475944735,-263.9140528487854,-146.56991708773006,21.056031236248323,37.30076621665194
4680,13.00104,-38.73786243054733,-16.55092813144958,188.98621685413715,137.52818945772174,-81.06920836900152,24.291249689069605
4686,13.017708,51.623402811233646,8.195580959211108,-43.23450057878537,112.6851408643411,95.84589800660795,-122.94842414143858
4692,13.034376,182.534838810827,331.2261702596158,163.85783378405472,-6.4565027838181805,-82.01244775106574,131.45097028644534
4698,13.051044,-129.39286793525605,-519.8980707567723,-356.1722021303225,91.29462003450742,-47.343277232984576,-121.07008009487632
4704,13.067712,239.8762010299099,464.7946759334052,199.3554696205376,-2.096185308267163,104.32278651746434,2.5848558933728114
4710,13.08438,-58.67939921609124,-413.49900079206657,-451.58806269474746,9.82484590969252,-113.22867346959684,64.5886875258466
4716,13.101048,187.06242978413036,472.41451299515614,349.7623672071211,143.57738729611134,-22.818868908511348,65.73504283234081
4722,13.117716,-118.52130211127246,47.413696864680055,10.74523163470652,7.060533688953921,-44.50503899940249,34.447266257526564
4728,13.134384,-86.19535988049475,-352.20559345039663,-11.110379562175764,-108.5368974963857,27.063186571593256,4.68555685844372
4734,13.151052,50.067812298806494,172.77709959968576,51.0071229376922,211.7547618767797,-45.23935778442349,-5.312226550825447
4740,13.16772,224.42813471577523,219.44491369204323,90.52451216766086,39.618997460881296,-24.245277852808755,48.77534222194542
4746,13.184388,-80.4583550502926,-329.6232307407036,-93.9938621323668,-45.33964377160342,-28.77672101555652,-12.33750176774504
4752,13.201056,-118.43285596210649,179.5149686363941,182.5335274061818,-21.62454183494884,20.80882142735597,107.72181294368175
4758,13.217724,226.5064206831561,175.70204147937255,-63.6554679306988,131.74623127926816,-53.05684887719009,15.79329567136504
4764,13.234392,-247.66291471664016,109.71821036319974,218.8924362723955,30.94571383757681,47.52948957853093,43.58768854507983
4770,13.25106,44.40941718269235,-281.8149437223126,-57.64655737499378,58.24167932895121,58.03060225848495,-35.06664523795298
4776,13.267728,195.97298140127964,137.86968829237804,-93.75739560262784,41.72239911660101,-69.25158507210321,85.1114073398034
4782,13.284396,-278.21213797727523,178.9095425194262,264.6153808504925,-106.9903116443813,65.75793004924095,64.1842525337023
4788,13.301064,153.6153665140458,-115.50850617592016,-278.93718821981645,69.04747360447553,-89.3919579642722,-62.29017311039702
4794,13.317732,-72.87214359340352,-93.81510974817088,-104.83406539052572,41.115060478519,-1.3961940495325114,63.19906410238556
4800,13.3344,-185.05609875487835,129.38329267624647,257.2013605717939,44.18283298940392,12.715574479122433,37.11474591816653
4806,13.351068,360.9755917985714,-319.68086623743795,-275.8286282528022,29.995895271611516,-35.51472298699116,3.895482052921464
4812,13.367736,-167.03933455362662,361.30308596523446,268.3187235283719,48.941209280894746,98.60812617591228,-26.09364954671119
4818,13.384404,73.59576424239287,-27.104987591677105,-157.22882994896767,46.76790651685437,40.2204036784493,-135.6924680087265
4824,13.401072,21.904058677217478,-37.18711412339829,44.80381909539172,4.785308396247604,-49.30697720215456,50.05593891467018
4830,13.41774,122.32848917315218,78.39081225419667,198.90180951567305,29.67004020975713,88.28407761729834,-41.69746352563581
4836,13.434408,-139.77454282976652,19.9648653299337,-76.61120788155029,47.20511627642095,-16.442280916820273,-74.8377082072574
4842,13.451076,421.0784214865947,-73.05319091473619,142.25225350338383,60.28328048719101,-54.92661015436968,20.20524240888112
4848,13.467744,-357.3894794998256,-121.27575362002707,217.0369880649677,-5.367726683410813,61.76020972406212,-81.76590139935688
4854,13.484412,-52.46304651731776,278.94994315214586,-98.13023971664082,107.3412072983504,50.76357900518215,-31.217707618892646
4860,13.50108,111.82457842436033,-69.12982823891572,-97.81111972411064,44.23649576713329,-52.26950242027712,-84.81264717395877
4866,13.517748,46.974190678860495,-0.1908678873110707,14.729557252502955,17.599398597021978,53.85071187099899,43.01748349119381
4872,13.534416,85.6359192652609,-26.581992190068437,-232.72778439582217,45.32350684717444,11.696020206863045,-57.70701911138397
4878,13.551084,-50.88768307082876,76.04846970334813,75.89746961833494,26.24239134153525,10.298349457359684,-57.80191403551176
4884,13.567752,467.6718743469203,-306.5560217440384,-5.416792532322717,156.68132358068232,-35.23646511576296,-122.42973773482174
4890,13.58442,-646.9980616216137,532.7838929176957,-393.54078898987336,-99.21845063850633,67.62463438879018,127.5914807933299
4896,13.601088,112.65575474842694,-201.69322243593143,265.168010723585,-27.39870472507515,98.62012943388196,-61.69836413233792
4902,13.617756,-105.31126255345696,-33.55959383412382,-195.97724394390264,78.87110032155465,35.66712948986338,-88.07489926806198
4908,13.634424,391.7487335483741,-93.6791407918334,-93.5998335817858,-41.39378211999236,-38.42125629314842,40.07993093924093
4914,13.651092,-282.17172499279087,166.64882497921838,248.8776630657337,-1.893158317520104,24.839515462110317,-93.36334734916908
4920,13.66776,-64.98862160725935,-156.64275063831565,-14.207143520405852,161.78165297533442,-40.564405349494095,-93.29177057434936
4926,13.684428,598.534427103901,-59.09204299847848,24.058218408977854,-46.43730552689141,-34.282991652861824,155.37824553393588
4932,13.701096,34.61872368479163,-200.1280682177132,0.4141566539543397,105.76110089677596,-196.24521612834025,-43.72620566459513
4938,13.717764,-295.674502124885,52.16888822390173,-338.8261041161026,48.895449777271125,-291.21005228542003,32.63090185915554
4944,13.734432,390.03762102601365,352.7956196216903,150.34297373374187,131.43584896309116,103.70590363354096,-128.80099461015544
4950,13.7511,8.492107103629392,-264.7406256171639,-8.031264038390034,89.34615662480682,57.42444879712699,108.29548110334257
4956,13.767768,-89.90020578139219,119.00253993848553,-430.606658297796,45.65230169281483,-230.64675033557012,100.7213064579586
4962,13.784436,-548.9672053562867,796.937009897028,724.1382317135328,91.0021773521654,82.5759306273994,-148.4078947468243
4968,13.801104,659.3743572163717,-577.8876571157624,-811.4056671257799,165.29604916445822,-225.4952777717045,158.7076018171522
4974,13.817772,78.28436835553109,382.5495001435693,99.62790826482222,135.67609561886678,26.458039270449063,-18.40454622157575
4980,13.83444,22.893882792783828,-282.7698542795599,-297.4611940483933,175.9947861106602,-77.18284066673623,0.9449048633843375
4986,13.851108,147.51736087084862,192.71695315124373,3.9299223351674257,195.2213965453028,-99.69524095783946,90.35821911947691
4992,13.867776,-146.64993653749497,-67.4299049506824,198.5125739773497,260.86272055207627,31.53316734865733,-30.750476828068145
4998,13.884444,211.81438578495343,-307.4727300744578,-272.15792358147223,152.1033224013383,-37.4757963779937,-6.528098776893636
5004,13.901112,344.20687015399426,-396.5895321157364,-95.01309326487625,254.6781140391452,-300.23979482987994,-86.85994407449061
5010,13.91778,206.8859708192836,-199.0625362180697,-245.39730751646152,135.91057829910778,149.28996491716876,51.81258239361236
5016,13.934448,241.44588646247712,-141.71176205144153,-137.56558798585291,152.023666089403,140.28629707823472,13.13653063254512
5022,13.951116,171.3543189876064,17.452573202362345,-26.573090853702297,179.54839568966685,10.357500093422962,-130.3507105176991
5028,13.967784,-5.057765406180636,-86.34594490755562,-81.16902915709393,268.2656993418573,71.1497604248133,-167.5239736316773
5034,13.984452,161.02595490080088,-97.90609916471688,-144.05802198077433,242.88069152053177,121.69637920299172,-26.14602641118424
5040,14.00112,94.3852898531841,33.13914281482149,54.570521345718014,-50.57568730518464,-47.23479908293953,-15.25478702983363
5046,14.017788,251.8172966311076,-222.6907282795039,-469.1495092614099,119.6044768410553,34.09129838914991,-78.06601260701925
5052,14.034456,370.6852924159689,-53.169395857204,-97.90839243054522,256.00119065727154,-91.93281866815632,-352.1410932806007
5058,14.051124,-224.66658857581476,-1116.1177821816812,-6.05948201709179,16.27508213407674,-1115.01816096013,-191.53333768848492
5064,14.067792,414.1608059652944,754.9394373004244,-125.3207346888732,180.38152965987416,940.3523696974062,4.184909699302452
5070,14.08446,318.50403117329085,1188.1566164694118,-15.967302811505974,241.145773732054,1153.856244540891,-48.91727433448133
5076,14.101128,-143.6337022228265,-1013.488092094362,-195.9811863659072,58.843493626697935,-851.799113412905,-223.43347782780384
5082,14.117796,132.08404371153892,142.32011303797304,-26.9562055962586,192.8660563604889,278.8967563830345,-286.9093091654615
5088,14.134464,64.46508028492137,306.20935618413245,-82.12442175754626,111.1110157538109,90.8431799557537,-101.23563985529104
5094,14.151132,-63.5483779221971,-146.0856409553349,-184.84080453144412,180.5873875361105,214.42605940382123,-68.68797087762587
5100,14.1678,35.87491507340156,158.43170220661918,-135.00401231129476,26.55880791341089,211.77875113122133,-264.2186464117233
5106,14.184468,286.18372773914734,341.65670080869813,-405.5317075766702,79.48106753237137,379.20295023118337,-96.22211277537892
5112,14.201136,-151.21570411413865,165.02680440906036,99.62696364732184,44.88203766507382,405.0329812359165,-230.1437917384285
5118,14.217804,-3.4778436876544863,276.99088284085315,-128.18181497603246,40.28748239636526,-33.23866569028681,-174.39723173746827
5124,14.234472,24.052350177772126,266.00008835112936,60.75994779896298,-80.13476123888775,170.60482581025653,-214.16060984912636
5130,14.25114,-69.28034594699186,170.93437618394964,26.68814633378709,52.34585127131399,51.31041822492362,-12.575815387379308
5136,14.267808,-50.27635681926539,-226.57604865349504,122.98816571482077,-12.677018277466892,-144.70744562760694,63.01111705092899
5142,14.284476,-112.46482445462196,-80.28512679059448,146.47184543234275,53.622176956031225,-157.3426102485206,81.4735360153828
5148,14.301144,-26.02537853427093,-337.7819345045148,140.33638513888488,10.06282724220098,-348.9551790620692,19.06113166524547
5154,14.317812,-298.57801858767846,-165.08802300160866,121.94087987056037,-59.67852589935281,-143.16032662890512,144.2928892403162
5160,14.33448,-220.2609846904167,-282.6471204097485,-0.7516072871157604,-177.55053384139703,-146.17885813918502,140.7861090018373
5166,14.351148,-168.88565702497385,-115.85394789863672,190.38284055013293,-260.8384823460361,-19.456372127341083,116.16109635048493
5172,14.367816,-278.1414457343516,41.47348247806795,11.91816062638435,-253.89560848525585,133.20913095904757,58.933541971522445
5178,14.384484,-273.9960512423347,-154.2960840609136,17.34833579562583,-295.96450967009844,-108.1499272283595,8.848347873711049
5184,14.401152,-3.1003406289519777,34.92333527199942,-106.53051199402968,-472.39134891506063,88.5753745762006,101.81594498042274
5190,14.41782,-159.89308031081896,136.99577477425726,132.20884624220272,-393.64874556335633,-21.84467934108893,-27.619170263333203
5196,14.434488,-349.2662497433865,-837.8083406783212,261.34076930592374,-350.98096980985315,-626.9124690696533,37.00444435695522
5202,14.451156,-227.84047104418795,596.8985842223492,181.62496169074936,-369.2070574136585,237.9602539762659,235.2629812360464
5208,14.467824,-408.2154941555965,-415.4622790969205,182.1324600891569,-409.9207717191417,-294.3697407943981,72.18546987808713
5214,14.484492,188.13708149652612,440.9097207045395,218.5668572282532,-353.83650216855483,131.60513530779457,1.8513189432958652
5220,14.50116,-272.84133421544186,-171.964275962207,283.1937778437874,-321.9228340927461,-161.6322867852425,80.40991733618404
5226,14.517828,-101.83616733902342,112.75371166953676,97.33364214828347,-327.1465644815373,24.13483807481677,135.38916616038006
5232,14.534496,336.4992427762851,133.59950584295666,-111.85584758750366,-483.01976077193535,-266.7690438114109,2.596878972642301
5238,14.551164,-271.8278928923896,-341.8043721154843,158.72129350575483,-149.58533310006538,-250.5179275208708,57.86186786036208
5244,14.567832,-196.85612721724848,286.86415343142085,327.1353671110507,-329.4294595047596,-218.8797059652431,204.4145502541336
5250,14.5845,-85.98605017890117,-110.7561265358727,127.32669110310913,-329.9774679354521,-122.2480017570262,80.41525773918357
5256,14.601168,-36.5868927587577,117.14488599799856,57.075012173364186,-292.20816147331755,-39.014191084600256,199.8720949960856
5262,14.617836,-81.00526952848523,-115.47680261633528,225.25755913101187,-181.26267708284928,-206.96302344947043,117.79418506558147
5268,14.634504,246.3171609231798,-0.0429032682456096,78.5102150618278,-389.21422141558935,9.993473457557066,97.42256916021896
5274,14.651172,-183.2848019101937,-141.5409023717691,189.21594009008663,-156.68684195025912,-175.7889753167992,89.60658640643022
5280,14.66784,170.23370825811534,-153.55589987701595,-256.9852443740919,-223.36191059096447,-58.57288884035575,-32.14946506401752
5286,14.684508,226.89602670873947,19.165037611749504,462.7519238028507,-66.98972884240453,-49.378969212623936,-96.6530459688176
5292,14.701176,-290.0871995169052,104.8811876446548,15.016516958249476,-241.34331870888377,121.88566380039224,337.5580491439437
5298,14.717844,-232.0573757161929,66.04254746821331,173.1109605021956,-16.275473991347653,-113.9311662551114,-68.19370511702171
5304,14.734512,524.8691586864435,-107.96762164469126,-412.231103256001,-176.48411551741322,-29.320157976389357,-88.9294446530125
5310,14.75118,-505.8148740381258,-53.57480620767526,358.6858309731114,-89.285370265072,14.795573344627146,-51.27797401235679
5316,14.767848,228.3327775607844,212.2430813948652,-227.4734471564612,-113.44224971146534,-2.7719471603022043,115.62998766519806
5322,14.784516,-155.9435414652709,98.91394069951728,3.3305622286830285,82.41657163668427,40.114331452155696,-101.0733984496798
5328,14.801184,224.06761587924535,-25.74248586973101,-148.15779760796534,13.688896546824026,15.246817811415166,-32.87884906411056
5334,14.817852,-302.95383202763765,-52.62629412686998,30.860106180411883,87.93274924408469,33.527671550199926,107.64823901842291
5340,14.83452,185.6907380313297,99.9267722666739,-199.28373139182168,97.67467660939737,-32.73540906954298,-49.50404263505911
5346,14.851188,-272.09437892402053,-103.33937231975928,52.48733651961023,150.67593784143708,48.95952501751104,101.4185717689527
5352,14.867856,-66.70824526212388,-38.36770649201944,-29.32947497062949,127.33563817065108,35.52093019715378,134.08585122959133
5358,14.884524,-83.69235376411021,-27.099601736119997,-12.095157930883852,201.8623095358416,185.77470654881475,26.84633664945539
5364,14.901192,-15.97106071631039,-91.74897216125684,37.139287974386335,185.1223464448104,-94.33297532304032,2.162244186456679
5370,14.91786,-323.7273572772348,-153.625383924205,75.95712702710924,242.27456038282423,153.78516257477844,68.6258199666998
5376,14.934528,125.7194349543968,8.177708493336645,157.38517735815225,42.456289406862766,100.48093495389128,-118.07011628961806
5382,14.951196,54.70967685961909,-29.354897247197663,-45.21580880139689,391.03919961866535,181.76289037900747,105.33405568830916
5388,14.967864,-17.827739923973176,-17.129905676037637,3.5753356116698978,-54.2008913733639,-16.69881684388946,91.7131344303395
5394,14.984532,-309.7142730517786,112.25777084364012,188.5158071512973,214.35142550700877,110.48400509088528,-58.367284685413175
5400,15.0012,358.9667889165976,411.49728562262464,65.07410874378678,288.867563482586,618.1956640841752,320.2692764335489
5406,15.017868,9.688168101668712,-435.268745735396,56.30751743850342,-83.69057343656236,-352.7225515887555,161.2337042103889
5412,15.034536,-269.16327194102985,43.72772107509403,233.15879868451333,294.3146769490269,82.25559156932312,-115.2535138781048
5418,15.051204,465.2191401816088,110.22707838211998,-274.6897865815134,760.8094781454879,63.865185782203326,-488.672221661289
5424,15.067872,-143.5156469808647,-50.81092103651954,125.78378923285844,-949.8725843064148,-154.76165684658795,1009.0760836162924
5430,15.08454,92.89933963952274,125.37728104551252,-35.731802791481364,345.3832882881914,3.5365608148236234,-140.01677853920114
5436,15.101208,32.76701230724598,155.669965872196,28.611942920945484,-42.864650232438,104.1539031093836,-30.596082054940567
5442,15.117876,194.05325812895623,-68.24889160437704,-149.8841797857566,272.596720178452,-116.00444783975354,-24.17823666528084
5448,15.134544,-174.61695011148527,105.29205920370356,109.59641836962324,-27.648324798054063,-35.31895864439476,-37.01375973243606
5454,15.151212,61.96789715236688,67.85824073289686,47.09383708351298,403.0306867371232,271.24869851984903,-147.0797879680021
5460,15.16788,267.9988868489825,14.309014506414508,94.16675319962415,-395.62412184869606,-249.56371726582896,118.3653329419333
5466,15.184548,-132.0412443406451,129.81578939334975,-81.73477829019149,38.14581341422448,79.78168119521249,-56.837644810496286
5472,15.201216,198.52207620826485,-159.10058765640093,-144.27225025643094,333.8700090800721,-14.717413833630964,-344.2620643890749
5478,15.217884,-305.9736648238946,-31.6703143197317,173.54162627192596,-261.04222162056726,-41.726096829218186,288.73066453381534
5484,15.234552,371.7431437508809,128.28823911736745,-232.9309588363151,51.62634737455076,-30.51716638894312,-150.6588407331759
5490,15.25122,-210.4475372655208,109.19933205429606,326.9653642775933,204.98342705353477,90.87697612151474,-185.57430138675204
5496,15.267888,18.65448900959357,93.17664568476926,-432.20350068428127,-375.48469805356376,-87.8119530633906,125.77034600518547
5502,15.284556,-124.6575643092714,-265.46083165030063,196.7585220795793,-151.89414572600288,-223.88560173686648,-45.32974594348078
5508,15.301224,-39.11950566998598,-36.9805381712078,-75.44710178668743,4.584064727093228,-59.66116283806354,-41.01626177815382
5514,15.317892,61.29871667767556,-73.0915552461713,-147.24803142749718,-82.11604231728155,-66.63465761856993,-15.18565565689502
5520,15.33456,-167.31391489435418,-7.132314665822758,100.70203153917628,214.3712147553173,7.9170299166375955,-230.25401405078048
5526,15.351228,-71.07812237615508,-6.341286309495644,12.215424458249435,-266.2199857120293,-131.71793158189868,161.87439809430725
5532,15.367896,-42.82534027256967,-92.78937770169978,-15.766875786741874,313.4891568767006,35.4339656435968,-346.05184076380937
5538,15.384564,31.70218576238147,-56.749755642435424,-21.668270706203216,-148.0864370591828,-5.656633012338446,138.83664239982878
5544,15.401232,-103.83066796074864,167.41620234386892,38.10118460162161,13.715122734030064,-51.368888747331496,-18.21397382455797
5550,15.4179,24.88146843250612,-51.97414848407467,-31.73771237108121,-11.259674471949436,-24.46773060182872,-18.276802027910215
5556,15.434568,-27.393717497012084,-25.138327707379087,28.138466449603182,-92.80280703889386,-49.313608538365855,22.568905874575897
5562,15.451236,-17.528121310676394,0.6967339954731173,-74.0528408936608,50.67255017300791,12.92043905701052,-90.65989813405356
5568,15.467904,-116.6634062475172,-23.43108660969217,81.62578310903173,-92.33764780742032,-84.89665088929253,21.437110387262877
5574,15.484572,190.88221404024148,103.59210740621192,-214.17135408301203,167.26764723636228,41.1439631727893,19.15021039137543
5580,15.50124,-72.01411128762714,-166.5267900724993,38.99862987852926,-114.43211510565298,-11.872519952891368,-81.41707912614302
5586,15.517908,60.02352089826395,51.589712046947966,33.84621341437677,85.21639398527884,70.75045920095968,22.419503351539504
5592,15.534576,34.458057965367495,43.81877024787357,-88.87239995785205,-37.99077172945808,3.166549436543664,-52.59693580456137
5598,15.551244,-30.40822148850237,4.986641420174049,61.81967225613617,-155.63291182687328,63.52246733158958,133.86861399291195
5604,15.567912,42.49691866410038,-6.474638343245676,-8.72533185616928,191.0272729731568,-47.07004430731048,-83.42279973588866
5610,15.58458,45.05424103261503,-9.763852878293132,36.71990248137283,-22.980878149743354,-5.131830504031886,18.61567139837489
5616,15.601248,204.3372562501574,-62.82784275273105,-165.8965156712151,-146.99069512937012,-70.89406245763554,-7.458696295008098
5622,15.617916,-138.03268244631138,-63.27383201270098,19.71921966056837,205.3760219862528,45.77539327632846,11.12493137071844
