Frame,Time,RightHand_Accel_X,RightHand_Accel_Y,RightHand_Accel_Z,LeftHand_Accel_X,LeftHand_Accel_Y,LeftHand_Accel_Z
0,0.0,161.21795122793634,72.87928331762922,-424.77745808870816,-681.3850092571276,304.0170645947682,377.5662630020107
6,0.016668,-95.25969545111596,5.235939076678001,-258.0046219877002,211.43069347816697,-72.28071075018738,-164.7961177256769
12,0.033336,27.965606373502723,-101.34012094072624,-38.13887623074228,-4.767044598312834,111.7622773385649,12.821552986697302
18,0.050004,-96.97608008259996,-10.93762355784964,-188.4417420137972,34.189149827970034,234.34878313151285,-55.03037556693772
24,0.066672,-117.34089038100116,-43.01920107848657,-56.17101574097936,39.37587556032948,76.33695861066064,-84.78005891431941
30,0.08334,-156.8173309299479,12.27859850464505,-164.67779772478997,101.9739071937209,69.20119368542422,-334.3592104949628
36,0.100008,-116.326074176825,89.38315938462165,-36.82397162208658,59.4677476089992,147.8747606985112,-314.7892350372135
42,0.116676,39.911626644869045,-95.70061279551706,-155.7022698465404,159.54227478968355,76.30372870268558,-336.04360191600625
48,0.133344,-44.552491722687904,50.05601911139945,-13.457274306364056,-40.93529435660079,196.1538127378276,-462.9887581350426
54,0.150012,-72.09800355796841,-28.68401033383053,-132.1252617604174,67.90697328949412,-72.64853842800156,-239.5656160293519
60,0.16668,-117.68459992314595,74.03672268794223,46.04252617714854,150.5202495721753,252.6220723240932,-554.5983046540968
66,0.183348,-17.57716084107618,236.23217068485624,-73.67330244998936,203.34546291949923,167.02356417927749,-415.9501183239795
72,0.200016,41.99833744456464,-22.50274169341707,18.53668709872241,92.66994291338617,17.332066016986268,-369.1288075355659
78,0.216684,-172.14818643587776,-40.37900179049564,53.74505186338969,58.08376466668858,102.75759426811842,-557.9990478591243
84,0.233352,-245.076737543156,160.4062652325643,8.251075143461108,253.64309459959264,-225.21383291526504,-644.7751274198794
90,0.25002,-62.50826626294106,88.20924260873991,74.31980164923371,0.9217674187842492,133.17551393612865,-426.3638799222107
96,0.266688,-170.69354692755422,129.03209310008936,-81.69169945417329,145.5119973355339,-183.86409897803557,-669.674631504683
102,0.283356,-113.26800550782576,15.700293251685466,-105.3123601956124,119.038585814992,-39.47578608941208,-686.7799556539157
108,0.300024,-122.22173691778988,55.069953867708335,16.758825097091673,-106.72938437236058,113.0941814866578,-234.6081188237416
114,0.316692,-110.96010098813264,40.18175827467289,-89.44268932194151,174.0021962815485,-116.304594213207,-563.9717298924941
120,0.33336,-91.04695494504196,26.05461999521946,-72.64101161947839,60.8490767998964,-61.2788235949532,-498.7148444348893
126,0.350028,-44.099316875199925,-18.97987720558666,-75.53606733189882,48.531079660885176,76.79082090565817,-477.23313130534655
132,0.366696,50.28527973993723,-35.630716335061734,-126.48153966403925,-67.39589669434405,113.162642310369,-302.5562777611127
138,0.383364,-18.71332641523899,15.570813961385156,-72.46859380101361,12.502978710250986,50.293181516630966,-150.48441210845616
144,0.400032,-31.93186009365492,-56.5893368202515,-20.85799696790614,101.54517362163315,108.5351937273765,-497.5264139948453
150,0.4167,104.89279207357843,34.96275589680732,-166.0104558407778,-50.96618849594242,223.62156607557165,-59.21718548643715
156,0.433368,-24.9589413750042,-21.54275277177124,-115.62387703217222,-4.863913140626856,195.86661562718325,-79.16251532144628
162,0.450036,41.12509187952011,-118.04006751342752,-31.310504318144883,-88.71736025753694,198.3205200600304,-93.69978619537852
168,0.466704,139.32299473474154,-14.108321288813096,-134.262579020797,7.174648115381537,193.47818947947616,-177.41024620155014
174,0.483372,-11.408544084209154,-11.093302099361338,-46.037240573365146,81.10578368399264,185.3594249864057,-19.054415373423
180,0.50004,3.753795006960317,18.78432956062751,19.01640551132121,14.638923677296448,181.17878218250232,9.769363450953222
186,0.5167080000000001,2.151224695952191,87.39435192753866,38.35493662072536,33.86364522623376,165.63578182475143,124.83457058509047
192,0.5333760000000001,62.9378732352212,60.742871472162335,-17.216757059208447,-52.05407221726951,214.950163406068,202.71880649792604
198,0.550044,141.241650360395,83.25985446255879,-30.899216903312062,50.89683915447978,82.32917420900584,275.8585574711379
204,0.566712,-52.37116472940932,141.04254255260486,1.0210072042746106,-33.027067271649614,196.526124471607,141.7454293084528
210,0.58338,37.088998297026144,174.18855467440028,40.98678652895468,7.068009362642385,73.01397466377071,454.8345718471461
216,0.600048,17.66425309245775,297.8614287517454,0.3101180647657315,-13.521931839060189,94.04805922835224,359.55052252465373
222,0.616716,5.081196555800368,-9.136622202859655,59.0312023363837,14.955594796119746,-80.1762864400562,304.58895021842807
228,0.6333840000000001,46.1924285118649,-98.86490685597512,171.7234359145052,-2.407782971555456,-82.9140860271921,241.35711612595424
234,0.6500520000000001,50.7170719811684,179.79120890026618,161.70285388315162,-129.38179985823749,8.210356580550329,355.94422364855404
240,0.66672,-7.199913356008423,-53.9426443161275,160.51419544359584,105.56048286579444,-200.22198383783467,357.50547569096403
246,0.683388,-34.81926316462216,-53.57365239924276,149.78079119553763,-77.40017758284951,-119.94501841270646,434.3592502954005
252,0.700056,79.67227092594985,-101.13920308679111,215.0046064798196,30.199960056214884,-174.52334419417633,412.9797396589796
258,0.716724,11.792233974518451,-165.12563850304218,169.1330342103525,-107.83448552237176,-215.4387788551167,344.0469241559033
264,0.733392,30.75501258684793,-195.19526784699852,206.75966259898783,-76.3236211352426,-231.25960983122548,387.4358280784861
270,0.7500600000000001,166.02497034109695,-59.92211609284218,176.9799982651873,161.83265377307222,-393.8143363568682,489.206403532376
276,0.7667280000000001,76.0075579119608,-206.080003940667,219.298526087874,-69.18006731948265,-71.2347054425804,326.0057202657053
282,0.783396,-87.14554560688758,-318.9103570984428,238.0491729376684,-61.32626536004307,-266.3618303015788,446.694260340892
288,0.800064,112.00843108447916,-121.48682592981244,169.92954455812358,5.943178844771438,-122.52969566403512,354.18806457513654
294,0.816732,76.0948080812983,-282.42961230543114,224.70860272443065,38.74386749633837,-194.5006328792342,400.1079030045331
300,0.8334,215.8421472990555,-187.35334156642452,163.26975658198634,67.50376522784154,-143.7555311672648,223.59126344368545
306,0.850068,121.25146417990804,-226.5405766551431,191.176661874136,109.97833578792864,-141.88757291647067,384.53793534388353
312,0.8667360000000001,105.36391990311516,-142.96848970209416,160.309252850899,81.41424430421802,-220.59299498745892,381.86109900370855
318,0.8834040000000001,25.717255197533824,-243.49952412977683,236.6750437578943,165.4010554289096,-115.406036571129,205.6049958503165
324,0.900072,-31.36731366061561,-136.771716110086,180.2033692609802,66.40430281821732,28.159248434284976,243.0352545842267
330,0.91674,2.600846600586568,-126.42027437648736,216.2341851622777,-31.65581369146139,16.17418416882944,229.8519092305524
336,0.933408,130.68597516290603,-248.23363751211477,160.2735857904798,173.61409665254573,-163.33293442575427,497.738883956967
342,0.950076,-10.826950251521694,-87.09276045590168,299.0391155086168,338.83635757856,-52.1271917148206,179.13978499082808
348,0.966744,-26.76222303838219,-65.25503781070549,133.7797789839191,42.00084450574813,41.44412936130611,259.2798177382763
354,0.983412,121.29498013587866,-65.92675979596454,-40.1276800596124,-14.898283075664828,124.45297851667291,207.41892665553604
360,1.00008,210.20458885372767,-170.062698054044,160.15922193796845,-40.59128739088077,132.97946625608836,134.69333527015274
366,1.016748,-36.070557912940295,-53.903589248933216,103.43677194061895,164.31664213814807,-51.26550576029797,128.04104474365496
372,1.033416,-109.02399458579504,-53.90894385250413,85.81611031873696,89.66803169298086,60.51429453290362,69.54377665091334
378,1.050084,-29.82230465976521,65.84807216100153,-46.97194743693865,104.23803214546454,66.82334875564413,118.8668450092949
384,1.066752,50.19037514785782,126.15785637820063,141.91236271203073,260.6420346295971,86.59527365400187,-60.98729519049006
390,1.08342,34.47770063086655,213.59856929844776,79.4009943608611,76.99753287038432,284.2261534090942,-33.49459239218055
396,1.100088,-74.43908869760153,-47.74589533419229,-87.20251632139639,145.85207586494136,142.10857316708592,-81.94070677991895
402,1.116756,70.97541688734489,201.01492421636087,-85.45307510782655,110.31261047385782,307.4291860244522,-158.27519248240625
408,1.133424,146.5655928865625,204.2371200407743,-112.0574231172404,151.24481404742028,156.08000894276353,-376.3864461566273
414,1.150092,-118.62025954323086,278.2870698978217,-235.00048381561436,2.0573975898037986,261.3917384083777,-168.40944253549475
420,1.16676,125.21802394286794,174.67561669603975,-55.56843502812547,110.98256996158712,180.87521471678983,-378.4883226890036
426,1.183428,83.27257899234303,185.82314482134512,-105.09615075017362,89.78043520603708,326.3855340296193,-251.33095540072537
432,1.200096,128.15561609189814,276.17355980342774,-306.96394301354155,197.43514270196488,242.83020797532632,-358.03285987765537
438,1.216764,138.748674377886,250.13578737568795,-426.1166540766693,70.70703383954816,153.42394237081766,-349.5911639425835
444,1.233432,-234.78071025087215,18.262205837201776,284.2834530564815,101.93152526329334,65.86816267389965,-357.9846101634661
450,1.2501,64.11548354535299,382.9465504666785,-628.3207823607346,66.04234595020999,209.18294200713768,-229.94155605322825
456,1.266768,200.76701544914943,-280.20837409757223,-18.162988504980945,-76.75122339484628,-105.341105916473,-470.9270832357197
462,1.283436,111.05445234984695,120.99255161412955,-500.5626543302629,3.983202441433981,7.552494197117319,-403.8475149178348
468,1.300104,47.425617801859474,31.56667040420252,-290.4696175469492,-20.87351305270468,-87.11031685199328,-187.87835510107595
474,1.316772,183.22738885956244,-52.071317892841925,-264.0192331558926,-132.66928462904937,-147.40271362103582,-526.6116756524614
480,1.33344,65.53369022045683,-35.96299951331682,-232.97589088469655,15.650365375075722,-124.93275414672024,-322.6228821711668
486,1.350108,140.05590771366272,-34.94659962824521,-317.1839665077307,55.78175968226364,-180.84077221246983,-409.14156042334594
492,1.366776,147.81042911631556,-126.10730827133648,-139.57920609769235,-181.7066509960584,-172.55308228599364,-202.16530786754487
498,1.383444,152.13212034959278,-83.32574025462134,-335.465382022424,154.68733772929244,-229.3415194790101,-329.3993074154978
504,1.400112,-280.0543148121826,-185.1993659358962,138.59265964834864,18.288607729539137,-165.18108920429688,-262.1865017647649
510,1.4167800000000002,214.7803331553737,26.91252504097778,-452.0306212628135,-99.2676914275578,-47.77610860719467,-222.0417608575748
516,1.433448,-31.89934648693017,39.89872995980127,-296.85407408382963,-52.11088071567171,273.5014540488769,-166.306527059209
522,1.450116,61.2692677670716,-45.19375457137623,-232.4748782917596,-81.3578242889096,-224.73385028632907,-243.89229825857203
528,1.466784,15.18057054561341,-14.96298623993677,-165.88810837722215,-15.529443326182331,71.20284729488952,-233.03768219134443
534,1.483452,-19.435027837843087,132.17461085784555,-52.1264339552168,23.758575186635035,79.83247428043887,-93.879688295555
540,1.50012,-47.387411016048,34.11811196069622,-165.29183173770423,-87.83545945683753,317.8500888819052,-143.3758575381409
546,1.516788,0.6831884927395091,110.06346677709668,-147.29280460882524,-9.141165938629698,48.144371816664425,-60.61806933786169
552,1.5334560000000002,-68.85290256215478,34.30055385942353,-28.890677384118234,-63.60507652134979,126.2783791644522,47.66515083924327
558,1.550124,-50.03897862647717,137.7451803950081,-51.12396088935549,-94.9206724656356,36.07168793318357,5.699110344706295
564,1.566792,-141.77397043168665,41.52605392477207,49.36406872289959,-166.49090443762316,285.32028701946246,99.37779257591244
570,1.58346,-98.74959813913262,-195.6675262755737,58.482811748568594,-143.8085734804254,-111.3198747941182,129.26477855767615
576,1.600128,-131.9413894190141,1027.1357343985078,-10.394806434103472,17.368821216685348,1039.0884317641212,275.0333638860195
582,1.616796,-127.74374211725458,-345.2800435387276,116.8377660353537,-29.63082788864788,-487.4418365293794,268.9012805427406
588,1.633464,-32.0073955715996,105.68202170639654,144.95119074961914,-110.77148714846926,290.6446885773616,235.8734623139946
594,1.6501320000000002,-230.7466611068469,145.31345181131596,186.4499914972506,-38.33092636215426,199.53592645027396,467.6872406531271
600,1.6668,-82.0435871560381,88.45031642122967,316.2662318712369,-108.04413345461322,7.936907802812982,264.71438472167927
606,1.683468,-220.82838640636857,-18.743038601897155,16.176328187715512,-32.030202461275735,31.81903162721616,415.0676636309682
612,1.700136,-183.77063337626043,72.70149757772465,120.33063310505248,-62.35430391070476,-170.95063139987866,380.7467333602615
618,1.716804,-178.2086439575367,21.26641630378303,273.90944310050475,22.846459546578203,-163.75195687320112,215.3549836112009
624,1.733472,-77.6959157205869,-6.494913914168244,239.2734035331723,-134.91571853593155,-170.26113592721313,195.9707884655641
630,1.75014,-135.8371724954812,-79.45051901874028,273.00434332019825,17.956774108956765,-361.7256242461149,365.37235213524025
636,1.7668080000000002,-108.65017169584245,-15.378555111365,334.0537253022427,-181.3449559825725,-59.19924086305208,528.0043479023104
642,1.783476,-140.88009539355065,-49.24210220666433,307.88243031587416,-195.1964804952217,-228.74547317207688,219.09644160198516
648,1.800144,-105.75141181603476,-220.0397081804805,380.59677212734425,27.474441676085537,-558.2871189425455,103.13466989282486
654,1.816812,-121.06079753072908,-139.8918668315187,394.88064891921846,72.14299540190916,-245.20779166912985,282.82801967825753
660,1.83348,-84.95138902295363,-155.2781652495649,186.5484142715375,-201.5398121661161,-99.30835547878166,610.8757082667543
666,1.850148,-67.72591443716033,-65.51989716045745,348.16601586039144,37.84556114867679,-422.86244643988505,144.84699067782176
672,1.866816,-142.40994296798414,-267.8282985000126,245.01058691101665,-200.79279563705592,-303.46303128239515,274.0858822187762
678,1.883484,-92.7604426055774,121.42710897619934,261.3678875843659,149.95804169105443,-460.7094486115843,184.0209283639392
684,1.900152,-95.64443192678958,-396.756486787588,357.3556308966789,-71.28190524580421,-269.93829581667103,308.63317132920497
690,1.91682,28.656158664858157,-236.86415189291856,381.38359496631233,-186.84633344050116,-238.44786302317203,305.3496802744515
696,1.933488,-2.259946099745342,-128.24475069295823,441.2436326462853,5.037013525811645,-217.1632794301127,379.0208272853248
702,1.950156,-46.61697244606751,-450.875636544162,489.1186243269907,11.636653651814854,-205.94964212668103,255.63891697512636
708,1.966824,-197.79140678210945,212.26804483275876,78.60715078000462,106.1623465313416,113.61486193618596,158.64110618497617
714,1.983492,106.32154163780632,-191.60954603081396,331.568421180028,75.57058436018698,19.587533741263695,130.77509660577692
720,2.00016,-1.7276532492931764,-134.8325156510063,574.7197124151983,166.9055025698413,-12.650502481454126,81.50832763270364
726,2.016828,3.6164807789406055,-170.8096128365341,426.4153091919469,100.23565350459428,123.31494282865371,277.8189039793862
732,2.033496,-37.349263625001406,197.19721479445224,221.00189843807047,137.89011332231215,265.4047487473674,-65.0125651877565
738,2.050164,8.268175131019742,-130.51098540436445,244.88953801980705,20.22670450201216,238.4688516039105,183.56423615344167
744,2.066832,82.61999181817313,123.24998844978792,322.6851606033981,109.40538022516074,230.4743183177565,25.39510568985863
750,2.0835,-29.331751157435555,79.19217869016822,229.649359106288,102.9141604604533,11.458062125981414,-12.998420616558509
756,2.100168,75.41483641975164,-150.67228082502385,365.0701201724596,121.46132431859824,227.24774864123296,-57.82990807526643
762,2.116836,144.41250206496164,-60.79770284190523,386.52564005209024,81.10152815521653,17.618377287265943,-37.86197422050251
768,2.1335040000000003,51.01867015190357,172.28168730141886,83.03930304082982,126.37299197729384,244.71050180029243,-205.6241186249413
774,2.150172,52.46538152815637,112.32415973311136,61.04990297544733,59.25955056283115,50.29276579452851,-87.77754800732504
780,2.16684,102.33832872446078,-94.22050402883984,183.0436370875377,110.63154208557268,50.40709490546831,-252.1811897159683
786,2.183508,69.5861669783308,110.9712681137042,147.26150006472903,-39.50720319041344,141.0779545332321,-318.4562030891394
792,2.200176,152.19048337799578,40.09311558972642,314.9077468765684,-45.5217606056209,75.90727937549096,-259.44563465005217
798,2.216844,-70.21316105225658,-103.47449278407544,-289.5371038822848,36.7651960267648,59.39029715085616,-125.62197594597389
804,2.233512,93.24619014133444,53.62772431515252,211.9904286188408,-151.18313711916102,38.317347226619326,-428.6724129704941
810,2.2501800000000003,68.96114923731284,89.18503892048193,-57.2717265647959,128.4481655373175,99.56153424899288,-235.61357138033796
816,2.266848,28.774445753862715,76.65120766165668,-84.74882191766409,-181.27006976386565,-38.97390221703691,-369.9046120163625
822,2.283516,174.2181669444265,110.19385304957989,46.58924374089391,-42.33441446898061,102.18622912127174,-282.9043577529108
828,2.300184,31.2905311956146,112.3897905389181,-133.2497782525242,-278.0200526958989,-12.568713498816509,-402.1924895611848
834,2.316852,119.1423685497967,72.09768547617593,-224.987602314497,-11.35060145661924,35.85472173315185,-162.82387277438602
840,2.33352,64.95304790695047,154.6782017147132,-212.53208222636343,-151.3990717216077,-54.699377903722464,-367.712114694228
846,2.350188,60.1882796067292,33.00484758801441,-196.16128101368565,-15.425885749318743,-31.613522921920246,-97.42345463495174
852,2.3668560000000003,152.00119198124457,79.51349613791336,-331.1698244499047,25.846666449018244,-47.46818590065528,-251.2398880190138
858,2.383524,-70.09360369321712,172.86922185385478,-262.1072899608439,-186.4773335427015,105.4368974822238,-164.95452135710104
864,2.400192,-11.6686462633003,185.4584355073792,-401.4753859101208,14.877480987095035,36.25960894462754,-314.1395887791703
870,2.41686,56.43184228123648,60.609358266506376,-366.2115775973466,115.29379297801208,-31.401550060068907,-90.3750828000291
876,2.433528,51.74998967011658,14.135901119677635,-278.25360046531046,-236.10375237014537,262.1714636934066,-201.2137594406703
882,2.450196,-15.809724605916903,69.60752295442501,-203.57861579257477,-9.564941534790949,-124.05827240051404,-217.891029001591
888,2.466864,126.9667028921006,96.1134924360333,-540.4143392728475,-166.1076566924661,169.13342633485513,-62.88194993437487
894,2.4835320000000003,-240.16945023486392,-3.802504758863062,-351.7455156127645,0.013606135122842,-68.38101747330415,56.48944377293572
900,2.5002,59.83412149230127,25.47702410656143,-401.2369616035241,-38.62830053795833,163.0638212318212,-116.07848325114097
906,2.516868,-120.06287828130536,69.54909238970097,-417.3374721544843,142.3961181543468,31.03672294420029,-52.57287288282095
912,2.533536,-49.65581289145205,-74.3427903588662,-250.3956389935211,-35.990185923614284,-44.07143417117611,-166.2489242355393
918,2.550204,-26.61965266552359,-8.437794678182087,-201.65984175490613,-137.2995671951522,-35.969306691856374,-48.73232830707246
924,2.566872,-232.1435691196368,-22.03799986208311,-659.6002149383967,392.3675370621301,-104.41971061733256,170.44812433752998
930,2.58354,-158.27434547099097,22.865896773801147,-138.80859393634682,-206.9528475041409,38.043551535160255,57.99733729262164
936,2.6002080000000003,-107.00843457726592,56.36779821898864,-190.9882358429377,56.32535418899757,-26.737108644327847,16.84966098224917
942,2.616876,-187.11758656738064,25.380076680717565,-203.095646101544,24.28612772496871,-113.04899790853445,203.05962595857676
948,2.633544,-149.75306954396655,12.105115556002744,-149.97643804401088,35.193465292393604,-14.055372082299474,19.000974973530063
954,2.650212,22.51994876840272,71.6854736658241,-136.70357511890307,197.9823155923081,-17.727634829680362,-18.193578832298343
960,2.66688,-54.75965024883443,144.4384118700775,-201.83095845011255,39.41690912218861,60.11721642204161,139.11146146988983
966,2.683548,-97.4397153857944,61.987586111516,77.9174949428037,-62.77669246553511,47.13273691808016,221.79802384581967
972,2.700216,0.6065666652678487,30.755022607845348,45.85463007098588,105.77369755498484,-103.75751923631206,86.24452641975782
978,2.7168840000000003,-32.29112228880372,98.59810466186208,-29.795048651871436,97.23090973008132,-37.10566082398616,35.824296215926964
984,2.733552,33.092300006819315,36.67213004742543,59.78920865110096,-175.79882636780565,110.94756896401886,140.23183249753643
990,2.75022,-35.2693996829897,59.545687416953406,99.45283016040638,60.414402199435074,13.872521100507242,-17.974057183919925
996,2.766888,35.149975290929646,77.1654875602216,47.67092326776456,201.02135541817495,-54.895312998590086,338.2972474503034
1002,2.783556,-1.1317034322711734,69.97918625266733,37.53341429985926,-92.9750126929206,-103.66655195208776,172.22149827448828
1008,2.800224,-18.193705762434004,7.447985062562832,217.024371917049,-185.3859097732787,6.604929756957858,196.22693202637004
1014,2.816892,-23.84003826887069,113.69536743804356,465.1882517545378,173.3193492929595,109.57202508597751,211.2168130054918
1020,2.8335600000000003,137.53420119527854,-150.05094394831434,-4.798575706503828,-109.3828849318154,-131.3192288753341,131.7398558717523
1026,2.850228,11.338895589085617,-10.86891923646234,484.5068506153794,162.08565796655924,-141.08819176423364,207.245891811537
1032,2.866896,80.08068350767999,31.671525100490197,171.7825172021056,-69.39939578956945,-15.878119919750365,228.17528171590664
1038,2.883564,-70.85152287246879,-113.24654152702176,227.30919301399248,11.75150789627196,-102.93728355511269,86.2206850867625
1044,2.900232,-24.59313030578926,11.97641429023193,132.8632867328865,47.22186344588157,-76.13715961853605,226.16690978510584
1050,2.9169,-77.91541639402968,-111.29419821528552,386.0697434076829,-81.77239344697517,-64.23329512593624,223.72268446202736
1056,2.933568,157.6410402263794,-181.36920326543893,-18.41572739162012,49.71828559401751,1.8386848987974,116.1308831355929
1062,2.9502360000000003,82.1800631046178,-114.67201877528316,457.7669915944868,-48.27181694431428,-122.64914802169211,140.1802156607978
1068,2.966904,-51.084735108165205,-66.74877114108702,184.338686761266,292.3675713221414,-256.29483665028897,406.2904818431789
1074,2.983572,132.95408257467523,-266.82183522266087,230.49119997711432,-98.17216899542184,37.791050465759085,-87.89881202490429
1080,3.00024,135.15488770367986,-150.07955350486597,190.91819749515568,-217.5957475069844,53.43294354126617,327.45238938573004
1086,3.016908,54.95091776319669,-55.7001991402832,312.0648258222731,291.9617716252603,-125.26558372819964,240.38631862980975
1092,3.033576,-22.380597183383276,-334.02863731536735,158.06745502013567,-110.85842081661778,182.1573925560616,70.82974728647484
1098,3.050244,54.175009819801765,35.274404556743576,251.8683792469481,113.55728966054532,-133.3870671852316,-0.6009293819073491
1104,3.0669120000000003,85.92408475646326,-358.7792240159083,363.80027932443807,-226.2085981897423,69.06340627190053,246.18618265706527
1110,3.08358,179.6217586095184,-109.57114721083649,114.46245699381032,153.99122967265663,27.75606466907205,-37.71380115492488
1116,3.100248,18.83779476078849,124.48751944398975,219.81109129618304,-109.10188413741572,52.42127258765254,186.1620122602719
1122,3.116916,2.772072581133571,-160.29804302422957,149.35042945665504,-184.90888219031848,41.79823920276637,-104.45675551873178
1128,3.133584,9.229070560778512,-113.21080804137388,372.397700559669,32.20653194713861,-48.9273307386602,26.652777545840152
1134,3.150252,-83.19962138931048,-112.61678984567058,376.46679270554336,2.626504406820498,-84.99962671219512,77.76998859520151
1140,3.16692,-67.21518162746654,194.16495316368895,227.7604290928945,-242.48569631424576,265.2876778844491,15.738876829170138
1146,3.1835880000000003,2.529752272535772,69.6054774096574,93.9259977452177,-113.93793094288216,23.84811580184285,-66.30467089545522
1152,3.200256,-38.3313504744388,-63.15028215958039,80.65404508282226,100.99388771135747,-52.558169559766895,-131.17751668210386
1158,3.216924,-133.86179416290514,191.73848705198907,93.27418747276909,-19.307429628188427,172.61336119298522,-101.98927561015476
1164,3.233592,26.55800218479297,-29.54596527787356,36.46900369317215,-205.58374595764008,100.85759123455824,-66.99661493607097
1170,3.25026,-61.10883960428176,-26.24011057593724,71.65873209416392,27.519385444017004,91.97749739456012,-3.449311208315976
1176,3.266928,-0.1280027798027205,-55.30018931132816,-53.986730597914125,-80.68374713404836,76.41641897071844,-299.6080945193488
1182,3.283596,-88.76784836647414,45.12053143274055,12.225787796680834,-18.86013460215077,-27.1426784538119,-104.14575886028015
1188,3.3002640000000003,11.298920735264574,123.22973291402992,-53.05281681391662,-81.68402363837605,237.2209339315092,-258.5253642626068
1194,3.316932,35.2267158028165,39.91460647818991,-2.325828632330989,146.4416447608597,36.75390224105855,-312.4344391853486
1200,3.3336,-31.671483694957196,24.11018495068133,-105.53101841687813,-100.02616029427686,3.779562753259029,-88.4023505510429
1206,3.350268,-119.89607896848244,-82.50349597624111,-96.43507632113165,8.052876492021483,7.544121076747352,-212.3033958671639
1212,3.366936,-69.38864158222836,166.35844023183216,-193.94569882493155,100.02670249932622,100.58748499613912,-92.58574906898936
1218,3.383604,-32.32338908111733,30.13130614864676,-97.8302067066804,58.79856561771447,1.7022323258047989,-243.95244241296493
1224,3.400272,-38.51661158145565,78.5464523542664,-313.7250556309135,-48.16949297058373,0.8341833636893199,-6.214751273325788
1230,3.4169400000000003,-24.85661480907055,-31.303284289584315,-269.29267539764976,33.02986620970668,-50.23228527002569,-190.5281621747212
1236,3.433608,-105.8568197976494,9.469299130223373,-229.25699536822503,-56.00235496211764,36.17033240025216,-224.81517402075417
1242,3.450276,-48.70298164700968,140.22320519337873,-200.6997763791497,170.5097506143245,59.019922410880696,-193.59768747133631
1248,3.466944,27.22505325312009,-49.75981947903188,-292.7799948547743,4.575340096284405,-50.80345294963421,-52.81332504945719
1254,3.483612,-2.470498405047671,70.20784642011373,-273.3987597349951,60.72115152574101,-18.76604868497577,-213.55996502469304
1260,3.50028,68.05479391399827,27.619901590111365,-295.33842704786446,250.84014513246504,8.24128598172468,-14.783067897111325
1266,3.516948,-49.00700974674072,54.04134157138415,-173.67823381281949,-72.06472719727803,20.239713274956863,14.933853346392825
1272,3.5336160000000003,22.90631817551766,5.9841269987340775,-172.3316480490501,162.81522043621732,-57.64727470186498,-117.55936786128368
1278,3.550284,31.12677645754512,-18.94911872370011,-186.8253097742155,22.490255339589257,-60.68160122250711,-89.43841033840785
1284,3.566952,25.34128263061986,30.21041072277724,-223.83513990102043,-69.43746595670783,109.02693508729156,-200.5292969747865
1290,3.58362,77.9496591211028,44.03785114812031,-163.61739515987088,332.6241318998344,1.8917103526146164,38.86058627332996
1296,3.600288,6.549229649985673,21.71718320977504,-221.03088976263516,-145.2229172404072,-36.41088801631443,-197.95998353489304
1302,3.616956,99.12061124062195,28.133919195500027,-81.2863262487444,183.7612340541017,-42.22547306958002,-51.8368894768482
1308,3.633624,76.47341722292475,37.35435621630397,-274.69803818514004,-113.81720599341035,176.97284934190094,-53.32854639211813
1314,3.650292,-59.745574289366914,-34.60715791042476,-23.87773047642013,101.71133549278755,45.45692589686973,80.39941736208823
1320,3.66696,103.19934682269886,-17.69582626614293,26.15746955266484,60.83572566971988,-24.18528101759644,-99.38075477755022
1326,3.683628,26.655852921875663,15.735842178233488,-285.8336577837819,201.6206148600149,-46.25122324058951,23.81366228574877
1332,3.700296,-3.090983164882319,37.85643128701835,101.74871609257085,95.51340504773516,-17.349217475814932,95.29853125279725
1338,3.716964,134.67319490962657,-3.071591538783468,-201.7252279907881,-82.61688837543312,152.66499432815618,-3.619745031607245
1344,3.733632,-15.981855029215229,-17.144655747452376,172.3218945405644,49.93675996405293,-117.39757907977328,183.968214089133
1350,3.7503,51.30694134143074,-3.9148405652782543,-30.71228868257828,-95.98347082175688,77.81688728922073,-91.46645117776562
1356,3.766968,100.33323736821004,39.63105586634183,-121.45585465100336,185.8362851475196,9.73130374363505,37.086733072165394
1362,3.783636,55.91071708648976,-17.09292339000781,43.904271794679005,-60.08391893085515,-50.29748413167532,-50.76115834303637
1368,3.800304,-80.30642939459041,12.2451948628196,-89.29899805549508,176.60132736028507,15.025224005296312,98.0298334680734
1374,3.816972,117.65245472900584,-38.230419142892,145.8352948105963,-95.32199095946056,20.789430323475933,119.80436564366497
1380,3.83364,80.65965725855443,-21.54253846968938,-6.929364481141562,-91.47749068258165,-12.53974064422331,192.41231686286136
1386,3.850308,-72.58347789295955,-2.861028738520794,61.13419678391709,-48.93932110050196,-50.31936880061703,135.64671457583904
1392,3.866976,11.283668049917589,20.619149340117048,127.66539585560449,-31.953631265977155,76.46639966795371,-69.5772447374104
1398,3.883644,-28.1553816060566,-55.77605818782796,125.67017527765512,32.73750737426578,-96.5234632427514,138.86580817174695
1404,3.900312,-6.157936671842177,11.036246339199776,57.38271393966217,-168.99536892192972,-27.505877255874854,266.0780028964373
1410,3.91698,67.52210755390664,-9.52342460013288,19.186096618781555,-48.323003497013865,-70.06034265476116,32.90906728579453
1416,3.933648,-61.72833408877265,-31.614805524721437,67.81396893055218,-102.59011640229907,-23.452598877689404,158.72216892246058
1422,3.950316,39.37881049545336,0.7161562663592282,179.68564822154102,141.30165110800883,-39.18215671956318,12.00313222516438
1428,3.966984,-31.541288974373007,-49.186952703471405,137.41762707378655,-111.28710398488404,40.34560332972745,143.6611140408829
1434,3.983652,1.55738805234893,48.89641272120655,5.01612158636377,-32.27508715549361,-65.090656070684,96.28798785135028
1440,4.00032,36.12043176283984,-78.01554915356323,164.11535422515792,52.50455677746385,-51.55699944976115,148.8709545386178
1446,4.016988,-133.43240079626472,-48.94133711179764,123.55362651755452,-119.51565061346764,9.52739405946728,67.00012563284385
1452,4.033656,75.80048056087827,-4.945410752010701,137.13234678993277,-44.06844814740448,-76.08131964331754,102.6474849446773
1458,4.050324,-25.406507331441123,-9.737726786160025,-19.155482859424303,-27.193925391663825,25.800079159566412,156.2670524071632
1464,4.066992,-30.80508019351224,-29.726518848397703,75.67515591746343,-49.20118528339819,-35.62997238477965,137.96466155393475
1470,4.08366,-17.864293443760147,-38.16066311595156,101.82782274163796,24.161419162276257,-99.44089492722,119.03253542911564
1476,4.100328,-42.29456433628185,-37.09800788936846,44.11472781191082,-135.3730856488315,-6.189812432105901,107.72143499145392
1482,4.116996,-4.730542775526224,-65.66269535978797,101.83572787017128,-23.176599555800745,-65.30954382144206,0.5160518570863957
1488,4.133664,-159.16060120222588,40.55581142491426,70.47120323181879,-66.63846064921678,63.918987252884776,164.87006705791578
1494,4.150332,52.14582548849616,-49.94176650985781,-23.201095239206616,-41.53217258231226,-97.60168461503456,112.84262042979758
1500,4.167,65.82618925428471,-4.409432703807816,58.85935700797174,-159.25758745254623,105.03003106311952,145.0174285090431
1506,4.183668,-15.68896282511682,-11.610670499229911,-14.608305270678642,190.1611772419056,-43.85691456302112,-116.73380246168776
1512,4.200336,-61.66880978423762,51.34552609946815,72.65761878964287,-133.29406325300062,-36.71531960651431,70.85055726444502
1518,4.217004,-41.82186572405123,-137.53214269722173,17.21120981187564,-78.94013140000672,-3.3986604298102137,42.04840948400115
1524,4.233672,8.561721375492734,39.44398124526177,-77.88564481372521,183.56408642643987,-57.28617178113602,82.07491335723086
1530,4.2503400000000005,-54.95012038928756,-27.21206773065819,167.65807367689433,-197.0620086044218,35.00203386566359,21.95892546475664
1536,4.267008000000001,-13.29207470763892,39.75496569314196,-206.4561803899093,-18.269478406571103,-45.455685721926685,14.566528956825898
1542,4.283676,-90.2144976707192,-7.1746579346780806,89.28338134314626,79.96709027978962,73.8087292905276,-32.37565598098236
1548,4.300344,4.457977021372097,32.187739009377964,-127.68907364619284,32.365530011402,-59.13431537984762,-14.884027945608947
1554,4.317012,16.357742872887556,43.14514165571754,13.9417321215031,134.7278701879311,67.91391737219054,0.6722239611902125
1560,4.33368,-73.51418831805283,3.133996231606525,-77.06215978359668,-217.85808535825288,-2.4524298199156656,54.45435528687271
1566,4.350348,25.027536612085385,-56.3065803791078,-36.85692224405109,21.622732311179647,-15.554205191166837,37.50040029356037
1572,4.3670160000000005,39.66437725674314,93.57776181082946,-74.26023988699458,-16.193111243397066,14.869147275507045,-47.87258144368749
1578,4.383684000000001,-25.97809022041607,43.38700881264586,-85.40473654138628,214.36049123480544,-11.464357584401736,-4.3455053918509
1584,4.400352,2.5769914562141034,-16.68931338472245,-88.45366198776101,-71.68919910342026,-42.27407832766868,-78.4211111090548
1590,4.41702,55.64592245746428,80.19209684432568,-98.80736951733516,-89.18671575930455,148.82704580164477,9.552035169840613
1596,4.433688,47.52408782713248,22.7460523892959,-72.60947946131353,132.38321487659886,-79.02836323549882,5.993033243122817
1602,4.450356,-10.210492784403794,53.88899891871182,-96.94413490391264,39.50192142740113,19.4951874140422,-144.14094789372655
1608,4.467024,41.82275826916406,-9.883136335498031,-111.60100536683598,-59.09609963624602,-71.38992311302545,103.13853668663154
1614,4.4836920000000005,39.71854663548783,91.28822091924664,-133.88420117636727,-60.689966492298566,245.43575889662893,-128.47093857998814
1620,4.500360000000001,-12.372984182716417,11.288892930821866,-42.00232102996597,26.72119779993222,7.66299889199585,-143.0462456671773
1626,4.517028,17.121034693996634,88.42719348850432,-108.55333382997468,197.3962635273208,-94.8680486825306,107.29918176201932
1632,4.533696,116.64936191802818,-62.30148441997956,-46.11394177451018,19.989550578501703,118.33935256696417,-245.0128430663541
1638,4.550364,58.92862643338743,42.20934165427754,-95.7310161329714,-1.929029105509036,6.6562297580030645,-318.3019075836873
1644,4.567032,62.41379865683468,66.48112399180064,-76.60394550766881,-28.886032237294465,11.922470465020432,160.69105567536536
1650,4.5837,51.15118279410633,3.3338312659738003,-53.35732814442642,63.97272169929425,40.30381367696683,-107.89531565922964
1656,4.6003680000000005,64.48450958371751,10.32527746566256,-86.2931823531549,-22.87153235908804,-13.84853860888403,-75.67047150656545
1662,4.617036000000001,-64.01871572533452,33.77811636785677,-59.02715721561966,6.695976273063227,22.50790395287584,-178.6772849397296
1668,4.633704,16.637832278071585,-39.05175479225649,140.07364357440713,-107.40805224446127,116.8121010774849,96.0871706369452
1674,4.650372,30.15732733990096,-20.551436920266173,-209.6636239832085,152.41158333147743,-78.79290293132732,-170.98980756108477
1680,4.66704,45.30371799191799,88.14563744950497,-38.78196185877235,-28.803947971566107,25.07622110331269,-148.3652241051941
1686,4.683708,-26.71417289027792,-10.137267418249074,63.724463118013226,-25.883722879475425,-54.58939223397103,-99.04639412162832
1692,4.700376,103.89410089300112,227.6552225077557,-235.4068237813408,-2.0569791663370225,100.36408891750077,-83.88588706999765
1698,4.7170440000000005,-35.07956481776836,-166.58271538560825,32.583539735288696,81.72058123845993,27.265364853953983,-67.69532111328864
1704,4.733712000000001,-6.211381168326437,129.4271210855474,-37.69566802794096,101.5053265772886,-80.56073124204111,-51.03583706692176
1710,4.75038,17.466854221883096,-1.1383444281660324,-49.48554065824638,-38.30915577288776,54.141438784629216,-54.8478519742735
1716,4.767048,-20.111225820952026,131.5755029321164,-23.37530697428423,-2.4274149630765223,133.33693575652558,-16.965734549867435
1722,4.783716,-152.41707458974682,84.35340493000503,223.58917318324305,72.34348864792962,55.67205386340858,-59.02260536271717
1728,4.800384,10.88020772317116,-334.8891952930145,-123.34754174959812,-8.20867865600917,-131.30083449281383,-19.926976550218136
1734,4.817052,0.62402687092208,140.4746497601834,78.98811380471702,43.37560954882821,17.428919799050057,-124.13725165687732
1740,4.8337200000000005,81.04328371025831,51.01084259707208,-42.113157199474514,53.29775934106904,70.14068346301613,44.0375483634573
1746,4.850388000000001,2.693268815016524,-104.7643653101066,76.45465737676032,-97.6278830744706,-3.335887037570732,53.9514926829233
1752,4.867056,-81.27459145359981,69.86301007225066,69.24819961928665,43.52967722247634,-35.317671490326255,-46.44351809223434
1758,4.883724,-10.909077382049102,-73.24086063240642,51.26334043346153,10.855793159269766,-19.69969251677809,-48.70837767921567
1764,4.900392,-26.09826321648276,99.75556889436773,0.9010550969880846,94.45731872481524,24.25750387701736,-14.69162638733658
1770,4.91706,22.868501360973298,-37.48198380897516,184.25160601836296,-139.41293022455898,128.3349755744443,102.61859641462294
1776,4.933728,-161.74264676432443,-19.247904890328897,44.31168937395495,36.997509525291136,-25.68670321829308,0.4255277553699923
1782,4.9503960000000005,84.55746128878823,-49.97400809468926,34.42281593161839,-76.94009508602346,88.30292644174204,-37.54106461928632
1788,4.967064000000001,-138.22067889159803,-48.67043160529332,138.18288226917196,50.257590280454856,-153.48159914013854,31.68454004515009
1794,4.983732,47.21242985524856,17.952481279142628,11.829274382987446,11.865206027081848,-8.613517641821687,11.42266301715702
1800,5.0004,-174.08902287657577,100.00533476613258,46.60797221732823,8.0011820837924,36.830728847916006,95.98319193595728
1806,5.017068,57.04170231109023,-147.26333601987648,181.03985156172627,-67.65877307922949,-62.8187801451007,93.40312953328667
1812,5.033736,-38.681995098298856,1.089625779642378,82.5579308647491,61.50472223861821,17.163365725028235,44.93393615863066
1818,5.050404,3.6494952967743792,-44.842228863734384,61.24607706046972,-68.15927087264124,-30.361030351122988,-40.68403320136016
1824,5.0670720000000005,26.83681875428536,-12.914516626040012,74.95593996804172,0.6912065960240241,-18.28555006627724,35.03103373575904
1830,5.083740000000001,-43.72812407530464,-31.088444348538445,109.77036571099256,7.872628547118976,-28.38324981110219,45.08936251958481
1836,5.100408,-18.72543852388586,-38.20298189107895,95.97287422672817,-14.194835307095849,-58.96565818722144,17.022563132947166
1842,5.117076,-43.07263356042596,4.65414217447001,70.73200426818413,43.38553961028354,-47.75734739353818,-19.6225626289991
1848,5.133744,38.15932212993463,-53.40190038060152,92.03538035265233,-19.28771686231185,24.669063677399294,150.96973828105826
1854,5.150412,23.669073457086263,-50.67860354188721,74.97761050023628,38.197885729426034,-43.61637231046617,26.19291217020724
1860,5.16708,-35.15189408003755,-44.065808823077816,111.57646678085192,9.968861992062235,-17.837280947470397,-11.437851528142332
1866,5.1837480000000005,-16.58344458988669,-74.68292637077582,116.92081881548746,-3.8729984107533175,33.009740841093496,64.20234487699568
1872,5.200416000000001,16.387711953829097,39.52193112636842,65.68775263606109,31.37701479346301,-19.581167640209287,81.36680311291141
1878,5.217084,35.86831795821672,0.9827009048145552,67.01175987935204,-10.70425496429772,12.4842944870946,-79.01735147453685
1884,5.233752,-113.56611104210226,-27.135211211366794,144.46059983962712,-5.89874183700313,-29.98427450457117,70.20244586099163
1890,5.25042,39.59630272373304,-90.89297562895104,89.9991779245452,43.95015252316605,25.06800845232151,-19.990679127669004
1896,5.267088,-103.91120391707358,-1.4023742660292309,61.84174003976926,-43.94981755754959,-13.773479462665335,35.11096636602565
1902,5.283756,163.18343654147674,-20.061839271112053,27.62102389224706,22.81285790503576,6.557055249752576,-40.113526390071
1908,5.3004240000000005,29.3222009206248,-16.339985696904904,85.16221798519615,-95.36629008797436,14.37687399624052,-87.6220575653818
1914,5.317092000000001,-61.4085208111438,11.136335889338298,17.278709140960615,212.38833339983995,-59.754330236877294,168.0852939753248
1920,5.33376,127.58462198467168,-118.59018868255345,88.52202358780136,-143.1934351210977,6.816182714911054,-137.8355863325885
1926,5.350428,-54.83161263652132,6.589865279351743,54.12421878654914,59.51001627762832,58.07146083639061,-46.36346716560543
1932,5.367096,69.7865215051717,137.36665899871562,84.8897887627477,-29.772560196602527,69.59259180152306,58.22135383810711
1938,5.383764,5.321485532536748,-38.35298463616771,-148.9775728945987,-51.43091967927483,31.61134393461124,-78.59266430331235
1944,5.400432,129.9864482897135,38.54612429136527,17.095735504030085,27.07119156507299,-91.33023105823018,-6.197181201079895
1950,5.4171000000000005,-100.5954077079694,32.06077934795046,-3.902910756302816,-88.60511937364612,121.8689957183723,-70.81427910911731
1956,5.433768000000001,94.3853444707632,-14.344971543066706,-78.66075030699699,38.23733671472711,-7.481739868236284,20.170686933036503
1962,5.450436,29.41901828530741,15.212304843565608,-18.960832745211857,5.849688437107599,2.130788255712579,-48.625621342265646
1968,5.467104,-58.29523551041776,1.7564162353124395,81.37992019241734,74.18506097175974,-5.992917650724419,17.370560932892566
1974,5.483772,86.99556970462564,59.8090601027874,-96.6000676580861,-44.57233675321965,10.30995843762841,-84.19296862296588
1980,5.50044,-36.28898155790115,64.76898079659354,-30.986189637229486,27.14794953578417,43.264972212111566,-17.440837467698486
1986,5.517108,-146.69433561831676,-117.797064549317,-111.4377343410848,15.93969878068642,-68.82907181451397,-53.54388264624406
1992,5.5337760000000005,200.62317674436215,51.7471522931885,-24.7619422966072,32.22870599285753,65.67233215327232,-82.793549864407
1998,5.550444000000001,-182.54717947002555,39.81285903597583,-26.156535061823007,-38.53070476953577,-102.2242686225033,5.232478275782288
2004,5.567112,-42.822118705466806,-18.622837173995784,-89.89973061605275,-4.334581296190567,62.02672832967278,-14.74007054540036
2010,5.58378,-68.33233787047071,-61.884272725741454,99.9765312493606,-41.09257084758335,-43.30287178988909,-25.63703520647197
2016,5.600448,56.37787419329302,125.15804451985856,-169.03554163510177,-1.5263775167392364,57.69213234641607,-32.66446366706445
2022,5.617116,-120.3307308930986,67.54407420673246,-34.76167284265008,-19.85912142642184,56.398196918860855,-18.07970862231552
2028,5.633784,-24.29903979434195,-23.88578457228733,-50.04085544981815,-41.65174138542865,-21.25937518276759,-14.953158600651475
2034,5.6504520000000005,44.13471365740179,32.187786196723394,32.76037209043266,25.936367818334947,19.069299786994662,-28.61281449209965
2040,5.667120000000001,-126.2951965039314,-10.429847333438936,27.894636209156403,-56.74870805055154,20.795274120452603,-30.94350033151129
2046,5.683788,108.84795784270972,102.2042576686155,-180.13862428737986,-21.08978279861368,35.9428434417208,-4.335662361339882
2052,5.700456,-151.38698297940243,-45.67858634294596,18.91787322834492,0.3213264397585487,-33.437117192753576,27.424344137213463
2058,5.717124,85.187924776212,-11.181313427493164,-163.52958883144643,-48.97346565198174,58.88085355075809,-15.43698272168179
2064,5.733792,-124.15496085562508,-34.22082262891584,33.1270106954514,-14.966472609925416,-0.4365895523315082,-90.91858360318156
2070,5.75046,99.01855819271243,25.30458238227509,-107.37471500043554,-65.6215361809677,153.14299093147582,39.69758666704602
2076,5.7671280000000005,-40.910635133105096,71.96105943348859,-18.44650298690516,-41.07253416248305,16.933069199501325,-23.987468314703968
2082,5.783796000000001,15.138150165086875,9.362140627511987,-64.4599801032785,16.278475825345755,10.807759699550322,-17.179284096979714
2088,5.800464,-6.16897141580241,-32.35792960419906,-43.32547849916535,-38.99600277557091,24.604210458222816,-59.01472965146229
2094,5.817132,-1.6740347421354684,120.08359996257566,-71.63034081487321,13.695583323896532,110.53604333787744,51.30041940018779
2100,5.8338,7.810745173091909,43.70879077728998,127.67496794884649,-3.226211598173976,-41.26650275664349,37.97059698303666
2106,5.850468,-118.81636746123932,-116.8918683452498,-8.532162831534315,46.16673079006612,26.446613181331468,-38.61779146224424
2112,5.867136,58.6169339559951,77.57881044129661,-71.72329054709066,-168.61238235148022,67.97809305168568,-78.75174333118888
2118,5.8838040000000005,-108.44752537392152,-19.07364220874814,66.5396167979988,60.55344033445096,-137.5208179066829,36.407273567118914
2124,5.900472000000001,18.368011332260608,-2.38875737360074,-80.53371032607767,-70.67078609227855,22.076269979176843,64.31792886346871
2130,5.91714,-39.52024726794471,120.53135064795612,59.78669570733635,-126.81256099786869,259.8820997001182,-52.76955961877263
2136,5.933808,8.807353478042456,23.012345304131443,-64.9432653560313,8.68911585667713,-102.18333874883793,-14.854679404856627
2142,5.950476,-83.04199871215758,-66.14176081029154,50.6279749660354,-21.84105025225289,37.144354347084125,81.46254326584686
2148,5.967144,-1.9917998236746255,-1.8721863290449356,33.118722504568055,57.740750805654486,20.26582603997266,88.29970859224012
2154,5.983812,28.690697036600994,-0.6420761222542768,-57.28558861876908,-144.3779880033766,95.6714883328876,-16.541402893266632
2160,6.0004800000000005,-61.40715480413829,-43.470015268667126,128.99178401577612,-200.31825722640116,53.8250462260493,39.624257111755774
2166,6.017148000000001,105.73453630367052,4.741461611096222,-129.77113734467133,122.56835126471132,-107.22134489604323,76.51006115632013
2172,6.033816,-23.76132737450121,-14.30544819031056,-63.173932514463175,21.144412830670177,-24.18971293562126,-3.683753974018338
2178,6.050484,33.485333858371966,65.2108008697702,9.42092007439998,-202.48458027866133,60.13119574000012,153.5324720460543
2184,6.067152,-75.04645539853627,-49.85525293576761,-75.76126803790476,93.43811837581094,-150.70499766690716,-8.594367581895042
2190,6.08382,132.76462136506706,19.149175430486583,-70.03119628942373,-110.34201187409528,49.01131451805401,117.9839390536982
2196,6.100488,-85.18435361858279,0.5215269954486621,-50.571245215760825,14.94834942315082,-149.53598419950598,84.31890206653239
2202,6.1171560000000005,-77.95480343887985,20.39367053644124,-45.94260506934432,-133.0273268607406,54.89603473243751,46.91718050802285
2208,6.133824000000001,65.84693490756132,20.57425459631271,-10.275400054157224,-66.19633815305721,-9.24448813928776,159.24915439686094
2214,6.150492,-28.44941371505826,129.63341581224742,-125.0484365624942,-21.196826144909032,-54.01927953111437,160.15544367497088
2220,6.16716,-63.86107008285853,-259.1185151928961,-229.9416370533182,-3.2381752797913776,-167.29540456586074,-81.78894981087669
2226,6.183828,-165.5799494292616,56.10050778082578,-17.549051276199798,33.04029445545116,-62.775488257917175,108.70982681127086
2232,6.200496,52.499025971327,56.54249876951613,-28.613527787328373,-31.77810421749613,-17.772433047888615,225.32100683662287
2238,6.217164,47.35743608996315,149.74837513567056,-246.77973295484685,-158.9775109297361,141.72943429317695,271.1925757047848
2244,6.2338320000000005,-105.62664211403492,-36.10789184734109,-223.4282965171653,-160.31388261171446,-24.70314402979596,142.71571740288897
2250,6.250500000000001,154.73648360652572,-80.67529284074136,-21.90382760274353,-69.2443572272552,-114.25885166356652,164.1560386433754
2256,6.267168,-143.98218943373723,149.99154662968306,-194.4078456329229,-183.68726459701415,194.38112673388224,125.12879836488123
2262,6.283836,26.11816639913964,-106.70542560096068,-149.90820078179846,24.44066388896021,-52.657635752552736,226.34415369172572
2268,6.300504,12.893979623044077,-161.78578064573094,66.8396867150668,-59.152147237706245,-34.57250074371494,255.574768409587
2274,6.317172,-69.98179215626212,123.88252537270796,-259.89305894823906,-111.66598220057487,-44.109034624157886,168.06691098320417
2280,6.33384,-114.95852165889067,165.06739690540644,-141.32688867840238,-2.956591817545302,85.80059639401355,237.4150235005033
2286,6.3505080000000005,-34.83032834445912,-16.22662854016454,-123.58213271671907,30.91861941855771,-70.36080137189387,206.4817491589852
2292,6.367176000000001,-192.21371564028848,-13.51174854646156,-124.99618901920216,135.38550004542338,-121.2231509860608,360.0760309926732
2298,6.383844,-179.77531022287724,57.08997102118997,-45.27774229006548,-119.16264758917464,29.93289096391566,201.4262099264316
2304,6.400512,-131.40830747646282,23.22367006018672,8.78012878889215,-11.819971325856564,-20.18427373816815,233.15974742339583
2310,6.41718,-167.52039435657898,128.20243011546148,-139.33896929867382,-146.92550688467134,91.8774843730665,173.62720449468037
2316,6.433848,-123.88442092793863,38.16824534662211,-112.98309659929336,60.92380383444685,49.21714072813718,266.55521079470367
2322,6.450516,-161.58960050459,57.22027379056068,-108.98518238841906,6.2854702742300645,-52.35759765809135,186.9692017935569
2328,6.4671840000000005,-210.0099477923631,7.675216405838441,-106.99090066634096,-102.93106111050749,-101.55687333801868,24.09506356099047
2334,6.483852000000001,13.697961184814565,-42.130968942579216,-7.648899712936605,-23.959624270515874,-146.31935755900602,185.30771796056868
2340,6.50052,-121.9054183542529,60.778106074774826,-94.76802179430727,-11.95924809352043,-55.07220880618812,173.65527046712322
2346,6.517188,-82.7657593058298,19.49657938623772,-29.851929815104747,79.003364124437,-11.620480445840982,88.60315805023924
2352,6.533856,-73.61287153017257,-55.537027354437285,57.73643267694398,130.10236184935906,-187.81757656254655,54.927142127430585
2358,6.550524,16.070985016883206,144.7937675687184,370.1643535521482,189.5488374639258,-104.8063187573502,197.49537057223804
2364,6.567192,-296.6754074906232,-130.25311805106526,-655.6495202198377,7.159456663887141,-40.37838439281502,234.1273454567728
2370,6.5838600000000005,85.12038772353604,-73.7661584344946,319.56292843775714,97.97495730914088,-201.8605770171608,3.403132428204209
2376,6.600528000000001,-127.47844010263528,64.62674093932436,-53.47500834187065,133.23877684018709,-12.316420030736404,61.02672557592162
2382,6.617196,-7.659864716961319,-99.71530451386091,78.56676848315928,105.31715153217765,-45.070072812687854,85.95314691199233
2388,6.633864,-104.31484050399447,-28.65211184848064,-3.725836657372476,200.66677152165784,-12.898024623255033,43.27150432141526
2394,6.650532,-47.2670064190976,-22.328404986102807,107.73428866451648,169.23240061724985,-57.87770874918418,55.40960102591427
2400,6.6672,-75.5675975928412,-5.338877000836341,-128.63936225438343,222.2040769357239,167.3247197527017,-32.13335019757822
2406,6.683868,-147.47836405894532,-182.6603471563353,24.34119214095334,248.0076568048341,-24.11148414656192,-32.43670872616076
2412,6.7005360000000005,-21.06895710081547,32.443630541919966,51.62483994824522,262.2564979325671,82.25183774722342,-88.15024653470141
2418,6.717204000000001,75.72612450705833,-0.906603077591221,-35.68330190680065,275.14926926569177,35.78693261153907,-112.5666509299361
2424,6.733872,-138.79328549704695,-30.693863974431395,81.19551289273528,155.44736886404468,191.49306246417055,-132.06189127309156
2430,6.75054,14.667982204726218,11.384877377105695,90.50066102321632,183.40177818817136,149.67785399152154,-3.4407113663603326
2436,6.767208,33.469416593438254,142.15218132198956,26.278322362877503,258.8838788449506,89.61798910825966,-171.61521420247735
2442,6.783876,-13.97603347061711,-28.897408576702148,58.54539374722101,213.4355604466473,158.7873793678955,-204.6425022124845
2448,6.800544,-42.07555359041169,-38.0296002706508,75.99845167246667,244.03423929767683,-54.95024095850943,-117.47486890597943
2454,6.8172120000000005,-137.25907628206085,52.25872120954562,24.88141035497721,206.82954426237973,169.66731988137107,-253.76144430815185
2460,6.833880000000001,-20.64985302945111,-19.72966315827167,162.09861939840397,249.55842743570668,17.76930345787578,-284.9112888243413
2466,6.850548,30.722902565567374,39.98889709876072,72.58876937023567,213.59386195100103,105.27117630612652,-121.5979251584609
2472,6.867216,-0.6152064928780732,-146.74284063671882,-4.028154616301482,123.31032521341584,-200.6921774054149,-314.91201185806017
2478,6.883884,-91.71803067346252,191.59410941453737,85.44660871626567,171.6324951545389,119.68590779365476,-299.7992644645302
2484,6.900552,96.84734526098576,-49.92686250642498,160.78113234208502,-10.747011286378886,84.84905070809664,-159.3270680799939
2490,6.91722,-22.974405024735944,-108.05057462912384,-18.642346271774272,143.6274461108222,34.20542262290674,-101.13144161479131
2496,6.9338880000000005,-139.9399123009483,26.354139807834464,62.82561941558222,14.350982597219016,-35.66793464162313,-125.81504934248574
2502,6.950556000000001,301.38917884808154,-84.22452815351367,165.3773323750376,156.34568199468092,51.78118531396321,-159.64698129412747
2508,6.967224,-150.53852177409482,-4.708631557927726,-5.30179345396849,72.79075041223433,-3.048973075926668,-144.60833878169854
2514,6.983892,-136.91769074266807,20.215514629817665,97.00517728612952,64.07524878210074,-26.05062175928422,-203.52318678935708
2520,7.00056,66.15942014425282,-99.14793430483904,64.94788721185856,-6.679587703345774,147.74753627118113,-35.69933163408746
2526,7.017228,55.775564718549134,-140.7417170959113,-86.75093156348889,112.67254202722116,57.08430818411347,-108.35169267735915
2532,7.033896,88.89247164547648,74.23144294848963,-17.735575376839954,-26.460263066327627,-13.46395074113762,-254.48840748829
2538,7.0505640000000005,29.060702828028592,6.494482417775032,32.78122347512734,-90.69778222598256,198.92029344207955,-269.51657483513
2544,7.067232000000001,36.40115698908876,-78.485081243777,-109.66694509757028,60.7226614195846,-99.07953508844098,-88.61974190622813
2550,7.0839,-244.95824855804813,-276.3848276080202,-16.41179769001164,176.95298704021738,-218.11580331333835,-129.6340925560926
2556,7.100568,29.33299573202092,127.47248988589448,-10.19712492519329,3.303385264858779,31.905257644217237,-49.24165565598168
2562,7.117236,47.20149992323986,-83.40793835351384,-46.09036112723471,-69.73590283768448,-73.10769850447724,-78.9807754206459
2568,7.133904,-44.79812630303981,105.4355721208569,35.494819138280185,179.59222678884123,-58.16882604257224,-116.99057646113758
2574,7.150572,-143.33299406892144,65.87041764335683,72.7055770657418,-19.767359535956786,104.57447858996996,-194.32298292953064
2580,7.1672400000000005,-132.37739283440246,-31.08398138849546,73.97213344772803,-7.207651018669438,-118.73820126063802,-201.5258688146397
2586,7.183908000000001,42.06592844792691,-8.879718767749623,-81.77443151395194,162.54179050091005,-105.22883221296686,41.69159449131684
2592,7.200576,103.65294098928749,35.17052267601693,22.173343352218915,-114.87962732736406,-54.90724731968746,-250.98206761163385
2598,7.217244,56.51571847342308,-72.15533917683352,-46.80187154202991,-128.9888390738792,0.5050647017252512,-130.72867481216144
2604,7.233912,-47.078707235845314,53.52496723798501,15.843018500834113,124.73856860276555,68.60546461303852,23.284873837726327
2610,7.25058,71.66056359376518,48.44530446003159,54.96677842053039,-250.5160872402136,44.6077998729456,-96.50691574127336
2616,7.267248,-87.58751241590603,-141.496396372255,35.8671329955249,-207.33223857079605,52.82004260808128,38.36035822115868
2622,7.283916,26.838666898541963,57.767705382047446,-12.413279134841584,-199.44282025635505,-39.62630997104922,-91.2341130267655
2628,7.300584000000001,-24.326302618843812,42.33431504214277,6.972113021092404,-108.33398274306094,83.5778331532621,7.079067859171101
2634,7.317252,65.29981076083546,-1.0475884458862517,78.68110005237298,-289.74332412344165,94.71580470018156,-232.03995007926224
2640,7.33392,201.4527126486477,-104.41477209559903,102.22685209552732,8.935576888309699,-61.31590970987698,17.811932496911552
2646,7.350588,-161.09117701637354,120.42065639384704,-29.27842644439921,-399.75193808144337,27.13662151676888,44.6516740131862
2652,7.367256,60.2819338863319,-21.670454501419023,-7.626482179958668,-51.17152050578805,-19.33959802179944,-45.918854160388
2658,7.383924,50.3325276181572,-103.10175327205096,147.89544041020562,-280.74322519450743,-16.08242729983769,-157.33924304594726
2664,7.400592,2.890234968669162,102.8572468461035,-72.12596385260501,-89.49033151719841,28.841938948432396,78.88099702726248
2670,7.417260000000001,37.27796033148779,-76.8766262474962,34.99672530499643,-506.064649216461,91.23967433937814,-153.22514035816593
2676,7.433928,80.97060282881947,-181.4442526008357,69.66783131526125,36.34139471026064,-70.24184462046723,-131.975983538039
2682,7.450596,10.928548162159853,49.62773374322028,-32.307752316116634,-318.9112510807215,132.989103161605,-154.16382381585038
2688,7.467264,130.93230116719386,-183.5537733822017,69.9993333451455,-161.80047456357516,55.96163449051591,118.51474473555606
2694,7.483932,-71.86141022137033,15.450192221183777,21.9548036065931,-199.46014137547823,-2.518608285835941,-124.26463934105314
2700,7.5006,104.0457459632504,-181.8250176961815,61.976995043601285,-613.5351168454256,-5.010957054286727,11.727249222253098
2706,7.517268,57.87286045440998,-65.38776313724051,0.3550445446020589,-176.03733630987,-96.0808428892648,-176.82767822620676
2712,7.533936000000001,-6.32789644374253,19.36177534571969,8.56889226118901,-124.2618136725862,97.15647185053874,39.629237757103056
2718,7.550604,23.283014455626144,-165.0462068027067,82.51137249632089,-270.6482046539515,-79.66703874857595,72.57871094388923
2724,7.567272,12.692440102618193,-55.37444077023263,21.45672624440067,-272.018504505962,93.18019363280894,8.848877250074452
2730,7.58394,-62.90172707964285,74.26113900236774,-109.7796289971916,-300.3904627535893,55.91260025026614,70.83356245706328
2736,7.600608,-49.89760644852464,-48.44531553643237,-22.450500275216093,-147.9456960651935,-123.93835322573602,-86.29397381595368
2742,7.617276,22.11131618771772,64.7742534372579,16.31231547941165,-421.4668462770663,21.04139779098853,30.472781080002434
2748,7.633944,33.67816266434316,69.15368525751155,8.011038282164083,-98.20560884214773,175.9571338162379,-35.15056143036379
2754,7.650612000000001,22.452061697977115,208.6093397295749,-2.9114004237704307,-274.27637561639165,142.33893725867742,60.06339443814149
2760,7.66728,43.06118915583619,99.6108205113728,56.15073259453287,42.42823756963283,-122.91103623734492,-94.36589961747931
2766,7.683948,-4.125749247569036,135.59056923714726,-29.24625737025091,-361.59893059061017,112.07071626761228,-92.60013991726905
2772,7.700616,-36.933403484123424,84.9461416532414,-94.31988250520553,-187.5767428983238,97.08590986869922,59.63256209009776
2778,7.717284,5.817521203266287,236.0533584382307,-52.28869951216977,-282.0401775582239,147.2810158551009,72.98494125674333
2784,7.733952,-36.97774909857655,43.73654920061786,42.37866653156407,-179.93692720717678,-13.954089700812087,90.2196183799863
2790,7.75062,20.16739172940281,81.54547722122217,48.36545017016475,-157.37031048346134,137.2628287251864,-11.360635700706254
2796,7.767288000000001,-71.4005100152974,167.5155377401667,-172.5604507701201,-218.72917203996792,-27.90496901810061,-29.727555239717116
2802,7.783956,-68.78626398760555,91.05832138582667,-19.76790834319074,117.22820330873672,-93.0046904040537,-3.7194330831455744
2808,7.800624,29.14956148082463,89.01434868482472,-12.995937869522706,-220.1667709458204,137.42227360121169,143.4598404632863
2814,7.817292,29.546821855942756,-8.954794119352357,-214.1240635937656,-290.3838280579359,31.50279767778828,37.02642071905251
2820,7.83396,-23.072946557777644,67.92859976935073,-54.580279036615565,-62.477125498550045,5.917123559451632,63.091630332819925
2826,7.850628,65.34398128128755,55.553888128959535,-132.15721686257217,52.21505026295942,53.930104922456266,115.05186443994523
2832,7.867296,146.7085550438985,37.12532083075786,-49.35985968678227,26.12095431587436,-44.46120602757916,91.30311865885686
2838,7.883964000000001,78.77175425408635,-18.86166874922257,-100.96452640137532,-127.37930442534312,69.40840504607672,21.53636163924701
2844,7.900632,80.37503531591273,71.4658154920957,-26.767084522932464,-76.98850803944049,-84.00553880961317,5.491693013605271
2850,7.9173,118.99498523579727,-105.4876938511161,-72.70997043792133,-100.7688034734088,25.033162434657463,-44.89518277548257
2856,7.933968,119.67572897601713,-63.33348512184269,-160.05948292634702,69.30204555290061,-49.98087232686208,-41.74612424150227
2862,7.950636,97.55845852836254,-144.96186589277426,50.21702694664888,105.06083774490672,-6.135948205919384,72.99260157870907
2868,7.967304,142.00821369480366,-56.81081925203118,-167.3619469893922,39.09497203326623,14.842183100307356,80.42202905385135
2874,7.983972,191.46811217905545,10.576611037835562,-186.9689628188358,-32.09860983654857,119.14785530218889,-18.1798991915656
2880,8.00064,72.15606465102479,-218.6083243023356,-26.00412689941108,-63.4608658271866,-26.60584136139615,-33.46090049785996
2886,8.017308,149.31533107534975,-81.17681729966569,-82.20555287245254,-168.11084538018935,-14.67846064682672,28.23737845896196
2892,8.033976000000001,83.73637279163492,-115.36103496197713,-51.34254264962006,12.681081769995057,88.27074621710942,19.58053293492084
2898,8.050644,224.4117157072015,-80.05422161644142,13.51431708158308,191.27803398163968,-16.93327227491772,55.15242392057913
2904,8.067312,72.77114830154653,-207.62567041958164,28.38298965937017,101.89055140344352,-33.36894090095773,-59.88668767634309
2910,8.08398,169.9375347822541,-20.59609567365454,-43.66528447677321,26.55740791678656,-29.27938727518415,23.92489308121928
2916,8.100648,162.8371570172975,62.405946263552565,-153.94506606202066,-15.805647894240709,113.07196761706354,-10.167651561009592
2922,8.117316,115.98911033328504,-122.26782067828096,54.86280527968732,-95.88671681495106,-8.821657199763813,-83.22728835853664
2928,8.133984,124.79893175378749,-202.57365553068777,20.338485401220005,8.031466205412556,28.89586660914373,-41.13814767602388
2934,8.150652000000001,184.8573332194988,-139.08062443568295,-15.378771333779412,154.1663751168357,-9.273320414614124,44.90598663597737
2940,8.16732,115.3888161239203,-84.69438602545048,-118.19328087827618,201.8128651641334,-152.77246728910447,81.77544335576071
2946,8.183988,102.6424102093917,-35.53708859915818,44.08484462884549,-96.72711563493922,49.50397952826941,94.3432313412067
2952,8.200656,-10.510635205823252,-124.4933021786534,-22.053396234184227,291.61354344333006,-86.99412703781277,-2.4544678959270527
2958,8.217324,47.87932991241709,22.679382184513088,-51.233537980638175,213.7994845311435,8.746355452000158,-92.5998977682578
2964,8.233992,1.9668757680276912,-45.70305194796764,-62.52276420300633,38.0238124315368,-18.833545685156025,6.380842153068301
2970,8.25066,-95.4210531351724,109.27845115086544,97.13116391263598,149.18241388307172,-9.917778764574038,29.276349247300075
2976,8.267328000000001,59.39776802491551,25.882083950052746,123.27680153596764,189.50637714375137,83.23898971408494,-68.25125568750367
2982,8.283996,96.63388453622169,-120.42320495471547,96.82090081159744,246.17073871683127,-86.94733793282134,-10.341092018431766
2988,8.300664,67.93751465538247,73.38258784170648,34.56796124070365,211.2244709606209,-70.41863844423663,75.37922607146766
2994,8.317332,18.63651339327131,29.868261906004317,64.84791696646975,320.3995647879649,71.11298579626336,23.73215003029433
3000,8.334,129.85707909670742,-11.760625739946295,229.21869443912755,215.9507909195507,49.89685223844872,-191.92554693307068
3006,8.350668,-101.93255399869317,39.0200749514947,1.1921108266086833,69.76778608138338,-1.0250244299274545,49.89454587786335
3012,8.367336,18.34597413538081,87.06342029037751,232.45317709931717,394.4020658981618,-70.22840160091945,79.93878093706923
3018,8.384004000000001,-136.42312471924015,152.7302255002047,106.92115583904427,436.35339640450536,21.480230547413427,157.95530979588756
3024,8.400672,-66.99736532274008,21.696472980139824,189.86106995559248,216.3722216034279,-85.19134890709424,92.4305420424943
3030,8.41734,-57.86151870143193,140.39872400669606,71.04229153591587,50.83524719889944,53.92758018910684,25.57414720255988
3036,8.434008,-74.00750425411903,69.66753521391244,231.52580922449147,247.90801603811823,-63.06890320659198,56.68308107252372
3042,8.450676,-199.5802796795051,3.971394331188311,159.80175363258638,297.6186256047175,-115.123283025454,96.25738103954664
3048,8.467344,46.88269959126182,-8.31793634745608,105.14130573253271,45.99708393900768,-13.709417557679952,89.8311317674451
3054,8.484012,-225.69648874289337,16.06332904442096,79.56357386033586,171.96188658259777,-121.73931748487227,-6.35319480680873
3060,8.500680000000001,-135.77897123511488,16.589985961978105,130.34413802359649,147.2517887891942,-64.03394414764517,9.550878390171093
3066,8.517348,-238.5412613442492,42.4940484447657,101.9436206250413,69.62641524298705,-41.52127202571907,-14.409799421271352
3072,8.534016000000001,96.07323104260814,-40.61621106388391,80.23445586304072,232.6993041180912,-97.79446527130996,98.32004918240254
3078,8.550684,-195.08936059340036,-3.223963549401196,84.11436164237873,3.928540446809464,-139.14420686430566,-50.059247120774046
3084,8.567352,-126.34456740746091,-53.3626791366353,157.92503130039034,164.40755827292307,11.922492072920996,115.07107553040396
3090,8.58402,-228.12195137126648,-28.51273654635156,37.572860939811456,8.094281963970463,-135.206954262112,-109.3144389263472
3096,8.600688,-222.7152616147052,11.300932184788792,-61.97962268744519,48.16467199254232,11.248652922495506,101.22822745344968
3102,8.617356000000001,-60.16113254278339,-52.81820105895319,117.81743212005608,107.1516626828645,-160.0315004225762,-3.958379770033858
3108,8.634024,-136.33781941508636,77.74174695696864,-79.37202799711451,148.93160703764647,-12.228535929622367,36.88840794910669
3114,8.650692000000001,-151.7174315664393,-84.28882106475318,88.31702276993403,-19.182902405506752,56.64731504291044,-15.098577651662922
3120,8.66736,-141.14712765491882,81.31088889427281,-8.994731859168862,-58.90333742270574,-125.06642203213588,55.08424419159804
3126,8.684028,-82.53405598421213,-20.4162778781748,-29.511048598578785,310.7439556120617,-22.697160993007174,-78.03073513730146
3132,8.700696,-100.22857889990478,141.84388151234504,62.07891218470397,-80.11909672872133,118.68928360368815,68.70282340791815
3138,8.717364,-90.43323026357014,-51.30226191199426,-50.60014252057892,-94.46024625559843,22.313080533886264,-0.630872631691993
3144,8.734032000000001,-44.87144844389144,18.80358756011,55.69842214630936,85.79100842254866,-163.77087307879012,-115.9066633376743
3150,8.7507,-127.66720141360535,123.50672755263392,0.4962644312693314,-227.21967415371057,126.22072495077369,98.19845876487456
3156,8.767368000000001,-99.24991631396634,24.030053195607195,10.88964968030804,-65.17094129616909,56.84803231159771,-3.946763958381517
3162,8.784036,-111.5416003639415,-128.03704271619227,73.99292538527358,-46.67809933902024,-71.97279334232789,-9.924112893364589
3168,8.800704,32.051059941381354,67.23046537732976,120.16669483831372,4.925229100384684,61.43300689606353,114.86044121991036
3174,8.817372,-81.51621512194487,45.16698073115607,-56.53699453056021,-195.80269950807,18.084668117210025,-44.21689676526654
3180,8.83404,4.163808567773842,-45.82446478437827,45.25404969329336,-9.606131527593412,-16.11855990267546,54.326433189334935
3186,8.850708000000001,-88.05359436101938,22.639623447342267,40.2652766085053,-190.34459703352945,32.858776363597414,-6.016055628649241
3192,8.867376,-39.44027378635522,-39.66031770774427,90.31615549099295,-197.73346799955848,-82.5365395726572,-11.089392750570005
3198,8.884044000000001,75.25011577882938,-107.18050931153692,-21.742306386658854,-378.5543647008056,26.35236175554875,-18.847524818454303
3204,8.900712,-92.26298916217915,-24.275182930908112,-38.46883850500484,-100.46165287919462,9.862009326163925,110.88848317564884
3210,8.91738,30.369894941856224,-43.17260170850594,69.55133210090742,-99.8928438608804,-169.69930366142307,-18.707597787174397
3216,8.934048,97.6736734629136,-58.63197231274526,7.724753200269944,-83.77940315301987,93.19076872333106,118.21628980966064
3222,8.950716,-97.83575852096348,16.0463335187143,46.99137242111836,-219.0106696310288,-7.695724885637354,-68.30621248141965
3228,8.967384000000001,-57.13519527004979,-110.25607950036606,-6.75269079506143,65.68789619991075,-46.478707371617205,169.33753889545238
3234,8.984052,-107.70721668933056,64.63785123529327,-0.6843218807144638,-624.3164055482348,-7.517886971564557,-32.626815559012314
3240,9.000720000000001,15.434681177326777,27.74520080699006,25.96914924466816,22.99102285319236,36.69781878079213,267.33456868804603
3246,9.017388,72.00446886061583,-160.9869314249139,33.173536539146795,-312.0383322621094,-29.457034899713555,61.30193510117504
3252,9.034056,-84.13770746103667,192.36245939975265,-38.31565208241123,-15.605396755270537,-53.61245296800369,129.12747546020586
3258,9.050724,-30.004525686134063,224.47526963790483,-12.338692359453482,-357.40257643289755,157.36452055662247,-48.55807851317872
3264,9.067392,277.0189158709696,-49.970713727446295,237.5177229450872,6.494375317054752,53.384510999088654,58.991313353142495
3270,9.08406,-171.9238029837206,135.84996540666864,93.44258736032694,-236.1159802936977,9.4907010199927,13.99208188682799
3276,9.100728,-8.50246843687195,80.72979645429822,41.15124458131527,-262.50877953569466,-42.33156058256799,143.78237814088664
3282,9.117396,73.10420582297245,105.99701467593827,124.14251656218836,-41.01636026188511,126.1084454165786,99.58796431868676
3288,9.134064,19.668300535783665,91.69811851609964,47.1333720478135,-133.6878243176544,-53.671991645951394,40.018552615839056
3294,9.150732,44.21752417293952,52.98353981945372,130.13542941246476,-335.4270205074615,5.9971496626943335,-48.191758525693615
3300,9.1674,-13.854318662878796,-32.3821859840985,77.30695616421112,-3.2571506305126547,115.01450997426748,146.28178077789937
3306,9.184068,8.439188247083052,15.846593765337747,116.0243405659394,39.243645251929735,78.73978490904281,160.14066787668094
3312,9.200736,-43.79457130093501,78.58030909609994,75.138222325556,-161.51290855946263,142.6840708333662,25.37531253650113
3318,9.217404,-46.92832765920299,-18.900468712671422,114.7323148489284,70.73515005471623,163.2794714607177,240.28002591322124
3324,9.234072,-36.46189895610816,30.07975696161374,18.149143898902075,-141.28330933704058,-53.46752182468703,-36.21379407328626
3330,9.25074,13.127517371639804,-115.1222611501024,165.96558427790453,-304.7074856285441,-181.09671224281956,113.31342718480242
3336,9.267408,-57.9188634956172,-2.896691039344873,34.21337302428303,-429.4714591268848,0.1062961458176516,7.976771931080236
3342,9.284076,-8.751110155552787,-58.54273081498551,39.80571022009829,-38.57163925321119,190.3968385423075,48.0728600687531
3348,9.300744,-51.6240418994276,-150.19004621141505,34.96845074538219,17.570983385661634,-42.25127091670716,131.25472582024202
3354,9.317412,26.570603587247835,-69.30435665082223,-18.981244755819816,193.9444583534245,40.596376269021526,158.56414318410552
3360,9.33408,-132.10190562798616,41.36596172494316,-40.473552997625085,-13.492350368369662,72.58559836543354,9.258418922155364
3366,9.350748,-23.63173181841143,-34.19083185130722,34.92530831743403,-5.927986090637525,-66.9665024555398,115.99096396198172
3372,9.367416,-78.59201664488235,25.04417605180372,171.26927011939694,-126.34738441456864,-49.72936554633621,-12.196040141930386
3378,9.384084,-137.52858225252345,-127.49673182067885,33.270278718138826,232.97368200585493,118.45738125084917,150.7045398052462
3384,9.400752,11.212903200174168,41.54490925037133,60.84522521089636,379.02110429800905,23.93997915954975,148.46209412104585
3390,9.41742,-16.97167239263901,-9.65960948246249,7.814140718328936,-318.94451313101376,-117.6668722613654,-138.406207608749
3396,9.434088,-3.223581207459156,-15.16001091755373,-6.187039200955027,275.6221351146929,246.9176864355302,68.59023060324772
3402,9.450756,-69.7185521692335,61.90226359660898,45.1673571536562,281.43878470475147,-35.64420951461837,12.207051721187447
3408,9.467424,-17.6842984351132,-47.32731806072191,69.64765795002972,310.09299819011426,-135.889406258834,-78.39268967525265
3414,9.484092,96.26530330464723,170.8158465609426,-4.793509396270309,-33.96267295026307,75.554507252186,-225.20554303774773
3420,9.50076,11.722154649843688,107.0433135499022,-97.8392144003811,740.1092446216925,-153.16630492873912,155.69479376109535
3426,9.517428,-36.85201032210216,81.46203027836464,65.7928390463332,-269.4573062970885,304.1755932973839,118.65233169797762
3432,9.534096,152.3651569593847,247.9509008892239,-6.647867563540103,54.50920730519974,-5.868723995886285,-218.62595948141936
3438,9.550764,60.34892181721053,-231.9239957074455,-70.74161411322788,151.23936702376574,64.37561004811668,-76.2966928517109
3444,9.567432,49.08025773336313,6.873247769695297,-26.97079596335074,445.47512946886,19.67270716061668,-113.70922040837048
3450,9.5841,97.55474664787832,-92.95085753130692,-58.15241214672538,151.19279348894918,-184.6711680057898,-224.84105754550987
3456,9.600768,102.85369660258246,-25.70067100473369,-93.93358605713604,155.19782382031738,134.10134907188802,103.92464529300682
3462,9.617436,33.07270158217496,-51.70198101986351,-112.56156494698942,60.02088603963803,-155.1951999251281,-266.6700403517479
3468,9.634104,-67.21799351039502,-5.837241150463328,-76.36866069159078,261.49733175727545,153.50421532430497,-84.04421049332467
3474,9.650772,87.37351989082205,-156.4604487951375,-127.41615658592106,256.62291020078777,-93.13132943882108,-287.0655003253329
3480,9.66744,93.96904418000884,-58.98980185806458,-77.55581077422474,146.27941362974744,-89.80165524759583,-258.71231742013384
3486,9.684108,-15.99224977790385,-38.19735220342589,-185.4997685769892,205.9165085134584,-17.52047773988101,139.9085707774346
3492,9.700776,76.32661273049374,-176.48809200389357,-91.2848213915116,77.8547799994366,-164.16397419050227,-167.3034769807206
3498,9.717444,102.21737734730354,12.883050969269924,-136.98076946677023,342.3333974853506,-24.326694921350672,-243.62894122615157
3504,9.734112,117.08897090409448,-92.91235693777926,17.26166343405795,16.608802277748808,-118.15275772700264,-41.97368235308267
3510,9.75078,91.71605877393696,-84.4530559347344,-227.9247248307959,157.94162755146516,-161.85359580009828,-226.01439685246208
3516,9.767448,45.32546474225824,116.40161334921902,-47.49939082409578,402.9298997608471,103.6447368253716,46.12902462812404
3522,9.784116,70.35448708249324,-114.6711963465021,-110.86276029811565,-146.23308957785366,-198.32254668057607,-314.3584084583736
3528,9.800784,18.747139908822533,-71.09129294119799,149.14396730117005,316.8295419545816,73.0118658318118,-4.667806740056703
3534,9.817452,30.614447932111176,-38.225462176587655,-102.26292164295684,429.9614204603894,57.56953049408119,-141.7612510618374
3540,9.83412,69.35569982603062,-57.16253054421194,-121.0435800867908,-300.20847008446174,-138.44142703348936,-24.316287965755564
3546,9.850788,80.38311864067576,-31.779532198071024,-193.4958275159518,520.5806404611892,-104.56512052789944,-121.28610546745938
3552,9.867456,30.53031021168414,0.7731123745011459,122.78624640842114,-91.5506685981731,204.559183667056,0.7834715392162117
3558,9.884124,36.17750590154608,-110.31166197057549,20.44612540575829,220.0785389900334,-109.01597244358906,-117.20755499845636
3564,9.900792,-11.196662897890697,-35.56396283466199,-239.61661838128904,-2.2108431247593217,-167.03456427744692,-175.4556168075298
3570,9.91746,-124.7942330381305,142.78758571530147,35.94973746613975,-69.86170374446138,176.91805473004777,-2.565936330751665
3576,9.934128,-21.896355511399044,-88.92866334455505,170.17196302301096,251.18752682388663,-2.733703065415817,-42.51809840049725
3582,9.950796,-32.16544308668491,59.26937400644806,-5.252993999950292,-81.43400041870997,41.719540319006754,113.64599818979973
3588,9.967464,-128.72871347081656,-64.77460366458041,100.25895761085891,-159.8254827005262,-116.11329352220793,2.223115323693918
3594,9.984132,146.62908787619372,109.87421803219888,-103.47599211944582,174.48300281614223,195.27990771557728,117.69347178548938
3600,10.0008,-286.6816033708494,-182.14528214902435,107.36828933811788,-257.942961584336,-96.22299073968932,37.68187426333105
3606,10.017468,-114.68357630719306,119.13404266794647,-51.2660585511324,-109.53248688858928,-17.417895448742932,40.49058699333074
3612,10.034136,-133.81460095552382,92.308186194728,-121.95757587348344,124.61051628181664,81.28896314182212,-238.36944167784216
3618,10.050804,-149.23540192005856,39.58591608279141,215.7673363035527,-60.5315236572195,59.65907144794345,175.76397835701874
3624,10.067472,-173.9146399877573,65.38652333470031,62.65634594015103,-11.59424665754318,72.9539861655779,-159.66820084193105
3630,10.08414,-115.12645412575534,62.68429337026751,-97.41549235813171,-182.53172490748727,-8.158140933590516,69.98390574433417
3636,10.100808,-189.148611853316,91.91933405903184,106.42674915323984,-175.3246455335842,19.81366480372043,-38.93895772832587
3642,10.117476,-103.24672497985068,-92.8290089076102,70.68493141069827,-143.12757281090705,229.1144338889084,277.3416477058165
3648,10.134144,-241.70397653587787,252.8483321837816,-51.88630265558384,-313.1260844594733,90.73427169261616,8.263965816191515
3654,10.150812,-143.7587246936058,43.69815310538667,-98.45420335312008,-274.3305535037653,105.58946316195453,29.844708165038583
3660,10.16748,-106.78674688279456,20.39888548928732,129.09391030688653,-134.63160622556236,88.02192441887911,27.89612812587265
3666,10.184148,-337.89814521657127,95.41791628318204,49.31247114240304,-307.5302643530233,67.32107814335555,-1.7197788098952742
3672,10.200816,-187.0687171909049,-48.36273999375842,-24.67336782822458,-227.91086479102648,88.06279362220377,46.78421398729774
3678,10.217484,-119.2061890672925,-50.15241059379211,23.736609305672246,-484.9986626337464,-61.039223479284566,74.68878446984706
3684,10.234152,-253.0598209641056,129.8457757422753,49.77223255707867,-9.26420288000456,176.44453310311715,99.0691074275896
3690,10.25082,-181.87465003565092,-43.682187625536656,-10.160848666362682,-356.6327664629844,1.9727428212975973,-40.49303659266458
3696,10.267488,-130.93675285030332,6.68151648701302,-6.431786397212939,-105.73756214349932,125.47917195662752,307.9185651266098
3702,10.284156,-172.50219466682202,46.43570462623609,74.36182495962545,-379.35135454132575,82.89575460564521,29.56006636247784
3708,10.300824,-117.24808042250989,109.26336898948573,80.29149598836376,-217.02910035654645,-23.33648810162743,47.50742864819354
3714,10.317492,-66.45762885236815,147.10477502198466,114.54508131923691,-238.92854555678537,184.65617017181276,401.6515397954131
3720,10.33416,-122.28781134759548,-130.87949566651633,127.78176982123595,-285.89927094386314,-61.72161403811203,94.80562720717876
3726,10.350828,-44.83473418220434,34.388892346016824,143.39680884582413,-246.82153645756603,-81.47489967899428,196.3942789340916
3732,10.367496,-177.5271373877792,145.36284805388158,18.094969816262825,-151.06997759412923,-67.14248665624915,39.635329653131976
3738,10.384164,-101.11443547272285,59.667133496809925,109.40370227649882,-238.9758294293325,-67.4821974560393,182.42983967329428
3744,10.400832,-67.29797621004359,89.0266980054892,111.9847484913528,-38.9883667192166,-116.20517263313272,152.70972397571802
3750,10.4175,-7.2783040058097725,214.5747203786061,2.4575919361636096,-114.11547213118968,92.0019420968498,192.01919746282908
3756,10.434168,2.559045458337863,-131.68210037326386,132.46848143393805,-104.0547853979233,-51.81233111535333,17.077193506569486
3762,10.450836,86.45988977902962,148.8079825408024,66.13357215012165,-96.45094539308376,77.68497695831985,-51.943891270972095
3768,10.467504,-12.602766438794935,98.5286028481865,145.31217613189764,-105.15088004761732,34.9590587936436,23.84649383770528
3774,10.484172,140.20663165249306,-9.5413293971704,-55.73952719530786,-145.53959955184152,-103.2319930865408,37.308825844409625
3780,10.50084,-247.05469333735897,336.8821070166288,222.40117945039336,-124.31284898155528,-10.853126775768736,231.72682457522447
3786,10.517508,237.17377527904216,-120.21351161078027,-32.6537912118499,-36.87466516769476,201.90478668146253,104.19770248834864
3792,10.534176,94.39972839287256,-68.77901169803044,16.378064787096896,-49.15150483342326,121.85781249984608,120.0718319123704
3798,10.550844,163.3117938134825,-27.82533305750476,53.324639421341246,-7.973780450974054,42.62622366086666,-89.98264567274805
3804,10.567512,219.53491943258905,46.77581442211482,-64.98714048561357,-27.85328159286917,20.22528217192384,-38.91517630298669
3810,10.58418,162.3925119703167,66.95142273186161,-11.43773211588246,-6.087974700701196,108.48481951510225,156.9060089433904
3816,10.600848,237.95666738293465,-196.786648177523,-73.25502731115583,211.19885131327916,5.693950624401358,-119.6982105267456
3822,10.617516,236.64837725340152,-54.49799295016891,-37.5899245554405,186.22042084157067,71.96580933515801,0.067558722902314
3828,10.634184,113.44536313083458,-89.60463422327301,-245.8477584993797,126.21925217061444,57.66400350514224,-57.035659025716136
3834,10.650852,124.0689790094993,39.88932796788352,-181.8767551294251,277.7647425172534,151.41804006137284,84.704925480116
3840,10.66752,175.50705063437408,-115.88073990434648,-105.97222628594297,192.68535893568347,3.1356398597128248,-104.07370813931465
3846,10.684188,256.61644535926223,-116.38840985435787,123.52027031872412,289.81330061167193,-107.71003921328806,16.30161479421428
3852,10.700856,202.50477571496765,-31.423633576753996,-216.46044604998755,245.4013593348101,35.65927146731511,-16.48636476504644
3858,10.717524,215.88214823173357,-26.20909946832832,37.58787291457679,404.42374837426576,95.9346959912305,-137.03522371519574
3864,10.734192,292.79115866501013,-111.85497643108828,-93.41579097734962,440.145608649327,-77.34141098831591,-185.8041267386124
3870,10.75086,285.6146594360857,-117.02934105237348,-205.05908119202903,320.42538843775105,-119.630385802179,-168.50554875319875
3876,10.767528,100.56924153510045,63.62683202419715,-210.1446656694176,283.05550626853704,-6.226828714033282,-250.2921762440674
3882,10.784196,147.9608099876819,8.663020515156184,-4.666615619860359,223.40164153333416,-104.39429960537848,-111.6879226528367
3888,10.800864,485.7132555131143,-269.9378101144057,-242.31479444716345,346.3753652196488,-157.92784007719314,13.637971346303218
3894,10.817532,160.75920238106414,8.371779926164493,-121.795654160153,226.4314901945786,-140.99132194999044,-216.83956292067103
3900,10.8342,253.6479449684632,62.31066586992278,-45.79118749199261,320.72339760209263,-99.07006744499655,32.722524886052774
3906,10.850868,-276.36809348090526,116.74034674072404,71.10207908260197,166.09097875658756,-136.72155639131324,6.582213898857358
3912,10.867536,433.6215879015965,-162.48314461277496,-183.66798002907544,385.1338708921802,-145.00894908575447,-130.821838694802
3918,10.884204,138.63750499626838,-47.512343662639566,-111.21916296914924,238.4752442813315,-184.8460523506833,-145.8177557332149
3924,10.900872,46.949524299054815,-129.6201050845268,85.53945658555864,137.93630624146948,-252.4096075372684,-113.602720785371
3930,10.91754,25.66245254523667,14.043160588970942,-119.89669767047286,181.30249872943256,-152.06351502003315,-225.81214891170185
3936,10.934208,241.5090078607847,-191.2381179260632,-80.55944613810851,257.0650280652936,-135.28165115925384,-52.23807093949004
3942,10.950876,59.549526641899874,-18.52018912117572,57.2388212587378,208.65278528270383,-206.42498822334647,-201.1180120862709
3948,10.967544,98.58994052067128,-34.716470431949816,30.118561206040187,200.7555030810568,-270.5724447832988,-196.81249337785775
3954,10.984212,243.27167677498483,-278.0313889942475,-7.425422670184346,319.8861357484565,-120.76760610334294,-175.55806798887275
3960,11.00088,35.06117835870852,75.82019637901803,-240.4135893786607,57.16344893008194,-90.66614674944763,-224.19370246356283
3966,11.017548,-43.9459034369485,-55.60735976795118,147.99015384192842,29.76182734379511,-220.7717356288884,-76.70689286318114
3972,11.034216,19.743363773406077,119.03823418723624,80.4706073940464,266.3517887454454,-35.77314714709116,-82.34472308360154
3978,11.050884,-140.67634632987532,72.93934620936045,-6.926587768955515,7.928348200447104,-2.6878570908876025,-139.74468432539896
3984,11.067552,174.25816325231537,58.116038671442695,0.7546952975839467,190.59141619415783,70.91669109424419,-151.9866140313986
3990,11.08422,-211.84962454997316,27.727470158447503,105.39667638404252,-63.56322708444719,-47.45908836512753,-127.7495205462842
3996,11.100888,-90.57542488887644,205.9871884026268,126.65047718536329,5.396933647809444,20.91095834757793,-211.73155417756016
4002,11.117556,47.72591478471279,-41.98017791245103,136.80981471249763,-125.2216003143546,67.09648307443356,-52.789445064115824
4008,11.134224,-204.52311629528504,152.20530489065243,252.6753672531478,-73.88096567878473,75.15908587904228,-142.57820070618135
4014,11.150892,-61.99357626404739,184.1700213574248,-5.918637712148988,-109.49700599895236,128.31887210683874,-174.9632260510776
4020,11.16756,-150.15803675780228,87.48001869774166,81.93996864467711,-107.0824543314446,37.35290679154161,-45.6183340086082
4026,11.184228,-118.9613261316329,115.66874045031663,347.1455451861783,-189.59490788133212,15.090568662916793,58.21490529146536
4032,11.200896,-168.80340726630257,76.32527933306748,156.6533607190852,-170.7977224184106,35.48647442476357,-105.90346382403894
4038,11.217564,-296.7563900925943,148.11138185352542,46.0286504503634,-209.65681725154505,-178.89861821000824,-214.48643612680712
4044,11.234232,41.130725946160176,-179.11686057480776,277.8876615090046,-63.03020121463472,65.21991144539459,-27.81672476373217
4050,11.2509,-179.50167787509386,11.716424811127055,217.79649745430984,-126.52730376603056,-91.13204793793987,-9.858384787134028
4056,11.267568,-383.731890650565,-25.661063752022685,293.1144086742399,-169.6090050192457,-113.70721496334278,78.52729789847314
4062,11.284236,-146.98557610269162,-102.24001306341869,220.26593205008655,-140.83532112788535,125.79638825105133,100.72895961471076
4068,11.300904,-119.15711201357225,78.41239145010977,139.97818683249156,-188.0427874076697,-113.98397476351364,-23.20630638822891
4074,11.317572,-82.45635196122203,-73.76276938712373,180.07092366500942,28.43693362264005,24.90549526896109,93.39282176241596
4080,11.33424,-152.66144341654729,-102.08579542054623,124.7351009142092,-147.6584573695685,-53.6188547735656,121.46035114784884
4086,11.350908,-86.61367564833262,-37.746065758172456,123.06236875613652,-166.43544318955077,-88.80734765785353,147.73469283758826
4092,11.367576,-218.2668177541322,101.61187945113512,194.2982829863231,-125.44844486320858,-69.71804719641932,268.3337492768169
4098,11.384244,-127.754511487494,20.64495285772236,239.63326374044715,-239.6113644778337,-196.0535370389381,439.5136723545699
4104,11.400912,14.565226620242186,-239.69530940127683,258.3484854565976,-31.118664730962017,-32.397282503727816,326.8776908552052
4110,11.41758,-132.08674102225064,243.53358816582625,200.17071590999743,-90.53108642384026,198.97789075843195,331.322908755564
4116,11.434248,-155.1149533655126,242.2038744878452,163.28031632691895,-194.06420013392423,183.4723040941306,358.8995971793265
4122,11.450916,-179.90855966212678,230.9464421392004,201.72055601181603,-132.59954892901828,60.26453661250346,475.0471792754371
4128,11.467584,-11.816474461424562,-20.556241536689072,270.4220869503427,-123.2640076641176,-172.66454964513326,406.0335534713565
4134,11.484252,-284.5469593394158,231.7320489208144,275.8076072562261,-249.7278126642122,322.3200861066635,471.8006155290194
4140,11.50092,19.990881725516275,113.61053007767411,247.61017480738505,-226.5881952792656,146.98728923510606,467.7761405550216
4146,11.517588,-136.74368658859055,349.1478434234789,181.51776629165923,-173.83386885800593,94.87615871067835,287.0152336217573
4152,11.534256,-78.46482576433613,75.25428096065278,147.01961592328735,-153.34532884831748,255.2668935936731,307.1109730384838
4158,11.550924,-115.50700201907736,98.48251040822792,291.6641050130396,-215.13941744350444,99.18220117163672,392.4384697685618
4164,11.567592,-145.50511204925652,244.1949592296168,323.345271747446,-40.89451805690924,288.66645962590155,326.2170326560373
4170,11.58426,78.45835630703321,322.2296352036208,10.08200444345322,-149.8388388433419,181.854384622926,345.32812219784086
4176,11.600928,-219.41183442906487,-303.9063945111676,272.46558435348066,-86.0289879595634,46.56853115716527,267.4096568295601
4182,11.617596,7.782264922344282,-44.64519061571246,4.0906295700268345,23.850658900007403,267.07174473366683,253.89724186170872
4188,11.634264,-71.92550183390847,102.7464655335978,93.08897413527832,-8.696342987635681,174.54296971858545,207.98728503531208
4194,11.650932,-54.114987311084505,21.02467890892577,210.6263744116563,106.32457351170022,114.67361083265745,117.97338512086648
4200,11.6676,155.7904982963807,-148.5875333068238,-83.21939083213697,104.16159641524791,46.72967334590373,-50.3148332570624
4206,11.684268,147.6824339727426,91.22983674391132,139.00469450871373,-314.64619511886656,157.88394571070015,786.2829332921365
4212,11.700936,57.71265159052574,-206.0582962024532,-0.2891414360188236,242.6940017902824,139.94317665401587,-120.4976697560798
4218,11.717604,80.73939965997872,38.25913014764886,71.86200885988578,164.20905335325094,105.77729402018338,31.44616793613566
4224,11.734272,47.03945230201775,39.96532963214746,27.343650439056415,134.5009392686225,26.013648584899396,-107.10910652921876
4230,11.75094,39.77803772342821,-71.48443359086792,-16.213749796455346,282.7307399099677,46.88741202518498,-120.73714183152724
4236,11.767608,73.41190383300201,33.69459302014214,78.79953641038713,105.4576042514735,1.6257940948004208,-62.3982508172605
4242,11.784276,146.09403757175787,73.34043494493665,-141.99908972439866,140.49864520311343,95.73894317563813,-151.50494627448649
4248,11.800944,90.57841767495722,51.89794763936622,-16.740865593628538,92.46395439164168,-143.77300834029478,-128.9973413645798
4254,11.817612,491.0075384348971,-177.29453718065295,-491.6413688674292,402.72263272607006,78.48232178681974,-306.45451372501674
4260,11.83428,96.28610861008212,107.13458967642656,-13.161943361495885,100.87072111310496,73.37428466529147,-122.20716432442856
4266,11.850948,150.01053438407507,51.64265227829716,84.27107549312234,130.85065940816295,-84.78250388558365,-152.7092426939831
4272,11.867616,293.8896534095568,-101.02150647157764,-244.94359307988572,345.5208217903605,-114.15313920079105,-505.53613554614304
4278,11.884284,231.67167010290584,110.65773525573684,-279.2798991325935,123.28716920723105,-50.617974958488674,-225.6235524105723
4284,11.900952,124.92859471248366,-155.8463664124974,5.620381225328018,174.14028791046346,-171.4945153747024,-248.7490386997922
4290,11.91762,220.6260935826881,-49.06348789993238,-266.14103751548106,299.3673410931325,-57.479889743959305,-393.104723094073
4296,11.934288,142.15768610231115,-127.4387680248256,-224.50135315247013,174.2608568454607,-27.84656010902086,-213.8874149859917
4302,11.950956,122.79821834537964,-140.8112851214286,-302.6216248584275,239.80337891639948,-95.59538330224233,-335.5963355896327
4308,11.967624,177.98350972867215,-227.68244565393547,-287.34754726672026,131.04005882563686,-161.58894779653588,-362.3398539037668
4314,11.984292,129.400937919927,-264.9048096369584,-253.983743741882,288.49968384895806,-68.00303281177229,-385.4594494452315
4320,12.00096,157.5880861406426,-257.7864909440844,-195.6877065009104,55.80193288970561,-177.4464529555931,-290.1831583510005
4326,12.017628,-44.95705147136526,-379.8945558464759,-377.9572607536841,283.8679080484083,-122.2659977685292,-496.3850301232467
4332,12.034296,21.879860318606006,-238.69044159539624,-288.15721979361825,76.81038913657437,-108.68689418603992,-216.95176648433412
4338,12.050964,16.153415224636205,-272.8492314335296,-319.8202242602572,238.6781272697769,-140.5610298754878,-453.0888665181427
4344,12.067632,-65.37839680211826,-111.71900874335218,-350.967572061757,124.95251849044126,-106.17961925950944,-236.60861586517663
4350,12.0843,13.849037059407312,-307.10157857347343,-176.90612330358098,-79.2061555730514,-169.33751225130266,-423.0756461121628
4356,12.100968,71.6834717708357,-143.580307344554,-346.4193553544852,195.319517302745,-120.676368365517,-376.1229710618011
4362,12.117636,44.58910006374207,-237.47777892285563,-231.1436809009679,-37.205355725828,-2.803324085766264,-222.24208951320333
4368,12.134304,19.284513103664157,-143.55759697581425,-222.7335051773725,254.6070430292283,-291.63461925270326,-534.6568548746372
4374,12.150972,64.31483534404359,-180.29312376729737,-202.5516153079897,110.48433570097744,-31.366645781555725,-227.80019469212823
4380,12.16764,-61.79023596636512,-158.62407038355764,-490.0106583133744,133.8608601579426,-140.5662329055875,-283.15973886390304
4386,12.184308,3.7082354638879593,57.16596526285628,-27.168851324388505,-266.45293138316424,-138.0351872709441,-84.25479742093914
4392,12.200976,247.4723777602538,-106.71702908860618,-4.024956691253713,292.3026367137399,-52.00646204322683,-540.000833504295
4398,12.217644,33.64978451305539,-14.48300529186708,-395.2438448041021,105.25534637720244,-20.953921012959757,-347.5232566583261
4404,12.234312,-42.49336398905466,64.25238278498588,82.64356787391466,-33.39752009712436,-23.997485756197648,-52.82784148936565
4410,12.25098,3.5509504052824283,152.0156865708705,-115.5734176339072,-85.67729774403327,113.17465171457074,-239.0867379902353
4416,12.267648,-67.85706025227648,127.43216314883524,-143.5788772348724,38.32878535708817,0.8758253823686459,-219.745556858898
4422,12.284316,149.05782536000697,-83.36423407392816,70.80676842521368,43.35584903008659,22.053015834320888,-292.85895392543915
4428,12.300984,-186.8578105950276,371.2466632039305,79.17050118469527,-250.6359480667489,-96.66165127165426,142.72521943904724
4434,12.317652,202.3761938711529,132.1330966079837,-58.253437261929335,168.75180811821303,197.0459969789838,-263.31730886761085
4440,12.33432,-84.95829477854953,176.42311236188664,152.33604153225272,-175.34297488139327,156.95888492453076,27.51126483600996
4446,12.350988,151.08646281070585,49.19572912395397,51.897085700439504,78.65041156500831,167.1989243358692,-99.82142905242353
4452,12.367656,-60.3994865446074,34.090750961108725,121.97521727889551,-205.86140065178265,1.0728537503268214,-30.96077116730521
4458,12.384324,-156.97660505083186,103.52390329658,120.95595286266123,-157.91636308999264,189.625785265183,-58.02114805450492
4464,12.400992,-103.1141042181022,101.2309433007456,185.2715690965433,-105.93411908525675,171.54554971140325,138.9712812789149
4470,12.41766,-115.41199697593164,127.97355356653958,167.5687173203275,-205.61516421118935,134.35136592321103,101.5925111939499
4476,12.434328,-26.619111824672736,16.699792576542563,352.5604964938465,-110.99686748495358,96.37863351282012,145.45397373977474
4482,12.450996,-160.3605711478459,99.6437695328498,141.51766982018623,-225.34559258345635,202.87318529253565,229.4822374539181
4488,12.467664,-111.0450483907671,138.3096838710414,123.2395004363426,-259.4451140627805,180.480323618196,290.578110024368
4494,12.484332,-163.93521306365776,-85.22070244438117,402.49397828361975,-97.3196949952108,167.98332601205104,234.92856876661347
4500,12.501,-101.17365595366022,-32.67924655815777,255.3415846316654,-299.364844926455,91.03514758875572,379.2180976503142
4506,12.517668,-158.46506570332895,132.7489886194516,202.42159733108636,-214.19653786192043,48.1633470919224,293.9914374032031
4512,12.534336,-131.9238839233698,-224.74706010395457,134.9584192578066,-256.2382404908859,-14.366482013378056,231.5776797142772
4518,12.551004,-208.73952742056176,144.45505867439047,282.4394954163372,-87.69969283790633,145.68022347286475,488.3314895375546
4524,12.567672,-149.83117526803227,-135.82134188045444,438.4408092525347,-276.689841089267,-65.53355069292378,440.8482787119415
4530,12.58434,-351.89224100593526,-61.3467238783194,191.87628901500096,-185.71992081849615,-119.16451891174238,374.4119020083936
4536,12.601008,-164.1957673372241,-78.09030363511303,237.95557458805496,-277.0963423069258,-61.20371866937012,489.0556538850424
4542,12.617676,-54.374737953600246,65.41460174343125,337.75149937617016,-286.1477964079803,-148.29545789435107,446.6129932574669
4548,12.634344,-165.64694692952608,39.22952278624004,318.74022032859096,16.341595831115182,52.57201167738352,618.7833645543722
4554,12.651012,-133.79896209885527,71.31851636320786,256.38553372172703,-62.17150683346809,-15.354633552431878,404.0460792337532
4560,12.66768,-155.00713557459267,-24.07789410170151,365.7584559533615,-49.71111661569518,16.247384430011444,479.1010110756954
4566,12.684348,-95.07801723124103,24.73460012016153,287.6165953084509,-166.2980095756667,-45.03883465391216,422.3994296542247
4572,12.701016,-68.07626308442693,-17.933546169265213,305.0494060639295,-208.3767117957112,17.864309586376663,445.5268259129558
4578,12.717684,6.777220661473479,96.75106234317902,355.98210974427195,-61.771497690225054,176.18149257364846,471.7296785371758
4584,12.734352,-203.46668015547465,170.87519052866716,269.9669422810027,93.76731838064276,169.08291880865025,424.24387868917546
4590,12.75102,32.77601456779595,0.2293060076732302,163.50967539309693,-118.40689345379296,68.761901636814,409.5613108319977
4596,12.767688,72.72892551874762,69.2530569466976,70.40702142752502,-154.05487136804172,47.38306949517633,266.3562947228728
4602,12.784356,-275.9785515854634,200.46537523526848,395.2113180123164,165.15891854462024,128.99769038829254,561.0211776785476
4608,12.801024,119.98164182677444,17.692962577443907,240.02099735790983,112.2071210463844,124.30077963279584,399.0665194787958
4614,12.817692,-107.06664678137668,79.50279506711924,62.47581748569733,-115.15257658267952,-36.07402236898197,301.9477237995267
4620,12.83436,184.27594134661007,4.491441380113095,332.453492402815,-65.6140506428857,192.71292303364032,34.038970895204585
4626,12.851028,68.81724035329124,69.06022393465236,83.51207014726938,48.44182658939586,-66.57422478345589,414.25684951257
4632,12.867696,68.48072446098519,159.060300081298,94.15214535460083,43.83247455160192,40.441008016671816,86.3985834379336
4638,12.884364,109.37225942705024,-11.402635815802457,66.74086079472646,169.32124431049397,48.1143295692804,209.48065383283105
4644,12.901032,87.42188451136755,194.1226548337933,-109.881356508524,138.1633241314438,76.92212844072766,78.95555523004995
4650,12.9177,146.70058753789985,15.1515368202936,-83.71763312382674,-54.826646883420565,30.553070433310268,-195.14593417004517
4656,12.934368,42.2501080161608,81.69059192162284,56.15940152575374,28.07351285944252,-84.10287286412826,-91.80029440584715
4662,12.951036,57.96943174479445,-11.80160596066011,-235.2194404892526,254.2700282497684,195.7348826034444,-102.1514655479549
4668,12.967704,253.19583415294213,-57.79123609363394,-113.26115465147328,-139.87499469388672,-44.49291184257419,-54.29357671699566
4674,12.984372,58.87703189228931,-3.859389044130865,-62.667477600027446,114.6030759953564,64.47155349422296,-125.9087197744904
4680,13.00104,32.0878601155907,-186.32452255451977,-346.9713147247226,122.24529891470402,-67.91968781641995,-252.5520253729904
4686,13.017708,231.12955837174,146.91267153326936,-72.08972475733155,28.68100010193,132.8907498564355,-114.56303942262797
4692,13.034376,135.06612741877916,-133.19532636702775,-222.2453785393468,57.705169804989225,-142.37718194962827,-241.44311480559463
4698,13.051044,128.67438443799028,-145.84504990176214,-197.19269443534,124.32342111655386,116.2179692269802,-274.9816580690151
4704,13.067712,152.0621565598263,-186.4219263913306,-336.6920736552928,150.8477107605314,-64.63188429391288,-196.57290767722475
4710,13.08438,13.066679965284584,69.8437894341095,-280.1105164600797,-10.536371148819867,49.85073273224064,-220.4004956538202
4716,13.101048,68.73808866441253,-39.82781157273161,-471.172039706124,160.8472449908219,-35.27072585321532,-427.9953555208307
4722,13.117716,200.7547358968416,-127.77647470275753,-329.5374959552396,-89.81955519346025,-104.70441641870524,-438.27515739141313
4728,13.134384,157.19534792942775,-209.17180840440156,-488.1006380238583,-58.77746220868627,-2.406073619486037,-302.1247089825161
4734,13.151052,-23.33415443145934,14.107518207796506,-363.34945775651846,168.4988365307716,-127.40211541176969,-381.49647290080657
4740,13.16772,175.18695569483805,-93.4868935334764,-561.245301941874,34.78096199298033,-90.94450148356276,-360.19613250905377
4746,13.184388,-21.27989157983471,2.5878127072593173,-362.78308364261983,193.03088956187884,-138.39483847586723,-432.2487908784274
4752,13.201056,254.11204821954223,-156.9927067356542,-191.17444068931283,199.84770927707297,-276.5173732333256,-286.01290904411303
4758,13.217724,5.746704477401545,-240.20820358238015,-441.8298663365762,131.87485311395614,-135.3948300401051,-378.95532860742185
4764,13.234392,-16.678927910211947,-120.55237234540355,-123.13728551635856,236.9155320398089,-277.591218062017,-309.73207354927354
4770,13.25106,171.7728034787895,-118.96627186491853,-310.6458178785578,69.32971548597351,-256.6509831574631,-497.1638719136455
4776,13.267728,155.71564335485974,-254.63925972152128,-437.5702579776098,149.59692188163126,-167.36594288839427,-193.7368191979863
4782,13.284396,77.84210364038003,-306.3466362272726,-164.40952141704372,115.64220439330182,-338.6309424298629,-256.25202317497326
4788,13.301064,-40.63827764338019,-197.10381963599383,-470.8287091901348,168.14683671346904,-152.0422242323421,-270.6937322962011
4794,13.317732,130.91205655554896,29.77039006512313,-185.80107145945,147.15649332849642,-311.67692121764014,-290.0483173769089
4800,13.3344,177.771139921054,-153.63311534498615,-201.95884670593307,92.1657997445108,-116.0567044892362,-283.8926479537721
4806,13.351068,21.96782305933853,-94.58490974098493,-115.68941731164368,131.6077862525422,-298.9291279544743,-246.56952402301124
4812,13.367736,49.68879104255549,-347.41423989624366,-205.13370514551332,165.99075191034476,-131.455052976887,-406.70937677277647
4818,13.384404,71.12620845942308,40.96495399417333,-137.4507602282439,33.26824928424696,-58.46275256876528,-5.639137060687801
4824,13.401072,10.38684418262654,-172.46331686051877,-236.2326068251411,-100.94640467115924,-243.35107994721344,-368.3860988979419
4830,13.41774,-89.56555426465205,124.24084543948092,116.1512771363298,133.16542299370923,-245.11518788652904,-176.0970737541073
4836,13.434408,134.92250670985865,-120.31042357582628,-225.03964709125705,52.22408861001995,-51.54945219411999,-13.287647915965266
4842,13.451076,31.462850502487527,-4.532184345857196,-416.3594397289861,-31.617391115837123,-131.09671761826246,-137.75523944291274
4848,13.467744,31.739443363069714,253.26953738805616,165.91248570702209,27.758018689860076,87.58634420195725,-190.95722761795315
4854,13.484412,-139.5069438633001,186.25906450994847,237.66061591060512,78.76894188688772,132.22223454762843,-220.3913713509374
4860,13.50108,-128.17894345333855,40.40939686042047,-25.49250674449996,-59.03182254369136,73.19740796022916,58.57489496747161
4866,13.517748,147.29057228757023,254.1035140260009,221.5439305695636,-67.32829488145083,323.4886146923866,-131.93452325091067
4872,13.534416,33.837440586806736,116.97043171162878,156.07095248258955,22.34017986619294,57.23110970049018,114.71484029956363
4878,13.551084,-25.1200454524048,136.7322497063197,-17.899678365223963,-20.13951678742752,213.14315593506907,122.19085786385844
4884,13.567752,-89.95736976482777,223.26343378992448,264.6550155678464,-157.16629213285285,301.0499613800711,173.58151879172505
4890,13.58442,-4.79379627198103,89.64597156120038,364.19549098903417,10.377201639544396,73.33443901900372,84.21518985387371
4896,13.601088,-27.157162503866672,64.04650783793416,181.4147517239462,-39.00604194930889,58.1552929672098,247.82695702105823
4902,13.617756,144.40533442076872,95.95480353112625,242.619463601213,-35.45674219211788,201.05908951505717,262.8876960445068
4908,13.634424,-185.85971908609088,226.03527446085235,464.62335686982544,89.78131626880065,120.75695646660505,379.4545694148477
4914,13.651092,94.97244413973604,9.853141189139777,559.8930081953507,93.58629161565044,62.19533271400189,330.63493109285804
4920,13.66776,268.6937700811946,25.92771666390549,-73.23843734717207,-7.261086556571666,-32.519432791448715,452.3965735662607
4926,13.684428,-86.2422996177661,43.7016545884204,351.1235432128613,281.54719680610174,83.73820463105707,369.4554167309089
4932,13.701096,102.02640735913332,-110.74284910582068,278.84832836066187,-300.1526608900349,-76.89273786709033,270.502159574142
4938,13.717764,23.16508437067285,34.48140776073274,251.84138179179567,270.09353426212215,-78.87250731815584,488.43128325474606
4944,13.734432,134.6443478470441,37.13851071138144,435.9656646848,77.76294739720957,-61.12505097889589,351.9818977495898
4950,13.7511,-77.45779510398552,36.25115465381133,234.54795131700175,56.36014363400375,-34.04339716139537,300.01597717316906
4956,13.767768,189.93543666322236,151.56063634914602,225.5736137166091,19.254208251025563,64.40117128033759,363.84295415336766
4962,13.784436,183.91743050663564,-13.813425571371756,137.88297767241946,210.75277982512443,140.74502260046165,431.7414512739795
4968,13.801104,7.470183677056979,129.56061737089345,389.3293722894264,77.46804488777991,-182.48764906197565,465.49051995148096
4974,13.817772,244.3922648807925,-26.932346405768776,370.6520658951455,177.24677090339878,32.51128943454485,469.3685115658741
4980,13.83444,115.9604752076048,230.53184856213383,288.5855519039049,158.03884190278472,84.17904197887842,535.8293125162502
4986,13.851108,96.89639204323746,175.0530981146622,353.6221894785931,102.4434873540219,156.8339788873617,413.3359102493472
4992,13.867776,231.21704387130544,22.35166085930448,326.3672502704949,67.5271424580854,116.9532829164176,498.31493444434864
4998,13.884444,263.27468688112094,-34.15643079735331,159.08931659961635,169.90265048536958,73.15187033147461,411.4699401562534
5004,13.901112,-1.5672438336172192,177.9886227152885,358.5798988049063,51.628705068356446,62.20359144755237,336.3805350720222
5010,13.91778,232.32914384344025,58.224819662348985,39.6919758811592,157.11570132689246,124.0647396880204,292.5528392024016
5016,13.934448,15.177235369743812,38.799761686691085,334.811975624726,173.30035919440908,114.36485090356966,351.30941583101765
5022,13.951116,48.14032552931077,-91.08492715079724,-6.651323534079481,78.16524126385158,64.12186319115347,144.58595869599685
5028,13.967784,118.21750130917752,106.39423783476602,451.139361922515,187.3786847465711,186.775756545046,238.84912992239876
5034,13.984452,82.70121922401422,34.158700412289484,13.40801212839168,44.52394271508938,218.3668779700185,63.82469343769005
5040,14.00112,137.9926434530733,-166.78820524791178,93.25705338043258,10.139099749847349,-2.600985044281787,86.11356277234535
5046,14.017788,131.99058706022973,66.7478856841168,0.0685186188798709,184.49556987562008,278.0737020555864,-10.318898551024803
5052,14.034456,-46.81237958877445,-48.919574721765045,29.45537186290416,-14.274412195969145,125.5942115302692,-19.2998243666159
5058,14.051124,116.01747160857856,93.09391886415224,210.9394424618393,13.87626768606866,179.7748141766782,-121.85960769374384
5064,14.067792,53.263179450483086,-108.31046782617214,-185.9271376457233,72.5706845403912,147.97151809843382,-104.17977737134191
5070,14.08446,-92.5194459294042,190.38946460129785,0.5673823879078306,-167.4866226032589,124.19725769453566,-440.69854730126747
5076,14.101128,61.94181137118055,77.44424317655336,-36.69885146418321,9.200148632879149,144.54814207413452,-378.1812198925747
5082,14.117796,-52.57747533309528,135.31855507725356,-188.48823406532276,-126.49300200303747,68.75861357146036,25.528551921826875
5088,14.134464,-44.57561203162221,117.60175090859552,-243.17538393503145,-233.44487003867948,108.83814827848748,-461.1285933411345
5094,14.151132,56.25556135692223,53.31282431392482,-284.82406689399346,-138.2486319688931,-21.381106070904764,-457.8426273555723
5100,14.1678,-148.15384993080326,208.14289012656047,-261.2588014319672,-122.99462072430084,24.964823698304144,-251.0356288929456
5106,14.184468,-139.0151249806024,22.19766479010938,-434.11280497181775,-116.69117042224477,-25.18339991360066,-394.0668603382254
5112,14.201136,106.46958842218744,46.78848089112653,75.76418539686179,-59.63130018242179,105.68355909902468,-368.68718390679777
5118,14.217804,-109.6535622934854,-101.39691104634146,-452.8126149866516,-78.77002651692435,-127.40777610024344,-455.9146817644257
5124,14.234472,-96.24042320600158,-53.6319862880609,-290.95048723042913,-16.302036861449864,-33.84675843069273,-450.223527743256
5130,14.25114,-88.22174061277023,-146.8231909592963,-280.76431455131234,-57.2803178136168,-140.2380299060049,-244.3634870709648
5136,14.267808,-139.0657780346507,-92.4254933973361,-243.94696625250333,-69.50406132955369,-108.8900312431803,-499.6427897403228
5142,14.284476,-15.60996204298009,-150.27970061007846,-326.6627329265723,-48.898645667747104,-108.87471560188663,-337.70841088675724
5148,14.301144,-216.64802515344664,-184.48822767644484,-238.20741499593004,-140.2807632131169,-255.1068719750629,-323.3465125589149
5154,14.317812,-143.44861204619465,-185.96446074169307,-298.04022436157584,-118.90337218262124,-157.25903078470745,-317.6266823359101
5160,14.33448,-101.88619797942034,-319.16532602271786,-292.0023805590121,-120.70324277705086,-285.7766805515665,-469.6225308776976
5166,14.351148,-159.27517320452142,-112.21178455752482,-185.9671707707612,-130.8606854588515,-185.9047660693434,-156.58269841888614
5172,14.367816,-73.25741921045551,-394.0893310630871,-296.0008234464465,-87.34083224941617,-255.45230205256368,-560.1663718777864
5178,14.384484,-60.00972641464463,-416.2088857267584,-326.831034506679,-138.9745360995295,-378.16091446475457,-286.88584420449433
5184,14.401152,-242.62830888706264,-149.06106544541112,-288.7424223584231,-264.5471539661117,-80.07699061040881,-219.7368800171771
5190,14.41782,-54.584907153432965,-366.3798285663107,-300.0001492093297,-40.839238882380194,-537.1329830365324,-534.628946652871
5196,14.434488,-20.58755638155607,-427.35698460562486,-300.9991840693448,-307.4900914554471,-171.76415307922866,-133.18061357270955
5202,14.451156,-216.45015921124175,-72.95355774866712,-238.13691240433764,-100.22558870624556,-385.7035680569457,-427.7849743066717
5208,14.467824,-210.7315015962455,-182.24594000104105,-159.73405993153335,-150.21007469172193,-229.45149073168568,-194.0400558916058
5214,14.484492,24.00493618158013,-147.62026770957846,-119.17228469698108,-162.8630867558286,-58.21403807475792,-411.6223125857598
5220,14.50116,-165.76369798735064,-188.22843412247173,-189.5681158399248,-139.28899212476892,-184.43768822572156,-329.138839283832
5226,14.517828,106.6715343569764,-104.45374007440402,-23.2038150929705,-84.54771051782862,20.35983599422013,-496.8412131774562
5232,14.534496,-289.10387589140214,11.152860895393244,-343.224221093531,-168.35701922791435,-103.0803854034312,-368.4018737319618
5238,14.551164,-124.13189588897332,20.976343455932565,-80.05817261445367,-130.57701937618725,-92.1233405805436,-205.06299181745229
5244,14.567832,-90.82471112660568,-61.48025500732941,-96.64284975216876,-283.4952845628489,-193.69062486791384,-216.59613452967528
5250,14.5845,-55.093061938577904,139.0247059634242,12.080659873075366,-141.2898956904081,96.29644595088824,-63.084141497354295
5256,14.601168,-21.607204661865797,21.635673507690058,4.060362346054262,-181.2975510616204,113.81567584047482,-176.04290623176598
5262,14.617836,-108.0010669155972,199.1415243465712,-42.551894039421214,-123.84091683596807,281.77041737413015,-69.10787406978486
5268,14.634504,-12.156244432214372,-6.583007218225426,130.1194299252692,-179.93085336146763,156.6087548818012,10.357413475979456
5274,14.651172,-5.331934784088399,132.4496137571567,125.4062649493587,-145.35052061386037,193.38436286834204,16.410057526373613
5280,14.66784,-42.75906240951251,397.98765397448767,148.02424397174627,-69.59080308822647,629.9578310964666,63.13231834323383
5286,14.684508,48.38321622758414,-7.7928307758514705,94.48422456667063,-86.74658959659294,147.6488569076754,233.02335976093605
5292,14.701176,65.09135873417368,108.03927903350557,127.64125176350856,-103.82021129365742,429.13945089497656,201.71152036960237
5298,14.717844,50.11358498404263,287.04658110138394,372.4579093185364,33.794695983714504,391.2355209720788,316.4333281290499
5304,14.734512,31.65767822052137,106.42197478103766,48.86248757065367,-100.67321481367594,289.34587447155144,361.1709420804742
5310,14.75118,48.393340212043,148.85816450540557,505.0548731533052,-49.77798708391264,242.5962134603302,447.74921172515366
5316,14.767848,14.593519853918338,139.52484532229914,353.4059283499104,50.10533613305293,246.46833111393732,550.3461900539942
5322,14.784516,184.68634891368907,227.22712165563556,345.1280938892998,55.405814422834126,297.3323406638842,431.86616113617794
5328,14.801184,-3.62074925011596,139.8361748865052,267.40644599767256,94.36289322528826,257.9337172519476,503.226854535858
5334,14.817852,138.74725167641566,95.84946562466118,333.87128386169246,86.69055439055023,105.59236574309844,603.5214070470718
5340,14.83452,170.3620851397772,32.51026504583203,288.3249836546529,37.59024080443125,-3.4432181953259686,317.4091805689973
5346,14.851188,129.23267805205222,115.62207899398749,372.2847254311896,127.7437454526701,72.6907014233371,481.165818822682
5352,14.867856,181.72670225466013,91.2071936802177,288.6100465604177,399.4595872351716,62.25500552450848,474.1113384860584
5358,14.884524,269.0023488687831,-22.408867602155908,256.570294995326,276.5421612685907,-100.8754779763126,414.0276655921865
5364,14.901192,129.8724812596796,119.14304272408366,239.64961359863256,332.15355876890555,-284.03487671587493,560.1948100109706
5370,14.91786,121.96348660464258,-35.52820941214341,291.17581601550603,511.1080260779197,-247.485332823897,378.2566311488703
5376,14.934528,189.2085387157277,29.984987457900267,216.2844212300521,242.6825105759454,-107.54454472566309,344.27253497819106
5382,14.951196,206.78608943938195,-85.2434381953637,184.24659383306025,260.54822013595043,-315.89074851470514,319.09751091463363
5388,14.967864,8.55452696817075,22.91857882631676,222.8544471817993,249.30436666694345,-194.1482728441856,251.79386004953216
5394,14.984532,85.87324228377626,-36.36660153589491,-96.97086237951514,161.2048079817752,-295.2975631665985,-5.742427222849812
5400,15.0012,272.31326660672875,-93.8139486539438,309.554217384436,181.69849505485124,-87.09860903543932,455.0464835898634
5406,15.017868,96.82674126712412,20.589160567882864,57.52768400548851,283.8431705093325,-141.87925011752105,304.683395782765
5412,15.034536,47.27170805442808,-33.11965159795674,119.53710806036516,268.58988697221395,23.19617737872281,333.5054349789578
5418,15.051204,134.86419998394285,-13.682656318445131,-50.547496701278185,260.7196293562537,2.137335495045823,330.4695535708769
5424,15.067872,56.84501955723391,80.42422330926982,136.73330651291727,176.98024349189495,106.97433866723216,151.58582957327764
5430,15.08454,-65.48121679898064,80.08078597584684,132.87697538786256,180.52606377499723,22.24659269015748,218.3346774266157
5436,15.101208,286.58124563844467,-129.89912302817248,45.06708224322602,157.3701993162902,43.9003461562739,223.62299688961
5442,15.117876,56.68986040287021,78.91225634339798,-84.29001697772307,54.019410606390345,230.25410330112143,-8.913605025792265
5448,15.134544,155.58493528697502,60.86921367761239,44.07659763232027,76.39637867087119,257.4186609279753,118.06334903855968
5454,15.151212,21.07301288528613,-40.43274380383676,-135.31043990884655,144.32889960742355,107.01638483837944,219.14980421491848
5460,15.16788,92.87914994984176,7.511459452960662,-51.385003489753885,4.900486011326379,68.53861195717771,-60.041557010298206
5466,15.184548,-72.06972840872602,88.59947375867387,-144.04889495129683,85.01771139977815,362.1797509784925,34.20260548111641
5472,15.201216,33.42065448897788,22.281787031700546,-174.43426154607772,52.35449041796323,189.2121812375097,11.269829622417449
5478,15.217884,69.50147969468716,11.433007099246154,-191.1720552135389,-65.00803522914663,74.59641195366378,-263.91131568466545
5484,15.234552,-31.930911570009545,109.79994311659344,-211.41595628863965,-40.6766614501489,174.41265335057847,-49.56632240572588
5490,15.25122,-108.49469477494732,-31.145040789366355,-279.4720315312322,-156.06900663675242,41.77869710383232,-185.01387969471415
5496,15.267888,-214.459143552058,97.5258079221182,-388.2114346178321,-132.07438144328063,175.51229394334524,-290.7383684976611
5502,15.284556,-34.927819720523786,16.568795707370953,-236.30586723659485,-87.65966319796574,34.78263940780448,-186.38846584979763
5508,15.301224,-280.35925981059137,-87.89875185876694,-130.54782034604528,-231.6841585550865,35.12272729054506,-293.2762392659517
5514,15.317892,180.14560233659117,-390.0134215356156,-204.21253167059217,-179.16544359058275,-181.02193654798643,-294.87490249956784
5520,15.33456,-349.713234252948,610.5726410245825,-417.6435111790116,-149.42941502770864,272.0548880203153,-300.0076909031246
5526,15.351228,-5.213280995553468,-370.7144990012002,-245.5136975671952,-194.43116843037404,-186.8117454414853,-332.4252372589011
5532,15.367896,-297.9426025723394,158.25800647064332,-283.26489165813683,-337.18076313196485,6.730390362627432,-504.5852083145361
5538,15.384564,-146.9802132068475,-199.12885513520055,-259.96935273786124,-245.86765403002173,-94.14444961893167,-494.646888270295
5544,15.401232,-165.99668838755687,-164.7228337657773,-199.62047363678192,-181.53350233268077,-364.10304253096655,-350.0992863859502
5550,15.4179,-32.96460059628091,-89.7924094049306,-354.9706056344773,-166.82070799998587,-267.0501828174057,-267.08682808742583
5556,15.434568,-216.03317415887804,-134.85426919333457,-276.57955852567363,-421.7001501445342,-141.050478164719,-575.8411381627031
5562,15.451236,-122.14964230786092,-98.47221976906611,-264.9798851381036,-197.16575643064988,-260.69852492370694,-320.8315263590243
5568,15.467904,-84.30494769049939,-14.094120806174288,-261.06816196302816,-224.1562349401657,-224.45827455220603,-467.7687335516272
5574,15.484572,-65.31754760668657,-312.79118085743914,-302.0598989325931,-335.1712582041147,-443.0808633897335,-280.7057443785075
5580,15.50124,-80.6048011300638,-54.389936100146336,-242.36999058674323,-176.89942894039876,-195.21213505328765,-374.02181480147806
5586,15.517908,-97.84353458664556,-39.34103719527008,-315.4040566475672,-339.39719925969604,-429.0407837828943,-462.5854453436912
5592,15.534576,-312.9271721018947,-21.499906752428043,-188.2237971495411,-292.70782877774866,-353.59979620965345,-393.8139542812039
5598,15.551244,-130.68826541095774,-243.0188761243902,-351.42059658358266,-186.92636875617936,-322.1916983335347,-367.8825631754934
5604,15.567912,-78.9257384808287,3.42106553383886,-133.44768773432455,-238.69175716026476,-324.5408671593427,-261.4297289267546
5610,15.58458,-294.3844050959014,-10.213918960756171,-152.85867579168888,-198.6542173232833,-239.40166856127348,-183.6324497102065
5616,15.601248,43.53137794425904,-71.06237766666408,-162.1508348925201,-234.09300918450185,-91.16775853300604,-121.21840530819034
5622,15.617916,-118.74264736797632,-61.15676237691632,-90.72382387696442,-284.9263061668103,-243.6032777935856,-351.6674030660922
