Frame,Time,RightHand_Accel_X,RightHand_Accel_Y,RightHand_Accel_Z,LeftHand_Accel_X,LeftHand_Accel_Y,LeftHand_Accel_Z
0,0.0,67.3048312768648,-281.14978707438826,388.9330664318398,371.73537401994713,104.34915533276512,271.23760685355666
6,0.016668,-286.9025163935736,-1.551357003673779,-246.34939951438432,119.13089009954174,177.39455428401578,136.51537671837917
12,0.033336,-278.0244502553249,164.45993238424228,-239.99374377943568,47.01595495338296,359.1649564757457,139.91143801292571
18,0.050004,-193.8760418016211,413.05093322204687,-103.87230746523896,68.30599762533389,468.00018363463687,-28.47066010618193
24,0.066672,-111.08861897039804,20.80341805160151,-194.8969627543926,155.98392623405567,94.50327900578516,-91.7159167748297
30,0.08334,-139.2272427001823,314.3286472726029,-75.98738132894549,-108.66694234169935,300.3498925384035,38.31406865365014
36,0.100008,23.342433090299664,-258.95481338080674,-14.83622709032811,184.79300185413217,-193.1745323918375,-200.73841481382863
42,0.116676,-101.14963658298828,523.0988127796165,118.5040571118407,37.61442560834576,380.53587100211854,11.440469083508216
48,0.133344,-67.03994081144674,-418.7050735436339,87.9326453882667,252.16900813578428,-372.16016389791184,48.30335032574626
54,0.150012,-149.78252482192775,-154.72575522622503,147.38303882986318,18.60781356495648,60.79109419903682,-14.67499584284124
60,0.16668,12.444244087512388,-452.7100819243845,124.58572485666885,48.42613818400292,-318.4128826493786,21.17581576062121
66,0.183348,-28.76596586338884,-759.2679706833429,158.34865375920273,121.87294740531638,-473.5830411905053,-68.16871814566841
72,0.200016,-61.39812341363894,1106.82151603304,36.14906006286877,-180.29637294631837,1423.3292063833428,135.7630243136606
78,0.216684,-94.44662381345532,398.12041089405744,157.29879950777948,53.539346486690086,535.0685536619595,208.5258545108556
84,0.233352,-152.55613856090002,418.47754555807467,83.91201801584941,25.882773190115984,397.3393034966591,64.70375626553707
90,0.25002,-106.11269663234992,381.76003697671393,120.99351388297872,-182.0621924210925,430.7048293992999,311.481753673002
96,0.266688,-138.56736922954718,514.4013549473411,28.248177450801247,-117.86789866249016,291.84425336317,156.54499391252432
102,0.283356,-90.89752211644088,187.1109618846112,107.00641956510184,-205.93603342498125,147.9744996653967,63.17732312786481
108,0.300024,-139.66504412632366,434.07481389418456,90.96153356580052,-166.47404828006205,108.61300270183008,148.07926597512642
114,0.316692,-87.82985815293688,206.6695863663416,199.99428773085452,-402.58884309020056,-37.08588875133597,-37.2866767769971
120,0.33336,-0.0900649373248683,294.41763537284584,174.55989071649344,236.74907056632796,94.1128402384734,-823.0574754096547
126,0.350028,108.61254342968076,-133.55549713839048,216.82393746289068,-1314.2651494426589,18.951537046692067,1883.6120983568649
132,0.366696,90.163197984607,312.5723066807607,252.068261971116,360.2989092591743,53.70441872075381,-894.1303898157867
138,0.383364,150.78645872933637,-61.710691521596985,170.53057863246732,-130.57088040967642,-251.4541913356364,105.68568475562856
144,0.400032,214.427199914592,-630.0127670124177,236.3929612807717,-244.79091218161767,-609.8073373491876,225.71698098517788
150,0.4167,176.5525068163091,-426.5759938804869,202.0812106080768,111.2230188240574,-468.3920565014431,-199.3080989171438
156,0.433368,168.58924021595195,-646.5151699343432,167.4738274205028,64.0270691235813,-558.5890827436876,-94.84105614769528
162,0.450036,181.3572634156464,-542.9343305137127,143.08526927087894,-36.34654230288203,-484.41869002144574,-193.50404133937533
168,0.466704,271.9038958365113,-614.4709482710073,110.76199656587208,-64.4133941475925,-636.486623727617,-273.24897442144606
174,0.483372,217.9500993222385,-350.26057182037505,181.23602043671653,-114.0212168368692,-554.9949347602707,-92.7568096001338
180,0.50004,343.3760617530058,-277.8418419108101,158.2590427206556,-233.16420419767516,-473.5598949363091,-360.47088574678
186,0.5167080000000001,232.26400555615004,-104.1014535973337,-0.5098658007201351,-403.8302510806518,-489.09540491653433,-11.18427152051823
192,0.5333760000000001,214.44839377979807,-204.6166118893246,86.84211948166153,-17.88657309931814,-277.2183012563692,-200.0141432833371
198,0.550044,152.48689547566795,219.96467557495967,11.248454837665063,-127.41024902895042,-93.85378359697464,-143.77099733625258
204,0.566712,145.5817680386549,243.1948019397548,72.08214880994854,-93.50781399610702,-157.36599942018313,-324.6705696997691
210,0.58338,273.6762300272952,147.91456379340846,167.61504311087054,-98.41243870538467,-111.46491641136828,-349.8605276480482
216,0.600048,997.1874102215722,1247.1315560442672,-663.1129086214789,-293.639045800618,-293.7843108104666,320.1147896592595
222,0.616716,-1640.138618836323,623.9558066938307,915.0722834871942,848.9805392308174,124.73210378414907,-2318.317145875136
228,0.6333840000000001,808.2837661486126,362.2607176545788,-308.83930374470964,-591.7467835054657,-33.55296835263256,902.1172090895778
234,0.6500520000000001,1007.7802237384984,1390.236908125975,235.0958294502717,-145.16214364886417,56.005052163331854,-359.0838260133482
240,0.66672,40.24896344877777,382.217691048106,-9.980777210872684,63.96474653368047,41.04687651765654,-562.3249800522889
246,0.683388,60.61790032670282,744.3917591743497,443.908163972638,86.01051866488622,143.98905777799447,-331.38973554131337
252,0.700056,270.0390960350196,32.82313929872751,159.0790062937853,-213.56216891098492,124.8661518784914,-256.2126368284357
258,0.716724,222.7114857648877,564.3571558641311,-550.7718834543791,38.90017827103159,294.72984562843953,94.07486378850058
264,0.733392,-60.73338116803336,452.7049502820121,674.6308007573099,-150.6744763456435,317.7336721039348,-293.1925846784505
270,0.7500600000000001,-359.1050992224906,-22.56692168102032,-334.26993696040734,-117.10493269454524,54.43975918647186,84.60676388765354
276,0.7667280000000001,256.0502093329667,436.72762980692056,-408.3620010678042,-155.70544884462836,622.6122306425523,-102.24569873996758
282,0.783396,-539.2207612056193,354.37830661483895,-435.74631123215886,-4.872666900676819,520.6800898992182,3.499702365179118
288,0.800064,-342.46751236087346,183.22749210248648,-237.3032000325494,-114.01089466566869,380.5786846929543,-12.159357515472138
294,0.816732,-783.4849632973935,-332.7084779530238,-165.81756811725475,0.572877403179973,11.075210542377596,5.928354784782783
300,0.8334,-87.19494819244179,-354.62445951376776,-489.0951768040579,234.12872613573705,56.62351653425959,-51.20564375425359
306,0.850068,19.550509678233052,411.0002797028872,-687.907441424516,91.02292101422556,342.98301790387563,208.1975553554509
312,0.8667360000000001,-142.8959540319668,-147.9953927805933,-247.41334203770424,108.8424651931172,45.0952608017514,86.3219878255826
318,0.8834040000000001,-15.269670636838356,-229.939826919746,-479.9634403402488,144.0385921703467,131.73016607944038,-72.07325710188091
324,0.900072,150.14265018828218,-605.9600367326855,-290.6994150244512,120.14055243455668,-456.7663066432391,281.96401150962595
330,0.91674,78.92547475052432,-571.607321780627,-256.41438992867387,276.30623699581906,-306.21245313954546,-28.96442418427092
336,0.933408,-27.12936096750453,-432.44699655247103,-327.96118091356743,435.5355640933161,-32.204046381964105,79.73954643813379
342,0.950076,-180.2533075058232,-648.771182295418,-215.0289102429919,277.0344426571005,-417.0035296356409,248.64619394685036
348,0.966744,-128.86625199097298,-765.2725902356445,-275.04553809776974,552.6200720464537,-374.9799989694124,207.3653573277033
354,0.983412,-245.6145106599493,-837.6678315261523,-358.9211653796628,408.59882589881096,-390.01555386373286,170.08154359640773
360,1.00008,-69.68902128648168,-500.1763222332776,-778.6802988301229,395.5427916220823,-281.97251580743864,170.4279800624816
366,1.016748,-206.6940138299726,-410.2836923144244,-466.4000637089119,623.5655576850627,108.79795133826524,196.5208846247728
372,1.033416,-552.3490313413188,-453.0772684963703,-197.167594429462,483.92283048254296,194.99563894058747,208.1854748916539
378,1.050084,-173.49920718303898,-944.1096379456952,-130.80580779188008,523.4828916396999,505.1157177809671,262.28524255566475
384,1.066752,-421.6569806728265,-76.75393522595438,-324.8570330093188,235.8615466237504,525.8830219993465,-48.72738970754631
390,1.08342,-650.6676856999122,-340.9324408587341,-18.95364308770278,371.6372917479805,600.6309884148212,300.774438968247
396,1.100088,105.83484513789136,74.90237151679864,-179.7627529096643,250.41680175142284,576.2864938201084,-213.71424201797257
402,1.116756,589.4582342522192,37.53833368075732,-813.7880671101681,174.60358468526283,393.4247359131202,-77.53335407135087
408,1.133424,-794.8337160050613,6.85277821146704,800.7379535086225,291.4881751210595,614.690896208353,63.96067709769068
414,1.150092,240.8107784853081,-83.12519728596783,-657.2573010576523,86.20208438744821,465.5498275024627,-281.5493555687102
420,1.16676,-259.157520511113,-153.2317984748055,400.6006134708013,205.75385449196037,371.9801745683863,1.2458446721105076
426,1.183428,-120.78138829803288,72.51319923974478,228.97174436777576,206.4407587824008,332.67328238172195,180.8109999520728
432,1.200096,-71.0608551705262,-377.5200895714448,260.35215600074,106.96465312672662,353.6722562097123,70.97824673072452
438,1.216764,11.987569397161518,-101.25223837885471,209.4748756149171,-4.3263343543255,539.4233577609098,92.48269611771416
444,1.233432,-90.3944168975973,295.58916828927914,305.2352920213374,-249.286133902818,324.719020266802,210.4590529424372
450,1.2501,-296.64168968690666,120.27335675547614,155.10581036509444,-309.729684909897,241.9920151317398,37.69476325133507
456,1.266768,-81.93708540887405,-119.37482296243066,307.1539495076085,-271.55721136442145,140.85931150211488,25.371252663755463
462,1.283436,-226.67613883910695,201.08139666907675,579.8058387162928,-365.27392034132816,197.4899512571755,-28.63167927921508
468,1.300104,33.208818205925645,161.294097963992,196.19475465954991,-311.147852022111,70.48489230079801,21.994217451330016
474,1.316772,-227.93814176146984,207.9003994305118,454.5212636317965,-349.18792059258226,-135.61507455529917,159.332348481125
480,1.33344,317.2095093109398,248.75467680370764,243.3668876458608,-433.25204456271297,-32.610747787344,-240.8315271186759
486,1.350108,-309.2586564638224,137.53603689576283,501.2181531079089,-197.8849475246353,-350.7593867757644,-41.39420625212128
492,1.366776,72.00579840526316,177.54101154445704,200.91116417953,-178.9833436253501,-409.456756090796,-58.74189330825996
498,1.383444,204.61121536364092,19.924973234474027,198.32394721612147,-92.14153733841376,-492.04690959438415,-49.35551565093203
504,1.400112,153.5823926625972,169.78166950633295,48.87487122983164,-180.84656125698223,-521.8243333405288,-57.44947553441691
510,1.4167800000000002,327.23007403684085,297.144477834774,55.94889822910741,-108.16690178523972,-606.4602667047392,-27.31664787711032
516,1.433448,688.2384745877117,223.1892068780375,45.48663575037952,-206.763750109648,-795.5287748674331,-27.336255463180198
522,1.450116,141.5465595181153,584.3600878269407,-479.3894475407112,-90.88167840697515,-564.6089890697833,17.586072201307942
528,1.466784,828.2369734773131,209.29989777417185,138.9922740419977,-105.86947865810968,-680.2081013980126,146.44790239365122
534,1.483452,483.2165123872651,524.99390768879,232.066385459118,-374.4053796902136,-768.880761124844,12.132116481381871
540,1.50012,840.0623677901958,618.1397420836558,329.6711384967392,-314.3704389310345,-451.2849914738594,34.16654161784645
546,1.516788,343.0872898767643,488.3922142806595,184.98843411965092,-246.7682373235944,-729.9994903363215,150.6991968066445
552,1.5334560000000002,177.62624874499252,633.6524628867493,450.5762942637792,-193.1397829956869,-500.4345416322452,-14.588771257388622
558,1.550124,169.61992825244852,378.7118079916641,304.2061254458728,-289.0897585237932,-441.6288023744044,249.2490202053945
564,1.566792,123.95965497798484,415.72806356383694,19.590047070659125,-158.79992254372502,-307.52271603290166,-6.032559132166476
570,1.58346,333.627419218156,265.05048956435127,265.7370898631456,-81.80237582780265,-481.8559738672428,-83.92240466068816
576,1.600128,408.64318810785926,262.42054089319686,-513.7449096640916,-59.12428074182624,-408.8394999785687,-145.07720382137077
582,1.616796,-136.59354548308696,587.2006319571029,25.035766205745404,148.44651694005705,-411.1505724921043,-36.79258744158203
588,1.633464,1.0511210554698494,400.43684624969904,-318.1352594428057,-160.8558823109081,-687.7531591487526,33.60850526173272
594,1.6501320000000002,387.75456137302206,986.3655730675044,-125.6641639637798,66.69108787777668,-504.1292194345589,-148.26843985801142
600,1.6668,-59.058034104872974,152.9527026217575,-166.45343484627503,96.72755442305784,-601.5869984836778,-340.1330068421693
606,1.683468,235.11402680171423,1015.8102212002289,-760.9451861999719,92.00341561906782,-29.248223565394326,-505.2185749915667
612,1.700136,-109.77482141578056,64.1625424361809,182.9939076675611,63.63274428212594,-0.033106705616241,-328.20210873742144
618,1.716804,-209.37236868001065,418.3400880816799,-492.43340242654574,8.472270038128414,132.65589572507912,-421.8906963695045
624,1.733472,537.6684369357491,336.64619423563533,-563.7707080456707,-29.41708763097088,255.59886732944275,-238.6257051554067
630,1.75014,-1053.7700091557804,659.9275863149828,-308.3738092996608,-98.61084218737707,359.676790904806,-492.3350774149153
636,1.7668080000000002,242.53157020958253,-74.2164488883302,-412.939892735348,-304.5684054217824,120.68774936690023,-335.8099125820048
642,1.783476,-359.37876489168247,-70.73605791119569,-352.2434953586032,-196.41715453571024,563.3536480716708,-492.51937720836304
648,1.800144,-76.31425179910389,-0.693283853407948,-366.943987369914,59.49329861329048,663.3549313628079,-492.3369636474257
654,1.816812,338.6653732706238,-56.32110671311053,-326.990386544075,49.13899491964976,706.3733639243798,-469.5824261347659
660,1.83348,-1015.7768433104784,-36.611367461199634,39.57833916256425,-394.9501135546016,688.7582701219129,-467.7174635177637
666,1.850148,286.7986233143262,-470.4741241456546,-347.9833934360974,-9.569878728096027,502.4949313138617,-350.770340447235
672,1.866816,159.3107209574414,-384.7249355446367,-258.5525845378444,19.522681487509946,284.7039286088686,-42.042960255451504
678,1.883484,-354.74379921636495,-445.79641170892114,-289.78758748524274,90.04000190014287,302.4036114820983,19.202655552757832
684,1.900152,413.8538623081504,-715.2620674217935,-156.25610025057,-144.34069433649142,247.3967417783256,-21.355003460919598
690,1.91682,-399.02767661249385,-781.5894342320441,-189.29277554112008,-101.57736157464896,174.26253156690836,268.94747823706666
696,1.933488,112.3072059282628,-318.3238134710891,-69.60122105252563,-4.731234730667552,-86.50380841200888,280.8193944261164
702,1.950156,-336.8866041744281,-1104.0102425647078,340.7542326444674,293.5656127035943,86.39513040852484,445.6413484986472
708,1.966824,62.407122421798334,-220.41514189651133,-811.6796325636163,84.70548562112428,-187.90773173964303,171.3196327776379
714,1.983492,-21.76165750886299,-972.5083073907406,76.7619865597872,390.2302801220603,31.40835743281893,364.2411350111886
720,2.00016,-73.72595219235406,-512.9340444279976,-649.0319948683652,221.95255396953783,-55.283504605606566,120.73668092180868
726,2.016828,-366.6120366829456,-698.6290414641675,144.9239724837925,428.3899453203616,179.53768228663097,225.20652549150327
732,2.033496,-455.7536161090797,-471.6040490359682,37.1642354811697,390.6990076265552,263.3680420831341,396.30271414471446
738,2.050164,-137.63478343751967,-643.231343437893,40.438770073384646,370.13703719355647,468.85287164644,195.25554445203653
744,2.066832,-258.16321890509187,-436.01736079962575,-83.62885757529128,37.75028128809605,250.20929035262745,139.14615759943416
750,2.0835,-281.82587126060827,-562.4815131382127,140.45703359857572,393.2671108300055,339.2382946088044,225.28012574540276
756,2.100168,-166.0517120994932,-323.40637268203045,157.55596782107327,255.9910033548114,274.49851893942,224.77968905207064
762,2.116836,-229.36379333511348,-135.44192772458848,146.57645606105035,-12.347922972006742,327.4702620889788,40.79759006066174
768,2.1335040000000003,-612.2575259087536,-596.640343282844,617.8394796997608,149.84713104670138,273.9568940593936,110.23321085565932
774,2.150172,-66.54117947786892,-413.36072881518953,222.8060558860568,152.95676358933676,272.60497854007326,114.24478603306837
780,2.16684,-468.8388182595732,-78.54489077811864,356.805591395675,83.23531032737958,528.2599051799613,60.14480838338928
786,2.183508,-54.85785150439048,-63.94212938528676,186.66306252055756,-86.3775234831612,288.3976716153594,123.64869277693758
792,2.200176,-54.62083732204557,91.58952784612173,329.0508993060131,-29.708043719051204,357.525183458087,-37.11012113228233
798,2.216844,-106.87836035766192,198.3515142766224,416.42608152694606,-41.1627625199402,325.1780358932171,172.63465599301514
804,2.233512,20.247229153296537,-1.858508008589176,347.49630466969984,-159.49544391459534,245.03768671719055,250.80253356145147
810,2.2501800000000003,-94.73950652842164,403.29660265432665,272.7493667693176,308.1685506601593,739.6903869876176,545.2157847011686
816,2.266848,-59.21782344457084,366.75693662661246,325.74916884590004,514.5904041429567,1054.5883820656704,485.7332967833391
822,2.283516,94.98277539585308,796.8207214113927,462.8524941913898,-1625.5633717236458,-1014.2094129898774,-866.8890613243393
828,2.300184,388.97444720724457,-197.6283551957593,382.1565513098769,1810.1401928391908,1074.8266067657703,2059.786693348619
834,2.316852,368.58605842827626,890.3619076268587,274.7570054132169,-12.78347046800964,496.8197981794248,174.2383431172107
840,2.33352,-468.20902735942747,394.65412779442295,697.6362242585174,-6.298153773675907,74.47587812762853,219.296198071082
846,2.350188,336.18255344976336,506.0849088797344,120.8129154655395,-5.166909452158541,-19.148729004262268,114.92406608834855
852,2.3668560000000003,938.7774058512,781.4337161992571,-114.02342806990652,-322.076629347573,-15.565444652868678,-240.8499056645835
858,2.383524,-423.30769874994536,202.5083029119222,896.2115468243951,-167.96047990211284,-284.71546561116514,-165.58503442333978
864,2.400192,456.6530392536863,392.2263310743469,-9.361120127197909,-18.47045004723173,-357.6042839653348,-162.41456268962236
870,2.41686,-115.3159120394202,117.58709651385142,301.93957327469576,-46.693158587093,-291.1251787770892,74.18190483958101
876,2.433528,51.423944222033455,85.6859350134712,229.04971921317767,-74.26289395636371,-280.9640133782607,-179.0427152321588
882,2.450196,709.4675358642562,232.3131599353046,-332.2394144922416,-105.00494422506856,-278.69159727293214,170.30125000431934
888,2.466864,462.5120111579878,-226.7174247719342,-90.79971297575273,60.653032554581735,-731.6465438181511,277.05723370510395
894,2.4835320000000003,236.93885395506555,-15.38036634603452,-106.1546327270192,-59.084799086680064,-622.3279687121542,103.13725330136396
900,2.5002,180.2342714171602,-145.491712711079,-201.4594346905699,59.61547681356947,-604.6129804758631,187.98300265108293
906,2.516868,245.1797211190261,250.3655750832845,-73.22253766386237,-87.76786336221248,-398.6135577058842,18.31068178072585
912,2.533536,433.2959156414878,-193.71794708373037,-330.0693661144086,82.35904264297221,-757.613135219847,173.69279873882266
918,2.550204,139.6565805409168,190.3959305062754,-296.9687147816832,-92.41316862886045,-491.3329230397075,148.6305846334962
924,2.566872,194.2693143769781,36.779233591943566,-324.17376068226065,-71.84481975322205,-603.8574063445633,45.32057853577594
930,2.58354,0.194414322266514,392.0203773293453,-367.6758706445023,-149.07908289182905,-568.3989757606519,-70.84464151928981
936,2.6002080000000003,660.9809460237939,318.3418009010497,-492.6760025363988,-51.875832996595776,-280.8470274291745,-26.514430078597996
942,2.616876,-88.5033657730024,474.7581113461323,-224.2400417087061,-58.508744483136105,-142.9152063622895,-321.47033398876806
948,2.633544,66.88315724878834,353.89751089534315,-303.9023901664521,75.65764752222655,-210.47928684782548,-145.8545872818163
954,2.650212,-242.6788131040824,385.9313914045587,-337.13397912567086,-412.8573333323628,-271.95772149380235,26.457955711761542
960,2.66688,-342.62523190717644,355.1197493837063,-91.1519696493567,100.48696467850245,-30.8889606002013,-13.383983595384322
966,2.683548,589.9624737900087,534.5713558072798,-91.55976558636246,-96.87565507006184,46.876817364758665,-41.29704105957937
972,2.700216,-341.36325222848814,374.3364513297103,248.8527199413224,-45.997366608788965,-74.75778448914465,-318.7236555759937
978,2.7168840000000003,39.21692048865656,467.1549811389478,-530.7673619420003,20.885877089311546,7.986898455390694,-237.3860547251581
984,2.733552,77.45008323462409,-508.2956996817923,208.8430047850709,-400.19234708356623,-603.4085390786278,-536.4817805875782
990,2.75022,-780.4825982914231,176.35358171605253,773.1741468530669,-176.96743614362114,17.55314695348536,-247.848157143928
996,2.766888,-208.06266324824287,417.3656986321115,-322.9944040871342,87.14605602304744,138.90856041494214,-494.6668575776733
1002,2.783556,-176.8522000358627,392.13667145001375,-790.8933734248141,-124.03715277713113,-56.725766243371865,-521.188349794661
1008,2.800224,-435.4706242512007,47.67608946069477,-259.9085640184177,37.834921795475736,341.20302150362005,-594.7926763679616
1014,2.816892,-106.69696449087694,87.67983248159744,-135.00921729752469,-53.5648214408275,186.61280054158692,-422.54265675188753
1020,2.8335600000000003,-370.73231318531896,66.88088762244627,-551.7425856620398,-397.37484118378296,421.0269952781292,-603.7353694960093
1026,2.850228,-113.22899557569066,-250.274401793078,-150.09043176805056,-52.77143580007603,350.2497370337762,-418.4821012022947
1032,2.866896,0.2055166126372185,261.6961912875357,-454.834240575845,-510.6351576907971,-173.8668528154502,-310.5315878673438
1038,2.883564,-305.3593830925119,-492.1178768847443,-157.09942825388532,-91.78217931946035,307.34270198209924,-278.89231087380165
1044,2.900232,-200.92342994333788,136.0166027309331,-422.9795833742676,-81.39492886239663,319.63264352555586,-89.85500162875456
1050,2.9169,-403.2852298710028,-515.281741993975,414.045472994573,70.55034472764396,288.4286750658306,123.10952716795664
1056,2.933568,168.72207705458143,-324.76999057864583,-387.13059061607584,26.153608208430228,206.1987044487118,-173.3531458910376
1062,2.9502360000000003,-165.97299686596992,-254.71760523696005,-242.1607315642639,-262.8870904731933,-468.31792230986366,291.9200205394453
1068,2.966904,-199.50411533648685,-772.6147325885486,182.5948402966524,212.01707234019463,185.52579767320685,-40.72921728160768
1074,2.983572,-178.6097477595401,-905.4335347131145,18.902681889790088,310.13829329204657,-113.814948085449,336.4386611201898
1080,3.00024,55.808189723116016,-393.1058608117255,-632.2958246107672,199.22715580651848,-54.62840777003437,217.18815009050587
1086,3.016908,-182.32330561097285,-1130.8668164247724,123.69068514546888,215.99305362047528,-204.43314930031,314.3144822441181
1092,3.033576,-241.9836227538821,-653.9650646595458,-47.63295382235896,190.2618183767681,-60.09744639250435,242.73067308152991
1098,3.050244,-237.11764650189053,-504.5240397811244,-7.84623508692288,491.4099752487424,73.03052532900902,544.7870896697436
1104,3.0669120000000003,-7.483193019316129,-884.9540734676646,78.98720493594674,419.9179444171275,34.109400514418454,302.54638593548907
1110,3.08358,-769.0082561203055,-200.33416823427208,-462.2268874474112,371.6184790997077,107.99812821709384,336.31692748457607
1116,3.100248,753.6853242478894,-1200.8051841987865,1616.9473569949605,279.5068543924783,-15.9890067843497,263.6632626235431
1122,3.116916,-408.1469525672226,-474.0833997887754,-402.93011525955865,447.0984260775491,452.476820435478,90.65456669929776
1128,3.133584,-132.28975780373864,-476.7491377477867,154.1989800555016,373.6340034242757,219.6913426384427,191.24310609662984
1134,3.150252,-88.02336950666859,-432.3487091465511,180.6380185435752,262.607401001821,341.2078475656138,22.626142558034704
1140,3.16692,-24.031039333825515,-380.5232601330516,315.0910442770117,335.6749706900941,407.2492129202178,-39.91669465818627
1146,3.1835880000000003,-75.23063743086328,-345.3646621970089,304.2590323068256,231.2818301141584,263.2013720900406,18.116956313497504
1152,3.200256,56.655811810041605,-235.7604153614697,275.697233363805,168.73486556645392,259.1775125973109,115.06364701524193
1158,3.216924,48.0854132132219,-361.9983870236248,394.23284356578887,-5.935083743160661,369.44943869187057,162.15003050152404
1164,3.233592,-219.765609609884,-321.1710451544749,220.23102007239777,72.5027274928557,377.6969997271473,240.7360299724833
1170,3.25026,134.99413317975325,-125.91457895322024,471.58215442792937,144.3832338156829,467.5327954143976,329.86534859442054
1176,3.266928,0.6363008301553386,-24.421514360168224,351.39937546309943,199.09333467349143,458.21961503939633,388.3681490688194
1182,3.283596,-277.38113067088256,-262.69000642678986,532.3256873528853,17.16988464344994,-30.167861657964707,263.69751535764175
1188,3.3002640000000003,-263.3774169144188,-142.11522072563912,527.1954782516433,-292.6402958911692,339.6189886504887,220.9480555539217
1194,3.316932,-44.81109187924211,585.4959232860255,143.75163319279108,48.25772864682561,667.4776804672111,217.3156102779413
1200,3.3336,9.798063428838477,382.10492157403417,306.62621982929613,-89.95694560275746,-31.86118656813686,382.4017734533477
1206,3.350268,-327.6157188626316,376.40993731617937,299.7905434044153,-1188.5039782880765,-90.80243656885604,-595.5996708938455
1212,3.366936,-158.28898861615983,174.27474946921558,257.098945406906,1580.237040972667,316.754408006874,976.9930208975852
1218,3.383604,-173.93031664411558,358.0830278142063,329.38350753163826,-384.4721531499228,-8.2644203459216,193.39971662176424
1224,3.400272,227.2524930674108,405.94414034226975,-71.1101264051285,-21.35604425347394,-141.8783601432164,222.9522447592705
1230,3.4169400000000003,-132.3490543985376,195.4533605736214,262.0600200681061,-204.85897409086687,-140.76609533117465,39.13237613292675
1236,3.433608,357.5349167561259,48.13821517954122,-181.75780453547983,-154.31316901395536,-541.8357035905626,66.48963439617445
1242,3.450276,31.35053399609218,-100.33364596054544,131.86024203421138,-11.212944885257627,-435.92088294217,196.9381549616684
1248,3.466944,347.8513149578868,-147.53575012179112,-34.10180840219032,-312.4343094997608,-792.5083311183978,5.79445201601358
1254,3.483612,155.45203305331876,-237.51757097377012,-92.62707791256736,-276.6675208729471,-542.8623611062205,213.2733373560157
1260,3.50028,361.354560406038,-299.52695677334606,-168.61130409531205,135.660521077594,-928.7851272246878,421.8491492292305
1266,3.516948,-44.68554785426348,-389.55584160073016,-21.741755566259137,-159.80883311253697,-1012.001406972094,291.9050652760544
1272,3.5336160000000003,87.4939911234646,-275.5468587988121,-186.10940366921548,99.21948147766776,-1116.745602601779,262.9237828229757
1278,3.550284,123.51462633428892,-130.5580794872675,-233.98985969314123,-223.6283470045903,-1131.3579377819335,120.92144982399265
1284,3.566952,-190.53494566527112,-143.3340978383548,-172.42063883327094,-100.48408047571672,-990.132405156279,133.47224302653748
1290,3.58362,-130.8618456094889,-86.81290051034199,-415.5411918542375,-207.61703246746356,-1023.5530681919143,-0.0868690032512802
1296,3.600288,42.96631691191446,8.589262078231018,-467.2005367677456,-321.55595600867935,-927.464760841603,-47.05083483816678
1302,3.616956,-761.2106621361147,99.63616272485422,-245.29388190321828,-429.4536532264922,-668.5478172399949,-18.4602683127219
1308,3.633624,-72.14075408649812,461.4217035334858,-758.9399671824149,-382.8790892624596,-711.3292717041832,51.11759278075972
1314,3.650292,-218.5735523411243,232.23800046869556,-684.8697933624982,-69.24372085907477,-677.4133060093177,305.093052920684
1320,3.66696,-102.66513119662898,928.2359892310704,-710.3235415188808,-584.6755017484778,-187.7433882623416,8.973594336249484
1326,3.683628,133.56231598571188,759.5221802030727,-622.2679768709775,-681.2157435318973,-25.930955188365058,102.78228862111608
1332,3.700296,-323.1604543061036,681.4396965400963,-112.55181769535668,-482.9401376683835,-10.04643748648884,187.1972162921498
1338,3.716964,14.432370408516832,485.1133707264442,-183.28027703381989,-500.4722655033627,-51.71626377988021,405.0015036310389
1344,3.733632,128.20876583669383,395.6116492261604,-186.8766904417891,-483.9959027778892,316.81402483072475,314.61200454376666
1350,3.7503,-109.5541384241773,424.7300189894856,-75.6509934353416,-663.3628009624663,537.2284896572376,200.43671547924328
1356,3.766968,8.80642952539106,499.53098074425,-161.4341121989225,-381.7451703610456,372.8875223893027,432.2247676427676
1362,3.783636,52.90719736567596,467.8719545496284,-168.32891552516867,-456.381580762858,663.8689768774727,210.7554231413289
1368,3.800304,-56.265246390003625,372.3265546709766,-65.67658669948494,-553.237505295767,547.1848205803101,366.792022366992
1374,3.816972,66.37765482025756,313.1872619063658,-206.8795745384845,-137.1939026037725,705.5473861030407,197.4756530766521
1380,3.83364,-275.83256392178373,318.03291110627674,130.38845229008086,-26.47744374239332,780.6577498115307,169.849041816742
1386,3.850308,404.2302724381242,118.90269592765746,63.12629996865876,120.30609598559948,740.3344874320428,-68.90313976711873
1392,3.866976,84.49944137846303,-105.7356249156763,217.3621711037148,-374.0935828362579,577.4498382860679,16.50122335312264
1398,3.883644,-84.00451920502975,-48.89763930082316,238.84448742182485,321.62560350986104,612.4990060132819,-150.6778829070561
1404,3.900312,117.5855493773303,-15.32180575505619,393.2847145588545,261.57618230921304,707.3781570922612,-372.64133828905017
1410,3.91698,319.99730058205296,-234.3028060893887,1030.2196825049564,395.0249021811086,539.0095146574047,-461.52802515479823
1416,3.933648,719.4660453005895,-207.375882041998,1244.3805096999977,381.03980246708807,503.2463514085981,-590.3857796902614
1422,3.950316,549.2100092464902,29.55528593915896,1012.8268325332864,488.3651918589825,510.21496180588,-584.3542500592724
1428,3.966984,234.3031745798309,24.518698489277725,595.5215432469231,546.6950479733969,317.2728793262013,-670.1130433944568
1434,3.983652,86.08228136537119,-83.61437986517456,302.1754911730365,625.126393507082,257.9389270353015,-829.5968851388973
1440,4.00032,-127.60431607449752,-198.40445585099692,97.138026846769,410.5925053476757,22.73410689574309,238.32012757178688
1446,4.016988,-185.8289476173493,-104.28863363880582,-124.87280089729816,419.5753334970864,85.83735265910249,-1039.6933014615815
1452,4.033656,-413.2070043052976,30.3117023161432,91.70116952097,403.8746913363683,33.85378225358363,-761.2847495660475
1458,4.050324,-233.2377664248909,-133.57772155728924,-5.739425558495929,258.0933525623423,-53.61816307115835,-726.3248394062172
1464,4.066992,-256.5149304782243,-97.6270544788612,67.69179818348323,247.71797008342304,-77.62145002513039,-611.5442898013418
1470,4.08366,-285.95385410223275,-117.18107712338409,33.61672337167383,216.97915825147945,-242.73343685166287,-529.5704074347495
1476,4.100328,-27.47804324312236,-158.9519500202117,74.27557540743999,256.9364933975169,-169.51393834574355,-560.2042597696862
1482,4.116996,-161.78365669457548,-71.35796786948688,157.32501102198793,102.28916049110988,-117.7970829767064,-493.5916178067258
1488,4.133664,-173.45540066703003,-299.97763141892165,-82.52328379335043,187.66811690198605,-86.82705829633147,-369.66618152734543
1494,4.150332,-706.7666804245897,-170.80541304846258,210.93418503853235,228.14014512265751,-200.6583709447821,-343.8113312921739
1500,4.167,178.41199948172925,-94.91004434698117,-2.9325991703396355,394.1022926468202,186.57153604097087,-414.0443138751176
1506,4.183668,-224.7703852873169,-323.0634894617661,119.17395323632437,228.5247624294696,-358.796613524628,-248.1877204774359
1512,4.200336,-83.67114042217,240.7798529755804,-101.22546513908644,215.400491287624,430.1357922124424,-49.14259762178691
1518,4.217004,-143.11362252761865,100.5962067456799,-11.782449248927596,131.65642152106983,219.39621106814965,-98.43957968658572
1524,4.233672,-12.538686723974177,66.72506919635512,-152.80856576092333,162.74739438627452,335.34434838254555,-79.64260556241535
1530,4.2503400000000005,48.02721707461255,249.96855010157668,-139.7190944673976,87.37332274428445,338.25334876079376,-51.85177801848023
1536,4.267008000000001,-30.74152425953442,368.0352696060819,-111.83905123011378,-15.744687394701582,513.0878619775712,31.64868155383266
1542,4.283676,-27.56720305793289,59.56291419245601,-59.00722913212509,62.29209066520794,152.69743962457105,140.65351906054656
1548,4.300344,502.08365687669095,314.9795354115075,-306.67176834984923,-19.349160724755084,417.94085401003343,162.05392048626118
1554,4.317012,89.7770306515109,155.57908473087133,-183.07755109563587,-93.92278137432172,168.3814274317651,235.03807791333844
1560,4.33368,198.9489422109696,32.52103777581867,-237.32787918156487,-25.0766329606928,159.28659172664308,207.95180024137775
1566,4.350348,-11.950560702774377,97.42482733839655,-307.3586697336475,-184.17489836786183,174.19149257572113,266.9158991724688
1572,4.3670160000000005,219.7115314682635,14.350224954497516,-248.54578466926807,-175.26047859260987,54.221520161698464,239.8028039799863
1578,4.383684000000001,27.582987288179496,-199.00635838224903,-239.45575843051483,-140.89638188094574,-16.256915050903643,304.5984401761975
1584,4.400352,30.470432340849072,157.15962439433974,-187.926772637026,-181.49174049182227,28.73040004739958,256.6049922577108
1590,4.41702,68.39044933951044,29.55088786979777,-217.3288251912739,-224.20798254041216,-66.16950941721974,320.103721566982
1596,4.433688,25.09843568909648,8.181133627333935,-185.6746688669936,-196.7778226760658,-185.0921350975524,350.81006225377564
1602,4.450356,-69.74454583749947,-21.815031292556675,-159.82560973322472,-267.651702654894,-209.0757943323496,283.4684262961341
1608,4.467024,224.832774435956,44.1089752483816,-277.6218675723574,-240.0847070264697,-177.94703995111962,285.6793116111617
1614,4.4836920000000005,-486.7697310531953,-35.896239915349206,122.08778793858102,-267.84576152286127,-334.1920859550667,324.0054190793294
1620,4.500360000000001,208.3190893304718,5.95908253832256,-144.7331990218011,-263.4258959188884,-269.0781372703584,232.97979529221055
1626,4.517028,-130.14580933363948,2.619773200442273,-66.66590933439804,-152.9617842959665,-431.3765103216041,325.2044653687972
1632,4.533696,-98.94762616529609,1.591329254584826,-29.29971244532729,-186.2583223764617,-349.40241845375124,286.55458435697096
1638,4.550364,-2.2110019780356325,27.61638058772009,8.063925389320275,-160.42645535382297,-391.6504620606996,246.7868545240665
1644,4.567032,-155.2660318362838,-21.39055027023548,46.36521467356272,-406.7398171822621,-278.19393782869764,162.62155163870096
1650,4.5837,-130.8187080890872,-42.45245384251293,41.31766975129671,-173.5012088910512,-355.75728492275755,230.652284191769
1656,4.6003680000000005,-120.39201718842122,63.50504817599846,38.33678584961145,-306.514430197422,-252.2031895528391,190.43476763801945
1662,4.617036000000001,-145.94200737627096,-34.90513936001867,158.89801874347495,-241.0979181382921,-249.09893060750665,182.28260349069996
1668,4.633704,-226.31038195361825,-56.97924515479591,112.6979372523547,-149.87323060195743,-278.47022330294584,143.15287298726875
1674,4.650372,-40.28954006886602,-60.28096467912856,192.5200610966432,-235.1654679832937,-122.35193473607022,97.25267489491918
1680,4.66704,-275.17819211818187,43.84815268052971,167.85669544405135,-340.71462147896966,-193.13245924703745,150.8849175167876
1686,4.683708,-2.066326846003477,-49.57966797699545,86.92315967794528,-179.2962378630446,-142.46399944122015,124.25667835437918
1692,4.700376,-162.84840211995535,-100.31312970393834,97.3944767350273,-181.67338254858265,-3.627442275894623,144.78598420717873
1698,4.7170440000000005,-301.2068213396625,-100.43450440408738,182.25942979290411,-105.15180517912968,-26.384415938877822,63.74019417452246
1704,4.733712000000001,-267.2507345938626,-111.90153147299591,321.3598299947077,-186.21270631926484,100.43741381659667,-11.284740214229345
1710,4.75038,-114.42097121246164,-29.301074221801045,230.01745351469089,-219.1374960714328,160.52394282990525,45.06839109902434
1716,4.767048,-97.86309577215036,-116.46368613995574,288.9772959764355,-190.40505538400868,-8.619616869551189,110.3794857074901
1722,4.783716,2.058033768308448,-152.2526279543735,150.03375112251825,-121.20411084837826,73.57083469794543,31.062651440588944
1728,4.800384,-3.5745319059868,0.2033318263926489,344.87253788194164,-125.3997584460618,133.29616127589298,2.164260981703052
1734,4.817052,178.02064529322263,91.29685310492448,148.7662829041843,-124.3877332779468,179.25933013702806,19.55453086038722
1740,4.8337200000000005,154.4199441600538,67.58036715896895,317.55251203115336,60.87599227785967,137.35330345888156,6.872295488758866
1746,4.850388000000001,148.56862706093156,72.27325292552342,255.31917343693613,46.63431760542243,215.4694232285044,-58.061768332682256
1752,4.867056,192.8358115791561,-112.94505031629885,250.65012846783745,266.13880042154165,112.91319888352984,-90.61284845570908
1758,4.883724,119.54094557754308,124.69411936307358,157.88720169427592,-437.46811824314136,140.1453498323822,84.85855805086092
1764,4.900392,-139.67234807529363,-84.07510315574233,412.87682123254206,324.7268801592881,177.0649701428595,-172.4804995906663
1770,4.91706,229.40666758319256,-170.85261150705998,-91.3628197142393,105.8501574420116,85.89225716290935,-11.887747789013096
1776,4.933728,54.77914027687496,-133.78851573562525,91.80205804516144,32.15069157560515,84.11662093343435,-122.38420855832724
1782,4.9503960000000005,-17.949504412501753,-96.05516829606312,118.87728022339742,94.7986017364872,152.8750442384278,-232.48620737754916
1788,4.967064000000001,-108.62080776756316,-154.84585709280583,117.8950351852278,91.96734039679444,-27.35993954235689,-72.22214516154493
1794,4.983732,-44.620569635670186,38.55710577067192,-12.578611856988786,-111.90463601069558,49.93774930365568,-122.83723781289314
1800,5.0004,-182.7405120560187,27.98719995419944,68.96896325597486,78.06450568631907,65.38024761547706,-212.58046723255308
1806,5.017068,-148.10586227273143,-22.86377475212213,-26.823122432705272,221.7797582092736,2.1051726961815103,-330.8493485278699
1812,5.033736,79.47220924665889,90.24791083417789,-20.846355226818588,51.12921147165941,77.59466664580958,-188.446583053349
1818,5.050404,-50.03947083686717,104.83555215221278,21.99673020675243,93.73722734118849,-7.086519949951255,-165.82478434129678
1824,5.0670720000000005,-67.25013091190162,-158.404831614048,-116.38326662453886,174.6132866836459,-137.99165362695956,-66.02565160404842
1830,5.083740000000001,123.45976896039788,253.83738796740832,-11.99029003905252,89.00338700332576,173.0768939250468,-51.0642864517605
1836,5.100408,-96.592607776393,-63.80938179838717,-58.7333573431977,105.4646926094232,34.7333944758258,-174.1053773677408
1842,5.117076,151.14682791464668,201.24181946354213,-99.01138169446271,104.71783277773302,81.45573738656873,82.11523032642228
1848,5.133744,-33.190981202787455,34.49720573643904,-135.7475035267418,137.61377591953934,-16.97111344231541,-32.46636879093241
1854,5.150412,353.6491303157899,183.18844850215316,-177.73887225007954,85.72243823024615,112.1337738897336,-2.306100913621952
1860,5.16708,-7.972025781837941,49.07591756346309,-132.12116411363104,69.33457972380793,66.34199729367865,4.151703647437969
1866,5.1837480000000005,154.62355450257516,54.63619280928173,-157.3793228638051,24.811832595379794,12.495125272340625,18.8609748497344
1872,5.200416000000001,196.7250023191372,0.0052185427528623,-247.3018234575736,90.41603513692642,52.25922686089495,60.09472357361896
1878,5.217084,51.9889174991555,88.46769953107622,-188.83654889705525,-52.38017731624561,52.462399836758976,-51.11603709032539
1884,5.233752,220.629327639128,40.1884598057288,-108.31603185634047,59.887243562974525,-43.74633196429237,87.22975797601542
1890,5.25042,210.8018516938522,2.1939476886749265,-233.9048997152065,26.439392189321747,21.969837673303036,81.02746065430794
1896,5.267088,90.86608027524244,-7.020233051579472,-109.2375103703009,24.50079467632343,1.0736778776951257,93.27648897545193
1902,5.283756,221.3040204166127,-27.56979956864673,-236.20574112658528,-9.521590233208656,-11.570658319062872,97.43790551694391
1908,5.3004240000000005,202.7707958916514,-27.31314280979092,-187.3346389933006,-92.3536636932932,113.7564434451188,2.297893850401556
1914,5.317092000000001,297.36581378193443,16.549580014041283,-136.91258508898866,98.79041291789592,-78.66263568768306,151.82878278507582
1920,5.33376,103.78388030648016,-78.39613651871714,-149.88066774613085,-81.97283138619463,98.3487760088966,13.90159344884618
1926,5.350428,178.26054406317297,-35.37700581523902,-259.4629713343094,-44.30652149388512,-53.38482491615275,53.86375603043141
1932,5.367096,163.44510539955655,51.29445569040351,-39.755254191884674,-65.72716764154606,76.79976476855668,-45.28504354198712
1938,5.383764,128.0658733652736,-45.94979365492099,-132.52071442879748,-131.3339612056704,-51.87464612111568,48.4507516685001
1944,5.400432,296.3141358766008,-17.57656254307088,-172.62524520791771,35.44998193709531,128.60494703597175,-44.30684382384344
1950,5.4171000000000005,19.146843831767505,-60.00231565708617,-123.59516143928924,-170.29652614807486,-59.83590688366505,54.852314599199175
1956,5.433768000000001,214.0469574791855,39.20536856962483,-28.899586543788256,-46.28712262806453,47.09358436376868,-9.500243336834192
1962,5.450436,-97.54976754483896,-24.162875550686813,-206.77761556154667,-201.29817776142303,135.02043492318393,-71.06767394365869
1968,5.467104,-179.1143704528441,54.0737370084565,98.03268159188411,-130.13611080359516,8.225822584663893,-30.16123366279504
1974,5.483772,229.401798519969,-83.45811791556312,-23.285540025587466,-186.5162212407077,-2.598983605569707,57.66379687898701
1980,5.50044,-10.72410521339151,63.84096850310607,-79.0074387449733,-68.73560226279272,6.9222744783363375,16.527497760356617
1986,5.517108,76.78723980370421,129.99130149162556,-73.46027100198376,-155.1606116699229,104.12088472406478,60.07281273486076
1992,5.5337760000000005,-51.12975065535078,54.30478024699191,37.04170203715807,-244.23518111967948,30.89312893352896,-27.663664954848343
1998,5.550444000000001,-39.034783982554245,10.658090519965436,2.7590625952268297,-182.4667267957161,-13.35181415573494,5.064084132369864
2004,5.567112,-11.542483354047128,4.865923909349334,-9.462449167296546,-216.4373079291492,-4.6588719556756,62.1060485402581
2010,5.58378,-33.147417558509126,30.42067178487465,26.27286226295984,-167.59401689698316,55.47739453194639,89.3369956809178
2016,5.600448,11.366569634456717,-11.92098159382888,64.38953922165427,-199.21537993253105,-51.55114015379421,71.05540653487645
2022,5.617116,-47.28606093197594,-9.14751188697883,-48.16553158585363,-193.1598415312208,-51.739164714483785,-1.431967082059515
2028,5.633784,-53.08177647633139,54.616584768284994,123.81396167902514,-177.9438548574961,47.104718700137774,83.1465169144036
2034,5.6504520000000005,-44.72625778438394,3.507328024322632,-29.71184079300678,-27.94114323128494,-322.9927886602256,-53.8095584412206
2040,5.667120000000001,-113.65869818974012,-59.25131083882385,45.16397213495402,-171.9155946427838,-173.20582938972046,16.065044371915803
2046,5.683788,-73.63028016212773,63.734062858644535,16.38365344411628,-274.4403817809001,31.91581441913356,8.720219229609857
2052,5.700456,-96.64648866874576,-83.241607903101,59.28426474843517,-64.30419205991862,-391.1041371709423,43.35725458576647
2058,5.717124,-104.7212748136224,5.602042739738575,7.53075009258589,-78.30068973775607,-218.2070206365412,93.6354582187722
2064,5.733792,-33.2687474596029,4.932057414079759,-148.8419441524382,-41.08146228799437,-293.2913368902756,-108.751596243569
2070,5.75046,-227.08142550959275,172.38268168148778,277.7894516016016,-101.75256969310746,-104.83869732235884,74.69083656276908
2076,5.7671280000000005,27.220345134682155,-52.562213816727166,-178.11784249850183,-38.52586289644558,-279.5342249099794,138.70845349962428
2082,5.783796000000001,-178.8490585136412,-3.115990775797684,-99.93724808904528,37.95946033365269,-233.95159766474015,71.32814191251519
2088,5.800464,-101.1894162385609,40.77165536447765,-18.47613061737206,23.58624295330892,-67.92780862277392,83.12959756072206
2094,5.817132,-26.450133878260917,102.00043526350775,-66.33608612159018,-7.243396792698884,-39.04265752689043,16.176126006303782
2100,5.8338,-60.015175836828405,23.926539040633465,-176.2891348893907,17.902611098493367,-32.88834447824053,142.79520331941302
2106,5.850468,-135.45387173390557,-25.609904629348517,-19.83754272414529,68.46083369307198,-143.83768662695155,112.62730708504046
2112,5.867136,-215.08241161829795,-13.906468142658731,-60.741758766245326,113.28641884103286,-3.7552213567389856,118.22861222736464
2118,5.8838040000000005,-211.36601081171096,-12.397261833179575,-77.61984193502761,90.7423515519894,37.56378128275215,59.40841173227266
2124,5.900472000000001,-96.38815794279752,-94.92092990494508,-87.54625279877327,165.8139138362678,-106.18039593399996,90.28895130085596
2130,5.91714,-178.48164477252715,37.14344849824897,-110.94646461532696,125.4971683531461,-84.17089470965102,123.90788525311574
2136,5.933808,-167.08472054431977,-75.07757019981659,-128.94309865327608,70.74120471860385,128.6589898497627,-33.94984306293257
2142,5.950476,-172.42147090054692,-135.77628177878302,-137.05734159926075,107.28229766432102,-0.8227887474731723,-8.728819124257766
2148,5.967144,11.77745072555068,33.296539887250724,-162.5587664382706,143.49913508565055,98.04872061002874,-19.17097482322539
2154,5.983812,-57.02351205212193,-100.42246783454144,-118.77462134133992,74.04067966659669,-64.81155551417338,-94.35862750366624
2160,6.0004800000000005,-118.6490615441374,-138.36690898764488,-121.89185784312758,140.0063420471281,51.86040554496613,-61.90980983463114
2166,6.017148000000001,-309.43763536845665,-229.04902642170856,-231.970590276966,171.49035031588144,-33.14960173460301,-141.84205362775702
2172,6.033816,-49.70243908817445,25.6144340294308,-206.9264579978428,144.4602873184088,55.81608140475203,-95.73989840969308
2178,6.050484,-175.94031437298767,-13.162724724400158,-165.54331720002972,132.10916058257266,241.4530245327926,-146.48145939434673
2184,6.067152,36.58029528819655,-42.66139534548691,-167.3126868655106,39.881004444754,-135.99509822601328,-90.79374690951644
2190,6.08382,-228.27987351325876,-0.0122211304958235,-112.25428961756955,43.42987241498188,163.6509436658883,-255.07024077047976
2196,6.100488,-384.2344809197845,-176.67507950589209,-159.89148777928892,38.826957156474144,46.28218925612043,-199.121758872307
2202,6.1171560000000005,-63.26546465437623,131.86644317474963,-339.62064872276005,44.40129040052589,229.85917695342556,-343.8215027615545
2208,6.133824000000001,-330.94635086028245,51.27853883761101,-167.37255502049211,-85.12838567901386,303.6051326295229,-400.8496952674983
2214,6.150492,-375.0584924178054,-20.759680989422748,-335.5242972988293,238.16202867422996,75.69468871342703,332.7270074459197
2220,6.16716,163.9809147041724,120.0473395668669,-246.95565671181484,-177.61793191930386,288.6961858435419,-557.4821666679186
2226,6.183828,-443.5794847738882,-151.2921444193801,-227.9449554949572,-2.1406136372449964,5.326682527842161,-157.55167753723214
2232,6.200496,256.8667632561116,70.67141192937353,-293.1680609031031,12.848642656384063,152.83615391721474,-284.11699982837234
2238,6.217164,-161.61426381551516,-57.39017396690953,-310.93582158771653,-151.38956011270608,-71.75122104234055,-55.86920082642606
2244,6.2338320000000005,-267.1345526088109,-74.06374025249617,-258.5706968988097,-58.45188735207513,-4.524784523691082,-188.9131345458528
2250,6.250500000000001,62.82917942564295,8.96368502449333,-133.02883296664706,-111.05224693900126,151.44561253783252,-175.29390000047783
2256,6.267168,-93.34811476191736,-22.69522471173264,-196.47934156490936,-28.66425516236465,73.55672764179822,-174.04168880646856
2262,6.283836,-220.97479188799255,95.95927572159572,-137.61259284288246,-47.4166948711846,5.761694932268952,-86.13622184713714
2268,6.300504,37.61056918161052,152.73438709097616,-134.62943639282662,-108.08138299448764,70.53464570220343,-116.497229498979
2274,6.317172,-111.21184432156662,248.1791655616608,-156.96718515922498,-71.59656386551688,105.6609821212172,-105.8977556769212
2280,6.33384,-134.46907315088168,64.6338123034476,-251.59882170913872,80.76563161701665,62.007293912398936,-179.9821342639596
2286,6.3505080000000005,44.79177165062907,308.92014864862705,-112.65929792078256,-36.88020400229394,81.58669744422734,-79.74698606297264
2292,6.367176000000001,108.99731374938447,-51.57603824497765,143.0251297766165,64.7745561806338,-123.7735926088363,-73.52189006439414
2298,6.383844,433.23227988715496,145.76741402612964,104.42933192528228,-18.768479715155927,69.63147966055803,-93.80727406235472
2304,6.400512,478.8836747119517,-33.73139678646878,448.6150858330477,-12.176922980120942,-125.61210620328742,50.82121165748478
2310,6.41718,167.4008764672074,128.5829466901416,-235.9356223787449,47.81599355104412,-8.362478313269095,-223.9778653321332
2316,6.433848,88.2214585161907,11.401511990781607,197.96263743619937,-97.52723983699018,13.621204984498911,28.67471283523841
2322,6.450516,-54.75293931941722,144.36219019811702,81.09777249242029,22.13180385577941,61.888759020450735,-81.89297032928422
2328,6.4671840000000005,-237.4706125313959,71.11213502288541,-9.18231087403501,51.899804020306846,-8.682225301306802,-68.99613435458926
2334,6.483852000000001,-22.759456749939368,72.0752136514325,-19.642615374576494,7.033145538961996,-65.41033427623375,32.999526956809405
2340,6.50052,76.11499781704907,54.08311138032431,363.6157281196784,42.55467727633743,109.73153107383716,29.61844286581753
2346,6.517188,-75.70357701648372,10.46826977654694,52.87644706018705,41.79333676322042,-45.449658284897325,34.89295354662103
2352,6.533856,109.777821350211,-103.2782767137406,203.5523318652497,54.06621121782042,56.212292204914505,52.5266333967465
2358,6.550524,-156.70214186481223,-145.76114521996823,93.9593244037759,153.63253366576495,-86.89771054424637,89.12170166798472
2364,6.567192,220.01926984689828,-124.05363736037576,326.7245832564364,82.58642892685762,32.30796948538149,116.67142735908234
2370,6.5838600000000005,-155.05981972411058,-209.5181125369345,77.10488132280032,5.821588374430771,-31.63593743407311,150.37830954326142
2376,6.600528000000001,73.33945487334628,-265.261936084508,224.77152957636324,193.20741563269533,-141.16719637020202,42.29603101422308
2382,6.617196,198.93605722306972,-222.4615605801709,173.22845071013654,77.93311130281029,24.547681069122746,135.15576154874256
2388,6.633864,74.51410642759194,-288.049200988165,233.48370334782948,75.95389484853547,-62.7688568730025,110.11262077402674
2394,6.650532,-58.08291673803556,-146.26402393349474,140.19197328486354,67.98976513863877,-42.98443245451155,60.167652414741546
2400,6.6672,225.42369678665165,-406.8365514283482,274.6208412448348,82.46656207995161,-20.865183358930203,249.8219565713547
2406,6.683868,-27.13687159088405,-265.4574162265048,211.6230492164388,91.0876083767551,-164.23592263489863,89.99471628928691
2412,6.7005360000000005,-84.62247811315834,-274.4956479806758,65.82876212368845,-3.530454737009663,-3.2148186374409136,293.5780617378826
2418,6.717204000000001,33.71593012555945,-96.2538355048317,126.4989408351017,67.28963427882735,11.640580195748136,54.24717251774313
2424,6.733872,198.7934082050208,-174.2398049454357,279.70329466574924,231.66396604575488,-45.108724301304896,-7.510780267071585
2430,6.75054,-40.34003939010838,-130.9442321275521,151.57874499955943,-11.946025049645254,-140.39637384818988,165.0239041436494
2436,6.767208,77.70826159084987,-121.66258333537525,195.93401853884905,91.81487376158226,-0.6341265620469505,4.090411527113005
2442,6.783876,-9.574534694503631,-113.77288957583384,207.69474297625567,63.3562930313829,-246.74777430141503,-136.22890592231505
2448,6.800544,-6.324734531198743,-158.69900772306357,59.80590597386722,121.0134604375082,-233.2690756943006,70.20632479127498
2454,6.8172120000000005,178.81885710793227,-34.79718975669765,295.23831726344184,168.30449936117512,-6.635334216523411,-53.84561870530872
2460,6.833880000000001,-21.93430268541968,59.95374742498481,155.0932773925201,3.837352789897224,109.75756877952722,-70.2561199290198
2466,6.850548,57.32943117067293,32.16961939285347,37.30661311020026,172.6012975182736,-22.01877407462948,-103.9517986986188
2472,6.867216,2.599593505005036,-93.07070900707193,118.31035245503088,-6.199481521682483,18.20076624297233,-16.07222023421015
2478,6.883884,48.68164586992695,2.9917270842467225,88.47810769885355,171.6518638226639,-50.02313536532506,-112.45249361193062
2484,6.900552,44.10611501240043,193.9453478973404,7.346181816941879,52.51866787389912,353.5956147766093,-121.20964364023754
2490,6.91722,4.368617547855479,88.4623453162965,156.11098080142915,-125.25422987670392,370.4623955613735,-102.20028416346916
2496,6.9338880000000005,-18.83577767998504,166.9227939966037,55.52752984175309,-37.44810850758565,370.1781524461605,-48.72394510326886
2502,6.950556000000001,32.3334567407337,-20.45000915153615,-144.71215525058446,101.36281759526244,195.29826203041856,-22.436057055351696
2508,6.967224,-29.580354177429676,124.13967908893372,83.22131762122181,45.15073100341671,279.59582657616284,-195.7326873338328
2514,6.983892,-37.04026911050544,193.832321422982,-85.38601185986937,166.94104644440898,316.09018853375136,-215.0862716123004
2520,7.00056,57.04836772164101,172.99142366520687,-90.82495900991208,75.43104108181632,213.46370777788505,-189.40755330231264
2526,7.017228,-251.5675676157348,247.81028358151968,-360.4190213609827,-42.5695438836905,144.50868642122066,-312.9463004741797
2532,7.033896,-51.86390821864359,186.09435043821549,-212.76281523729384,125.8361335475572,8.837948448848142,-13.992954406048558
2538,7.0505640000000005,-65.90785459322251,98.29140992294084,-211.08200705067367,-62.626872089692455,-152.16564268042004,-326.10688765757743
2544,7.067232000000001,-150.5786636868989,37.39848131441049,-236.50570473719245,-168.22836708052043,-98.37217312783744,-145.77870101987605
2550,7.0839,-10.296433977308425,-82.09826498194226,-226.1264736758743,-0.6321761278451277,-248.10752991010625,-141.42233546163524
2556,7.100568,-67.83724812012352,109.91290474950856,-308.5041556425761,-97.36155389938554,-22.741846857033305,-205.20891035939053
2562,7.117236,-212.4890604003055,-28.54930967536739,-337.22647174583983,-1.7200340519163184,-204.56283096472345,-247.7905737226912
2568,7.133904,-0.9146767868995838,227.9386263181009,-319.3126541326956,-14.510369599310154,71.30434886121174,-115.90231980741156
2574,7.150572,-157.93690803584673,-61.43038620702956,-506.951835634804,-157.8437249180514,-80.84480848169392,7.519781556939947
2580,7.1672400000000005,-158.4002991064876,12.095402629652792,-328.49083116269674,-16.722785258511678,-141.4562593323051,76.19167450591983
2586,7.183908000000001,-117.63979238635032,4.216138487420086,-210.6409256632842,25.275691109177885,-269.62628997692065,-108.01565648618964
2592,7.200576,-295.5800354833825,84.98889708379878,-219.4062465556567,-61.17505332523067,-93.30341970940076,272.0412244570999
2598,7.217244,-157.11509397102714,133.4264665739722,-166.70858981044486,-122.95388537518932,-163.85085983066972,331.0798965708407
2604,7.233912,-233.0298243234065,-44.59785737285509,-188.76776219436545,-175.67045584874833,-340.6730350684638,143.72551636190929
2610,7.25058,-360.4766046690056,54.06287171200773,-140.54433797559534,-58.1898558814002,-50.29888420832949,162.7702830478073
2616,7.267248,-56.321508724989336,28.50356547813645,-107.8303064974275,-265.63081215808086,-267.5354526484694,43.55394628433992
2622,7.283916,-236.07462241565963,-17.67982740195208,-96.48049226574216,-36.76079165085146,77.61006803698436,82.26268165692417
2628,7.300584000000001,73.78953840318643,82.30382567511256,176.23193646245835,0.394988177867166,-187.0304046438253,22.403858899693045
2634,7.317252,-494.7401138658797,164.28731113927634,-229.38088018087197,-44.554578614909175,74.71167602292992,97.76251433458356
2640,7.33392,-49.9358777932444,-48.29217946466502,83.75403481760259,-47.15849708197598,-174.60887842181688,47.861908170849446
2646,7.350588,-40.47836244001639,-28.649556148546644,84.8350436531656,9.15959161821852,-65.23235392866769,50.013019653835926
2652,7.367256,-161.4664852493413,5.457179343657234,73.06515719812923,-70.1383847549117,-30.19450558862432,89.22666692249649
2658,7.383924,-94.0571960239726,15.4162701696865,79.5632482366459,33.21714827182265,-40.18458410812656,40.79377834925048
2664,7.400592,-85.9454166152908,-80.47887274473331,108.94904828379867,-55.90097819134536,-135.45728198500512,45.99135314050771
2670,7.417260000000001,-43.46332636898589,8.578554274738,243.2744903849161,-59.50320446865611,-4.354554620223343,22.9273631580809
2676,7.433928,-120.98205679681726,121.77817017483876,144.325176568509,-53.71625174631962,51.62551104544465,73.83191033665656
2682,7.450596,-100.2396272487277,-108.62786917500344,218.2927970644388,-19.312600298601183,-235.3881511230273,48.11861143141857
2688,7.467264,68.60825713078967,92.8133066115582,204.13251309867275,-97.85739695994369,-127.2851079583928,116.7257736831106
2694,7.483932,-81.60403905518945,5.427049277189859,264.51229607528126,-83.73805167334557,28.531863270603893,21.563212026399636
2700,7.5006,-199.49810261199067,106.74145419609204,174.5035920788419,-150.1319491158067,-174.8812344594495,151.36076342698573
2706,7.517268,218.02243669318509,-70.1089706682557,359.96788691357835,-68.81541807713072,-50.966819116463306,-27.61842094889281
2712,7.533936000000001,-5.343556375401633,-37.8030388950765,303.09628240844575,-189.6347223157592,-217.53407558680811,87.82375557670318
2718,7.550604,34.09606778950626,-2.623461699489085,297.52753673412747,-192.8703434623808,-50.834519473677446,-48.87210675140213
2724,7.567272,-28.71701929103176,-85.08852621421515,299.7068063913206,-123.5734562517654,-130.8770533441195,-51.53337976891552
2730,7.58394,116.996677597896,-56.22421191800443,331.95500654224475,-258.7906018291058,-40.43183577842412,85.54782111410915
2736,7.600608,78.10078242545988,39.79921594245617,356.33365427399343,-152.36759301211444,-20.64037997414828,-71.30157911892215
2742,7.617276,70.10201172876002,71.21648115775167,282.8523018713836,-315.28800045844133,386.4410817360613,15.421733611662674
2748,7.633944,176.76473854105,189.22866584423636,341.9136250108337,-144.51682509154756,273.0280033356726,15.830236777530928
2754,7.650612000000001,168.83595398140648,-117.17627278352138,441.4262748701616,-88.27845381552922,85.04737764091142,-25.77083090241902
2760,7.66728,165.01587677366356,-105.71662984320864,370.63386485829335,-332.0839804451529,182.2827899310828,-10.599630218478993
2766,7.683948,218.0230027372885,21.468687284557653,330.4392290900472,-138.43213390195243,283.43272084840754,-93.7502908741674
2772,7.700616,203.7472236286535,-98.37327406940128,410.93884439579926,-252.04316478942428,207.38691876975304,21.58397568784337
2778,7.717284,96.28852323206942,-163.918496098982,305.6637456037121,-263.89123653859406,195.69353060280304,-17.731476789219197
2784,7.733952,136.67538804931405,-57.8137392111197,216.07066938448253,-350.7877391075589,218.9060776858782,-191.65124527392229
2790,7.75062,126.63992722506804,-134.30361993878176,156.00650312628193,-294.11016935783584,201.6819949743156,62.63730639244815
2796,7.767288000000001,117.41190648605128,-65.33706028041324,47.783552016253815,-331.1043995591764,119.98567088679673,-97.5718533560579
2802,7.783956,4.153238852704986,-173.28975680563937,59.13172315881444,-364.9606574615911,144.02026931062207,42.747959195124665
2808,7.800624,345.03815822704166,81.76007607641863,149.97560992163255,-253.12465699634,42.02871131069556,-23.4354172489978
2814,7.817292,119.5502203971498,-218.41707966703325,-3.6605348958031305,-289.32656428316136,120.45619499730132,-9.69341943915498
2820,7.83396,106.30450480415372,-362.2768290884269,-14.849342371586497,-344.34691633961523,10.56926699986234,10.03070334897673
2826,7.850628,160.90701529624167,-149.0421968640972,88.08745009633563,-65.93700831415121,-159.42102430445888,-77.71851121168329
2832,7.867296,143.367276356341,-119.96483479854666,107.75506487754676,-222.29401924560767,-41.47217932377634,73.52855748753166
2838,7.883964000000001,100.95009591956376,151.6295055487512,211.07337373003912,-253.23765376880155,24.990308994810963,12.835727495125829
2844,7.900632,55.12195739021793,24.751740573187817,25.727796504763152,-116.61446197248986,73.19983419890292,3.424166491116509
2850,7.9173,94.32093003750144,78.62568189227422,127.44994559510567,-150.91956466566126,-1.4664756831348529,37.37698704590987
2856,7.933968,89.85288328523751,214.4195640137564,-14.110680479235953,-18.36162755409328,58.23190275150016,87.85052851593714
2862,7.950636,145.034912264924,147.388148845364,-6.809298659340765,23.518441728309654,87.7318755424982,-13.421341613740836
2868,7.967304,144.21680609542256,97.39791823553018,102.3062403518424,25.886999402652734,117.92149840602508,107.10857317175166
2874,7.983972,111.06160153174926,104.7360632410422,-151.74470792174677,10.566149916366768,109.39484317655294,5.771515246473776
2880,8.00064,106.43372626634624,1.5539235710293688,113.34396705039238,97.8295643727066,-2.479403853868739,5.354131993300257
2886,8.017308,144.3662762335214,-55.98121129875399,41.87152931179721,179.1893031481094,14.322273829090186,66.12474647529481
2892,8.033976000000001,-98.9540214881538,-40.14842008603259,-61.47541032419131,109.30132326856496,28.737605726148907,-6.019297555271407
2898,8.050644,1.256623563814287,11.061871193962844,-42.40613047646195,259.43789137900194,-19.50544383108422,134.63231668023926
2904,8.067312,-65.83618370027942,-45.67892238955234,3.637808631756073,257.5185570323191,-80.191893433358,-21.745132975754657
2910,8.08398,-28.37148531353683,-62.48299407613643,72.33807530554648,117.193116539323,14.66824971880368,54.92770423462498
2916,8.100648,-148.6031446073332,-11.929206076847173,-232.79135567954648,312.27658602921684,-58.12288677014096,-57.93474919124122
2922,8.117316,23.081605056392547,24.310505548679124,-90.29750876633987,199.65312427216637,5.077082695455196,95.55628582184764
2928,8.133984,-14.157055007781056,-124.48270755456004,67.61231358339253,218.4595573501718,-73.45005340074118,-10.47562314634702
2934,8.150652000000001,-319.7534275211441,-22.488181388411,-132.0876995268049,271.4004931498556,9.306499382090465,97.02396971820096
2940,8.16732,-3.418015669356631,2.8412114294952167,-138.9102666600675,375.1261422867475,-129.3548328655503,37.40703222167991
2946,8.183988,-72.45801954584516,-202.4716774682061,-50.00514299763096,309.3582866181847,-180.57699008487637,6.424613760711168
2952,8.200656,-217.7049203138036,-18.70121083474366,-229.345247218446,202.58916871026287,-270.1965443809452,-80.0405041511929
2958,8.217324,-59.69426885534334,-59.25044126779572,-96.36385797483642,274.5561480376306,-325.68684449462006,-22.20699554112506
2964,8.233992,2.464295390620748,2.2499001155187166,-251.12181393926352,323.0358744942836,-36.25661331475944,-11.063744648963391
2970,8.25066,-15.984151571834886,46.71061081029292,-164.89142548593054,198.519464788009,-120.72970652489292,-31.648870898490586
2976,8.267328000000001,-36.79017134303061,-9.101979600015175,-186.0330797691034,262.86115416587273,-200.3813362159309,1.5252267878368375
2982,8.283996,-208.85730474501068,-8.976635840215799,-220.92091003096945,458.2332499328252,-244.35971890757355,-44.01153734246029
2988,8.300664,-133.65906925689038,-36.09859895563152,-94.89900337541364,245.51616125651543,-33.080513074608774,9.990715097817109
2994,8.317332,-146.76790576853077,61.22784236007019,-328.1236896318294,307.7206264119538,-87.04452548491125,-39.32685601067792
3000,8.334,-125.13879959968403,-18.841394199493333,-252.59657601627777,325.51974039237496,-243.21232461303708,-1.395584749851011
3006,8.350668,-155.02227362006528,-59.28400343077932,-171.99578866380853,245.41899944571037,-65.73554286155235,-32.09946626553353
3012,8.367336,-231.54341641227185,-5.12895627950611,-170.53074800494022,290.5570518183256,-90.66385792571955,-20.69200706996872
3018,8.384004000000001,-33.75455999018418,-32.11150612897311,-205.9234712634512,156.7020085909183,-116.44693500101428,-27.65234614544176
3024,8.400672,-222.6621718584057,40.05324074660206,-189.62737524524883,368.0064863528556,-36.72945463336372,-46.52345084296758
3030,8.41734,-132.8392803405077,32.47746891758301,-231.6240331028078,72.47374119102261,24.24268290553068,5.231025758907677
3036,8.434008,-204.50042575178327,61.12404840895993,-172.91459138697863,198.65445379488943,181.7271188473137,-49.251728499925896
3042,8.450676,-169.0639814902355,247.03758829527013,-163.5353732795949,248.68664590611297,77.69309051336,6.2263260802591125
3048,8.467344,-180.00331022969883,199.00907442064903,-175.490645332959,59.7405090325631,144.04258017864694,-138.237270899576
3054,8.484012,-108.39791609920108,82.59780979296788,-150.43559076319414,233.9424368735302,150.18650103511862,-108.49873863478378
3060,8.500680000000001,-200.97419825316865,60.83607680452316,-128.66276011030172,157.36313658375622,106.02450429735408,-76.97769114717923
3066,8.517348,-161.7891509930554,89.07723111841148,-138.97244829028787,-45.15312253059568,295.2399337828048,-110.12506372316471
3072,8.534016000000001,-242.68940838412155,41.92865853651445,-160.28470502230851,-86.56488673822389,144.1964967162893,-255.92125054583408
3078,8.550684,-230.19505003599537,-26.59186961907388,-160.82342283702187,-153.13391441926825,-3.253914543127322,-137.7493151858337
3084,8.567352,-110.26157647928096,22.310739391087164,-104.50013108739827,-101.75652343330816,222.8814109836714,-69.40994136021794
3090,8.58402,-83.67789581929658,27.86348783279413,-130.3618725200298,-105.96803578601046,-74.86627563330191,-177.2464533215706
3096,8.600688,-181.2193232914345,43.14189334696848,-148.824837323309,-321.7871754145348,22.53227485674628,-27.814845830768576
3102,8.617356000000001,-108.3215915575201,-65.93365386230407,-212.4537274996016,-92.50125350383604,-122.65877918292624,-56.44293583310896
3108,8.634024,-112.49318655808838,-80.46265353974651,-43.11051192539452,-371.9410288433196,-201.87944873902345,-7.9479074316334355
3114,8.650692000000001,-313.0019439566366,1.0013765820154923,-58.96485002042316,-324.1778575506347,-47.212345038167086,-37.63298711227873
3120,8.66736,-131.89945188102274,43.55830472324525,50.215486302149806,-352.82485645343365,-283.84314926019056,-37.85344707630404
3126,8.684028,-217.3668300307943,160.86624146019966,-16.400345479688156,-355.46248379036854,137.5450791529234,-146.26323062185722
3132,8.700696,-101.54841224041527,184.23516621655625,86.45831404613786,-98.62635898900976,79.74170462516041,297.34878385765046
3138,8.717364,-357.8332630544211,271.8206538531245,25.514201568597628,-490.8868662130215,321.4287951849734,300.6049569223242
3144,8.734032000000001,-83.01672576010756,169.3626019665414,-8.4137733471091,-228.0754962744272,29.69844172367786,119.6277578048007
3150,8.7507,60.56985196208333,110.19904241159232,291.35674928261346,-242.48581791540173,386.1575578862603,283.6870430891873
3156,8.767368000000001,-0.6961863846028677,106.80998550957436,171.80169780312934,-111.84144061510898,-42.2918019300477,0.4069391979156318
3162,8.784036,3.033807833434281,25.763159175737265,80.51754835741619,-52.82486378405111,-53.09894270157568,-132.19668879987705
3168,8.800704,9.623704468709448,175.89479278432444,97.10864761797774,-141.09240826826326,60.7410132299694,45.42051978559404
3174,8.817372,-117.03630274952724,10.537525175311613,202.1849054466168,0.0625224744115797,-40.83633747998592,4.8521945989761
3180,8.83404,14.9800354539057,75.331889832985,13.384122649218044,-134.3426634280953,35.76605011048164,35.42372445926214
3186,8.850708000000001,0.0988520049448311,169.61630703421696,251.55741251774103,-159.4993746925012,92.31436752616492,34.00297538249654
3192,8.867376,125.1347570136798,-137.14126294306095,155.77996277771348,-59.93868869922757,-87.264977938326,114.22652127264226
3198,8.884044000000001,19.56490982449476,-29.427136759355182,150.72634650718678,-110.26868680384392,-26.15716255352895,16.151221114045654
3204,8.900712,171.9585933151052,-62.53515608164069,142.02887059487878,-17.773551774848134,-190.86824644377785,90.86038385784228
3210,8.91738,52.72230300064365,-107.63368099006856,48.16123713854268,-41.11464090202921,-120.3653822574807,20.753456010969643
3216,8.934048,85.53474276087204,-168.76276461494157,224.41264950204584,-261.65435049635124,-8.747935685651584,157.9043731057962
3222,8.950716,153.49388574526313,-44.76866217673725,137.46881170982692,-79.70897652981628,-118.5339535780521,80.75893492909782
3228,8.967384000000001,130.93498580054234,-162.2660179609844,145.4780206391955,160.3247236718134,-162.46476873903117,-189.31176674063332
3234,8.984052,188.37962085008564,-122.9812158814476,179.82300962856576,555.0822531893336,-359.1266443957603,106.6555122987154
3240,9.000720000000001,158.60934908678578,-180.98431906997013,226.98446979991616,-148.771740313917,-147.36135842135056,163.5947752117914
3246,9.017388,184.3523802921476,-75.65251191194312,145.99083915774122,-84.18977965993362,-116.3457166397842,285.16932243525497
3252,9.034056,280.27704190815155,-254.33472150658145,213.75518226886044,353.1862361092093,-179.72703446664894,151.36249918152672
3258,9.050724,87.3998206572163,-201.04249179489327,180.39740922999587,177.75328632588372,-169.71457256361134,-18.50708496773209
3264,9.067392,101.44610632455252,-102.92644015033162,208.91439940054292,45.43864756530101,-247.3687411074185,116.79167931326684
3270,9.08406,300.7593924424285,-234.4499711955361,245.4492093368821,104.701818118669,-37.61897190169326,25.08697417362447
3276,9.100728,199.66708164304472,-93.5536362700361,97.31549985427716,-39.10409783036603,-130.1591058564504,64.46289752562744
3282,9.117396,162.662681552155,-139.2848316298235,175.38082771672583,183.65463120020377,-130.89160419355437,239.000549879857
3288,9.134064,291.016546444085,-98.8707602992583,201.1835411857601,28.776556604266634,-39.84527004511463,-4.718844412602536
3294,9.150732,117.04243401760344,43.33356207968864,103.91875098295466,134.16287494761897,-84.24773584166043,122.70625773094147
3300,9.1674,177.8605347033431,234.98841860406608,182.05427513123797,-66.98364634638031,406.1321364677463,192.0324085156695
3306,9.184068,387.9010576962616,31.211119256482483,171.131165671697,-62.49564207063435,-11.891851663257713,-69.34634710495588
3312,9.200736,251.0073391523997,94.44493766128544,144.3819039318474,-98.66282822629496,256.730885901058,13.174108053274068
3318,9.217404,409.9242407375723,180.1898346523092,239.6593769413381,-209.22275156266716,237.72791703641835,-27.624733247391298
3324,9.234072,181.75454439882623,207.7292165401732,219.16522779649225,-157.24553381996907,491.2038512334776,194.2125198990913
3330,9.25074,208.0326933462068,66.66423188801096,156.0231718871431,-138.755462421975,235.7330248793889,-15.165044428335236
3336,9.267408,183.6484055119413,37.69879894272653,126.0032505737642,-316.7484572177092,174.04122792338865,16.582536404681754
3342,9.284076,71.66332644467614,91.86738660194528,33.02442647895968,-241.6370413771356,272.8327348573333,-223.25209573378797
3348,9.300744,163.39873031263946,50.63867609729759,-64.69100433823714,-212.64979342907807,166.48156107789316,84.75171482335992
3354,9.317412,155.47770592484642,-49.34457394939038,-3.2647894615425805,-220.7879695523912,96.69117466359788,-29.07582301970858
3360,9.33408,-80.6215229892937,70.57151406087434,-139.6034792173589,-242.82504958474985,227.26720319245624,139.4199749869247
3366,9.350748,96.60639274783836,19.645188803137216,-74.83447540613095,-503.7922195304487,127.54403169608298,-116.63139371475624
3372,9.367416,28.6239424229598,-242.78763609183736,-105.5906510093003,-214.9432716133334,-57.73349888467804,124.54000473780364
3378,9.384084,-76.85909660623176,-73.56653972907783,-40.86350574174182,-309.1692653170734,39.54186593734496,118.84227795089534
3384,9.400752,52.39653516720715,-72.95194707869574,-41.86521625831437,-378.0383308211252,100.2301070252608,-16.36882955001306
3390,9.41742,47.673767260606894,-19.4217686125304,-398.9342971943335,-313.95552327080503,-90.88543424385789,-29.8855473193655
3396,9.434088,-85.79088376825423,203.58316517920787,-330.08174169011863,-200.60582003973704,100.92462513172332,35.12039510479045
3402,9.450756,216.7860424280037,87.14829100734606,-264.8231174384505,-117.08379170827747,-32.75647501999305,-55.47382679579509
3408,9.467424,-228.0196277431301,108.4891711136438,44.49897270833093,-195.70590358698732,77.94840903909184,84.61185023774654
3414,9.484092,-88.50338570051751,-131.58254481203107,30.821974393248183,-58.22782011147443,-100.40032148927162,-97.75338353264932
3420,9.50076,-25.076304876256582,78.42421796345056,132.2290504455018,-182.2969649417688,7.78024364016153,5.181587843811441
3426,9.517428,24.246469348729363,-8.483546674315633,-56.83028394723634,-74.19718485254047,-29.036960967678816,49.36673093281745
3432,9.534096,-44.47843488581756,-25.702502378598584,94.55497835025524,-45.60659736848629,12.51133098026596,115.05892930762607
3438,9.550764,19.285519672931017,-61.18775287470649,179.67327209716035,44.4870064199266,-93.03352856699269,-13.649273870023787
3444,9.567432,-48.32076025933313,91.03071087777415,93.14782145279258,-177.36222561898094,93.2277498091922,25.06872197067828
3450,9.5841,-106.10521849954029,-0.6068482723711845,19.963877554800632,32.59005424350852,9.2085702821056,-90.28493816887637
3456,9.600768,-50.65746986305234,-164.07518375884734,199.19158935715413,123.3721337301252,32.58010703286885,38.70858069337131
3462,9.617436,-236.71297428156723,59.55228381722412,148.8057551935739,-0.2260832414113025,98.19631820999948,-34.76719588359171
3468,9.634104,-241.40001917305636,-60.56444232025426,46.863463763945134,430.0711297150119,-183.0864505746761,-55.28191577805588
3474,9.650772,-13.778158305988356,-89.88986767344028,168.1482132085758,-122.18187096159812,267.5428862984413,3.540960319295504
3480,9.66744,-166.3950666418683,-96.9565064424051,89.51829836073212,138.34480752539835,52.09430150950028,-180.99485888081767
3486,9.684108,-137.13270797891084,5.194439058768765,93.44781859089034,321.7079539992502,-23.132033823485276,-81.39535088362274
3492,9.700776,-138.5711028078509,-153.24981973136704,85.83436388503944,207.88040693357823,-52.334706263987,-58.881697813123054
3498,9.717444,-88.88365590819731,84.0285522779506,10.775082823076096,119.1825225883558,175.89654789234032,-258.0435119744653
3504,9.734112,-67.95015908417176,-9.01736494176659,-5.943667316605815,377.79929140986746,-180.5534917158653,33.13543210929285
3510,9.75078,-3.4041686017304755,-7.880049692770136,20.2779437428857,223.10454528312695,41.19200758639081,-135.24280836564662
3516,9.767448,-53.88179474026374,-30.076425720086316,-11.930295972191445,360.6396537575809,-158.3810913826535,59.18616383833745
3522,9.784116,-78.34164281052352,-15.480025852212622,-33.42134407430125,98.21691091721766,83.26512132978824,-81.22656263346329
3528,9.800784,-137.0375110323168,-49.4427124514397,-27.05408119613289,264.7932126474341,-96.88922993399974,61.07951738280463
3534,9.817452,-6.668145730736178,71.56221635207393,-87.75249479899236,63.49122490618153,110.44124096635692,27.901099134917224
3540,9.83412,-21.06207570976575,-50.75927079349391,-115.81879095287104,217.79770026005687,-126.30263514237998,37.46133605332339
3546,9.850788,-94.39090129635144,-42.16274191332619,-80.3391522702443,164.10636187998435,-9.581689837622676,-217.36455022405983
3552,9.867456,28.976154933019103,-6.417454915722679,17.505427962414814,223.7450492489576,33.62645398897499,-30.79055451955386
3558,9.884124,-102.43436260046192,-11.91720372700184,-169.49255755324228,166.615184555015,-118.8994826551244,134.18044557915604
3564,9.900792,33.30419558638998,16.389051704002767,-55.76890523616744,360.11168182017286,-164.8111652241566,22.6231341798612
3570,9.91746,-56.545116363197934,76.8930090011351,-184.6203166390076,39.32326697985874,79.46551291599296,20.642166690727294
3576,9.934128,-150.8992880986778,-40.80598286027847,-21.281189861515088,387.38432646388935,-280.5844575788576,-12.31333780857885
3582,9.950796,38.70150855588568,-69.80198372936053,-177.29634759514693,48.332329704471775,193.5673578681824,106.73365142204888
3588,9.967464,-48.44824164984237,124.78546700030428,-186.9327692788728,407.50291584723146,-441.37724217946845,217.79452323750863
3594,9.984132,120.80923126582756,-48.22589904182311,-50.916921123191926,418.35729196146593,-63.93846398000025,17.874781951616768
3600,10.0008,-534.2464524206723,0.0834692370410543,-400.4248052926672,-362.3605244698782,-60.15229940956684,-179.2983221482125
3606,10.017468,38.06896564756235,-26.527922730480967,-155.8460746564264,158.4748148688058,54.6021607587067,231.4252663775457
3612,10.034136,-66.193494589444,99.19004554224026,-143.59085977946955,180.3026526982488,-56.9065638379369,115.90622093220108
3618,10.050804,0.3188166432834975,375.1586827718064,-200.8387891872378,93.75757022601611,436.6350149641552,4.586097584978258
3624,10.067472,0.1208879018117841,41.70289631613494,-221.8443750446033,154.09123056571522,-45.25937212170817,204.3308797345137
3630,10.08414,-56.38258317000975,-186.0588697265769,-180.83775783053548,107.72206242782237,52.71759414291769,-74.32025768706818
3636,10.100808,-17.16294938710353,-86.38210057199677,-229.8736451430354,581.0240633258113,-385.40408604155374,303.1823844335278
3642,10.117476,-100.66563499519212,149.23529489322482,-200.62943912201507,11.843795001027331,292.62080524487084,21.101917009353908
3648,10.134144,-109.5668029884049,32.41472330107992,-219.00550787045117,89.02524631380975,337.4453579409321,2.0359341313971484
3654,10.150812,-117.1583815981274,-10.243084143271304,-150.17215949763013,143.94851117039582,35.15319927287792,106.7375227267706
3660,10.16748,-99.6707942666339,101.59509162267852,-123.07906726162436,27.669962852304828,239.28535961517943,13.720385966568188
3666,10.184148,-126.76924521765936,101.25126497169296,-14.17598567229402,-26.8055316460048,168.24390722797074,260.8995110873585
3672,10.200816,-242.9132993458684,65.08056265169104,-55.62557748014122,33.36816015184836,-11.490017641079575,-91.35404311721727
3678,10.217484,-128.1299172581988,6.12899973382298,-125.561505428173,-237.35680310826768,135.45895166429483,91.42119244995791
3684,10.234152,-155.04048613839586,200.8670208860584,-134.2457114085952,-291.4379002940418,-28.015222360282245,86.35132150342085
3690,10.25082,43.52243567510875,46.51023826341974,-99.01039203183448,-247.48453631530583,6.392854208681065,-116.62563223638742
3696,10.267488,-91.80562250995916,107.6944283494587,-36.66641869540916,-267.50341309665816,-26.989143296674293,67.51971937851353
3702,10.284156,-306.1453867139094,136.0751793780242,-62.05287792807101,-230.71043200489112,-16.205415455042306,-1.721905765634733
3708,10.300824,-54.65654463670596,110.17387990259472,23.6689410125745,-449.16459567753816,-33.15808966591546,-196.28256978536652
3714,10.317492,-88.6125163256001,143.11032869446692,16.244670420683235,-213.257717161948,-172.45757675453586,-55.02796001990568
3720,10.33416,-4.578559986651822,34.12085570464069,72.19904928017449,-286.0930392201003,-110.549853050924,62.27272231394003
3726,10.350828,39.28366678294663,18.260756359098668,50.48057447203834,-30.31828930385791,-198.10576114330811,-15.193995320620768
3732,10.367496,158.26084580520117,100.36039364792798,276.59234617809545,-132.8927826897504,-196.38494420948197,-24.701041942610644
3738,10.384164,-2.944595602056524,166.66847793989538,59.37893587119088,-207.3047345990473,118.12932068923725,11.533484902477891
3744,10.400832,120.59204479464792,-53.25650392441044,231.8200751170609,-45.83177143828578,141.88809284962065,-233.2442313452313
3750,10.4175,160.07477727940827,-32.91296140867281,197.40231084414825,71.8346688497928,-1.9313862825014596,115.98853705132196
3756,10.434168,101.6091646070819,128.9766531306019,84.24716715038046,-4.43077061780736,38.83995251164683,-32.541391890969166
3762,10.450836,148.01557542687533,10.016777780968615,109.62054481223475,-118.14543520252327,77.3881399061453,-290.12963211978496
3768,10.467504,124.3729641348804,13.983218341908938,165.5796915054584,69.67334810509199,-37.58945583679613,-126.32539422044394
3774,10.484172,104.30888763741578,24.004059467204392,183.9269316808631,37.72147722379259,-44.22469435547282,26.083026736811625
3780,10.50084,-31.4398696977643,-42.26170940975267,119.31527558314744,-72.1492373281365,-47.19719916437041,-187.46695678339464
3786,10.517508,65.42345956679179,-43.91625109836127,174.14101239120222,220.81804144108423,-180.20214815167,-110.59876106272506
3792,10.534176,38.63597347944324,-61.99066626235672,209.33367585503464,-66.5313934676636,-112.48506565019534,-87.30331925154707
3798,10.550844,145.5607516034853,-78.9171824695797,60.662003436139415,5.03968768908398,-11.844484467567924,-32.780371888939044
3804,10.567512,192.07547052555407,-100.42401398547732,210.25955882835893,45.19998085707404,-82.56425021884013,29.101400266701827
3810,10.58418,176.4777069815769,216.13672032286104,229.5361077068257,-48.20230489011007,223.6816944581476,-63.079849571260745
3816,10.600848,118.07478407984782,-471.9151072960794,215.376032860215,-0.2719114634133674,-388.38263941003567,-15.817906590132033
3822,10.617516,208.38732358563345,171.40161364614133,168.51960200099185,-65.75622871410124,251.63755929561677,12.71085704676586
3828,10.634184,172.0686037641739,-363.8887610582956,181.50887205678103,160.89668612787608,-316.67097980589904,43.95597604981816
3834,10.650852,200.56828062626116,51.58924123893426,227.49144457181623,59.29762033530624,-1.782685134044616,43.53792695285683
3840,10.66752,143.55560764095551,-139.17709416748113,124.04919131267532,45.50815618055263,-170.72164850322383,240.8276133322822
3846,10.684188,292.2115518725701,27.52430131608552,136.50553626686292,116.18553732888417,-119.96593592688356,127.39096890112955
3852,10.700856,236.95724056423217,-109.9826821510573,86.40248226718589,217.60292931832956,-91.55581765964068,378.9871678664638
3858,10.717524,7.620741693955125,-59.820823350305446,507.5206567337455,193.5886993723854,-41.40478168896332,204.6874368671412
3864,10.734192,382.2647278204822,-39.90411872379734,-59.81796597882849,141.6893906806224,-156.9771314622863,401.169153223492
3870,10.75086,5.970997391333725,-246.3238706883285,223.99903073624264,254.72119558880368,-283.17018819550464,332.2029188915095
3876,10.767528,226.78634112459096,159.4909991224518,63.35941907497234,53.79387807452395,81.40215278742107,235.8770178259407
3882,10.784196,303.49710462242143,-182.19602598584171,39.73344840606729,192.4940115115428,-312.08677226328746,156.30530404104405
3888,10.800864,127.07761948459314,93.71745124670416,13.825010756626256,121.3387098553304,-271.957933697694,156.83613323272462
3894,10.817532,153.4890448748228,-126.03473179746356,209.7780258183292,-72.31909211047038,209.94032407761165,73.65956751202339
3900,10.8342,301.67329232553993,-86.4795123308397,12.888757687908097,178.03951755564626,-56.30440053093484,-17.341061771149143
3906,10.850868,-81.74153364630757,103.29717693384646,257.03737661890216,-25.70938096658623,69.29282930768096,41.06533248959392
3912,10.867536,247.3560492354985,-107.69855342890384,-250.5734579185965,-54.200778731310685,-188.84398410565265,-106.7765566086398
3918,10.884204,101.2352125481934,-9.783453433394182,193.60998877964485,254.14093675900537,22.59605684990582,193.4621876613938
3924,10.900872,-44.9136750799735,-30.26157296554171,57.44645411119863,-331.8402524234473,113.19534658623508,-146.32560625910844
3930,10.91754,377.9670955591437,81.43760762434789,17.488945124805895,171.550485314304,-40.46279993879286,63.41393614004886
3936,10.934208,125.38579317860516,99.24950637974034,87.36886216523362,-54.17877235115152,347.12718383837944,-93.71696587541012
3942,10.950876,79.52857835339418,145.61950699496413,37.96613641092279,29.048337816946805,118.67287908402366,-83.12234878810236
3948,10.967544,88.90558447311143,-74.7873500529466,155.35187771291942,-228.005102321194,-17.173656877704445,108.4192956445205
3954,10.984212,83.21698460436275,226.5454670745968,35.35463239454826,-31.567810678185865,179.37064586403653,-53.429779379171706
3960,11.00088,-33.723667741351335,-5.770330196734953,36.794921206316594,6.405756105832147,139.38314144522644,-94.44104829289212
3966,11.017548,-50.601498873685095,137.40284743514513,-8.815528072989482,-30.790305278540707,22.097553325051265,-220.9770168623608
3972,11.034216,-102.24670667078432,28.79622258084772,-216.03597118607496,-376.0135350599409,311.49951558140884,54.18101351895054
3978,11.050884,9.315518944912604,-82.02098285050272,-68.44996453418804,-256.6788861014941,-15.172563762126664,-45.21466525259046
3984,11.067552,-58.16339206085264,40.55367633714258,38.36355863615516,-91.31890977363612,263.563686610156,117.34118794585586
3990,11.08422,-135.3876700323956,-38.02244966942544,-301.5155750533305,-236.01329150801453,-33.665196577747416,-104.83220581178333
3996,11.100888,-199.97853954400892,-70.75192077142495,-460.36854381242847,-98.9558185660512,223.96201690067727,-72.62519886900343
4002,11.117556,-352.8324791347638,11.957430620529038,-405.6260238394419,-133.44495962153883,-71.74296467664784,29.82487092606225
4008,11.134224,-139.74766525952447,-121.0737221452145,-310.62740669879486,-148.05622719727995,0.1668102498441008,-21.282341027885053
4014,11.150892,-178.1166091154492,25.76601800870679,-89.12099611349475,-197.00249888859537,210.5867898293959,61.59398027439204
4020,11.16756,-124.84937136725868,-71.35480952770193,120.6667325947068,-94.57549921729392,-273.1982016635938,183.1802410499831
4026,11.184228,13.256554627512855,-108.1315770218204,88.825016684459,-95.07487877245616,197.29088774985863,130.98650339892504
4032,11.200896,-117.66965455101214,8.012500271026667,147.57498082558,-1.6942684497383669,-29.049834427680693,237.77457671502043
4038,11.217564,-23.278093963527084,-3.697971456524776,103.06011461617577,-194.80005864123672,136.21755307574932,-76.34711345548565
4044,11.234232,-221.1459600031655,179.40308792404034,60.65019180252996,-13.694456037757035,152.76383272368275,61.32283640935336
4050,11.2509,-71.83091554306688,50.01862492682152,107.99285322373544,53.5046802052419,-143.44264690132707,169.88783244968258
4056,11.267568,180.9647433503326,71.31487337369053,75.80917455308072,24.70247870077484,289.72586955100985,209.94506188682453
4062,11.284236,-300.45943412905194,118.50112876825956,226.318548761874,137.9496824739752,-33.1197239910501,71.76875170210263
4068,11.300904,-243.11181092218487,26.074487982585342,142.4953417410091,-81.67663460126997,213.7349801506549,-129.48156736419674
4074,11.317572,-221.77054057876532,174.04815367435486,206.03405372782584,45.76568762627656,54.01594555394568,67.62717231091708
4080,11.33424,63.50119494177203,-123.8683657266814,188.1219719424368,-168.40855507738706,337.2510617892243,-180.06345213259
4086,11.350908,186.73785539671,-256.4639170535623,62.88885980679422,168.86334149414475,-325.2907709268267,-7.801167800003576
4092,11.367576,-363.6482310522888,36.29484241244813,42.83486680343911,73.94432243975568,72.49293290530366,71.40381591716547
4098,11.384244,25.70545346268633,-4.810822012414572,203.9297582657571,127.08479679644782,164.2974650769063,100.8812473421861
4104,11.400912,755.19352576697,-362.0406670438788,0.4971593457326264,-105.64213244374238,-19.771906349542967,-40.7949248560435
4110,11.41758,-1282.217799031066,546.8779548679215,-81.65212631647414,96.2131120360581,62.73253842613988,42.659899276290304
4116,11.434248,83.88885573180976,-125.93401971382868,73.78596442610524,35.68835341032004,-105.84478944868232,-143.41676460032613
4122,11.450916,5.81717901714994,-44.37225089133965,80.58533840920643,172.70776189092828,-131.6607622534858,131.4634758816029
4128,11.467584,-5.026850910474963,-35.235625148320835,4.756664393538969,80.50410017034784,218.0149147018693,-87.5572472620968
4134,11.484252,70.30136407913294,-132.6911908195379,96.06733202586044,74.20596271460451,-138.53767314240702,-19.023867032936295
4140,11.50092,-49.243428365310606,118.72648804731098,81.83792201617322,185.2269302257285,14.465441048715372,7.078837169872855
4146,11.517588,45.86849338557696,-32.178103388245994,-141.00638417351652,124.42923250189604,-28.289702171428686,48.902357867996585
4152,11.534256,-40.85741030683775,-46.87019856625104,109.15004581658532,196.6470000540884,-0.8116439979655183,-99.4102310944296
4158,11.550924,19.052802494066995,-63.63493928573259,11.462675787828978,86.11548071850855,-192.6365717384641,-100.3103960378794
4164,11.567592,-53.68262513875028,-27.795728700248773,-150.12545848761587,166.87187261501643,-6.613109719262859,33.5986871582086
4170,11.58426,286.14514945340727,-165.73790375905878,-654.215637451613,54.23024798632618,-249.737461567047,-94.30712034037028
4176,11.600928,-29.00944764010916,-54.445404617431365,-240.80494059755125,134.99775741592282,70.62834124522067,-110.79753639216496
4182,11.617596,15.694905649958455,-10.352099001721228,-394.3790212925391,45.26182319950678,-59.953993266586224,28.76229997462148
4188,11.634264,-89.30003694682553,-157.32475359988794,-132.14342230656436,315.3076519194756,-264.9876776743289,-202.1849909179456
4194,11.650932,-88.69500150657478,174.2746958778617,55.94366228376372,-100.27036643850748,-73.77594324650943,111.0136783020793
4200,11.6676,-47.62347368746238,-38.490082463612026,-82.11775691822899,192.01118329201603,64.48191860884887,-193.10424635871152
4206,11.684268,33.46176716574634,59.04788864436465,-1.506452621735484,178.09858098749865,38.983153891156775,-27.26589137187429
4212,11.700936,-24.556361413428448,-21.05910535605029,10.835286166406483,67.41555072861684,-225.8834124325592,-106.96404177429358
4218,11.717604,-41.53899974811248,-59.5905167876669,68.50890680691823,83.99647770394901,-37.994886046369615,18.594252151838447
4224,11.734272,-42.19407506385237,-6.93804356202822,117.4294084814712,40.39385599819008,37.85801573623509,-274.6879131450424
4230,11.75094,-79.39319661594615,157.9856128791426,138.86203109726358,6.372436964716298,-43.06057568992493,11.578626505732274
4236,11.767608,-15.418631053018458,-4.609941125277366,145.28711698272693,78.41039393805546,75.09731184817674,-131.52335262227615
4242,11.784276,-43.63990893551321,64.4579617385842,21.60411041318484,47.65712606026423,75.6313624094273,-80.00712692304978
4248,11.800944,-42.60920742309536,43.17840935291355,-34.8037949713419,-76.96589204349058,2.6923044675149086,-248.05291723049652
4254,11.817612,44.4269654408607,92.0615536604342,-31.064854589422808,95.46479822886194,130.74456384061332,-157.17954069419585
4260,11.83428,19.76734602111152,-60.33530594333009,-77.07339503952586,-119.3696417105775,56.85374063041225,-237.220426930912
4266,11.850948,-224.7275419070077,197.24934721150169,194.3724481199781,98.6199274176226,335.99236572389043,-60.3540333314948
4272,11.867616,-188.4958838794598,59.39479890028845,166.73828985419587,-244.573540700784,68.50362806017972,-268.1794102327659
4278,11.884284,-24.078735279925752,83.05294010322226,-22.35566787867375,-161.74682007026445,329.08197955616754,-26.39988038694064
4284,11.900952,-179.88188652321074,114.5494083841561,174.26256755277012,-151.71993987273163,39.42459939848948,58.55880417825461
4290,11.91762,-77.89125285303997,118.885681462064,38.7944372589744,-200.17009549214904,70.4644832141913,-109.5080188480628
4296,11.934288,-121.16434967247493,-40.61829095889372,52.4709051640437,-182.8372271875305,1.7464051488666072,23.346651712654136
4302,11.950956,-60.85137306107696,86.4645602308375,93.2728176877506,-354.7536892761555,206.91844694307423,145.76454732235294
4308,11.967624,-215.1043703731599,70.47387052524402,21.999086719357194,-277.33549138932307,-65.24818047678474,94.49814387003916
4314,11.984292,402.0005385381958,-189.2951182594961,168.436949089848,-332.6122245653399,11.97720253638576,46.82182507947414
4320,12.00096,-198.91119055668295,32.52316199928664,22.687654665887024,-252.9977635382242,-27.396894556990446,-25.95807525507611
4326,12.017628,-151.4580496814246,6.466381196024294,99.80481458494005,-336.7348319449492,27.537240404687303,151.235266488014
4332,12.034296,-51.55734237586351,-36.47803797195665,20.74813229823389,-296.6604104094505,-136.57873964321988,76.82538969894696
4338,12.050964,-67.3837352761988,-87.23061096637922,144.75011289727485,-111.4039415113966,-93.97422754804234,32.18636079578684
4344,12.067632,-13.356777387127735,-77.14262154620876,165.12118730592147,-177.01164205035388,-169.15622875167276,156.51305100823356
4350,12.0843,99.33025709621356,-10.285411239325768,2.9536263931495164,-203.3063126794677,15.790839283615558,56.33919984245311
4356,12.100968,75.32860592674476,-192.84812436046587,-28.18246724947561,189.4506844476857,-66.52324221400517,258.79674797487365
4362,12.117636,-25.104787946010468,114.18425924290176,-0.216395065356906,292.0470625851416,-130.1606483643759,703.130197093097
4368,12.134304,109.16556811315658,-72.22160427479707,-54.14409669802767,500.129894974626,129.39867649367832,531.4337206465333
4374,12.150972,-23.823785517352977,-114.5483816182133,122.22095783111348,282.6638944478367,-201.45965619959125,426.19882697801904
4380,12.16764,197.54516432809604,88.924556856208,-32.386111808235896,167.70236771464215,287.4443257276389,170.52854995980118
4386,12.184308,82.70497223652816,-116.03771155263296,91.7962041458126,38.9660441244384,-263.70064575424965,31.93051560717288
4392,12.200976,88.92545596104725,138.24257664786393,-28.68701562025693,126.18184245102788,238.3526062740013,-67.57203456848639
4398,12.217644,58.89489819649475,107.84435456793857,81.93361490358771,-104.25557466617582,25.97318138050456,-79.3956949935093
4404,12.234312,220.15838803088383,86.21404305548242,-61.882971865425446,247.7193574838892,228.36664850967165,-169.30415385651222
4410,12.25098,86.00048023726475,-80.79758254875458,107.50654107690023,-27.16278557578185,-83.37029587953856,92.87609320679078
4416,12.267648,173.8514180892211,11.460662559313526,49.43536094084789,39.62591530764978,82.92937205875498,-71.20833658327953
4422,12.284316,160.52613638308603,16.84440789042702,-226.36144498947496,-96.4559651687915,-365.170502119463,-92.41705657583672
4428,12.300984,91.99297214669916,60.95288338254374,263.3223915426482,21.277199351086463,270.37159683138543,-1.1491357020972428
4434,12.317652,125.14159857418562,-24.776089563370316,-15.03818744680288,173.67901901764395,-243.51231494864703,-9.753689400276258
4440,12.33432,139.198631464225,-102.91820524786188,113.96509128164551,55.6669493078544,-62.51700095828376,-178.9460594020142
4446,12.350988,185.8456212519148,148.88551742632342,-30.138737681514844,137.55397758648246,-123.6530358780308,-87.7067136782766
4452,12.367656,147.3623166444979,-2.955064258737494,170.7145421423446,-73.85788546061613,-244.19788890885144,-52.89746234125843
4458,12.384324,118.06615327101082,-26.58779281311632,-9.608272805334664,236.0032071959153,-206.70693254804272,-267.41489650079734
4464,12.400992,236.7970217783117,95.26470287325908,149.21039799923727,86.50538187108026,61.68010621202679,-205.97707233061627
4470,12.41766,168.87170173104707,-124.76364687801504,50.03600274745118,-60.97051489743498,-440.60514445955846,-127.76784046548336
4476,12.434328,236.12278870274773,81.71665010308936,-135.00154562478252,92.78209179804588,51.60838967429911,-126.75061641713536
4482,12.450996,295.8312046876635,63.67925012842068,48.36396963000438,43.580681611721936,-170.47602650515992,-192.5227404701096
4488,12.467664,318.7747587335789,36.39799867133023,-255.10654354797225,-5.050381849084715,-320.9613381678264,-109.45316734272365
4494,12.484332,214.33463056334364,38.01253048591627,123.00221581659422,97.6119721406412,-133.44648519952025,-30.84191220793713
4500,12.501,304.7897763970658,-123.56887824363568,-7.677001084523681,362.6066159021914,-134.553141657001,65.06336424858915
4506,12.517668,281.50229095709494,10.864664995593134,-30.205240589400944,161.90562899276432,-2.85113565983238,24.21045898273635
4512,12.534336,84.0832384611875,-96.0732351772823,-12.545368329605395,413.1267015744275,265.8304063107226,62.02229486341137
4518,12.551004,242.39179984161973,-34.46214062483628,115.84422613480092,82.78113550491399,-211.3755190228294,-84.41467861738789
4524,12.567672,359.2621753215053,-156.5939875755277,-315.5074076212585,117.34387891520296,-316.5718439470924,421.1527069021568
4530,12.58434,213.4643387429653,6.126261394645124,-63.705251427298506,84.58166601144995,-241.85028701587416,139.59595134629427
4536,12.601008,149.7761965137495,-27.622714936130727,101.48575591789786,47.29721278132188,60.5826656054039,187.28808613996569
4542,12.617676,348.1320495565949,165.8899900829669,-123.90275950121269,182.47066916735253,9.497314145553936,120.01827215074908
4548,12.634344,230.84961818865457,-277.98094432454184,-223.29092147326745,9.549970814688464,-456.1550783642997,113.1937849823832
4554,12.651012,296.4458231703429,-221.93967097915848,-156.09810793446127,37.37604891635006,273.6515560079183,186.91738758436117
4560,12.66768,135.0877471997174,-138.13164300872648,-91.40050893322024,37.29940391240242,-179.82752107366704,-145.72411917147184
4566,12.684348,226.9880545282115,-26.49953389329637,-105.67177249457912,-337.9003459849892,8.485482949941172,-80.42836119632454
4572,12.701016,112.79462192319856,-43.583024850901545,-230.79977742690036,-0.8289279767727891,-105.83434061547582,233.87909379313956
4578,12.717684,126.05298792292194,-129.6089220914355,-96.85092111749208,-53.99602886607877,176.8486707822675,218.22186155099448
4584,12.734352,21.48693336169568,184.06436394234797,34.946419847320854,-270.86263988874924,-25.25956370234144,-102.83124687502358
4590,12.75102,95.02628215451928,88.83368861089653,-180.47812825705984,-135.3998448681871,-9.308024219157446,398.4525665411197
4596,12.767688,209.4353124598732,-60.88350016183941,-215.9917819518741,192.02034567102845,360.3555583011784,-25.20157811518453
4602,12.784356,234.28440910329567,318.59795329896843,-201.35641614865824,-200.82553266052375,123.70824857111646,405.5310379284677
4608,12.801024,8.248923012850298,-190.6890949359853,-22.750307469837537,65.14360797537884,178.93434964591393,301.9256576669446
4614,12.817692,123.50142144267332,229.19886579133367,29.41131191867109,-223.2588761780833,319.45476225123224,100.11755838790262
4620,12.83436,61.85949692255557,-177.69320804790374,23.70350912537826,-7.561672414691177,-0.0263649787834041,321.4924383906191
4626,12.851028,68.25992689582998,-39.82476760173184,-258.78946509154235,68.0162907238275,28.355259473925884,247.51865290874508
4632,12.867696,17.415286554451818,535.4351293767269,-89.2196811200363,72.96804711455275,284.4330983902832,313.0812400055154
4638,12.884364,-79.22334212054483,-962.3139836313984,234.9496365314792,-136.5854521952085,-298.3201337996048,333.88038774504463
4644,12.901032,-186.12221164962065,350.2728277982709,-65.00233375966764,140.15064817383853,35.29991726409194,315.7380375749464
4650,12.9177,-393.5725165288754,-48.40135550011364,116.01163773182296,208.9247016730625,221.8063748363209,251.39276330986667
4656,12.934368,-1027.9890431602962,-74.96890275009991,240.2732320970621,209.8261299226046,85.58466821193055,248.45756811348855
4662,12.951036,-910.1652298615024,698.5056970884235,-86.21139661715273,291.04012651169387,108.84573730149208,320.7020406503656
4668,12.967704,-672.8184625441381,-14.754489713087894,-42.07268501895176,147.94842179945124,159.83161165549282,232.2722670039403
4674,12.984372,-75.56869574182781,-114.1820727410833,-0.1330358863822383,58.43434707637271,0.9921851357586392,193.58468044217148
4680,13.00104,101.23543290291828,-682.6566907364136,76.32554435448156,127.63087637414094,-162.23756126492844,127.19944408742604
4686,13.017708,318.7918317651802,320.83613527740226,-167.2732447867323,88.07736596896407,321.6314006934705,99.60770436584814
4692,13.034376,38.34821880991659,0.5453233261705055,77.41118343803888,-87.86463118156848,209.085554510252,101.81998006349522
4698,13.051044,-48.58302070277565,-32.37526792032713,12.454165244238368,14.864028204394003,1.2547732764981872,137.6808168976283
4704,13.067712,-113.0397716931552,114.94231193527236,115.0990716146285,121.7634054857456,141.7670011729246,-40.490699195573015
4710,13.08438,-184.85620098469323,219.884466402914,12.356635035977432,15.973703644387903,169.1451805766629,75.66155709498214
4716,13.101048,-71.36636654602275,404.3778825154948,174.4858595420202,-78.02155276804476,-2.098597833090679,-139.7114279489266
4722,13.117716,250.61117978753165,-85.8116940317142,-76.79819790117975,1.3187588422782195,-101.96725546418595,-90.68365253539514
4728,13.134384,175.38642559726156,30.457934561411427,423.7322268145736,-44.61347914651522,129.86262883196116,-236.8608535186691
4734,13.151052,10.399060533087454,-93.15657281398111,-24.583209343390337,9.75938884948556,-78.5065255596123,-196.131038939973
4740,13.16772,18.649924799421967,217.25988820759997,243.30630684080415,25.898783974911225,141.426721115305,2.8422735585561654
4746,13.184388,-93.13278537884848,-86.81413466203261,140.3065215969276,-41.59793843331374,54.75625431693743,-246.78496497618227
4752,13.201056,132.12426121900052,-22.76089207128951,74.01989837224953,-60.91050892510507,-71.79808748671998,-183.650540393228
4758,13.217724,43.9757273237128,18.18195597605233,189.14421206648277,13.18123530948401,-84.04060546975347,-280.888217274212
4764,13.234392,36.28177798542087,71.0507522398369,101.37352816075123,-69.58391879982342,100.458580494047,-314.46420108173953
4770,13.25106,0.6324702395948094,-60.693547978149134,88.45178631259809,-54.25636347491651,-70.54134686092446,-226.3716885732172
4776,13.267728,15.568939975262122,-15.48427742543663,220.06779039059109,-46.73389687424774,-153.97421121974264,-358.41569490561426
4782,13.284396,81.19023917988233,13.485897258077078,99.46292566100853,-140.71389537241907,14.214717084338488,-257.341182554751
4788,13.301064,30.208661830158125,-55.49083208370416,107.50747756024624,-8.185851335726362,12.36912900347001,-276.7984615338119
4794,13.317732,-25.829219311960287,109.49725315750516,57.24423291447756,-126.06110998551998,-201.76850602809773,-287.15282963930906
4800,13.3344,-7.370301512805014,67.89374936108939,59.96215137614306,-123.60516693509594,-107.02697095441223,-324.143637558363
4806,13.351068,-8.679881662674099,-113.7215112478748,-30.80080463697592,22.04850281452739,-231.27162866545703,-358.89496157913766
4812,13.367736,14.70791704474548,-110.64161099279818,21.82900798463908,-0.6081532439226152,-59.94143395332428,-216.34392099712795
4818,13.384404,50.77302017315007,-38.543309750699095,-65.25698590179587,-149.00356339256695,-147.72989739218048,-410.1536946622054
4824,13.401072,-40.062092466975386,68.84541112043206,48.11223462374216,-316.0536865666854,-257.41925681114134,-262.34372027203017
4830,13.41774,-35.31695151236429,-136.43538330730414,-60.75584809670804,-111.70879423812508,-240.0621183369085,-304.0398885940557
4836,13.434408,-74.07157448019356,69.53766091715174,41.03187765842025,40.74500777374593,60.68207021698427,-207.91649488586373
4842,13.451076,59.7444347230973,-97.88673395880429,-46.48591154386369,-191.0614119715386,-108.6859149127332,-232.95424063342
4848,13.467744,-68.47086852357246,-292.06212391683937,-307.9527088009365,-22.59142312655224,-178.0999753744191,-415.9025735599643
4854,13.484412,-295.329575850937,-48.0835814052172,-105.29799648448044,-99.63715875962248,-195.49340193371145,-194.34496771436784
4860,13.50108,-232.04052950031587,-172.23973864844712,2.6485423826807626,-208.397091288512,-119.31492548303848,-139.92853997228954
4866,13.517748,-232.6672739624063,-2.5879999232717097,-62.51079363710041,71.33268562695133,50.39715403005033,-89.78631895918646
4872,13.534416,-62.87434016170695,11.823023041819582,60.76412412983463,-119.24474852970371,-64.42100285663273,-170.655481009296
4878,13.551084,-28.567034252216857,-193.35691558826932,1.1250570729367482,-85.54145967352946,-130.94373084071412,-84.99417671605617
4884,13.567752,-75.10652983846171,-86.30817396816832,-101.30610701371192,43.27429408399244,-74.99559243667768,-79.1425169376127
4890,13.58442,-9.06357927583936,128.23040586102923,11.597619604337597,-253.35473385945704,62.525065807841614,-119.46546889837217
4896,13.601088,-87.00371646194299,-106.1995912819957,-14.482906697696665,-104.2353135466107,138.98962452437638,-19.32390525377419
4902,13.617756,-11.15378721635572,-54.66631596245027,167.0839576992898,-91.02724390439832,138.05960889889434,196.50926827481095
4908,13.634424,-40.65357987927402,-10.718516929007418,39.96888694892792,-198.3903550921728,187.76815536702023,-159.55576036291046
4914,13.651092,-92.1827643017444,175.1263256738424,30.004666574422952,-47.8186877850064,151.4039049094485,88.77906970511695
4920,13.66776,42.41915838545452,291.4876587305528,173.4749330455769,-49.99868685119063,333.61281140865884,20.382410377136686
4926,13.684428,37.26814327499727,-292.2878594060391,-200.3179013511764,-140.1129971173761,19.162577482118078,142.22506633133665
4932,13.701096,-13.02721777164277,99.85494544677002,78.34070755746308,-27.487441199901056,111.54716517079272,63.4746594992504
4938,13.717764,-9.826758177911335,50.768215995051406,131.70535563511282,-175.90952450565706,367.40252560405565,22.96923749505787
4944,13.734432,-53.44354167867046,11.485304520504158,134.13389974516105,4.865207484635093,-38.27066238554457,215.14379900235707
4950,13.7511,-79.82216162510191,217.1261375083028,124.00795462029755,-106.05576326134626,328.1768764208198,239.52254109031628
4956,13.767768,-108.28789835682284,331.45697279012046,130.29391207867417,-37.97427143431839,359.8218104753436,399.0591826465552
4962,13.784436,-70.41882998953716,113.69668647203385,29.152428383827143,-108.98238753025969,202.0040446282889,204.98580272026584
4968,13.801104,-92.78063219448812,299.14374257263233,240.0113296761703,24.12086077826981,25.13944028501622,212.81215671041213
4974,13.817772,1.7427704781087598,132.7290676680468,207.66811623585264,18.57987875221263,-21.71231018013306,274.0335617078153
4980,13.83444,40.68447218732351,-14.363734612300457,161.7971302771567,203.95973076832607,-359.62584539412666,458.477796872535
4986,13.851108,-11.068389448264773,169.3062095426335,238.1957451713864,51.836627245723,-86.65370852562862,448.9227547557779
4992,13.867776,-60.324602729996485,29.640921379722403,248.4097140678061,-2.461424222860572,92.2340286241796,356.31993950633483
4998,13.884444,-64.179883697396,-103.35673039922683,245.06638280401705,163.06991210744454,-327.0389769007721,425.31560195092567
5004,13.901112,27.816787016240035,118.67640631174308,0.2275480943035841,57.744922937238194,-23.506513908872684,299.5438786065047
5010,13.91778,8.650983342954994,73.21714877587272,324.489913185551,-21.27040059522672,39.675526192883744,265.80408129900013
5016,13.934448,-33.73037264154803,86.18488694038544,102.45438891658657,59.5296946556941,44.16620839505433,141.6702013061278
5022,13.951116,19.94448569242289,-48.78997042799331,-59.14870906163405,49.80946157201012,26.18328003543508,123.56957443288734
5028,13.967784,104.97177926057712,106.93433856885888,130.0970380014291,235.4451697674585,109.85657952134471,-106.44366700323135
5034,13.984452,41.43172323199393,-34.979547567255715,30.88606501930634,246.8115942328551,-30.769215165019027,-16.093250384130386
5040,14.00112,176.88259039116667,-76.47880304436339,81.45793146618762,74.07205846624002,-31.15728985611821,-99.79860095073656
5046,14.017788,107.35937115375262,-115.78693963436788,27.576405027701057,205.0558947843596,-139.90621564209084,-82.17058275473251
5052,14.034456,110.686584507668,-110.97534533395697,119.83126685177552,194.28726705038025,-79.91044153995043,-18.99982261023189
5058,14.051124,104.47243798390272,36.59884601303515,17.784245345282045,299.2212306617496,157.25292556398418,-58.73380539917965
5064,14.067792,119.41731611081283,-53.78762853965547,10.539798411986084,60.92387874865938,-189.29982870218737,-87.35150380342704
5070,14.08446,159.2285723387915,-17.530228932051216,5.639808580046092,284.91973206497346,43.63165519302714,-154.17789245810687
5076,14.101128,107.87373342373544,-49.55345778902938,-5.651749760846288,7.100478903197136,-136.96979328066328,-236.9630900909265
5082,14.117796,131.89949260055246,-65.67863994024147,-41.87008419857285,36.47251490445614,-82.29289903510019,-82.07917134810197
5088,14.134464,169.5068806678988,-59.42406297012285,2.2474922964196296,9.456172555563052,-107.89834501923715,-218.8038790202658
5094,14.151132,79.08016980915696,158.70409043480134,-149.7555752259983,46.87369946936819,51.26281595811528,-6.541576106663968
5100,14.1678,278.91722682510687,-210.2879938501436,-172.6497507486721,50.82424561299168,-50.46710218310861,-80.30371453679918
5106,14.184468,43.83418041528289,281.340189251434,262.9489543412234,100.61795176524544,-191.82967506663132,-89.70291485835797
5112,14.201136,306.2614893601483,175.77633490264492,-105.9149408448051,158.30477314450687,62.18793043669385,-70.05710870962197
5118,14.217804,172.45009076002705,133.65020854961642,-125.19168496661024,-9.160841713991305,-81.98959591399529,-115.73152838574804
5124,14.234472,245.04774877473417,-109.42481542811645,-93.52583931819952,27.64747297114037,-229.69702660247896,-115.27797369827027
5130,14.25114,286.4114697246087,-1.6252470030068338,-271.6324306042127,231.52792622442843,-288.8511708776905,-131.50449483410787
5136,14.267808,293.56152554720745,-29.756715555940826,-129.77660535435726,-53.48335080088931,-218.18234077353745,-28.809367808848467
5142,14.284476,328.44400074995866,10.630281915206254,-47.70410970429069,72.71448178405481,-12.577418903687352,-148.41962874552337
5148,14.301144,266.08566994833245,77.65572315682356,-170.42320983948525,-34.70903361044287,-136.702299530235,-71.54477679593576
5154,14.317812,271.2132064394606,29.058558355174167,-105.58273522382284,224.43404049008984,-113.78952513446892,-169.3482000894145
5160,14.33448,257.420498396301,-157.40410385552067,-186.80553645282052,-144.148573865879,-209.49709154142417,-123.5543476136838
5166,14.351148,76.33433820329064,-24.296076260628624,-173.0361346323602,66.0371534578861,-195.1345307463081,-69.23852113049287
5172,14.367816,432.2016181764337,-15.379013502012878,-33.071589548252874,-68.97203223100362,45.12263285441168,-250.47743515595084
5178,14.384484,-22.179547333719093,-35.084221311347186,-207.852009952068,71.88975614625456,-328.36017413701416,-52.077530620108426
5184,14.401152,187.8202070366487,12.935554738612424,-221.4536593419661,61.368904628259855,-59.98812851508673,-14.506354315172716
5190,14.41782,196.292654613173,-103.79968865801848,-227.96441991922703,74.23927170232216,-64.52379313372245,-57.477474651904856
5196,14.434488,48.83328045812081,-122.01392661218236,-248.29695443781765,41.50740091648954,-244.48787581538087,58.81430917554434
5202,14.451156,-395.4108392361787,312.25770914932195,-429.3386004133066,127.94505940615922,506.7418734264084,69.84997686547986
5208,14.467824,426.5954166476339,-198.1067985985862,-31.406538919635302,114.7595178116533,-147.597665998306,58.77921329140931
5214,14.484492,-25.925775917424808,-121.64820591215576,-286.3692661992379,269.2404348768184,147.24472430960554,34.32368209825471
5220,14.50116,-21.16174366111194,172.58416844351754,-188.40972613441195,73.85161247811324,113.78108192090096,137.76324344998872
5226,14.517828,-12.20410916024015,-104.8834356958426,-491.2225001626458,316.5435230892724,92.67836364570344,180.69434919121895
5232,14.534496,90.45421520992932,-204.2191045702323,-249.3193499179778,262.4393758436613,255.6535890665048,180.07935073857936
5238,14.551164,14.570710933225277,91.21041721915338,-351.7059911788292,263.12758707219774,458.5047298969917,180.75902377586505
5244,14.567832,117.83612889104651,-61.55357428296807,-334.58224282068454,409.5140742602739,468.5997305250921,221.6808576610148
5250,14.5845,8.250360868497108,-48.74516299084704,-200.0163160125831,391.8249317316841,296.75745025857725,425.5219972326147
5256,14.601168,99.96053771986544,-158.907256990738,-36.72962582443393,361.2217601098485,262.0709484653537,343.99647618263367
5262,14.617836,-206.88150411873815,330.40734097083106,-309.9180008255769,262.84804747382435,266.2088970727553,264.1219473667707
5268,14.634504,45.86442174729614,-230.3365902455752,83.30866586012043,316.46130067348395,164.4972570230757,294.3345081547856
5274,14.651172,-100.59854582030444,-60.95810031185741,24.113459428173854,246.21215352849865,188.71346770684363,244.85808183959864
5280,14.66784,-116.1198746500761,-22.263908863578592,-43.19241993866198,272.40409079877145,155.7160127342383,263.58598786636986
5286,14.684508,156.18542081838277,-200.39378785533304,344.5461012102429,120.91942508591036,210.1629536982582,198.59686596829232
5292,14.701176,-224.40750876121427,-195.0205376415308,-97.09799447404052,228.5278445966429,12.739672327015333,9.017456130806975
5298,14.717844,-80.52681411552928,-198.46692921227128,135.62229345359876,13.300649699909435,-38.66855571361295,142.9575583691177
5304,14.734512,-103.4739648323155,258.2168574741964,115.2728700534723,47.79678805601039,100.91516763350974,-181.05809810152135
5310,14.75118,575.0167021452041,-881.8928667906436,-1289.0630378893234,209.79504097437552,156.0836636348438,160.65839311302767
5316,14.767848,-526.1912463969858,854.4893732116473,956.0084734675434,157.68267890327775,216.7810605342333,-44.10402130784242
5322,14.784516,0.0085721807783869,-17.16219513325781,172.4336236626395,93.19693657697822,56.64411736890501,-17.562520390803115
5328,14.801184,4.245996932883186,35.39949117631568,76.4741192698278,5.167633578557719,149.46532090511926,-123.96376340338487
5334,14.817852,-22.51733067298148,-30.676123376656896,155.13479095740465,-81.6805392011301,-165.3974567687947,48.76313888427112
5340,14.83452,17.409241241436817,150.96981200015108,137.81909317033583,-137.2124028475213,258.2611801024328,-154.01150970061929
5346,14.851188,8.132861721893647,-17.738019860305762,162.84152582880432,-83.09882563120817,-8.06374021364095,-125.80381402613412
5352,14.867856,17.94035167727587,24.94698352787637,116.78693612105872,-140.61646646262648,-9.31820608472026,-312.5886601726164
5358,14.884524,45.06109293720405,37.09988953831946,230.31879644521143,-139.41135003010538,45.14413638877082,-220.1001726251778
5364,14.901192,-17.38940500906148,178.41857287873546,203.75060510144183,-155.13328054264304,54.59058645095724,-270.0443461695436
5370,14.91786,52.595002712567045,197.9427771645822,108.40642243852876,-293.8229744167492,-11.840253459160182,-290.2754373503757
5376,14.934528,-64.2254520995075,92.9203790430655,17.66622714094045,-217.5441276273816,-62.94319965709433,-316.98348947265805
5382,14.951196,53.76489470951714,-139.04856969651507,331.35499471088445,-270.27187996915524,-190.9401367743785,-276.7011996983233
5388,14.967864,147.3200601800111,281.5167180371483,114.55117663753236,-202.6611682667337,23.60885325624514,-250.08231094446512
5394,14.984532,-586.1331028082044,-619.9970250790266,-114.1420167418753,-869.6589144101406,-466.5585001358066,-706.6861090919393
5400,15.0012,679.9840846089098,634.3392093116031,684.9849655251289,543.4866330976321,226.4903368261938,422.9555710071339
5406,15.017868,-55.17901036454414,-134.4070688874964,-34.20913253544009,-431.4755935596954,-421.4064320313477,-323.33574851118976
5412,15.034536,-45.47915432123264,-65.44762192561183,-66.35700700649238,-199.7119424622266,-346.19395034859826,-386.9263635902885
5418,15.051204,-73.0561883711476,16.13968727335218,65.72337339651426,-464.0418435317053,-412.8680015790456,-170.87321603563748
5424,15.067872,-92.88101025453552,56.75782135060731,66.96829487666812,-348.9097792208933,-305.2351782229836,-354.41849370041393
5430,15.08454,-48.90356306437394,109.6080437327947,0.6727690798901769,-406.8069402158193,-306.1074005119193,-71.48301367749771
5436,15.101208,-80.57006307676029,130.08473027147852,-58.03232974739936,-120.22148327072377,-220.64759473267617,-334.1010456164918
5442,15.117876,-50.68278021331574,-70.55488080284817,-13.674146235407813,-386.8273927487381,-434.68428927509007,-191.4522827741905
5448,15.134544,30.18545580319808,100.00646177397137,-52.56581384489368,-388.5565314022665,-178.3862225051111,-271.50312814944715
5454,15.151212,12.240999336444249,-17.17999055080707,37.25397114007815,-332.742352166095,-288.86698909304255,-150.22206551474653
5460,15.16788,-155.87509203848433,36.47723625116744,-249.8614675589822,-308.73783058224114,-219.3443407489016,-28.247398522650272
5466,15.184548,39.46660113430698,-94.62913488999266,36.603788778395256,-478.314654066715,-233.69787485632952,-302.31129067153444
5472,15.201216,89.69725049870272,-7.51718180207984,-77.77882439632164,-91.76462001477655,92.80492752188572,-145.36511916046507
5478,15.217884,-101.13228900515072,95.95229730214471,-72.66681352144717,-332.51508734244834,-80.37348111070443,-39.19639816057722
5484,15.234552,-34.04041050028391,-217.95914023729492,-77.73716305798695,-206.6043729468349,-102.14135774707256,-42.32180231369726
5490,15.25122,-90.91023083985932,-40.702937820094135,-46.71014469169868,-295.7502573693898,91.95819345497485,-36.845797182011154
5496,15.267888,-94.31865776619745,-16.454235955882154,-15.699280930859532,-148.06785029861686,143.20054848034425,78.66813735525413
5502,15.284556,-107.86125478609488,-16.863898089971855,-68.87235114574302,-435.5752707980461,-53.22243475401955,-77.25442793187088
5508,15.301224,-70.2404036984657,29.843404582284396,29.155132711548667,-42.10670765318893,127.033046783692,110.8020367073436
5514,15.317892,-59.84463047072941,-65.834513690989,68.97681849692107,-138.22513935249418,165.3482922235255,115.55397989027902
5520,15.33456,-47.09960004909656,-272.3534126137218,28.15120725559226,-110.88316523072032,219.59315535403036,28.92829162952578
5526,15.351228,-72.96314510853395,-15.564535483489784,-3.4211307554891093,-199.19876455355265,12.764296082157225,27.111372140934375
5532,15.367896,84.81699892686535,-115.8217097849539,-105.6979720390463,-66.58309342662821,138.5393508415599,126.49044296019322
5538,15.384564,71.30710440212786,-193.4565366504188,-10.2600206556276,-66.324689237705,46.65096861550245,154.22926382564708
5544,15.401232,-68.71647417711006,-63.06166868357965,97.05468604445667,-21.828024895805008,112.13122590674402,234.57490711901443
5550,15.4179,22.34926725530788,12.481424273771452,165.32742707298337,44.3911258872901,80.71573542741837,212.87081394091845
5556,15.434568,57.64824954801893,-98.07362107114984,21.44948142702401,4.93620331444736,141.4613337729048,176.59858954326657
5562,15.451236,78.12726613409681,369.2569846957998,94.74678670948028,28.30098549049752,490.66826858002577,213.41070956805837
5568,15.467904,152.61592378275873,254.689120652475,120.26317467621249,50.46393399292821,154.9200959212955,239.7884256077902
5574,15.484572,132.90082359154607,-182.0192560997043,63.4652058171238,244.1450555644252,11.399516192447884,276.1193404829721
5580,15.50124,224.2217483346281,-114.57063727094432,63.346419916411605,-29.76073971668076,39.7358816094862,274.5642150284384
5586,15.517908,124.85707979563912,138.48675454543064,157.5567508438575,264.7613243247807,212.7743310109944,302.3451168080576
5592,15.534576,280.1493864578172,297.6712520856355,273.85227009427206,449.0407409900168,297.77850292986125,375.3712662951467
5598,15.551244,197.41761527499,151.17774070173482,208.39048420997963,-233.2468468446509,152.30450026533208,619.2708357378773
5604,15.567912,293.86373793853375,262.99494605616803,258.21656835111224,352.27722938186514,188.78984043922688,360.8894755007296
5610,15.58458,399.7021087873817,30.19766697608083,85.92427316538684,243.18728805098988,-52.52323413080772,319.7592169320003
5616,15.601248,286.9291698689626,127.84072402803578,188.3694204877036,188.4124721867723,34.67518671370338,223.9912523355522
5622,15.617916,358.91729249893126,-12.84486572797833,83.4629534943961,503.47749186781664,-154.31856930486512,248.7610985023781
5628,15.634584,298.9105779082322,11.247014423014347,151.37895989098422,664.6293526370054,-122.6380831753295,209.4069612536528
