Timestamp,Rotation X,Rotation Y,Rotation Z,Rotation W,Acceleration X,Acceleration Y,Acceleration Z
2026-01-14 17:14:05.491,-36784740,14561640,58220640,44594680,3864746,5215454,1609375
2026-01-14 17:14:05.501,-157095,5,-18189530,25469480,7973940,35327150,-88378900,16201170
2026-01-14 17:14:05.511,-1484648,1457023,5824655,79722140,38085940,-44281010,15712890
2026-01-14 17:14:05.521,-3663539,14561630,58272430,4446780,44799800,11962890,15888670
2026-01-14 17:14:05.531,-1286120,-18230100,25515230,79696250,4567871,-6561279,16572270
2026-01-14 17:14:05.541,-36505940,-18255130,25541990,44355590,48999020,-12207030,16777340
2026-01-14 17:14:05.551,35264700,34250490,38635380,43335320,5683594,-115234400,16083980
2026-01-14 17:14:05.561,-91496,25,-1830433,2559637,7963583,6142578,-793457,15351560
2026-01-14 17:14:05.571,-75958,75,1448395,5845370,7960130,6508789,-9631348,14667970
2026-01-14 17:14:05.581,-36136500,14449420,58505490,44034490,65283200,-14038090,14052730
2026-01-14 17:14:05.591,35560770,1441488,5855726,43557160,65234380,-17407230,13330080
2026-01-14 17:14:05.601,-35914670,-18465740,25762960,43842000,66503900,-15795900,12724610
2026-01-14 17:14:05.611,3967457,-18516670,25815610,3975410,6640625,-13549810,12587890
2026-01-14 17:14:05.621,13810,75,1427679,5869538,7946320,71484380,-9301758,12441410
2026-01-14 17:14:05.631,-35570270,-18603850,25901070,43547660,68310540,-14282230,12734380
2026-01-14 17:14:05.641,52654,5,-18629740,25926960,7942003,6040039,-24743650,12919920
2026-01-14 17:14:05.651,72506,25,1418184,5879033,7941141,5385742,-38061520,12871090
2026-01-14 17:14:05.661,-35224140,1415593,5881625,43255050,53027340,-41430660,12705080
2026-01-14 17:14:05.671,36336760,-18690170,25987380,44162240,5288086,-39770510,12285160
2026-01-14 17:14:05.681,36442070,1413867,5885074,44246830,57421880,-28393560,11875
2026-01-14 17:14:05.691,-34867640,14138680,58868020,42955530,6899414,42419430,11416020
2026-01-14 17:14:05.701,-34745940,-18712610,26016730,42852810,82910160,44750980,10595700
2026-01-14 17:14:05.711,1950764,14181840,58876650,79325090,79833980,46313480,10361330
2026-01-14 17:14:05.721,215793,8,34304860,38770900,7932511,7109375,30444340,10712890
2026-01-14 17:14:05.731,238235,3,-18640970,25950270,7932508,71972660,22045900,10517580
2026-01-14 17:14:05.741,-34271200,1428540,5882488,42464390,7036133,2631836,10097660
2026-01-14 17:14:05.751,282258,3,14337210,58790330,7933372,68603520,33789060,90185540
2026-01-14 17:14:05.761,306427,3,14371740,58755810,7935099,62158200,27514650,82177740
2026-01-14 17:14:05.771,37525340,14414900,58712650,45131570,5776367,2692871,7260742
2026-01-14 17:14:05.781,354763,3,-18458840,25769860,7936824,5966797,34448240,6459961
2026-01-14 17:14:05.791,37816230,1447530,5861769,45375850,5102539,33447270,59375
2026-01-14 17:14:05.801,4039628,14501210,58557280,79428660,46118160,22717280,6147461
2026-01-14 17:14:05.811,-33395080,14509850,58496860,41769540,42114260,13085940,5966797
2026-01-14 17:14:05.821,-33259570,1453572,5843645,41663370,40307620,-9414673,57666020
2026-01-14 17:14:05.831,-33133550,-18260310,25554070,41564960,37182620,-12390140,52246100
2026-01-14 17:14:05.841,508405,8,1458753,5831559,7952362,43359380,-12158200,43432620
2026-01-14 17:14:05.851,534302,8,14613430,58272440,7954088,5410156,-36499020,2915039
2026-01-14 17:14:05.861,38883960,-18151550,25438410,46276130,5859375,84106450,21069340
2026-01-14 17:14:05.871,3902640,-18117020,25403880,4639265,66503900,2548828,9667969
2026-01-14 17:14:05.881,6145752,-18083360,25368490,79549510,6791992,27490230,61798100
2026-01-14 17:14:05.891,39328500,-18022940,25308070,46642980,6411133,26049800,51635740
2026-01-14 17:14:05.901,667228,8,3426515,3858617,7957541,56933590,12585450,3173828
2026-01-14 17:14:05.911,-32004520,-17884830,25169960,40656920,5292969,61279300,-21118160
2026-01-14 17:14:05.921,-31869010,-17807150,25092280,40550740,4975586,5090332,-17443850
2026-01-14 17:14:05.931,-31742980,15062270,57771800,40452340,40405270,-14196780,-22009280
2026-01-14 17:14:05.941,769945,5,1515722,5765959,7968762,34887700,-25585940,-265625
2026-01-14 17:14:05.951,795841,3,-17507630,24787580,7972214,31835940,-30419920,-35351560
2026-01-14 17:14:05.961,-31379590,15338490,57426530,40177000,2775879,-38891600,-36108400
2026-01-14 17:14:05.971,-31251840,-17303920,24576970,40080320,20703120,-51220700,-38891600
2026-01-14 17:14:05.981,872665,15519750,57193470,7985163,20727540,-5439453,-39990230
2026-01-14 17:14:05.991,40890830,-1709937,2436720,47980890,23852540,-54052740,-3959961
2026-01-14 17:14:06.001,9244532,15701020,56960420,79920670,2553711,-47998050,-43823240
2026-01-14 17:14:06.011,-30753790,1579595,5684822,39697940,26513670,-49365230,-43798830
2026-01-14 17:14:06.021,-30618280,-16790340,24054750,39591760,29125980,-50683590,-4482422
2026-01-14 17:14:06.031,-30483620,1599448,5664970,39484730,3137207,-43188480,-48461910
2026-01-14 17:14:06.041,-30339470,16106710,56554740,39369930,43847660,-18041990,-52001950
2026-01-14 17:14:06.051,-30196190,-19748410,20475200,39254270,51904300,76660160,-57666020
2026-01-14 17:14:06.061,-30042540,34330760,38330680,39131700,5336914,23474120,-66552740
2026-01-14 17:14:06.071,42164000,-16237910,23502320,49055530,42285160,31030270,-7451172
2026-01-14 17:14:06.081,11462870,16555540,56054090,80101940,32714840,359375,-82128900
2026-01-14 17:14:06.091,1177361,-15983270,23239060,8015372,21960450,46728520,-9379883
2026-01-14 17:14:06.101,12101610,1675405,5571746,80205520,11834720,49780270,-10283200
2026-01-14 17:14:06.111,1241235,1684039,5551030,8027457,-1473999,41992190,-10859380
2026-01-14 17:14:06.121,1273173,-15585350,22808340,8035224,-1517334,2734375,-10380860
2026-01-14 17:14:06.131,-29014510,16987130,55087340,38364340,-28955080,7550049,-97802740
2026-01-14 17:14:06.141,-28882440,-15307410,22499320,38271980,-3840332,-13024900,-9033203
2026-01-14 17:14:06.151,43799710,17142500,54638500,50492700,-4736328,-33911130,-80322260
2026-01-14 17:14:06.161,1398333,-15010480,22174770,8068889,-54052740,-47558590,-72753900
2026-01-14 17:14:06.171,-28488840,-14851660,22005590,37992320,-53515620,-46166990,-671875
2026-01-14 17:14:06.181,44386660,-17907360,18621880,51010600,-49804690,-33618160,-70947260
2026-01-14 17:14:06.191,-2821089,-14532290,21668950,3778687,-53271480,-2998047,-7241211
2026-01-14 17:14:06.201,-28063300,-14363970,21492010,37675530,-62841800,-3486328,-7729492
2026-01-14 17:14:06.211,-2791568,33820620,37373420,3756420,-7260742,-32128910,-84716800
2026-01-14 17:14:06.221,15813230,17936620,53153850,81034160,-75390620,-33569340,-89160160
2026-01-14 17:14:06.231,1612397,-13903900,21002590,8108594,-7783203,-2734375,-88183590
2026-01-14 17:14:06.241,-27464260,-13762340,20850680,37221500,-7324219,-11328130,-9145508
2026-01-14 17:14:06.251,-27308030,-13620780,20698760,37101520,-75146480,-57556150,-9394531
2026-01-14 17:14:06.261,45942090,-13497350,20563240,52355420,-7451172,6085205,-91259770
2026-01-14 17:14:06.271,17384190,-13373920,20427720,81258580,-67285150,27734380,-90966800
2026-01-14 17:14:06.281,1768632,-13250480,20292200,8130174,-59277340,4560547,-93066410
2026-01-14 17:14:06.291,-26711580,18497680,51781420,36644910,-6220703,49951170,-9301758
2026-01-14 17:14:06.301,-31059010,-13006210,20018580,32055790,-7578125,34301760,-89404300
2026-01-14 17:14:06.311,-26436230,18601260,51384360,36436890,-9082031,97961420,-82958980
2026-01-14 17:14:06.321,-26308480,18661680,51203100,36340210,-98828130,-43396000,-8261719
2026-01-14 17:14:06.331,-26172960,18713470,51030460,36234040,-98339840,-6915283,-84765620
2026-01-14 17:14:06.341,-30586770,18756630,50883720,31595810,-98535150,-8886719,-8623047
2026-01-14 17:14:06.351,19602530,-12490900,19446300,81543420,-9711914,-10882570,-81689460
2026-01-14 17:14:06.361,19835590,-15543490,16238340,81552060,-8823242,44067380,-85791020
2026-01-14 17:14:06.371,-25673190,18894740,50521190,35836120,-76464850,20727540,-89208980
2026-01-14 17:14:06.381,-25559250,18929260,50417610,35742900,-75341800,16101070,-8535156
2026-01-14 17:14:06.391,20465700,18972420,50322660,81560690,-7583008,26611330,-80566410
2026-01-14 17:14:06.401,-25341730,-12143040,19069100,35563360,-69140620,-36712650,-75341800
2026-01-14 17:14:06.411,20819600,19076000,50150020,81552060,-6538086,-14404300,-71533200
2026-01-14 17:14:06.421,2099226,19136420,50089610,8153481,-59472660,-2866211,-6821289
2026-01-14 17:14:06.431,21147600,19196840,50029180,81517540,-50439450,-28833010,-63183590
2026-01-14 17:14:06.441,-24958490,19274530,49968760,35238810,-42749020,-28198240,-6147461
2026-01-14 17:14:06.451,21441080,19360840,49916970,81465740,-37890620,-2722168,-6069336
2026-01-14 17:14:06.461,-24783260,-11743390,18674630,35086030,-34521480,-26220700,-6166992
2026-01-14 17:14:06.471,-24690900,33158580,36188300,35005760,-33398440,-24682620,-63623050
2026-01-14 17:14:06.481,21846770,19611160,49752970,81405330,-32421880,-21289060,-59375
2026-01-14 17:14:06.491,21967620,33199140,36199510,81388060,-2775879,-15344240,-5410156
2026-01-14 17:14:06.501,-24468210,19783800,49632130,34814140,-22766110,-7434082,-5263672
2026-01-14 17:14:06.511,2221794,-11374820,18318140,8136217,-13891600,87402340,-50683590
2026-01-14 17:14:06.521,-24336140,-11288510,18231830,34704510,-97229010,18444820,-49365230
2026-01-14 17:14:06.531,-24278310,-11193560,18136880,34658760,-1920166,1586914,-5361328
2026-01-14 17:14:06.541,-24221340,-11089980,18033300,34612150,-31884770,7366943,-5185547
2026-01-14 17:14:06.551,-24172140,20249910,49166020,34575040,-44970700,-35949710,-54833980
2026-01-14 17:14:06.561,-24123800,34555700,34842960,34537060,-5810547,-10546880,-5644531
2026-01-14 17:14:06.591,-24005550,20586540,48777590,34448150,-5463867,20019530,-546875
2026-01-14 17:14:06.601,-23975340,20672860,48691280,34426570,-52685550,21264650,-50439450
2026-01-14 17:14:06.611,23115620,20750540,48613580,81465740,-52734380,20666500,-50097660
2026-01-14 17:14:06.621,23184680,20836860,48527270,81465740,-5292969,16723630,-5649414
2026-01-14 17:14:06.631,23236470,-10298460,17236590,81465740,-5761719,5493164,-59375
2026-01-14 17:14:06.641,23296890,21009490,48406430,81457110,-56347660,5630493,-6894531
2026-01-14 17:14:06.651,23348680,21104440,48363270,81457110,-5102539,1227417,-76953130
2026-01-14 17:14:06.661,-2377766,21182130,48320110,3426172,-5708008,-58937070,-79785150
2026-01-14 17:14:06.671,-23750910,21268440,48302850,34236680,-5,440979,-82128900
2026-01-14 17:14:06.681,2346954,21346130,48294220,8138807,-34570310,20947270,-8769531
2026-01-14 17:14:06.691,2349542,-13073620,13770890,8136216,-25878910,24963380,-8647461
2026-01-14 17:14:06.701,-23673230,21536020,48276950,34158990,-21447750,26489260,-8828125
2026-01-14 17:14:06.711,23504050,21639600,48276950,81319010,-171875,24060060,-83154300
2026-01-14 17:14:06.721,23512680,3499678,3502332,81293110,-11383060,18103030,-8149414
2026-01-14 17:14:06.731,-23643020,-9691646,16704020,34120150,-11328130,83984380,-8286133
2026-01-14 17:14:06.741,-23644750,-9616551,16641010,34118420,-9063721,-7152,558,-8261719
2026-01-14 17:14:06.751,2346954,22105720,48242420,8121544,-5291748,-76293940,-84472660
2026-01-14 17:14:06.761,49429290,22226560,48242420,55203880,-8001709,-16247560,-8847656
2026-01-14 17:14:06.771,23409100,-9426655,16485630,81172260,-5279541,-23950200,-88623050
2026-01-14 17:14:06.781,23374570,-12904350,12904360,81155010,-19302370,-30200200,-8881836
2026-01-14 17:14:06.791,2332279,-9329115,16410540,8112047,66101070,-31811520,-83935540
2026-01-14 17:14:06.801,-23697400,-9279914,16373420,34134820,12561040,-30493160,-7949219
2026-01-14 17:14:06.811,49250610,2273581,4832009,55037280,20288090,-21557620,-7446289
2026-01-14 17:14:06.821,2314153,-9191006,16306960,8106005,23254400,-12915040,-72802740
2026-01-14 17:14:06.831,-23787170,34360970,36902140,34200420,13427730,-12512210,-7680664
2026-01-14 17:14:06.841,-23834640,-9095198,16230140,34239260,1295166,-27923580,-7861328
2026-01-14 17:14:06.851,-23890750,-9040817,16180940,34286740,35980220,-6866455,-76904300
2026-01-14 17:14:06.861,22796250,-898647,2,1613173,81094580,-11425780,-14611820,-74902340
2026-01-14 17:14:06.871,22701310,23227830,48259690,81120480,-17602540,-12138370,-7841797
2026-01-14 17:14:06.881,-24109130,23262360,48225170,34482680,-21447750,14196780,-74365230
2026-01-14 17:14:06.891,48885490,23296880,48190640,54763660,-2770996,19213870,-69921870
2026-01-14 17:14:06.901,-24315420,-12055090,12769620,34673440,-33007810,21313480,-61279300
2026-01-14 17:14:06.911,-24431950,-8807763,15947880,34781330,-43774420,13110350,-51904300
2026-01-14 17:14:06.921,-24557980,-8784456,15919400,34897000,-5830078,16159060,-4345703
2026-01-14 17:14:06.931,2178637,23322780,47992110,8150028,-6875,-8062744,-39086910
2026-01-14 17:14:06.941,48593740,-8753384,15881420,54589300,-78271490,-16870120,-35668940
2026-01-14 17:14:06.951,21423820,-8755111,15879690,81638380,-8852539,-26904300,-27783200
2026-01-14 17:14:06.961,-25081920,23270990,47940320,35374330,-9667969,-26391600,-29492190
2026-01-14 17:14:06.971,-25208800,-8793088,15910770,35489130,-9785156,-20300290,-3203125
2026-01-14 17:14:06.981,48285590,23176040,47966210,54379550,-9921875,-1607666,-29956060
2026-01-14 17:14:06.991,2067287,-8882857,15993630,8185417,-11015630,-25927730,-23352050
2026-01-14 17:14:07.001,48115540,-8936375,16043690,54256120,-10976560,-25512700,-21472170
2026-01-14 17:14:07.011,2029307,-8997658,16103250,8194048,-10136720,-13305660,-24121090
2026-01-14 17:14:07.021,51036000,34248750,36772660,51042180,-96435540,2412796,-28686520
2026-01-14 17:14:07.031,1991328,-9138354,16238770,8200954,-95751950,6512451,-31713870
2026-01-14 17:14:07.041,1971476,22727200,48242430,8205271,-10166020,-3375244,-2614746
2026-01-14 17:14:07.051,1951623,-9279914,16373420,8207859,-11123050,-9136963,-16259770
2026-01-14 17:14:07.061,47579520,22563200,48354640,53859920,-11660160,-13342290,-748291
2026-01-14 17:14:07.071,1912780,-9419746,16509800,8215627,-12285160,-14013670,14633180
2026-01-14 17:14:07.081,1892063,2241646,4846685,8219080,-12285160,19012450,38116460
2026-01-14 17:14:07.091,1872211,2235603,4852727,8221670,-13251950,20324710,35461420
2026-01-14 17:14:07.101,-26821200,-9593245,16681580,36897820,-15107420,19396970,83740230
2026-01-14 17:14:07.111,-26942050,-9645035,16733370,37001400,-17451170,25421140,18066410
2026-01-14 17:14:07.121,18109250,-9695964,16786020,82294380,-19267580,-14147950,22753910
2026-01-14 17:14:07.131,17910720,22148870,48768960,82303020,-2078125,-28979490,2849121
2026-01-14 17:14:07.141,-27289900,22097090,48872540,37292290,-21855470,-3408203,26782230
2026-01-14 17:14:07.151,1751368,34161580,36859840,8228577,-21113280,-17346190,1751709
2026-01-14 17:14:07.161,17323770,-10065400,17176170,82251230,-18876950,2175293,8125305
2026-01-14 17:14:07.171,-27574750,-10208680,17326360,37508080,-16533200,5625,-9515381
2026-01-14 17:14:07.181,-27655880,21682770,49580340,37565050,-12226560,11835940,-2854004
2026-01-14 17:14:07.191,16745450,-10579850,17714780,82087220,-43554690,24414060,-7368164
2026-01-14 17:14:07.201,-27819890,-10775780,17915910,37677260,-1842041,2734375,-65185550
2026-01-14 17:14:07.211,1630524,2119939,5021908,8200954,-11484380,6040039,36035160
2026-01-14 17:14:07.221,1608947,21078550,50426240,8196640,-18261720,-12480470,87109380
2026-01-14 17:14:07.231,-28094370,20966340,50711090,37868880,-15380860,-12597660,5908203
2026-01-14 17:14:07.241,-28145300,-11502570,18691030,37887010,-8100586,-39990230,27514650
2026-01-14 17:14:07.251,45232560,20750540,51375720,51839250,-44262700,-20727540,30981440
2026-01-14 17:14:07.261,45057350,20664230,51703730,51669210,-4416504,-73779300,48168940
2026-01-14 17:14:07.271,44884710,20603800,52057630,51496570,-32885740,-10820310,4243164
2026-01-14 17:14:07.281,-28241110,20526120,52428790,37842990,-53131100,-9199219,17907720
2026-01-14 17:14:07.291,-28232480,-12521110,19847670,37799830,25976560,-51123050,-61431880
2026-01-14 17:14:07.301,14682480,35128320,38413540,80645730,50927740,-29003910,-16625980
2026-01-14 17:14:07.311,-28205720,-12977720,20357800,37705740,57373050,-47753900,-8984375
2026-01-14 17:14:07.321,1442354,-13205600,20613300,8024868,6381836,-5756836,-3933716
2026-01-14 17:14:07.331,14294050,20034110,54319130,80050150,7558594,-4897461,23544310
2026-01-14 17:14:07.341,-28134080,19956430,54690290,37535700,8911133,-29833980,7043457
2026-01-14 17:14:07.351,-28108190,-13827080,21321100,37475280,9711914,-19787600,1665039
2026-01-14 17:14:07.361,-28090060,-13993670,21517040,37424350,96240230,-93688970,28393560
2026-01-14 17:14:07.371,13776150,-14142140,21696580,79238770,9873047,20828250,32641600
2026-01-14 17:14:07.381,1363807,36121830,39733320,7904889,9472656,8935547,3239746
2026-01-14 17:14:07.391,13499940,37892620,38256010,78876240,8515625,12902830,3803711
2026-01-14 17:14:07.401,42773400,-14452010,22094490,49309300,8076172,11303710,3684082
2026-01-14 17:14:07.411,42626660,-14515890,22185990,49162560,7211914,5149,841,4724121
2026-01-14 17:14:07.421,1307701,20051380,56908630,7843603,5605469,-18286130,51416020
2026-01-14 17:14:07.431,-28126310,20103170,57098530,37249990,4501953,-34228520,5336914
2026-01-14 17:14:07.441,-28149620,2015494,5730570,37243950,35253900,-46679690,53027340
2026-01-14 17:14:07.451,1262815,-14768800,22537300,7803896,36694340,-48876950,56103520
2026-01-14 17:14:07.461,-28204000,-14851660,22644340,37241360,3959961,-3972168,6166992
2026-01-14 17:14:07.471,-28227300,-14926760,22741870,37235320,44433590,-30810550,6801758
2026-01-14 17:14:07.481,-28259240,2025852,5811708,37237900,52001950,-19519040,7363281
2026-01-14 17:14:07.491,-28298940,-18631380,19417040,37249990,5390625,-14770510,80078130
2026-01-14 17:14:07.501,11825390,20258540,58496860,77408860,54589840,-11798100,8588867
2026-01-14 17:14:07.511,-28361090,20258540,58686750,37256900,54785160,-82214350,8798828
2026-01-14 17:14:07.521,41066920,37628060,41489870,47632170,5541992,-13122560,89697260
2026-01-14 17:14:07.531,-28412880,20241280,59049280,37256900,57958980,-9692383,8696289
2026-01-14 17:14:07.541,-28433600,2021537,5923057,37253440,63134770,17626950,77441410
2026-01-14 17:14:07.551,-28444820,-15631100,23591230,37242220,6958008,30859380,78027340
2026-01-14 17:14:07.561,1102265,2015496,5958445,7672695,68115230,19128420,87597660
2026-01-14 17:14:07.571,10927700,20129070,59748450,76614740,68896480,16992190,89501950
2026-01-14 17:14:07.581,-28476750,-15903860,23905420,37210280,7578125,3149414,8232422
2026-01-14 17:14:07.591,40281440,20085910,60067820,46846680,80078130,42260740,80566410
2026-01-14 17:14:07.601,10660120,-16053190,24084100,76295370,84765620,5185547,7685547
2026-01-14 17:14:07.611,40111390,38208970,42238240,46671460,8457031,5258789,70654300
2026-01-14 17:14:07.621,-28443090,-16186120,24244650,37105840,8466797,48095700,6323242
2026-01-14 17:14:07.631,-28424960,-16239630,24311970,37072180,8203125,34521480,57714840
2026-01-14 17:14:07.641,10435700,-16292290,24380170,75881050,79052740,25683590,56152340
2026-01-14 17:14:07.651,-28380080,-19991570,20801730,36996220,74609380,13842770,5336914
2026-01-14 17:14:07.661,10349380,-16389830,24507050,75673890,6767578,37719730,5
2026-01-14 17:14:07.671,10306220,3862239,4272247,75561680,60058590,-8282471,49731440
2026-01-14 17:14:07.681,1026308,38694940,42805340,7544949,5957031,-18041990,47485350
2026-01-14 17:14:07.691,10219910,-16510670,24679680,75337260,5986328,-23730470,4519043
2026-01-14 17:14:07.701,10185380,-16536570,24722840,75216410,6113281,-2915039,43041990
2026-01-14 17:14:07.711,-28210040,2035347,6169923,36734680,6401367,-27319340,39624020
2026-01-14 17:14:07.721,-28174650,20422540,61837310,36683760,7114258,-29003910,39648440
2026-01-14 17:14:07.731,39229230,-16619430,24864400,45706440,70751950,-40600580,41577150
2026-01-14 17:14:07.741,39148100,-16634100,24901520,45614940,73291020,-49023440,44628900
2026-01-14 17:14:07.751,1003003,20655600,62243000,7457768,7583008,-55908200,39794920
2026-01-14 17:14:07.761,39004810,2075052,6238973,45447490,7988281,-5493164,37329100
2026-01-14 17:14:07.771,10004110,2084546,6253648,74292820,82958980,-48168940,32080080
2026-01-14 17:14:07.781,-27868220,-16690210,25052570,36282380,8955078,-3630371,22631840
2026-01-14 17:14:07.791,-27798300,-16695390,25081920,36196930,9628906,-19970700,15002440
2026-01-14 17:14:07.801,38722560,21138970,62968060,45108270,10185550,-4373169,62072750
2026-01-14 17:14:07.811,-27674870,2123391,6309756,36044150,10263670,13354490,-87509150
2026-01-14 17:14:07.821,-27612720,-16721280,25176870,35968190,10175780,27856440,-97839350
2026-01-14 17:14:07.831,9978218,21423810,63339220,73438290,9741211,26953120,-6896973
2026-01-14 17:14:07.841,9969588,-1671872,2521398,73326080,90185540,1595459,-53894040
2026-01-14 17:14:07.851,38423900,-16718690,25231240,44750920,8256836,13293460,-7702637
2026-01-14 17:14:07.861,-27439230,-16718690,25248510,35744630,828125,21948240,-11529540
2026-01-14 17:14:07.871,41159710,21743190,63710390,41790680,79785150,17663570,-10845950
2026-01-14 17:14:07.881,990916,3,4070525,4490370,7293765,8022461,23901370,-13745120
2026-01-14 17:14:07.891,989190,5,4076567,4496412,7286860,8261719,43237300,-20617680
2026-01-14 17:14:07.901,-27337380,42715400,43135240,35604800,8173828,49072260,-19763180
2026-01-14 17:14:07.911,-27324430,-16685890,25281310,35583220,7583008,38500980,-16870120
2026-01-14 17:14:07.921,-27327880,22045300,63995230,35579770,71484380,25732420,-15112310
2026-01-14 17:14:07.931,9762424,2208842,6402113,72670070,65722660,16796880,-11895750
2026-01-14 17:14:07.941,9736524,-20526820,21388600,72644180,6542969,77941900,-5847168
2026-01-14 17:14:07.951,38009580,22192030,64072920,44302070,65527340,60943600,-3479004
2026-01-14 17:14:07.961,9650212,22252460,64081550,72592380,6376953,47454830,-3390503
2026-01-14 17:14:07.971,-27371040,-16568500,25208810,35588400,6201172,4663086,-7171631
2026-01-14 17:14:07.981,-27373630,-16539150,25186370,35585810,5878906,54626460,-11584470
2026-01-14 17:14:07.991,37886150,-16501170,25155290,44183820,578125,15792850,-14123540
2026-01-14 17:14:08.001,-27395210,22502780,64107450,35598750,5126953,-34454340,-17285160
2026-01-14 17:14:08.011,-31086970,22563200,64098810,31906990,48266600,-9161377,-21447750
2026-01-14 17:14:08.021,9486210,-16406230,25077600,72480170,47436520,-9490967,-22277830
2026-01-14 17:14:08.031,-27409020,-16377740,25054300,35602200,4855957,-7348633,-20080570
2026-01-14 17:14:08.041,9443054,-16339760,25023220,72454270,50683590,-5581665,-17810060
2026-01-14 17:14:08.051,-27412470,41387150,45516540,35598750,5097656,-10498050,-15686040
2026-01-14 17:14:08.061,-27415060,41425130,45547620,35596160,47387700,-9963989,-23925780
2026-01-14 17:14:08.071,-27416790,-16225820,24930000,35594440,48339840,7141113,-2915039
2026-01-14 17:14:08.081,9356738,-16187840,24898930,72367960,45361330,-9576416,-22363280
2026-01-14 17:14:08.091,933085,-16158490,24876490,7235932,42285160,-68237300,-2401123
2026-01-14 17:14:08.101,931359,-16121380,24844550,7234206,44604490,4510498,-28515620
2026-01-14 17:14:08.111,930495,5,-16093760,24820380,7233342,4477539,6161499,-25512700
2026-01-14 17:14:08.121,930494,8,2321058,6409019,7233343,43896480,6137085,-24230960
2026-01-14 17:14:08.131,9287682,41617620,45700400,72333430,43164060,12487790,-24389650
2026-01-14 17:14:08.141,9287682,23270990,64047020,72333430,43017580,20300290,-234375
2026-01-14 17:14:08.151,9279052,-16003990,24737520,72342060,41918940,23425290,-20288090
2026-01-14 17:14:08.161,3766432,-15969460,24702990,4397406,36376950,22631840,-15942380
2026-01-14 17:14:08.171,-27475480,-15934940,24668460,35639320,2915039,23522950,-1459961
2026-01-14 17:14:08.181,925316,2340047,6393481,7240249,25756840,26635740,-11608890
2026-01-14 17:14:08.191,37676400,-15857250,24590780,43996510,2133789,27905270,-8203125
2026-01-14 17:14:08.201,-27541080,23486780,63831230,35711830,1920166,2454834,-15396120
2026-01-14 17:14:08.211,-27565250,2352993,6377083,35739450,14794920,15698240,3491211
2026-01-14 17:14:08.221,-27589420,2357309,6369314,35767070,10882570,-1777649,8691406
2026-01-14 17:14:08.231,-27613590,23616260,63632700,35794690,9515381,-793457,9655762
2026-01-14 17:14:08.241,921000,5,-15594850,24318020,7265279,55786130,-13244630,10736080
2026-01-14 17:14:08.251,9227262,23693950,63503230,72687330,58898930,-19348140,12164310
2026-01-14 17:14:08.261,9244522,-15511120,24229110,72721860,2848816,-2211914,15844730
2026-01-14 17:14:08.271,-27628260,-19399780,20271400,35831810,3652954,-17297360,16088870
2026-01-14 17:14:08.281,933086,41592590,45552800,7277367,5709839,-11230470,1307373
2026-01-14 17:14:08.291,939128,41586540,45541580,7278230,71899420,1038208,19848630
2026-01-14 17:14:08.301,9460314,-15393730,24104810,72799540,10961910,14575200,2980957
2026-01-14 17:14:08.311,9555262,2384065,6327017,72808170,18383790,13830570,4038086
2026-01-14 17:14:08.321,-27459940,-15316040,24027130,35706650,14916990,447464,4802246
2026-01-14 17:14:08.331,977971,8,23927000,63201120,7280819,11767580,-11608890,43017580
2026-01-14 17:14:08.341,9926428,41613300,45532090,72799540,12023930,-66467280,375
2026-01-14 17:14:08.351,1009907,-15200380,23918370,7278227,124694800,-7006836,37451170
2026-01-14 17:14:08.361,1028897,-15163260,23886430,7274775,16748050,-9338379,38964840
2026-01-14 17:14:08.371,-26939460,-15126150,23854500,35260390,15893560,-19494630,43359380
2026-01-14 17:14:08.381,-26784090,2422047,6311482,35122280,12371830,-54003900,65234380
2026-01-14 17:14:08.391,-26619220,24306800,63132060,34976410,7598877,-8745117,8027344
2026-01-14 17:14:08.401,11272970,24401740,63140700,72488800,93566900,-8623047,7089844
2026-01-14 17:14:08.411,-30350140,-14959560,23727610,30434110,17614750,-7163086,61328120
2026-01-14 17:14:08.421,39073000,2460026,6321837,45103090,22351070,-7368164,5839844
2026-01-14 17:14:08.431,1231741,-14884460,23681860,7210037,25439450,-91796870,5258789
2026-01-14 17:14:08.441,1273172,247987,7,633478,5,7192774,31762700,-10908200,44262700
2026-01-14 17:14:08.451,39531340,-14849070,23682720,45387070,3713379,-13027340,33007810
2026-01-14 17:14:08.461,13655310,24988700,63555020,71504780,45288090,-15214840,24072270
2026-01-14 17:14:08.471,39845540,-14861160,23739690,45556250,5371094,-14638670,38085940
2026-01-14 17:14:08.481,-23857080,-14891370,23795800,32421430,66796880,-7265625,-3071289
2026-01-14 17:14:08.491,15226280,25256280,64081550,70624370,9345703,15742190,-11630860
2026-01-14 17:14:08.501,15787330,-15010480,23970160,70304990,12148440,4984375,-18681640
2026-01-14 17:14:08.511,-22613260,2543754,6433188,31248390,12333980,33378910,-11236570
2026-01-14 17:14:08.521,1666778,-14817130,23818240,6992519,87402340,-13098150,12841800
2026-01-14 17:14:08.531,1715115,-14698020,23730200,6966624,42211910,39868160,-30578610
2026-01-14 17:14:08.541,-21533440,2616260,6441820,30239350,35791020,28222660,-11787110
2026-01-14 17:14:08.551,18091990,2637837,6440955,69226030,6044922,35585940,-8496094
2026-01-14 17:14:08.561,-20911960,2661145,6434915,29669650,59765620,20429690,60455320
2026-01-14 17:14:08.571,18877470,-14148180,23261500,68958450,36523440,4404297,4350586
2026-01-14 17:14:08.581,1928317,2709483,6419377,6882898,11639400,-3425293,19641110
2026-01-14 17:14:08.591,1968888,27267460,64124710,6871677,-140625,-6621094,-15783690
2026-01-14 17:14:08.601,41924910,-13760620,22906740,46774180,-25219730,-8652344,-35473630
2026-01-14 17:14:08.611,20500230,-13699330,22847180,68492340,-25317380,-9291992,-44311520
2026-01-14 17:14:08.621,20897280,-13664810,22812650,68388760,-21716310,-7211914,-4855957
2026-01-14 17:14:08.631,-19032840,-13667390,22810070,27992520,-17785640,-4963379,-44970700
2026-01-14 17:14:08.641,21639610,-13670850,22806610,68233380,-17089840,-26660160,-39013670
2026-01-14 17:14:08.651,-18599530,-13682930,22811790,27614450,-14440920,-23468020,-39404300
2026-01-14 17:14:08.661,-18405320,43775540,47426740,27446140,-17663570,24401860,-42626950
2026-01-14 17:14:08.671,-18246500,27284730,63813970,27311480,-22229000,5395508,-39990230
2026-01-14 17:14:08.681,-18114430,-13714870,22814380,27201860,-27734380,8442383,-43676760
2026-01-14 17:14:08.691,22977520,-13720910,22808330,68121180,-3215332,9428711,-34692380
2026-01-14 17:14:08.701,-17954740,27120720,63615440,27085330,-32910160,83740230,-18200680
2026-01-14 17:14:08.711,-17911590,-13709690,22767770,27059440,-3413086,6557617,-5508423
2026-01-14 17:14:08.721,2334871,27008510,63434180,6830245,-35766600,26782230,9423828
2026-01-14 17:14:08.731,23409100,-13679480,22711660,68380130,-43725580,-13269040,20654300
2026-01-14 17:14:08.741,23460890,-13676890,22696990,68449180,-44555660,-25341800,22180180
2026-01-14 17:14:08.751,2349543,-13682930,22690950,6850096,-39208980,-23303220,30444340
2026-01-14 17:14:08.761,23512680,26792710,63183860,68570020,-3671875,-37280270,39819340
2026-01-14 17:14:08.771,-17937480,-17746290,18644850,27154380,-3466797,-5551758,49731440
2026-01-14 17:14:08.781,2355585,-13724360,22701300,6868223,-3293457,-60009770,4892578
2026-01-14 17:14:08.791,23590370,43001270,46647290,68734020,-2980957,-50878900,4440918
2026-01-14 17:14:08.801,-17952160,-13787370,22741870,27191500,-23046880,-40112300,45141600
2026-01-14 17:14:08.811,-17957340,4289165,4654977,27203580,-105285600,-41479490,48999020
2026-01-14 17:14:08.821,23693950,26343870,62993960,68854860,-83740230,-66308590,5283203
2026-01-14 17:14:08.831,-17940940,26257550,62976700,27202720,-17175290,-87597660,46142580
2026-01-14 17:14:08.841,2378026,-1394620,2285926,6890666,-20812990,-8745117,3395996
2026-01-14 17:14:08.851,-17908130,-14002300,22906740,27183730,-17333980,-67529300,29418940
2026-01-14 17:14:08.861,-17887420,25955440,62985330,27169920,-13049320,-47753900,25976560
2026-01-14 17:14:08.871,-17867570,2585186,6300260,27155250,-14196780,-33544920,21911620
2026-01-14 17:14:08.881,44222660,2573100,6300257,48723210,-10058590,-18054200,15527340
2026-01-14 17:14:08.891,44257180,2561016,6300257,48757740,-101257300,-79589840,11529540
2026-01-14 17:14:08.901,-17857210,-14323400,23172590,27165610,-9484863,-27908320,9710693
2026-01-14 17:14:08.911,-17870160,2535985,6297671,27187180,-8239746,4119873,9320068
2026-01-14 17:14:08.921,-17891730,-14452020,23268410,27217390,-7141113,5340576,117370600
2026-01-14 17:14:08.931,24082370,-14504670,23302060,69277820,-26748660,31555180,24230960
2026-01-14 17:14:08.941,-17959060,24945540,62838590,27305440,2758789,8227539,35229490
2026-01-14 17:14:08.951,24108270,24841960,62769530,69476350,-17807010,119384800,41210940
2026-01-14 17:14:08.961,2410828,-18535400,19409440,6957992,-12536620,16052250,44140620
2026-01-14 17:14:08.971,24108270,-14611700,23333140,69718030,-22375490,2199707,47680660
2026-01-14 17:14:08.981,24099640,-14613430,23314150,69847500,-3269043,3383789,47436520
2026-01-14 17:14:08.991,-18255130,24453530,62329320,27665380,-4482422,3857422,51660160
2026-01-14 17:14:09.001,44814790,-14576310,23230420,49425830,-5102539,36865230,61376950
2026-01-14 17:14:09.011,24039220,-14545240,23175180,70356780,-5883789,33081060,6557617
2026-01-14 17:14:09.021,-18552060,2422047,6183732,28007190,-6220703,27563480,70947260
2026-01-14 17:14:09.031,23944270,-14457190,23038800,70745210,-6875,24194340,77734380
2026-01-14 17:14:09.041,23866580,2409960,6149204,70943730,-72753900,25048830,8027344
2026-01-14 17:14:09.051,45098770,2404783,6131940,49832380,-8251953,12158200,85302740
2026-01-14 17:14:09.061,-23331070,40722510,44437580,24281250,-9140625,-9729004,9165039
2026-01-14 17:14:09.071,23607630,-1427596,2277121,71496160,-99560540,-29858400,9863281
2026-01-14 17:14:09.081,45179050,40532610,44230420,49993790,-10361330,-35717770,10146480
2026-01-14 17:14:09.091,23426360,2384066,6076698,71798270,-10507810,-31298830,9785156
2026-01-14 17:14:09.101,-23813230,-14224140,22667640,24765830,-10390630,-33740230,9482422
2026-01-14 17:14:09.111,-19619790,23693950,60602990,29149170,-10107420,-30810550,95166020
2026-01-14 17:14:09.121,-19705250,-14263840,22679730,29236350,-88671870,-2163086,89941410
2026-01-14 17:14:09.131,45210120,-14304410,22708210,50118090,-8046875,-20935060,85498050
2026-01-14 17:14:09.141,45204080,2340908,6050802,50124130,-74609380,-2944336,7685547
2026-01-14 17:14:09.151,45198900,40045790,43767760,50129310,-72998050,-4699707,7036133
2026-01-14 17:14:09.161,45195450,23176040,60533930,50132760,-6508789,-4260254,5473633
2026-01-14 17:14:09.171,45192860,-14566820,22929180,50135350,-5449219,-3215332,42749020
2026-01-14 17:14:09.181,22942990,-14650540,23000820,72402480,-46826170,-4387207,36694340
2026-01-14 17:14:09.191,45198040,22804880,60611620,50147440,-47070310,-5625,3178711
2026-01-14 17:14:09.201,-19987510,2266676,6064615,29523780,-38500980,-40356440,18518070
2026-01-14 17:14:09.211,-19987500,22554560,60689300,29523780,-32958980,-45440670,38051600
2026-01-14 17:14:09.221,-19996140,22450990,60723830,29532410,-3395996,28686520,-15234380
2026-01-14 17:14:09.231,2290848,-15042420,23351270,7245427,-34814450,34106440,-24499510
2026-01-14 17:14:09.241,47424750,22252450,60766980,47920720,-40014650,31201170,-33618160
2026-01-14 17:14:09.251,22839410,2217474,6079287,72488800,-4658203,24682620,-4189453
2026-01-14 17:14:09.261,-20103170,2209708,6081879,29632540,-50146480,10650640,-4333496
2026-01-14 17:14:09.271,-20148920,-15269430,23555840,29673110,-54003900,-53100580,-3737793
2026-01-14 17:14:09.281,22632250,-15322090,23606770,72540590,-47924800,-32615660,-3059082
2026-01-14 17:14:09.291,45051300,39464010,43365530,50052490,-3869629,15026860,-1887207
2026-01-14 17:14:09.301,-24582660,39460560,43368980,25532840,-29125980,23901370,-8013916
2026-01-14 17:14:09.311,2233878,2185540,6099141,7257512,-23901370,3244629,-17471310
2026-01-14 17:14:09.321,-20428580,-15432570,23720710,29911340,-21398930,28686520,7421875
2026-01-14 17:14:09.331,-20484690,-15430850,23722430,29958820,-21374510,2548828,15515140
2026-01-14 17:14:09.341,22045300,-15428260,23725020,72592380,-16430660,9448242,31567380
2026-01-14 17:14:09.351,-20580500,2195034,6108637,30035640,-11602780,-60394290,44213870
2026-01-14 17:14:09.361,-20611570,-15393730,23707760,30056350,-11633300,-7952881,48339840
2026-01-14 17:14:09.371,-20624520,22097080,61146780,30060670,-12414550,-44281010,50634770
2026-01-14 17:14:09.381,2177772,-15321220,23659420,7248016,-9790039,-9100342,5620117
2026-01-14 17:14:09.391,21725930,-15262530,23614530,72445640,-14746090,-24121090,59716800
2026-01-14 17:14:09.401,2169140,3989819,4377726,7239385,-234375,-18969730,50683590
2026-01-14 17:14:09.411,21656870,22563190,61250360,72342060,-26464840,-12927250,4506836
2026-01-14 17:14:09.421,-20637470,-15102840,23498010,30030460,-28076170,-2220459,40600580
2026-01-14 17:14:09.431,-20623660,-15052780,23461760,30009740,-2788086,-20361330,39770510
2026-01-14 17:14:09.441,-2060985,-1501221,2343327,2998903,-28393560,-1274414,36206060
2026-01-14 17:14:09.451,-20604670,-14980270,23413420,29976940,-32666020,-82458500,30297850
2026-01-14 17:14:09.461,21544660,-14957830,23401330,72109010,-3347168,-14147950,35375980
2026-01-14 17:14:09.471,21518760,2310696,6143162,72065860,-29711910,-1763916,39624020
2026-01-14 17:14:09.481,-20597770,2315014,6147480,29949320,-33251950,-18652340,43652340
2026-01-14 17:14:09.491,21441080,-1492679,2339787,71988160,-3720703,-94055180,40649420
2026-01-14 17:14:09.501,21397920,2322781,6155246,71962270,-34643560,11218260,34106440
2026-01-14 17:14:09.511,2133751,-14928480,23413420,7193636,-31445310,1171875,3947754
2026-01-14 17:14:09.521,21277080,2326233,6163878,71910480,-35986330,-29434200,4580078
2026-01-14 17:14:09.531,-20687530,-18772080,19621610,29997660,-37353520,-8190918,51416020
2026-01-14 17:14:09.541,21138970,40571460,44416010,71875950,-37939450,-14782720,4428711
2026-01-14 17:14:09.551,-20747960,-14988900,23491100,30040820,-46240230,-22021480,4802246
2026-01-14 17:14:09.561,-20777300,4060080,4445573,30063260,-45410160,-26660160,48095700
2026-01-14 17:14:09.571,2095772,-15064000,23571380,7183279,-51416020,-25390620,4182129
2026-01-14 17:14:09.581,-20817870,2317604,6189775,30091740,-5209961,-3371582,41992190
2026-01-14 17:14:09.591,20871390,-15158080,23667190,71798270,-5209961,-5180664,4050293
2026-01-14 17:14:09.601,2083687,-15209870,23718980,7178099,-5336914,-46655270,30273440
2026-01-14 17:14:09.611,20793710,-15270300,23779400,71755110,-46142580,-18237300,20019530
2026-01-14 17:14:09.621,20750550,-15330720,23839820,71729220,-3725586,-17456060,23950200
2026-01-14 17:14:09.631,20707390,-15391140,23900240,71720580,-38183590,-13769530,11407470
2026-01-14 17:14:09.641,20672860,2282212,6225163,71703320,-3515625,34643560,-47332760
2026-01-14 17:14:09.651,20629700,40542110,44497140,71694690,-25561520,70947260,-90270990
2026-01-14 17:14:09.661,20586550,40511040,44476430,71720580,-2956543,7158203,-21881100
2026-01-14 17:14:09.671,-20987050,22589090,62329320,30216040,-3515625,6723633,32104490
2026-01-14 17:14:09.681,-21039700,-15653540,24138480,30266970,-3215332,4597168,19763180
2026-01-14 17:14:09.691,43557160,2247686,6230341,48698180,-3100586,99487300,3630371
2026-01-14 17:14:09.701,2036214,-15685480,24158330,7187595,-32080080,17120360,39697260
2026-01-14 17:14:09.711,-21189030,22425090,62268900,30411120,-32910160,-7637024,41845700
2026-01-14 17:14:09.721,20267170,-15688930,24154880,71936380,-38842770,-14929200,4050293
2026-01-14 17:14:09.731,20232650,-15690660,24153150,71970900,-4831543,-40527340,41137700
2026-01-14 17:14:09.741,20215380,-15691520,24152290,71988160,-59716800,-38012700,35717770
2026-01-14 17:14:09.751,20206750,22356030,62234370,71996800,-6113281,-2824707,30126950
2026-01-14 17:14:09.761,20206750,2233011,6222573,71996800,-6074219,-24145510,23083500
2026-01-14 17:14:09.771,-21275350,2229561,6224302,30497430,-6274414,-14428710,15893560
2026-01-14 17:14:09.781,2024131,22269720,62251630,7199681,-6201172,-7537842,10296630
2026-01-14 17:14:09.791,-21248590,22252450,62268900,30472400,-6171875,-115112300,10418700
2026-01-14 17:14:09.801,-21231330,22235190,62286160,30455140,-59375,-121398900,64941410
2026-01-14 17:14:09.811,-21214070,-15815820,24269680,30437880,-5253906,21705630,4724121
2026-01-14 17:14:09.821,-21189030,22235200,62337960,30411120,-46826170,11029050,423584
2026-01-14 17:14:09.831,-21163140,-15821000,24281770,30385220,-47070310,114990200,7684326
2026-01-14 17:14:09.841,20353490,-15809780,24275720,71850060,-48999020,18017580,13290410
2026-01-14 17:14:09.851,20370760,-19601930,20449040,71815540,-48779300,33032230,-32196040
2026-01-14 17:14:09.861,20396650,-15769210,24247240,71789640,-45898440,4814453,-24383540
2026-01-14 17:14:09.871,2041392,-15740720,24223930,7175510,-43017580,5,2519226
2026-01-14 17:14:09.881,2043983,22502780,62415640,7172923,-40771480,3798828,18737790
2026-01-14 17:14:09.891,-21002590,-15654410,24154880,30217770,-44726560,20153810,29492190
2026-01-14 17:14:09.901,20491600,-15596580,24109130,71642900,-48632810,-26763920,40722660
2026-01-14 17:14:09.911,-20927490,22848040,62432900,30137490,-5317383,-48065180,42871100
2026-01-14 17:14:09.921,-2086879,-19304820,20159190,3007534,-50927740,1149292,46240230
2026-01-14 17:14:09.931,20595180,-15383370,23942540,71435740,-5410156,1607666,4963379
2026-01-14 17:14:09.941,43471700,-15297060,23873480,48541950,-5073242,30493160,4248047
2026-01-14 17:14:09.951,-20682360,-19086530,19945900,29882000,-47583010,50439450,3552246
2026-01-14 17:14:09.961,-20614160,23607630,62484690,29812080,-47998050,34692380,39233400
2026-01-14 17:14:09.971,-20536480,-15057090,23681860,29734390,-5991211,-17907720,40039060
2026-01-14 17:14:09.981,-20441530,-1498805,2363008,29639450,-6723633,-46875,35546880
2026-01-14 17:14:09.991,43486380,-14927620,23586910,48475490,-6464844,-34326170,2685547
2026-01-14 17:14:10.001,43497600,-14875830,23552390,48464260,-55859380,-1104126,22875980
2026-01-14 17:14:10.011,-20141150,2430679,6263144,29335610,-49243160,-11206060,33251950
2026-01-14 17:14:10.021,-20037570,2445353,6265734,29232030,-46435550,-17956540,36108400
2026-01-14 17:14:10.031,-19933990,-14668670,23397020,29128450,-4633789,-24646000,35766600
2026-01-14 17:14:10.041,-19839040,24755640,62683220,29033500,-48486330,-34960940,3395996
2026-01-14 17:14:10.051,43547660,24919640,62691850,48414200,-47094730,-3449707,35595700
2026-01-14 17:14:10.061,-19638780,25083650,62683220,28836700,-4453125,-27197270,32202150
2026-01-14 17:14:10.071,2186404,-14316500,23110440,7013235,-4086914,-12536620,30297850
2026-01-14 17:14:10.081,21976240,-14213780,23023270,70054670,-3725586,24383540,33203120
2026-01-14 17:14:10.091,-19350480,25610180,62640060,28555310,-33984380,20007320,39257810
2026-01-14 17:14:10.101,22183410,42371160,46051700,69899300,-33374020,19702150,4909668
2026-01-14 17:14:10.111,-19157130,26015870,62579640,28368860,-33911130,-7128906,6118164
2026-01-14 17:14:10.121,43700440,42569690,46198450,48434050,-40893560,-36450200,73828130
2026-01-14 17:14:10.131,-18947390,-13556910,22454440,28164290,-36767580,-41381840,8095703
2026-01-14 17:14:10.141,22666780,-13407580,22327550,69519510,-22302250,-19189450,93115230
2026-01-14 17:14:10.151,-18659950,27008510,62450160,27882040,4940033,18444820,1125
2026-01-14 17:14:10.161,43818700,-13061450,22034940,48436640,33007810,57714840,14443360
2026-01-14 17:14:10.171,23279630,-12846520,21852810,69027500,71484380,71972660,17939450
2026-01-14 17:14:10.181,23573100,28121990,62320680,68803070,11367190,57373050,22109380
2026-01-14 17:14:10.191,23944260,-12253530,21340950,68535500,16474610,4519043,2484375
2026-01-14 17:14:10.201,-17267660,29278640,62113530,26529450,21210940,35375980,25097660
2026-01-14 17:14:10.211,-16773930,30020970,61940900,26056440,234375,-1525116,22832030
2026-01-14 17:14:10.221,2569650,-10804270,20062600,6738748,24101560,-45288090,19931640
2026-01-14 17:14:10.231,2651652,-10194010,19516220,6687821,25664060,-69189460,17402340
2026-01-14 17:14:10.241,27457360,3273128,6116403,66317160,28671880,-8046875,15263670
2026-01-14 17:14:10.251,2852770,-8771506,18228370,6567841,32128910,-9355469,1390625
2026-01-14 17:14:10.261,29718860,-12246800,13199380,64970620,35019530,-97021490,11523440
2026-01-14 17:14:10.271,31022240,36123560,59843400,64150610,36445310,-76416020,64404300
2026-01-14 17:14:10.281,-10632490,37409680,59265080,20199850,36054690,-5004883,-34503940
2026-01-14 17:14:10.291,-9363636,38756220,58609070,18982780,34121100,-29174800,-66064450
2026-01-14 17:14:10.301,35476180,40137280,57866740,61198580,32246090,-16189580,-12978520
2026-01-14 17:14:10.311,37081680,-2812202,12673020,60059200,29609380,8843994,-19033200
2026-01-14 17:14:10.321,-5185909,-1610671,11526740,14943150,26425780,-4043579,-22773440
2026-01-14 17:14:10.331,4036174,44479020,55165030,5757329,25566410,-16455080,-246875
2026-01-14 17:14:10.341,-6621442,-35651400,45658960,7603554,25039060,-24917600,-26914060
2026-01-14 17:14:10.351,43633120,2277034,7766779,54785240,21386720,25683590,-30585940
2026-01-14 17:14:10.361,9045996,3646879,6426282,89493200,14882810,39038090,-33730470
2026-01-14 17:14:10.371,46826840,50460760,50460760,51764160,66748050,5859375,-35566410
2026-01-14 17:14:10.381,-4308066,51902260,49122860,14163720,-8148193,-60009770,-35429690
2026-01-14 17:14:10.391,6620753,7829792,2270993,-5636224,-70654300,-10849610,-34824220
2026-01-14 17:14:10.401,26320560,4630463,-3621420,-16492540,-11591800,-98535150,-33789060
2026-01-14 17:14:10.411,5266187,50892360,49804760,4539400,-14111330,-5390625,-32578120
2026-01-14 17:14:10.421,99902990,1173649,-169444,1,-2123388,-15273440,-14587400,-31152340
2026-01-14 17:14:10.431,70126310,5800488,4207075,-60384600,-16806640,17105100,-29511720
2026-01-14 17:14:10.441,8400172,9673863,-8677077,-7430318,-1921875,22729490,-27480470
2026-01-14 17:14:10.451,49175520,50649800,48579920,47326610,-2171875,41210940,-2515625
2026-01-14 17:14:10.461,58514120,16417440,-6542812,37452840,-23066410,43530270,-22148440
2026-01-14 17:14:10.471,5943772,6167332,3655515,3594230,-24179690,50878900,-1921875
2026-01-14 17:14:10.481,60292250,18478690,-8711089,34466270,-24960940,5859375,-15830080
2026-01-14 17:14:10.491,61077730,19443710,-9731354,33042050,-25605470,6533203,-12587890
2026-01-14 17:14:10.501,6179415,20355210,-10701550,3166962,-26992190,92822260,-8984375
2026-01-14 17:14:10.511,20670270,21214930,-11619960,-11387770,-29179690,11875,-45507810
2026-01-14 17:14:10.521,63002590,22015080,-12477090,29183690,-2921875,13251950,-6719971
2026-01-14 17:14:10.531,63494600,65436720,29373580,28070210,-27851560,13222660,19873050
2026-01-14 17:14:10.541,63917550,23478150,-14052370,27060300,-246875,10498050,28515620
2026-01-14 17:14:10.551,64280080,6631714,2742280,26110820,-21367190,7348633,203125
2026-01-14 17:14:10.561,64599460,24732340,-15404950,25221750,-17792970,52734380,34820560
2026-01-14 17:14:10.571,64867030,67076740,25765550,24367220,-153125,2824707,-13244630
2026-01-14 17:14:10.581,65100090,6742200,2502319,23547210,-13681640,-46813960,-21081540
2026-01-14 17:14:10.591,6530727,48210490,43872210,2273585,-13359380,-35742190,-28051760
2026-01-14 17:14:10.601,6550578,6803486,2371984,2195035,-12529300,-58935550,-36669920
2026-01-14 17:14:10.611,65687050,68302440,23141520,21164870,-11787110,-64208980,-50878900
2026-01-14 17:14:10.621,45406060,68552750,22597720,40858890,-10791020,-65625,-7060547
2026-01-14 17:14:10.631,43071020,2789065,-1880671,42606980,-9638672,-73583980,-8901367
2026-01-14 17:14:10.641,27931240,28238520,-19183900,-19422130,-91552740,-8027344,-10175780
2026-01-14 17:14:10.651,28368000,69174240,21044020,-19917580,-8989258,-77685540,-10527340
2026-01-14 17:14:10.661,28804760,6936415,2052611,-20413050,-86035150,-68359380,-10908200
2026-01-14 17:14:10.671,6673149,47241160,42286570,1659873,-90283200,-5371094,-10742190
2026-01-14 17:14:10.681,25928950,29601460,-20686670,-25101510,-9243164,-36499020,-10273440
2026-01-14 17:14:10.691,30055490,6989931,1885157,-21838140,-9770508,-22375490,-9375
2026-01-14 17:14:10.701,67154420,30337750,-21504100,14449430,-10322270,-15783690,-8754883
2026-01-14 17:14:10.711,30793500,70279100,17625880,-22688350,-10908200,-22631840,-79541020
2026-01-14 17:14:10.721,31127550,7047763,1697849,-23079370,-11054690,-3828125,-7109375
2026-01-14 17:14:10.731,67404740,7068478,1632247,12524560,-11416020,-47045900,-59472660
2026-01-14 17:14:10.741,31728310,4604999,4052570,-23790620,-11757810,-4284668,-57470700
2026-01-14 17:14:10.751,67465170,7112500,1500182,11359280,-12236330,-41137700,-5698242
2026-01-14 17:14:10.761,32242760,71340780,14337210,-24415550,-12548830,-16638180,-61816410
2026-01-14 17:14:10.771,67456540,33204320,-24679690,10263060,-13378910,-34942630,-6015625
2026-01-14 17:14:10.781,32704550,71789630,13025200,-24989560,-13701170,-30688480,-5078125
2026-01-14 17:14:10.791,29463100,34032970,-25594640,-28697120,-13789060,-609375,-37890620
2026-01-14 17:14:10.801,6733569,7221259,1173907,872662,6,-13496090,-8989258,-31201170
2026-01-14 17:14:10.811,67301170,34827080,-26475080,8260514,-12792970,-12109380,-24072270
2026-01-14 17:14:10.821,33489170,35193920,-26885080,-25983070,-11953130,-13564450,-16003420
2026-01-14 17:14:10.831,6724073,35551280,-27287310,735420,4,-12119140,-12236330,-9906006
2026-01-14 17:14:10.841,3385775,72868590,9322212,-2644310,-11777340,-11181640,-78063970
2026-01-14 17:14:10.851,39893010,36196920,-28022730,33821490,-11826170,-11074220,-48706060
2026-01-14 17:14:10.861,67214850,36494720,-28363680,6085336,-12138670,-10185550,7904053
2026-01-14 17:14:10.871,31136520,36766620,-28678740,-30407310,-12216800,-84277340,736084
2026-01-14 17:14:10.881,34598340,43523490,36923720,-27342550,-12236330,-53027340,87402340
2026-01-14 17:14:10.891,34770970,37267260,-29265690,-27549710,-12216800,-118896500,4336548
2026-01-14 17:14:10.901,34927200,37497720,-29535870,-27738750,-12167970,1394043,2432251
2026-01-14 17:14:10.911,35075670,39956970,39281800,-27918290,-11855470,21240230,-19897460
2026-01-14 17:14:10.921,35216370,7342104,543793,9,-28088330,-11035160,34545900,-103271500
2026-01-14 17:14:10.931,67283900,38140780,-30291140,3685724,-10751950,55810550,-17211910
2026-01-14 17:14:10.941,35470140,38348800,-30531960,-28404250,-10136720,5727539,-17675780
2026-01-14 17:14:10.951,35593580,42377200,35445970,-28557030,-93896480,6123047,-22424320
2026-01-14 17:14:10.961,67214850,38756220,-31004980,2822560,-8618164,6508789,-28564450
2026-01-14 17:14:10.971,32665620,73705870,3495827,-31968350,-77685540,61376950,-32617190
2026-01-14 17:14:10.981,67137160,39165360,-31476270,2261502,-71240230,55615230,-3581543
2026-01-14 17:14:10.991,67085370,35928220,-35162250,1985284,-64697260,47314450,-3425293
2026-01-14 17:14:11.001,36107160,41710840,34558630,-29234610,-57373050,27001950,-33203120
2026-01-14 17:14:11.011,37478730,39774750,-32178880,30918660,-4321289,-35095220,-2998047
2026-01-14 17:14:11.021,6698178,39963790,-32404170,110487,3,-4099121,13635250,-45581060
2026-01-14 17:14:11.031,36547370,7389578,125157,5,-29761150,-12617190,39179690,-13759770
2026-01-14 17:14:11.041,67232110,40968520,33678200,405690,2,-23417970,109296900,-1515625
2026-01-14 17:14:11.051,36883140,73964820,440215,8,30184970,-18876950,7609375,-5004883
2026-01-14 17:14:11.061,36578450,7419786,-1,646657,29868180,-9320068,10361330,-49243160
2026-01-14 17:14:11.071,36314320,74335980,-466108,2,29579890,-39819340,11853030,-19995120
2026-01-14 17:14:11.081,37121380,7440505,-89770,98,-30585480,-76171870,12490230,-2763672
2026-01-14 17:14:11.091,66455260,41557200,-34246170,-1648648,-121875,28320310,-26391600
2026-01-14 17:14:11.101,32452330,74517250,-1804020,31767330,-10927730,21269530,16189580
2026-01-14 17:14:11.111,37621150,39993140,32305770,-31259610,-5957031,22839360,33325200
2026-01-14 17:14:11.121,66170420,42304700,-35121420,-3107400,-36328120,-56884770,62597660
2026-01-14 17:14:11.131,66084100,39556380,31758520,-3556248,-21154780,-5683594,9296875
2026-01-14 17:14:11.141,38086400,3930952,3145294,-31881950,3591919,-53759770,12558590
2026-01-14 17:14:11.151,6591145,43120390,-36101110,-433308,28637700,-80859380,15449220
2026-01-14 17:14:11.161,65799260,38781250,30790040,-4652472,45336910,-9082031,17216800
2026-01-14 17:14:11.171,65678410,38498130,30434420,-4928682,44213870,-3569336,16708980
2026-01-14 17:14:11.181,33695470,74836620,-6542808,26622680,4399414,25585940,14287110
2026-01-14 17:14:11.191,38416130,37936210,29718850,-32432650,5288086,31152340,11425780
2026-01-14 17:14:11.201,65100090,3767467,2937615,-5869538,77001950,7910156,99658200
2026-01-14 17:14:11.211,32825390,45238600,-38592220,25714620,10527340,-18774410,10683590
2026-01-14 17:14:11.221,32429200,37180940,28713260,25299440,12998050,-23522950,13476560
2026-01-14 17:14:11.231,6416788,36947880,28393890,-735417,1,14462890,-8294678,17421880
2026-01-14 17:14:11.241,6378807,75596210,-10789590,-795836,9,15859380,45440670,21367190
2026-01-14 17:14:11.251,63373750,36523200,27800030,-8579880,17099610,66345220,22890620
2026-01-14 17:14:11.261,3047066,47223020,-40837310,2325289,18369140,-10858150,23027340
2026-01-14 17:14:11.271,62519220,36146000,27262270,-9917794,19248050,-1161499,21152340
2026-01-14 17:14:11.281,62079000,76286740,-13292780,-10634220,19462890,7684326,18935550
2026-01-14 17:14:11.291,28778000,76433480,-13836580,21475610,20527340,41778560,17304690
2026-01-14 17:14:11.301,28173780,35664350,26570020,20836860,22675780,-25512700,16152340
2026-01-14 17:14:11.311,6074108,45776860,-45770680,-1300792,2375,-53564450,14609380
2026-01-14 17:14:11.321,60300880,7682191,-1529535,-13862470,23613280,-77685540,12871090
2026-01-14 17:14:11.331,39571050,7689960,-1571829,-35058410,22851560,-94091800,10859380
2026-01-14 17:14:11.341,25662830,76960010,-16106700,18151550,225,-11835940,9355469
2026-01-14 17:14:11.351,59075180,34935840,25589460,-16555550,22128910,-14404300,83496100
2026-01-14 17:14:11.361,24430230,7699453,-1681451,16811910,20722660,-13261720,80029300
2026-01-14 17:14:11.371,40367760,76985900,-17133880,-36367830,18994140,-11533200,7734375
2026-01-14 17:14:11.381,4058354,76951380,-17444610,-3670444,18408200,-11445310,69140620
2026-01-14 17:14:11.391,40792430,76899590,-17738090,-37030740,16972660,-11035160,58203120
2026-01-14 17:14:11.401,22166140,34141720,24657240,14328580,15390630,-10019530,45532230
2026-01-14 17:14:11.411,41234370,33961320,24457850,-37693660,14462890,-8984375,37036130
2026-01-14 17:14:11.421,56917260,7662339,-1858402,-22545930,13017580,-84472660,27612300
2026-01-14 17:14:11.431,20684950,33589300,24053020,12685110,11191410,-7841797,12841800
2026-01-14 17:14:11.441,2021970,7635579,-1912779,1216635,10029300,-8198242,4257202
2026-01-14 17:14:11.451,19779480,33178430,23617990,11674340,9555664,-79296870,-4878998
2026-01-14 17:14:11.461,56088620,7602780,-1968024,-25515230,87158200,-7138672,17309190
2026-01-14 17:14:11.471,18961200,75837890,-19973690,10749030,74560540,-68310540,58776860
2026-01-14 17:14:11.481,5578652,32467180,22879120,-2688765,69189460,-68359380,12365720
2026-01-14 17:14:11.491,55665670,7538906,-2056067,-27526410,6928711,-8491211,21228030
2026-01-14 17:14:11.501,14134370,31938920,22337040,13297100,73828130,-10458980,26831060
2026-01-14 17:14:11.511,17600850,31655800,22050470,9174606,6977539,-11572270,3215332
2026-01-14 17:14:11.521,5548440,74603560,-21484240,-2931314,6464844,-12011720,36694340
2026-01-14 17:14:11.531,17075180,74310090,-21777710,8543634,5283203,-11748050,3852539
2026-01-14 17:14:11.541,55467140,7399936,-2207122,-30383500,39160160,-11201170,43041990
2026-01-14 17:14:11.551,16603030,30456000,20850670,7962720,24560550,-10302730,48535160
2026-01-14 17:14:11.561,55518930,30134900,20533020,-31453820,9503174,-8359375,5654297
2026-01-14 17:14:11.571,16167130,29812080,20217110,7414609,-23513790,-60839840,6791992
2026-01-14 17:14:11.581,15945290,7263554,-2326237,7135806,-10406490,-46557620,81103520
2026-01-14 17:14:11.591,5561389,29150030,19567140,-3305067,-12792970,-4453125,8227539
2026-01-14 17:14:11.601,15492130,28810800,19233100,6570432,-20703120,-32495120,8618164
2026-01-14 17:14:11.611,15252170,28470710,18899910,6275229,-2626953,-20446780,93359380
2026-01-14 17:14:11.621,15003580,7117679,-2447944,5971392,-2849121,-19433590,9555664
2026-01-14 17:14:11.631,55631140,27791400,18232680,-35225860,-2861328,-16223150,9838867
2026-01-14 17:14:11.641,14488260,70425830,-25092280,5347326,-31347660,-29968260,10488280
2026-01-14 17:14:11.651,5559661,70037400,-25411650,-3634795,-27978520,18225100,11191410
2026-01-14 17:14:11.661,55570720,26727980,17189980,-36926300,-19848630,28295900,11416020
2026-01-14 17:14:11.671,5552756,26378400,16849030,-3750461,-13391110,38378900,11513670
2026-01-14 17:14:11.681,87388710,26028810,16508070,86453210,-59661860,41308590,11162110
2026-01-14 17:14:11.691,13068350,68475070,-26628720,3659833,10749820,54052740,11074220
2026-01-14 17:14:11.701,12757610,2533742,1583566,3297300,12548830,6176758,10986330
2026-01-14 17:14:11.711,55234090,25003370,15513710,-39869700,25732420,45166020,9736328
2026-01-14 17:14:11.721,78063140,20413040,19465290,68502700,39379880,31176760,83154300
2026-01-14 17:14:11.731,11788280,49281680,-45356000,2177774,55078120,111450200,6855469
2026-01-14 17:14:11.741,4836052,24051300,14601340,-4822792,70654300,-8508301,53222660
2026-01-14 17:14:11.751,54819760,66196310,-28147890,-42252040,91748050,-26831060,41723630
2026-01-14 17:14:11.761,108249800,6579925,-2835510,10694650,87939460,-38146970,36987300
2026-01-14 17:14:11.771,61529170,23081960,13688970,51718410,-8984375,28652340,8930664
2026-01-14 17:14:11.781,54182490,64867030,-28786630,53195550,-11220700,84375,22675780
2026-01-14 17:14:11.791,9851330,22514000,13169350,-63009,8,35620120,5703125,15947270
2026-01-14 17:14:11.801,9376588,22350000,13022610,-572278,8,17724610,-47875980,-5786133
2026-01-14 17:14:11.811,45045260,22124710,12816310,35056680,14482420,-9326172,-73779300
2026-01-14 17:14:11.821,86851900,6364134,-2921826,-13482680,47924800,15585940,-30004880
2026-01-14 17:14:11.831,53697650,21599040,12340700,-47103050,54351810,25800780,-16430660
2026-01-14 17:14:11.841,34150360,6291626,-2942539,24027130,31689450,83691410,-75390620
2026-01-14 17:14:11.851,5336100,62536480,-29546220,-4830283,36547850,-8803711,-13310550
2026-01-14 17:14:11.861,72816810,62113530,-29675700,-29313170,24597170,-12441410,-14824220
2026-01-14 17:14:11.871,69692140,61656050,-29839700,-32921200,-21130370,-11015630,-14267580
2026-01-14 17:14:11.881,15448370,61181310,-30020960,14417230,-2548828,-14570310,-14433590
2026-01-14 17:14:11.891,63365120,60680680,-30228130,-40232230,-34277340,-19414060,-15136720
2026-01-14 17:14:11.901,6041310,15308100,14402120,-4366764,-5371094,-20449220,-14707030
2026-01-14 17:14:11.911,57556000,5960173,-3070289,-47025360,-7084961,-17294920,-13330080
2026-01-14 17:14:11.921,26832420,18527890,9525052,16325950,-8613281,-13007810,-11162110
2026-01-14 17:14:11.931,-3355134,46233840,-43518310,-13908210,-9169922,-10078130,-93359380
2026-01-14 17:14:11.941,1413869,5786675,-3164372,-9182376,-94677740,-7973633,-8129883
2026-01-14 17:14:11.951,46196720,57271160,-32014880,-60180040,-9536133,-36499020,-5727539
2026-01-14 17:14:11.961,-4761231,16582310,7672696,-15436890,-9067383,22903440,-41967770
2026-01-14 17:14:11.971,-7937690,56088620,-32852150,-18647870,-8823242,23132320,-40551760
2026-01-14 17:14:11.981,5204035,55518930,-33301000,-5535490,-74902340,33569340,-38549800
2026-01-14 17:14:11.991,33974270,15027750,6154382,-73679980,-54589840,48779300,-40063480
2026-01-14 17:14:12.001,-17911590,14507260,5639074,-28699450,-39990230,89746100,-38500980
2026-01-14 17:14:12.011,-21441940,45280040,-43367260,-32247070,-15563970,15693360,-27392580
2026-01-14 17:14:12.021,2344362,53404170,-35243130,-8472849,107299800,19335940,-3239746
2026-01-14 17:14:12.031,-29286410,13057140,4188954,-40112260,27441410,18798830,-53271480
2026-01-14 17:14:12.041,1530396,12628140,3754779,-9298903,40820310,17412110,-6899414
2026-01-14 17:14:12.051,-42530680,52187100,-36632820,-43613440,55029300,13466800,-8803711
2026-01-14 17:14:12.061,49399070,11825400,2934767,-58842120,6328125,6635742,-11474610
2026-01-14 17:14:12.071,-45863540,11434380,2531672,-56680760,6542969,12072750,-1296875
2026-01-14 17:14:12.081,-111350,5,51159940,-38005260,-10919930,56884770,-3605957,-14345700
2026-01-14 17:14:12.091,-478194,5,10619550,1689219,-11278150,3857422,-7104492,-15107420
2026-01-14 17:14:12.101,-56838710,10176750,1234332,-67630030,14733890,-8149414,-14707030
2026-01-14 17:14:12.111,47362000,9708047,753543,1,-60482140,54840090,-7998047,-13642580
2026-01-14 17:14:12.121,46999470,49545810,-40085500,-60775620,-10723880,-703125,-12255860
2026-01-14 17:14:12.131,-1820419,46434090,37465780,-12594470,-26611330,-60302740,-10488280
2026-01-14 17:14:12.141,-2158783,45213580,-44486790,-12929380,-39257810,-73828130,-92626950
2026-01-14 17:14:12.151,-73422740,47897160,-41803200,-84191620,-48413090,-984375,-79003900
2026-01-14 17:14:12.161,45627030,28824620,19858030,-62044480,-45898440,-11044920,-6147461
2026-01-14 17:14:12.171,45290400,18401950,17505810,-62381110,-45043940,-10634770,-36767580
2026-01-14 17:14:12.181,44962390,15871060,6916558,-62691860,-625,-84277340,-7861328
2026-01-14 17:14:12.191,44625760,50219950,41275800,-63028490,-8496094,-76708980,17126460
2026-01-14 17:14:12.201,52873320,-17977180,-26907520,-54780920,-98339840,-83154300,3359375
2026-01-14 17:14:12.211,43935220,-9049187,-9940497,-63719020,-10761720,-70654300,5644531
2026-01-14 17:14:12.221,-4872583,27638620,-61302150,-15636280,-1078125,-5083008,77685540
2026-01-14 17:14:12.231,-5253241,20103170,-68613180,-16015210,-11445310,-54589840,8691406
2026-01-14 17:14:12.241,-5643392,12386450,-76088210,-16401910,-11650390,-47436520,9765625
2026-01-14 17:14:12.251,4232971,-35208600,-44030170,-6518643,-11777340,-3786621,10849610
2026-01-14 17:14:12.261,41863620,-350443,-9144398,-65566200,-11523440,-34643560,10839840
2026-01-14 17:14:12.271,52433110,-5103303,-5979768,-54893130,-10556640,-1920166,10791020
2026-01-14 17:14:12.281,-7399074,37349260,-50020550,-18116160,-9736328,39764400,11376950
2026-01-14 17:14:12.291,-7900572,-2776809,-11482720,-18598670,-11552730,-3048706,11806640
2026-01-14 17:14:12.301,39610750,-3586458,-12261300,-67128530,-14208980,-14941410,11962890
2026-01-14 17:14:12.311,-8979537,-44133750,-130571300,-19625840,-16210940,-23022460,12783200
2026-01-14 17:14:12.321,38195160,3347367,-5260145,-67957170,-17998050,-3557129,13369140
2026-01-14 17:14:12.331,-10195740,32429200,-53266060,-20774710,-19648440,-43725580,14511720
2026-01-14 17:14:12.341,36572400,-7044307,-15570680,-68820340,-20292970,-46704100,15615230
2026-01-14 17:14:12.351,35666070,30184970,-54629870,-69260560,-19433590,-5703125,15361330
2026-01-14 17:14:12.361,-12276830,2899381,-5533766,-22715980,-16923830,-6166992,15253910
2026-01-14 17:14:12.371,-13031240,27768100,-56045460,-23411690,-12998050,-40795900,15332030
2026-01-14 17:14:12.381,32601830,26525140,-56770530,-70529410,-79248050,-1315918,14951170
2026-01-14 17:14:12.391,3148834,-11960050,-20236100,-7091785,-32739260,24169920,13662110
2026-01-14 17:14:12.401,-15401500,-12945790,-21166590,-25564430,40130620,3545761,12314450
2026-01-14 17:14:12.411,29157800,2282218,-5881624,-71642900,24511720,-94177250,10566410
2026-01-14 17:14:12.421,-16995770,-14868060,-22973200,-26991250,44628900,-122680700,8432617
2026-01-14 17:14:12.431,2680133,20405280,-60041930,-7227300,640625,-16308590,5761719
2026-01-14 17:14:12.441,25627440,-16690200,-24672780,-72566490,7167969,-4880371,24047850
2026-01-14 17:14:12.451,24488060,1807476,-6111227,-72825440,7050781,-69189460,-20843510
2026-01-14 17:14:12.461,23374580,1692675,-6158701,-73058500,8466797,8111572,56549070
2026-01-14 17:14:12.471,45235160,36600030,-41223160,-50334750,11875,10869140,-12290960
2026-01-14 17:14:12.481,44765580,14691110,-62389750,-49992930,12705080,97509770,-44726560
2026-01-14 17:14:12.491,-22059970,-20714290,-28348140,-31456410,12392580,81396480,-7060547
2026-01-14 17:14:12.501,19248630,1261954,-6297671,-73938930,12558590,7792969,-78515620
2026-01-14 17:14:12.511,-23283080,1163552,-6321837,-32529330,12822270,97753900,-7963867
2026-01-14 17:14:12.521,-23836370,10677380,-63434170,-33011840,13671880,14951170,-7104492
2026-01-14 17:14:12.531,16633230,9745164,-63606810,-74465460,15244140,22011720,-58496100
2026-01-14 17:14:12.541,1585638,-23837230,-31094740,-7463810,17041020,296875,-57470700
2026-01-14 17:14:12.551,15114060,-24369800,-31546180,-74810720,17509770,30742190,-75634770
2026-01-14 17:14:12.561,14414900,32644130,-38325500,-74991990,14873050,22070310,-10048830
2026-01-14 17:14:12.571,-26273960,32206500,-37969010,-35166300,11601560,12832030,-11367190
2026-01-14 17:14:12.581,-26695180,-25729290,-32672610,-35539200,91748050,5493164,-11191410
2026-01-14 17:14:12.591,-27098280,4807846,-63934810,-35895680,72216800,-38879400,-94873050
2026-01-14 17:14:12.601,11903070,4100050,-63969340,-75587570,61279300,-51220700,-6923828
2026-01-14 17:14:12.611,1135063,3400878,-64012500,-7565663,56689450,-83496100,-4609375
2026-01-14 17:14:12.621,40008670,270173,8,-6410746,-46497970,6826172,-80078130,-2939453
2026-01-14 17:14:12.631,39715200,30000250,-36221960,-46256280,8540039,-5961914,-26831060
2026-01-14 17:14:12.641,-32528550,29683470,-35986310,-33382910,9301758,-734375,-2746582
2026-01-14 17:14:12.651,9253156,63877,5,-6449588,-75613470,96240230,-90771490,-18188480
2026-01-14 17:14:12.661,-29182830,-34524,-64668500,-37609070,11054690,-7963867,-41931150
2026-01-14 17:14:12.671,8234608,-707792,-64858400,-75423570,12636720,-67285150,-46142580
2026-01-14 17:14:12.681,773396,8,-30031320,-36398040,-7530274,13789060,-7260742,-25390620
2026-01-14 17:14:12.691,7250608,31255560,-31928310,-75181890,14345700,-95166020,-47973630
2026-01-14 17:14:12.701,-30039090,-30914340,-37189570,-38220190,14765630,-10322270,-67333980
2026-01-14 17:14:12.711,631837,5,27731840,-34623370,-7487114,15302730,-95410160,-8261719
2026-01-14 17:14:12.721,586950,8,-3849726,-65825140,-7471578,15703130,-74316410,-9267578
2026-01-14 17:14:12.731,-30552680,-4384888,-66015050,-38552510,16269530,-4506836,-10449220
2026-01-14 17:14:12.741,-30702000,27106050,-34213370,-38644870,16445310,-22302250,-11972660
2026-01-14 17:14:12.751,4643840,-5325742,-66351680,-74232400,15927730,-2932129,-1265625
2026-01-14 17:14:12.761,4272684,-33085210,-39161900,-74085660,15322270,-44848630,-12294920
2026-01-14 17:14:12.771,-31125820,-6111228,-66671050,-38911590,14492190,-5517578,-11904300
2026-01-14 17:14:12.781,-34726960,26521680,-33848250,-35500350,14228520,-5136719,-11044920
2026-01-14 17:14:12.791,34898720,26419830,-33794730,-41940440,1421875,-2866211,-10527340
2026-01-14 17:14:12.801,-31486620,-34086480,-40094130,-39120480,14433590,-6744385,-10302730
2026-01-14 17:14:12.811,-31606600,26255830,-33717050,-39190390,14472660,16845700,-1046875
2026-01-14 17:14:12.821,218380,26184180,-33685110,-7317069,14199220,39501950,-1109375
2026-01-14 17:14:12.831,1838548,29506000,-30259720,-73032590,13730470,45898440,-11533200
2026-01-14 17:14:12.841,-31970860,26053850,-33625550,-39413090,13017580,26611330,-11904300
2026-01-14 17:14:12.851,119114,-8225988,-67801810,-7278229,12158200,11016850,-11708980
2026-01-14 17:14:12.861,880428,-842448,3,-6791402,-72661440,11513670,74768060,-11650390
2026-01-14 17:14:12.871,578324,25860500,-33525420,-72549220,1109375,1776123,-11240230
2026-01-14 17:14:12.881,-32435250,25785400,-33479670,-39708290,11191410,13635250,-10400390
2026-01-14 17:14:12.891,-32531920,-9063260,-68190220,-39766990,10927730,20227050,-10058590
2026-01-14 17:14:12.901,-23307,25598960,-33355380,-7223848,10048830,117126500,-9897461
2026-01-14 17:14:12.911,-49200,75,-954663,-6832833,-7213491,92333980,-12005620,-8964844
2026-01-14 17:14:12.921,-32817630,25385760,-33206050,-39947390,8754883,-21313480,-81933590
2026-01-14 17:14:12.931,31839660,-36346260,-42184720,-39129970,80566410,-21875,-7529297
2026-01-14 17:14:12.941,31660110,-10349380,-68526860,-38964240,7817383,-17443850,-7373047
2026-01-14 17:14:12.951,3149006,25016320,-32936740,-3880627,74902340,-12188720,-76953130
2026-01-14 17:14:12.961,-1665916,24887710,-32840930,-71634270,71533200,-60638430,-75683590
2026-01-14 17:14:12.971,-189036,8,-11186650,-68673610,-7154795,6699219,-21026610,-73583980
2026-01-14 17:14:12.981,30994610,-11445600,-68708130,-38352260,64208980,23101810,-6972656
2026-01-14 17:14:12.991,-2330556,-37371700,-43075510,-71383950,5854492,-24356840,-69189460
2026-01-14 17:14:13.001,30687330,-37529660,-43211020,-38072590,53027340,-5581665,-6928711
2026-01-14 17:14:13.011,30532830,24244650,-32344610,-37933620,49291990,-7116699,-7661133
2026-01-14 17:14:13.021,-2995192,24128980,-32253110,-71168160,39916990,-7397461,-84765620
2026-01-14 17:14:13.031,30232440,24022820,-32169390,-37664310,33276370,50354000,-87597660
2026-01-14 17:14:13.041,30094330,23927000,-32092570,-37543470,27026370,3466797,-8925781
2026-01-14 17:14:13.051,29956230,23832920,-32014020,-37422630,18322750,35247800,-8798828
2026-01-14 17:14:13.061,29826750,-13137410,-68828970,-37310410,121032700,-8544922,-84472660
2026-01-14 17:14:13.071,-4048252,-1329275,-6882898,-70943730,7965088,-4928589,-75341800
2026-01-14 17:14:13.081,29578160,23576560,-31804270,-37092900,41259770,-53527830,-69140620
2026-01-14 17:14:13.091,-4419420,-13603520,-68828980,-70866050,3390503,-13989260,-6699219
2026-01-14 17:14:13.101,-459206,5,23397020,-31655800,-7083151,-11386870,-11029050,-6357422
2026-01-14 17:14:13.111,29238930,23302070,-31578120,-36793380,-25909420,-4397583,-6298828
2026-01-14 17:14:13.121,-491142,5,-1410415,-6882897,-7073658,-2708435,-36071780,-7314453
2026-01-14 17:14:13.131,29020550,-1427677,-6882899,-36597440,-491333,635376,-7573242
2026-01-14 17:14:13.141,2891178,23035350,-31361460,-3649902,-26245120,14916990,-79003900
2026-01-14 17:14:13.151,-5386166,-3900391,-4442982,-70589830,-20812990,12841800,-80078130
2026-01-14 17:14:13.161,-34789110,-14742900,-68846240,-41290480,-58555600,17041020,-7583008
2026-01-14 17:14:13.171,28602780,2279627,-3116899,-36221100,9628296,19421390,-7114258
2026-01-14 17:14:13.181,28502650,22720300,-31106830,-36131320,11390690,115600600,-70703130
2026-01-14 17:14:13.191,-5964492,-15148590,-68854860,-70408570,28427120,20324710,-6489258
2026-01-14 17:14:13.201,28320520,22577010,-30991160,-35968190,16952520,-7977295,-60302740
2026-01-14 17:14:13.211,-6223440,22501910,-30928150,-70339510,-13801580,-21679690,-5991211
2026-01-14 17:14:13.221,-634431,3,-15545650,-68854860,-7030500,-33081060,-25048830,-5942383
2026-01-14 17:14:13.231,-6456494,-15675120,-68846230,-70261830,-4940796,-29052730,-61376950
2026-01-14 17:14:13.241,-6568708,-15787330,-68854860,-70218670,-45776370,-36328120,-60253900
2026-01-14 17:14:13.251,-35253490,-15899540,-68863500,-41602940,-29792790,-28515620,-5722656
2026-01-14 17:14:13.261,-6775864,-1601172,-6887213,-70132350,43396000,-8050537,-54248050
2026-01-14 17:14:13.271,27762050,22136800,-30637270,-35456330,19213870,48754880,-4663086
2026-01-14 17:14:13.281,27691270,22078100,-30592380,-35389000,32739260,11347660,-4873047
2026-01-14 17:14:13.291,-7026184,22011640,-30538000,-69985620,2709961,10507810,-5864258
2026-01-14 17:14:13.301,27566110,-16477870,-68906660,-35272480,1706543,62109380,-6064453
2026-01-14 17:14:13.311,27511740,21888200,-30437010,-35223280,19384770,84472660,-5834961
2026-01-14 17:14:13.321,-725925,5,-40176130,-45398290,-6989068,23742680,13183590,-546875
2026-01-14 17:14:13.331,-732829,5,-1677998,-6888076,-6989067,17687990,12490230,-5449219
2026-01-14 17:14:13.341,27399520,-16866290,-68828980,-35128330,9312,63,5864258,-51660160
2026-01-14 17:14:13.351,-35561640,21625800,-30198770,-41812690,-10668950,1676941,-40161130
2026-01-14 17:14:13.361,27373620,-17030290,-68716760,-35119700,-99853520,-28808590,-21655270
2026-01-14 17:14:13.371,-750093,8,21477330,-30053760,-7001150,-3793335,-47094730,-34942630
2026-01-14 17:14:13.381,27385710,-17211560,-68587280,-35142140,7446289,-6977539,85510260
2026-01-14 17:14:13.391,30884640,-17332400,-68535500,-31660460,19055180,-8496094,19177250
2026-01-14 17:14:13.401,2740208,-17470510,-68500970,-3516027,30395510,-8466797,19995120
2026-01-14 17:14:13.411,2740208,-17625880,-68466440,-3516027,32128910,-9550781,13342290
2026-01-14 17:14:13.421,-35645360,-17763980,-68449180,-41901600,31713870,-11162110,13464360
2026-01-14 17:14:13.431,-7483662,-1791070,-6844055,-70011510,34350580,-11025390,13305660
2026-01-14 17:14:13.441,-747506,-18048830,-68440540,-6998563,3557129,-9536133,1508789
2026-01-14 17:14:13.451,27367590,20804060,-29466810,-35108480,3659668,-7363281,17529300
2026-01-14 17:14:13.461,-744915,20736730,-29413290,-6990793,39501950,-5595703,19543460
2026-01-14 17:14:13.471,27356360,-18428620,-68475070,-35085170,4230957,-3618164,2154541
2026-01-14 17:14:13.481,-7414612,-18549470,-68475070,-69838880,45507810,-19750980,22460940
2026-01-14 17:14:13.491,-7388716,-18661680,-68466440,-69812980,47973630,-56549070,20959470
2026-01-14 17:14:13.501,27353770,20480380,-29203550,-35070490,45483400,-38146970,20458980
2026-01-14 17:14:13.511,-35443380,-1887746,-6842327,-41689260,40039060,-6561279,20593260
2026-01-14 17:14:13.521,30861170,-1898104,-6840604,-31632150,3713379,-8721924,19311520
2026-01-14 17:14:13.531,-7276504,-41254220,-46184640,-69804350,31884770,-3164673,15710450
2026-01-14 17:14:13.541,27445270,-1913641,-6833699,-35151630,31933590,9136963,11279300
2026-01-14 17:14:13.551,27480660,-19196840,-68293810,-35185300,34692380,18762210,8416748
2026-01-14 17:14:13.561,-7138394,-1923997,-6826792,-69873410,35253900,2548828,30532840
2026-01-14 17:14:13.571,27560940,-41297380,-46193270,-35260390,33544920,2364502,-28411860
2026-01-14 17:14:13.581,-35333760,20088500,-28835830,-41626250,35986330,9057617,-38024900
2026-01-14 17:14:13.591,-694851,8,-41274080,-46164780,-6997700,3330078,-6719971,-41503900
2026-01-14 17:14:13.601,27722350,24025150,-24899190,-35409720,35131840,-15649410,-7633209
2026-01-14 17:14:13.611,27786220,-1919683,-6815572,-35466690,36865230,-15124510,49095150
2026-01-14 17:14:13.621,-6680918,-1913639,-6816434,-70054670,40844730,-10217290,28137210
2026-01-14 17:14:13.631,-35158540,20186900,-28910070,-41507990,40771480,-66833500,11993410
2026-01-14 17:14:13.641,-35100700,2024216,-2895839,-41462250,4116211,-10058590,14282230
2026-01-14 17:14:13.651,28052940,-18877470,-68198860,-35700610,44506840,-16577150,-32672880
2026-01-14 17:14:13.661,-6240702,20380250,-29079250,-70132350,44262700,-25976560,15113830
2026-01-14 17:14:13.671,-34933250,-4096333,-4592309,-41336220,4975586,-3305664,8618164
2026-01-14 17:14:13.681,28284270,-18514940,-68267910,-35900860,54248050,-33520510,1418457
2026-01-14 17:14:13.691,28359370,20627980,-29297630,-35963870,5698242,-2854004,17651370
2026-01-14 17:14:13.701,-5722800,20710840,-29370140,-70201410,60595700,-13439940,20056150
2026-01-14 17:14:13.711,-5593324,-40732870,-45756500,-70210040,62597660,20141600,21142580
2026-01-14 17:14:13.721,-34602660,20875710,-29516010,-41079860,6376953,111450200,23205570
2026-01-14 17:14:13.731,-5308482,20958570,-29588520,-70253200,6689453,25976560,29956060
2026-01-14 17:14:13.741,28778870,-17763980,-68449180,-36321230,7011719,45336910,38256840
2026-01-14 17:14:13.751,28862590,21097540,-29708500,-36392860,69384770,5966797,4699707
2026-01-14 17:14:13.761,28954090,-17556820,-68466440,-36474000,7084961,75927740,5136719
2026-01-14 17:14:13.771,-473880,3,25059650,-25919020,-7033951,6899414,8666992,5390625
2026-01-14 17:14:13.781,-4592050,-40381560,-45486340,-70382670,6928711,10458980,55859380
2026-01-14 17:14:13.791,32615810,21243420,-29821570,-33364700,6977539,11757810,57421880
2026-01-14 17:14:13.801,-430722,21246870,-29818120,-7047762,64404300,12802730,62841800
2026-01-14 17:14:13.811,29453000,-1729786,-6834561,-36924580,6010742,13330080,5864258
2026-01-14 17:14:13.821,-33994120,-40228780,-45328380,-40652600,4946289,13574220,56396480
2026-01-14 17:14:13.831,-389289,8,21189900,-29736980,-7070204,42358400,12119140,625
2026-01-14 17:14:13.841,-3772046,21151920,-29688650,-70805630,3642578,9926758,69384770
2026-01-14 17:14:13.851,-3390782,21113940,-29640310,-4063533,31640620,74658200,79052740
2026-01-14 17:14:13.861,-3513092,-17263350,-67896750,-71012780,2775879,5073242,89746100
2026-01-14 17:14:13.871,-33867240,21002590,-29509970,-40641380,22021480,23376460,9472656
2026-01-14 17:14:13.881,30249700,-17297880,-67689590,-37698840,15258790,-72021490,97216800
2026-01-14 17:14:13.891,30345520,20899010,-29389130,-37792920,53375240,-36791990,10166020
2026-01-14 17:14:13.901,30433560,20858440,-29343380,-37877520,3100586,-49121100,10791020
2026-01-14 17:14:13.911,-33780060,-39900780,-44914060,-40624980,13336180,-55859380,10742190
2026-01-14 17:14:13.921,-2891612,20801480,-29279510,-71461630,-680542,-6777344,10195310
2026-01-14 17:14:13.931,-281394,5,-39878340,-44884700,-7148754,-13391110,-81152340,10166020
2026-01-14 17:14:13.941,-2744876,-17341030,-67422010,-71487530,-14257810,-7285156,10361330
2026-01-14 17:14:13.951,34035120,-17323770,-67439270,-34776590,-13061520,-5317383,9926758
2026-01-14 17:14:13.961,-259813,8,-1729788,-6748243,-7144437,-13024900,-46899420,98046870
2026-01-14 17:14:13.971,-2520448,20896420,-29374450,-71418480,-17529300,-45947260,99316410
2026-01-14 17:14:13.981,-2442764,-1721153,-6756875,-71375310,-19580080,-2746582,10673830
2026-01-14 17:14:13.991,-2356444,-1715111,-6762918,-71340780,-17785640,-12036130,10859380
2026-01-14 17:14:14.001,30847880,21051790,-29529820,-38205520,-22241210,-2109375,10898440
2026-01-14 17:14:14.011,30879810,-17021660,-67741380,-38225370,-28125,-32080080,10410160
2026-01-14 17:14:14.021,30912620,-1692670,-6780182,-38244360,-30004880,-31591800,97021490
2026-01-14 17:14:14.031,-1985288,-16814500,-67879490,-71194050,-32373050,-26245120,84472660
2026-01-14 17:14:14.041,30986850,-1666775,-6795719,-38290970,-32739260,-35961910,7548828
2026-01-14 17:14:14.051,-1769496,21555020,-30010600,-71116370,-35302740,-36572260,7817383
2026-01-14 17:14:14.061,-1648648,-39632330,-44819970,-71064580,-29711910,-23876950,9760742
2026-01-14 17:14:14.071,-3278745,-16072180,-68276540,-3973592,-23522950,-97961420,11162110
2026-01-14 17:14:14.081,-1363804,22062560,-30487080,-70935100,-1697998,-1689148,12402340
2026-01-14 17:14:14.091,-32554360,22240370,-30654530,-39520120,-140625,-41900640,12783200
2026-01-14 17:14:14.101,-1053064,22444080,-30847880,-70796990,-10321050,-6323242,11855470
2026-01-14 17:14:14.111,-897700,22657280,-31049000,-70710670,-20019530,23956300,10703130
2026-01-14 17:14:14.121,-750952,22888610,-31266510,-70632990,36834720,103637700,10292970
2026-01-14 17:14:14.131,-32073580,23130300,-31490940,-39068690,97351070,2565918,10078130
2026-01-14 17:14:14.141,31473670,-14155950,-69260560,-38563740,11639400,36206060,93066410
2026-01-14 17:14:14.151,-26760,23642160,-31963090,-7039130,8984375,55615230,7470703
2026-01-14 17:14:14.161,-31705000,-1342223,-6954539,-38729460,99853520,81689460,5888672
2026-01-14 17:14:14.171,-31584160,-13016560,-69640350,-38625880,6536865,9477539,4650879
2026-01-14 17:14:14.181,31802540,-12584980,-69726660,-38804560,8660889,10146480,44995120
2026-01-14 17:14:14.191,50062,25,24733200,-32926380,-7033087,11206060,98583980,48242190
2026-01-14 17:14:14.201,32062360,-37842990,-43657280,-39028120,118896500,10009770,50634770
2026-01-14 17:14:14.211,940852,28908090,-29718250,-70443090,12512210,10146480,5253906
2026-01-14 17:14:14.221,116524,8,-10703280,-69795720,-7054668,10656740,10429690,50439450
2026-01-14 17:14:14.231,1398332,25764690,-33759340,-70676140,15039060,10898440,4675293
2026-01-14 17:14:14.241,-30980810,-9710636,-69631710,-38227960,20214840,97558590,3618164
2026-01-14 17:14:14.251,1855812,26224760,-34093390,-71030050,1907959,67871100,21777340
2026-01-14 17:14:14.261,207159,26441410,-34239260,-7126310,8569336,19042970,8874512
2026-01-14 17:14:14.271,-30923840,-807923,-6913970,-38302190,12794500,-97229010,10699460
2026-01-14 17:14:14.281,-30935060,26899750,-34540510,-38360020,50720220,-54473880,35302740
2026-01-14 17:14:14.291,2649920,-6879446,-68682230,-72048590,8514404,-5218506,7080078
2026-01-14 17:14:14.301,-3440138,27329610,-34801180,-3515266,33966060,-50097660,9970703
2026-01-14 17:14:14.311,3428585,-5722802,-68164340,-4125855,36987300,-6591797,11669920
2026-01-14 17:14:14.321,-31169840,-520488,3,-6788811,-38763980,31402590,-7089844,12841800
2026-01-14 17:14:14.331,-31264790,-4704260,-67611900,-38893460,-1270752,-9404297,125
2026-01-14 17:14:14.341,-34816980,-4264050,-67344330,-35582960,-26293940,-12783200,11943360
2026-01-14 17:14:14.351,3116032,-3875620,-67094000,-73740400,-29296880,-1421875,12216800
2026-01-14 17:14:14.361,311600,8,-3538988,-66895480,-7394756,-21044920,-11445310,11816410
2026-01-14 17:14:14.371,35050640,-3271404,-66731480,-42151060,-72143550,-84277340,9707031
2026-01-14 17:14:14.381,307285,5,-31667890,-38024250,-7419789,6518555,-6850586,6933594
2026-01-14 17:14:14.391,-31742120,31494820,-32189670,-39469190,16186520,-5253906,40722660
2026-01-14 17:14:14.401,2969296,28450860,-35389000,-74232400,28979490,-3623047,8026123
2026-01-14 17:14:14.411,-31778370,-31471950,-37874920,-39484730,37109380,-38500980,-13696290
2026-01-14 17:14:14.421,283119,-256360,3,-6681779,-7405977,39501950,-46069340,-2824707
2026-01-14 17:14:14.431,34775280,-2477292,-66990430,-41891240,41210940,-546875,-30688480
2026-01-14 17:14:14.441,-31698100,-241685,3,-6718894,-39340580,38110350,-36865230,-22937010
2026-01-14 17:14:14.451,264126,-2390970,-67422010,-7352460,4284668,-29434200,-87890620
2026-01-14 17:14:14.461,37962100,-31756790,-38280610,-37962110,41796880,21972660,-11665340
2026-01-14 17:14:14.471,2563604,-2425502,-67853590,-73118910,4020996,39575200,-892334
2026-01-14 17:14:14.481,-31443470,-2477294,-68043490,-38991000,3569336,54052740,-22485350
2026-01-14 17:14:14.491,2468660,29307130,-36379920,-72799540,23254400,47143560,-2919922
2026-01-14 17:14:14.501,2408236,-255494,3,-6832834,-72687330,25054930,3227539,-25341800
2026-01-14 17:14:14.511,-31383910,-258948,5,-6841464,-38877920,-83862300,3786621,-15734860
2026-01-14 17:14:14.521,2278760,29374450,-36485220,-72540590,-24719240,24780270,-43701170
2026-01-14 17:14:14.531,-31420160,29363230,-36479180,-38893460,-38623050,3086853,54992680
2026-01-14 17:14:14.541,2132020,-2693080,-68500970,-72514700,-5161133,19500730,13134770
2026-01-14 17:14:14.551,205430,8,-2736240,-68475070,-7254060,-6274414,20251460,7751465
2026-01-14 17:14:14.561,-31584160,-32323030,-38888280,-39040200,-72753900,748291,46081540
2026-01-14 17:14:14.571,188168,8,29215630,-36333300,-7266143,-82421870,3579712,6237793
2026-01-14 17:14:14.581,180399,-2874350,-68267910,-7273912,-8701172,6112671,1394043
2026-01-14 17:14:14.591,33732580,-32283330,-38807140,-40845090,-8925781,-19042970,20385740
2026-01-14 17:14:14.601,-31927700,28971350,-36076940,-39387200,-91796870,-71777340,15307620
2026-01-14 17:14:14.611,-32014020,-3090140,-67948540,-39473510,-88916020,-13085940,60058590
2026-01-14 17:14:14.621,145873,8,28798720,-35904310,-7310164,-8041992,-15654300,-43563840
2026-01-14 17:14:14.631,136380,-325413,5,-6785359,-7312755,-61621100,-14257810,-10235600
2026-01-14 17:14:14.641,-3221430,-3340456,-67853590,-3965305,-4555664,-13759770,-2565918
2026-01-14 17:14:14.651,117389,5,28665790,-35795560,-7309301,-27563480,-11025390,-5083008
2026-01-14 17:14:14.661,11047,28659750,-35801600,-730411,1,-3579712,-43969730,-91845700
2026-01-14 17:14:14.671,3342442,-32527600,-38977190,-4061809,17382810,56396480,-12412110
2026-01-14 17:14:14.681,3338991,-348719,5,-6803486,-4058354,28076170,12607420,-1359375
2026-01-14 17:14:14.691,-32279010,31951090,-32665620,-39674620,27319340,83154300,-12167970
2026-01-14 17:14:14.701,-32286780,28775410,-35910350,-39684120,34204100,97717290,-80810540
2026-01-14 17:14:14.711,-32285050,-3254140,-68008960,-39685850,57714840,-103027300,-17321780
2026-01-14 17:14:14.721,106169,5,-323687,5,-6800896,-7298081,11259770,59472660,5161133
2026-01-14 17:14:14.731,110482,5,-3288668,-68026220,-7297218,17851560,13349610,10039060
2026-01-14 17:14:14.741,33441690,-3400882,-68086650,-40618070,23886720,19443360,12802730
2026-01-14 17:14:14.751,33413210,-32634640,-39094580,-40577500,27363280,17167970,115625
2026-01-14 17:14:14.761,1191172,28663210,-35867200,-72695970,26503910,171875,92041020
2026-01-14 17:14:14.771,-32007970,28645940,-35884460,-39375970,26132810,-8540039,22802730
2026-01-14 17:14:14.781,33114560,28706360,-35979410,-40237410,29550780,-13886720,-236969
2026-01-14 17:14:14.791,97535,5,-4134570,-69044770,-7196227,35742190,17529300,-4868164
2026-01-14 17:14:14.801,32789140,28822890,-36173620,-39872300,25019530,-49453120,-69433590
2026-01-14 17:14:14.811,-3157382,28964450,-36377330,-3879160,28242190,-53515620,-3491211
2026-01-14 17:14:14.821,32289370,29178510,-36663900,-39267220,34765620,15166020,-1390625
2026-01-14 17:14:14.831,-31115460,29345970,-36876240,-38231410,23632810,-90625,-76953130
2026-01-14 17:14:14.841,932220,-34550000,-41201570,-69864770,12587890,-13115230,54003900
2026-01-14 17:14:14.851,966748,-473012,5,-7143574,-69554030,84375,29921880,69189460
2026-01-14 17:14:14.861,958108,-4894160,-71547950,-69424560,7011719,690625,68603520
2026-01-14 17:14:14.871,906328,29374450,-37020380,-69545400,953125,79492190,5
2026-01-14 17:14:14.881,802740,-5170372,-71099100,-69873400,10107420,45117190,19592280
2026-01-14 17:14:14.891,-3122940,-529984,8,-7071067,-3832464,10419920,6166992,43676760
2026-01-14 17:14:14.901,-31433970,28664070,-36246130,-38551650,9638672,-13369140,6015625
2026-01-14 17:14:14.911,49199,28444820,-36016530,-7085741,7446289,-27148440,7680664
2026-01-14 17:14:14.921,-31750750,28264420,-35834400,-38890870,52246100,-25507810,7158203
2026-01-14 17:14:14.931,-31864690,-5964486,-69787090,-39001360,33618160,-95947260,1430664
2026-01-14 17:14:14.941,32110690,-6076698,-69674880,-39221460,-30075070,31414030,-41674800
2026-01-14 17:14:14.951,-32127090,27929510,-35496030,-39256850,-4326172,-1998291,-62646480
2026-01-14 17:14:14.961,-32273830,-608531,5,-6940728,-39403590,-7319336,-6386719,-27734380
2026-01-14 17:14:14.971,3205198,27851820,-35383820,-3924562,-72509770,-6279297,2685547
2026-01-14 17:14:14.981,-43158,5,-599901,-6914834,-7172922,-60253900,-38867190,40625
2026-01-14 17:14:14.991,32037320,-5947222,-69027500,-39277580,-47265620,-25195310,2142334
2026-01-14 17:14:15.001,-638748,-5904064,-68915290,-71970900,-42016600,-31982420,-36193850
2026-01-14 17:14:15.011,32025240,-34174520,-40472200,-39306920,-3215332,-47460940,-27416990
2026-01-14 17:14:15.021,-84592,27781910,-35229320,-7214353,-15527340,-26831060,-39941410
2026-01-14 17:14:15.031,31974310,-36826610,-37457580,-39288790,-3933716,10467530,-44702150
2026-01-14 17:14:15.041,31939780,-543793,8,-6863909,-39271530,-29052730,982666,-40039060
2026-01-14 17:14:15.051,-33177560,-526530,3,-6858727,-40295240,-10241700,-59814450,-31958010
2026-01-14 17:14:15.061,-125160,8,31344460,-32081090,-7237658,-12585450,93688970,-30859380
2026-01-14 17:14:15.071,-133792,5,28083150,-35428710,-7244563,-1776123,25024410,-32861330
2026-01-14 17:14:15.081,-1424228,-33446010,-39802380,-72514700,-19885250,13220220,-34887700
2026-01-14 17:14:15.091,31840520,-4730154,-68328340,-39249950,-2446289,1878357,-34326170
2026-01-14 17:14:15.101,-157961,5,28155660,-35442520,-7268732,-22631840,-95581060,-2565918
2026-01-14 17:14:15.111,31849150,-456614,-6812982,-39293110,-22058100,-8538818,-14038090
2026-01-14 17:14:15.121,-171772,-33095570,-39445020,-7289451,-28588870,-19897460,-7800293
2026-01-14 17:14:15.131,-33839620,-450571,3,-6789674,-40962470,-3046875,-16394040,-99975580
2026-01-14 17:14:15.141,-33923340,-449708,-6776726,-41051380,-33007810,-4522705,-11828610
2026-01-14 17:14:15.151,-34014840,-35756280,-36387260,-41149780,-4099121,-2218628,-1920166
2026-01-14 17:14:15.161,3194062,-4557524,-67465170,-3947783,-5102539,-513916,-29956060
2026-01-14 17:14:15.171,31973450,-4592052,-67309790,-39531340,-5878906,-4840088,-40722660
2026-01-14 17:14:15.181,32014880,-461792,8,-6712855,-39593490,-6386719,-15588380,-49975580
2026-01-14 17:14:15.191,-214930,27572160,-34731270,-7386123,-68359380,-3256836,-53466800
2026-01-14 17:14:15.201,-220109,27494470,-34636320,-7401660,-6621094,-48876950,-46679690
2026-01-14 17:14:15.211,-225288,5,27416790,-34541370,-7417197,-63720700,-4584961,-35668940
2026-01-14 17:14:15.221,35628360,-4643842,-66446630,-36394340,-59716800,-484375,-19812010
2026-01-14 17:14:15.231,32225490,30460320,-31169840,-39900780,-56591800,-3671875,-12487790
2026-01-14 17:14:15.241,-233056,8,27195820,-34278970,-7456040,-5390625,-20129400,-9729004
2026-01-14 17:14:15.251,-34888370,-4721528,-66023680,-42123440,-51123050,-8807373,-6573486
2026-01-14 17:14:15.261,-233056,8,27031810,-34097700,-7478482,-4970703,14404300,-55145260
2026-01-14 17:14:15.271,-232193,8,-32256570,-38350530,-7489706,-47680660,-16021730,-115737900
2026-01-14 17:14:15.281,-229604,3,-32239300,-38316000,-7499201,-44482420,-5670166,54351810
2026-01-14 17:14:15.291,-227015,8,-4971846,-65548940,-7508694,-43554690,-11437990,58807370
2026-01-14 17:14:15.301,-38348460,-5032268,-65436720,-39077660,-43237300,-23535160,58746340
2026-01-14 17:14:15.311,-35096390,-5101320,-65333140,-42398790,-44458010,-30395510,8094788
2026-01-14 17:14:15.321,-35117970,-5153110,-65246820,-42429000,-38061520,-18334960,-36590580
2026-01-14 17:14:15.331,-220973,8,-5187634,-65160510,-7540631,-31274410,-56648260,-48553470
2026-01-14 17:14:15.341,-220973,8,-5204902,-65074190,-7547536,-26611330,1966858,-6213379
2026-01-14 17:14:15.351,32788280,-32115870,-38094170,-40563690,-22497560,-16494750,-5960083
2026-01-14 17:14:15.361,-2201076,26342150,-33354510,-75622100,-18017580,-56915280,-5630493
2026-01-14 17:14:15.371,-218383,26321430,-33323440,-7569115,-16137700,-7757568,-91430660
2026-01-14 17:14:15.381,-217518,5,-514447,3,-6475482,-7575158,-15307620,-12817380,-18640140
2026-01-14 17:14:15.391,-3530615,26307620,-33285460,-4267240,-1619873,-24499510,-2915039
2026-01-14 17:14:15.401,-35319090,-4997740,-64625350,-42693990,-19946290,-3544922,-45654300
2026-01-14 17:14:15.411,-35314770,-4885532,-64582190,-42698300,-20031740,-50878900,-60058590
2026-01-14 17:14:15.421,33070530,-4738788,-64556290,-40868390,-21472170,-5966797,-7651367
2026-01-14 17:14:15.431,33134410,26540670,-33449470,-40925360,-19873050,-4909668,-84228510
2026-01-14 17:14:15.441,33200000,-4333100,-64547660,-40980600,-13696290,-27319340,-9550781
2026-01-14 17:14:15.451,-1657288,-4082780,-64573560,-75993260,-65979000,-10290530,-11914060
2026-01-14 17:14:15.461,-147603,3,-31166390,-37248260,-7596738,-10696410,-12384030,-13886720
2026-01-14 17:14:15.471,-34858160,-3461304,-64677140,-42326280,21087650,-2939453,-12763670
2026-01-14 17:14:15.481,-38053780,-3107402,-64772090,-38802660,13183590,-4777832,-95458980
2026-01-14 17:14:15.491,-67330,-2762132,-64910190,-7578610,27563480,-66308590,-5239258
2026-01-14 17:14:15.501,-31940,-2442762,-65091460,-7563937,42138670,-73535150,-84228510
2026-01-14 17:14:15.511,33984630,-30575120,-36890050,-41525260,53466800,-7890625,23278810
2026-01-14 17:14:15.521,440216,-30557850,-36924580,-75242300,6044922,-8222656,4753418
2026-01-14 17:14:15.531,3420298,-1683174,-65868300,-4161762,72509770,-64208980,7006836
2026-01-14 17:14:15.541,1225696,-1493278,-66179040,-74698510,7558594,-34423830,87402340
2026-01-14 17:14:15.551,159684,3,-30663160,-37181800,-7439642,78271490,-48065180,93847660
2026-01-14 17:14:15.561,1950760,29441780,-36245260,-74077030,80615230,17565920,93310540
2026-01-14 17:14:15.571,-31941510,-1018534,-67206220,-39546020,78466800,17480470,83984380
2026-01-14 17:14:15.581,2580868,-863166,-67551480,-73446920,69189460,-58517460,6435547
2026-01-14 17:14:15.591,2857080,-690532,-67879490,-73118910,6118164,-30334470,37695310
2026-01-14 17:14:15.601,-31060220,-492004,-68216130,-38649180,52734380,1003418,2746582
2026-01-14 17:14:15.611,3314560,-30992030,-37819680,-72488800,4091797,22998050,27783200
2026-01-14 17:14:15.621,-30569080,-25892,-68837600,-38139050,2529297,42285160,35107420
2026-01-14 17:14:15.631,34392900,233060,-69096560,-41220560,11468510,92871100,42993160
2026-01-14 17:14:15.641,-30171160,31455550,-38340170,-37725600,-10864260,14160160,5883789
2026-01-14 17:14:15.651,3961940,-30878950,-37898230,-71547950,-23168940,15712890,68652340
2026-01-14 17:14:15.661,410002,8,31818080,-38685440,-7144436,-4482422,16054690,73095700
2026-01-14 17:14:15.671,4238152,108762,8,-6964035,-71375310,-640625,15683590,7709961
2026-01-14 17:14:15.681,4376260,-30674380,-37757530,-71375320,-7553711,13447270,7163086
2026-01-14 17:14:15.691,-29659300,32019200,-38846850,-37253440,-8027344,94873050,4711914
2026-01-14 17:14:15.701,4652470,1363804,-69484980,-71496160,-77197260,52441410,16760250
2026-01-14 17:14:15.711,-2958681,-30433560,-37514980,-3722238,-7392578,15148930,-1204834
2026-01-14 17:14:15.721,-29566940,1510544,-69286450,-37224960,-7138672,-27124020,-36157230
2026-01-14 17:14:15.731,500635,5,32020060,-38776930,-7176373,-6982422,-5834961,-5097656
2026-01-14 17:14:15.741,35144720,-30139220,-37222370,-41815280,-69433590,-60791020,-5546875
2026-01-14 17:14:15.751,523941,32100340,-38817500,-7187594,-6899414,-5805664,-5600586
2026-01-14 17:14:15.761,-29402940,2028446,-68992970,-37130010,-69384770,-67626950,-5317383
2026-01-14 17:14:15.771,35392460,220973,-6896710,-42033660,-69140620,-6723633,-4440918
2026-01-14 17:14:15.781,-2924068,32336840,-38995310,-3699880,-70410160,-57128900,-32739260
2026-01-14 17:14:15.791,-29137950,32423160,-39064370,-36911630,-6972656,-31030270,-22460940
2026-01-14 17:14:15.801,-29025730,-29555710,-36718280,-36816680,-6767578,12023930,-18054200
2026-01-14 17:14:15.811,-28912660,282257,8,-6894117,-36722600,-6972656,38116460,-18823240
2026-01-14 17:14:15.821,35882740,-29388260,-36574990,-42423820,-68603520,42999270,-2487793
2026-01-14 17:14:15.831,6680916,-29295040,-36495580,-71850060,-6699219,49560550,-296875
2026-01-14 17:14:15.841,6913968,3262776,-68880760,-71841430,-62402340,16589360,-3737793
2026-01-14 17:14:15.851,7155658,3452674,-68846230,-71841420,-54248050,30444340,-43701170
2026-01-14 17:14:15.861,7397344,-28952360,-36199520,-71841420,-5102539,3400879,-46142580
2026-01-14 17:14:15.871,-28118540,-32074440,-32801220,-36066590,-47509770,35595700,-44360350
2026-01-14 17:14:15.881,-27984750,4160472,-68725390,-35958700,-47827150,41479490,-4453125
2026-01-14 17:14:15.891,-27850960,4453946,-68673600,-35850800,-45507810,3034668,-40722660
2026-01-14 17:14:15.901,840725,476468,8,-6862181,-7185006,-4284668,18334960,-45922850
2026-01-14 17:14:15.911,8666194,5092692,-68552760,-71850060,-34838870,21606440,-5317383
2026-01-14 17:14:15.921,8942412,-27825060,-35220680,-71850060,-3017578,105529800,-5527344
2026-01-14 17:14:15.931,920998,-27593740,-35020430,-7184144,-26879880,-3970337,-54541020
2026-01-14 17:14:15.941,948620,8,622344,3,-6838876,-7182417,-23999020,-11407470,-49145510
2026-01-14 17:14:15.951,-26934280,662914,-6832832,-35092940,-18200680,-10632320,-4387207
2026-01-14 17:14:15.961,10064530,703484,3,-6826792,-71781010,-13903810,-12445070,-39379880
2026-01-14 17:14:15.971,-26589010,-26591600,-34158120,-34799460,-115112300,-17993160,-3395996
2026-01-14 17:14:15.981,10668740,7872094,-68155700,-71711950,-9112549,-33984380,-28955080
2026-01-14 17:14:15.991,38292690,8286410,-68086650,-44364220,-11462400,-60009770,-23364260
2026-01-14 17:14:16.001,1128157,8692100,-68043490,-7163427,-66223140,-61279300,-92163090
2026-01-14 17:14:16.011,11600970,-25606720,-33313090,-71573850,40863040,-47314450,58013920
2026-01-14 17:14:16.021,-25624850,-25391790,-33130950,-33968230,12371830,-5317383,6896973
2026-01-14 17:14:16.031,1223971,979695,5,-6793990,-7143574,20214840,-6870117,-23620600
2026-01-14 17:14:16.041,1255906,10142220,-67922650,-7134079,27856440,-7006836,-17227170
2026-01-14 17:14:16.051,12878450,-24796210,-32638950,-71228580,3552246,-52685550,5718994
2026-01-14 17:14:16.061,-24734930,36530980,-42241690,-33166340,42211910,-12463380,15893560
2026-01-14 17:14:16.071,13525830,-24443170,-32353240,-70995520,46875,24414060,26538090
2026-01-14 17:14:16.081,-2428349,3689091,-4253775,-3275461,4814453,38208010,2956543
2026-01-14 17:14:16.091,-24058210,11799500,-67957170,-32548320,47021480,44506840,26416020
2026-01-14 17:14:16.101,-23842410,-23919230,-31927700,-32349790,4736328,5986328,22253420
2026-01-14 17:14:16.111,-23635250,12438250,-67957170,-32159890,44995120,6791992,2565918
2026-01-14 17:14:16.121,14984590,1275764,-6794855,-70417200,40966800,66015620,33740230
2026-01-14 17:14:16.131,15234910,-27017740,-27827910,-70322260,33422850,46948240,41577150
2026-01-14 17:14:16.141,-23094050,13413620,-67914020,-31665300,28344730,26049800,3828125
2026-01-14 17:14:16.151,1570099,13724360,-67896750,-7013235,3227539,12463380,28076170
2026-01-14 17:14:16.161,1590818,1404374,-6788812,-7004604,36083980,36010740,18359380
2026-01-14 17:14:16.171,16106700,38446340,-43796250,-69933820,38110350,-11207580,5532837
2026-01-14 17:14:16.181,-22460480,-22438900,-30697680,-31073170,41186520,-4676819,-8618164
2026-01-14 17:14:16.191,1646923,-22231740,-30525050,-6972668,47265620,42541500,-17932130
2026-01-14 17:14:16.201,-22169600,-22014220,-30345510,-30794360,48095700,18539430,-2265625
2026-01-14 17:14:16.211,1680586,-25536810,-26374080,-6949362,49072260,-8331299,-23266600
2026-01-14 17:14:16.221,1697850,1633976,-6780180,-6937277,51708980,-19018560,-25170900
2026-01-14 17:14:16.231,-21723340,39736780,-44836370,-30360190,5395508,-26904300,-17797850
2026-01-14 17:14:16.241,-21566240,1724610,-6777589,-30206540,50390620,-3996582,-8380127
2026-01-14 17:14:16.251,-25290290,-20748820,-29297630,-26154490,5180664,-64208980,-5532837
2026-01-14 17:14:16.261,17669040,181699,8,-677673,5,-68768540,53759770,-78222660,-43396000
2026-01-14 17:14:16.271,17850300,-24142270,-25006480,-68587280,5761719,-65234380,-32409670
2026-01-14 17:14:16.281,-2085759,-20014260,-28702910,-2949962,57714840,-38549800,2670288
2026-01-14 17:14:16.291,-24547970,19542110,-67827700,-25412170,578125,-25195310,23727420
2026-01-14 17:14:16.301,-20470020,19999590,-67836330,-29110320,6069336,-17504880,898,3612
2026-01-14 17:14:16.311,40732870,20448440,-67853590,-45652930,6176758,-8087158,-51483150
2026-01-14 17:14:16.321,1876524,20905920,-67862220,-6760327,61865230,8660889,-7702637
2026-01-14 17:14:16.331,-19911550,21372030,-67862220,-28546670,59228520,32714840,-6915283
2026-01-14 17:14:16.341,40762220,-18519260,-27487570,-45571790,5932617,46484380,-107177700
2026-01-14 17:14:16.351,19291790,42781170,-47333510,-67042220,5800781,27514650,-1104126
2026-01-14 17:14:16.361,19455790,-17984090,-27038720,-66878220,57714840,6542969,-12988280
2026-01-14 17:14:16.371,-19212380,-17713060,-26809120,-27847510,6254883,-11306760,-15454100
2026-01-14 17:14:16.381,19835590,2366808,-6768960,-66550210,6425781,-22009280,-18481440
2026-01-14 17:14:16.391,-1885506,24099630,-67637800,-2749706,6850586,-45117190,-25732420
2026-01-14 17:14:16.401,-18654780,43915370,-48219120,-27300260,7368164,-47338870,-28955080
2026-01-14 17:14:16.411,20474330,-16650500,-25903660,-66015040,7475586,-46972660,-2836914
2026-01-14 17:14:16.421,-18219740,25428910,-67516960,-26872130,68847660,-3996582,-25805660
2026-01-14 17:14:16.431,20966340,-16143820,-25478110,-65592100,60253900,-48675540,-13183590
2026-01-14 17:14:16.441,2122528,2628345,-6745653,-6536767,52001950,33203120,-38879400
2026-01-14 17:14:16.451,2147557,26697770,-67422020,-6515187,44873050,53222660,-48553470
2026-01-14 17:14:16.461,43123580,27094830,-67370220,-43555680,40234380,59033200,-10443120
2026-01-14 17:14:16.471,21984870,45413830,-49396480,-64746190,3762207,56884770,-19519040
2026-01-14 17:14:16.481,22226560,2788897,-6724939,-64573560,35327150,54003900,-27197270
2026-01-14 17:14:16.491,41329320,28268730,-67180320,-45522590,33496090,50097660,-38208010
2026-01-14 17:14:16.501,-16429530,45948990,-49793540,-25123350,34887700,4333496,-44702150
2026-01-14 17:14:16.511,22934360,-14197380,-23799260,-64090180,2866211,29736330,-48706060
2026-01-14 17:14:16.521,-16041110,29356320,-66904110,-24752190,24072270,16503910,-4584961
2026-01-14 17:14:16.531,41577910,29692960,-66809160,-45619260,19274900,11218260,-37890620
2026-01-14 17:14:16.541,-15660450,30003700,-66722850,-24390520,13146970,37750240,-3100586
2026-01-14 17:14:16.551,-19407200,30279910,-66636530,-20281240,10461430,-3475952,-25854490
2026-01-14 17:14:16.561,24073730,30530230,-66558840,-63416910,28213500,5517578,-16638180
2026-01-14 17:14:16.571,24298160,-13013970,-22738420,-63296070,-58776860,2878189,-1171875
2026-01-14 17:14:16.581,41924040,30935920,-66429370,-45791030,-13977050,-8746338,-12658690
2026-01-14 17:14:16.591,-14788650,-17164430,-18139120,-23570510,-23303220,-14819340,-9112549
2026-01-14 17:14:16.601,-14627240,31194870,-66343050,-23421180,-2939453,-2163086,-7897949
2026-01-14 17:14:16.611,25144060,-12643670,-22400920,-62916270,-3972168,-19995120,-9100342
2026-01-14 17:14:16.621,42214930,-12608280,-22367260,-45966260,-46069340,3604889,-42266850
2026-01-14 17:14:16.631,25506590,31298450,-66256730,-62795430,-48217770,47302250,-6365967
2026-01-14 17:14:16.641,2567059,-12603110,-22355170,-6276954,-40649420,-10925290,-117370600
2026-01-14 17:14:16.651,-14026470,3122078,-6623083,-22882570,-28442380,-20898440,-21496580
2026-01-14 17:14:16.661,-13934110,31151710,-66230840,-22802290,-25219730,-15393070,-24914550
2026-01-14 17:14:16.671,-13841750,-12735170,-22464800,-22722020,-28295900,-17443850,-1850586
2026-01-14 17:14:16.681,2624891,-12808540,-22529530,-6265734,-32470700,-15014650,-15673830
2026-01-14 17:14:16.691,26378390,46768140,-50320930,-62631420,-3046875,-42816160,-16271970
2026-01-14 17:14:16.701,42750960,-17382640,-18352500,-46362450,-27954100,59448240,-19250490
2026-01-14 17:14:16.711,-13544830,46626580,-50220810,-22466520,-22058100,17468260,-22766110
2026-01-14 17:14:16.721,26689130,46554940,-50171610,-62596900,-10021970,17272950,-29736330
2026-01-14 17:14:16.731,42886470,46482430,-50123270,-46468610,21896360,395813,-3659668
2026-01-14 17:14:16.741,-13396360,-17842620,-18807470,-22338770,6958008,-503,0632,-38134770
2026-01-14 17:14:16.751,2692218,-13627690,-23264090,-6257102,11828610,-3137207,-39208980
2026-01-14 17:14:16.761,-13303140,-18085520,-19047950,-22259360,16784670,9411621,-38427740
2026-01-14 17:14:16.771,43041840,-13881460,-23493690,-46589460,18383790,14477540,-40966800
2026-01-14 17:14:16.781,27155250,-18319780,-19279800,-62545110,14672850,15979000,-40942380
2026-01-14 17:14:16.791,-13162440,29028330,-66835060,-22141110,1541748,14477540,-42260740
2026-01-14 17:14:16.801,27319240,28864320,-66878210,-62553740,20507810,11773680,-48364260
2026-01-14 17:14:16.811,-13084760,28717580,-66904110,-22080690,28173830,119628900,-56933590
2026-01-14 17:14:16.821,-13046780,45834190,-49666660,-22049610,31469730,11602780,-58935550
2026-01-14 17:14:16.831,27535040,45776360,-49620900,-62579640,38427740,-5871582,-62402340
2026-01-14 17:14:16.841,-12977720,4572803,-4958292,-21997820,47753900,-100097700,-71191410
2026-01-14 17:14:16.851,43390560,28294630,-66930000,-46879490,5488281,3137207,-7182617
2026-01-14 17:14:16.861,27768090,45650340,-49522500,-62571000,52783200,7208252,-7133789
2026-01-14 17:14:16.871,-12829260,28165160,-66938640,-21870070,49951170,7458496,-7236328
2026-01-14 17:14:16.881,-12755890,28113360,-66938630,-21805330,43579100,45959470,-71484380
2026-01-14 17:14:16.891,-16767200,-14688520,-24188540,-17673180,3322754,1619873,-6616211
2026-01-14 17:14:16.901,-12616060,28009780,-66921370,-21686220,22521970,16479490,-61621100
2026-01-14 17:14:16.911,-12540960,-14730820,-24215300,-21623210,18225100,95336910,-57910160
2026-01-14 17:14:16.921,-12465000,-14753260,-24227380,-21561060,11352540,48187260,-5419922
2026-01-14 17:14:16.931,28605370,27802630,-66835060,-62493320,7385254,2684021,-4958496
2026-01-14 17:14:16.941,-12320850,27724940,-66791900,-21446260,7006836,1737976,-46264650
2026-01-14 17:14:16.951,-12261300,45241200,-49154800,-21402240,5706787,-22232060,-4140625
2026-01-14 17:14:16.961,28993800,2753507,-6672285,-62553740,46447750,-15429690,-3552246
2026-01-14 17:14:16.971,-12143900,2744010,-6669694,-21312470,4748535,-20336910,-28979490
2026-01-14 17:14:16.981,-16225910,27327880,-66671060,-17144140,8557129,-23706060,-2685547
2026-01-14 17:14:16.991,-12045500,27215670,-66662420,-21238230,10626220,-26464840,-22839360
2026-01-14 17:14:17.001,29416740,44901110,-48856140,-62614160,14831540,-15332030,-20959470
2026-01-14 17:14:17.011,-11949690,26991240,-66662420,-21161410,17480470,-23144530,-16247560
2026-01-14 17:14:17.021,29572120,-15226270,-24583010,-62614170,2208252,-33569340,-12768560
2026-01-14 17:14:17.031,-11866830,2677547,-6672284,-21088910,24584960,-30908200,-715332
2026-01-14 17:14:17.041,29684320,44708620,-48720620,-62571000,22814940,-29077150,-14030460
2026-01-14 17:14:17.051,44487640,44665460,-48694730,-47767680,2277832,-29345700,57159420
2026-01-14 17:14:17.061,29762010,26395660,-66895480,-62493320,22583010,-3178711,95214850
2026-01-14 17:14:17.071,2977926,44584320,-48655020,-6245878,24829100,-3876953,11932370
2026-01-14 17:14:17.081,29787910,2613674,-6706812,-62415640,2631836,-35229490,10559080
2026-01-14 17:14:17.091,29770650,2599864,-6717171,-62363850,28295900,-9307861,10913090
2026-01-14 17:14:17.101,-15836280,44498010,-48637760,-16756930,27368160,31280520,113708500
2026-01-14 17:14:17.111,29675700,25756920,-67378850,-62286160,32763670,-25222780,11151120
2026-01-14 17:14:17.121,29606640,25644710,-67491060,-62251630,40429690,-6878662,76171870
2026-01-14 17:14:17.131,-11762380,-16377740,-25693040,-20934400,5048828,-14697270,-5382538
2026-01-14 17:14:17.141,29399490,-16489090,-25806120,-62165320,5595703,-9173584,-8050537
2026-01-14 17:14:17.151,44053480,2535988,-6786225,-47338690,61376950,9680176,-106933600
2026-01-14 17:14:17.161,29131900,-16683300,-26008960,-62087640,6430664,6317139,-12670900
2026-01-14 17:14:17.171,28976530,-16774800,-26107370,-62053110,68115230,39093020,-13977050
2026-01-14 17:14:17.181,-16144510,-16867160,-26204900,-17052910,69384770,18261720,-1394043
2026-01-14 17:14:17.191,2866576,25075010,-68354220,-6198404,7290039,6015625,-13122560
2026-01-14 17:14:17.201,28493150,25005960,-68475070,-61949520,7763672,9970703,-11437990
2026-01-14 17:14:17.211,28337790,-17153720,-26505280,-61932270,7910156,10595700,-13354490
2026-01-14 17:14:17.221,28182420,-21448070,-22383570,-61915000,7963867,91845700,-19555660
2026-01-14 17:14:17.231,28018410,24790170,-68794450,-61906360,73291020,609375,-20288090
2026-01-14 17:14:17.241,-12533190,24703850,-68880760,-21510130,609375,1850586,-15234380
2026-01-14 17:14:17.251,27716300,44573970,-49010650,-61915000,51123050,16870120,-44708250
2026-01-14 17:14:17.261,-12692880,-21819230,-22754730,-21643920,41625980,2109375,24337770
2026-01-14 17:14:17.271,27448720,44501460,-48979570,-61958160,34814450,-6750488,8081055
2026-01-14 17:14:17.281,-12866380,2419460,-6920013,-21798430,28833010,-24914550,10650640
2026-01-14 17:14:17.291,-12947510,-17968560,-27295940,-21872660,2775879,-15441900,1451416
2026-01-14 17:14:17.301,27103460,2381482,-6933825,-62079000,27954100,-15148930,1439209
2026-01-14 17:14:17.311,-17119810,23607630,-69407300,-18011110,26049800,-2310791,14916990
2026-01-14 17:14:17.321,26887670,-18402730,-27690410,-62173950,23205570,-29223630,16491700
2026-01-14 17:14:17.331,26784080,23167420,-69554030,-62225740,19445800,-21362300,20373540
2026-01-14 17:14:17.341,2668913,-18710880,-27969220,-6226891,17004400,-27441410,26049800
2026-01-14 17:14:17.351,-13422250,2270995,-6970077,-22312880,1227417,-44213870,2939453
2026-01-14 17:14:17.361,-13503400,22468250,-69787090,-22387110,64208980,-32910160,34423830
2026-01-14 17:14:17.371,42581780,22217930,-69864780,-46186360,16326900,-25683590,35839840
2026-01-14 17:14:17.381,42537750,43556290,-48353780,-46161330,-8508301,-29467770,39648440
2026-01-14 17:14:17.391,-13782200,-19582680,-28754700,-22643470,-16589360,-22888180,47338870
2026-01-14 17:14:17.401,25929550,-19764810,-28917840,-62596900,-2097168,28588870,5151367
2026-01-14 17:14:17.411,25739650,21138970,-70184140,-62683220,-24584960,34228520,55810550
2026-01-14 17:14:17.421,-14210330,43069460,-48011960,-23043980,-24609380,38867190,6269531
2026-01-14 17:14:17.431,25325330,-20361250,-29443510,-62907650,-24609380,30151370,7055664
2026-01-14 17:14:17.441,25083650,2014636,-7038269,-63045750,-3737793,41259770,7709961
2026-01-14 17:14:17.451,2483331,-20832550,-29852650,-6320977,-31347660,7524414,79833980
2026-01-14 17:14:17.461,24565740,19334960,-70486260,-63391020,-25927730,5288086,75878900
2026-01-14 17:14:17.471,2428090,1889474,-7052941,-6358955,-22717280,3239746,6791992
2026-01-14 17:14:17.481,41900740,-21618890,-30516420,-45883390,-19885250,5,5395508
2026-01-14 17:14:17.491,-15813230,-21901150,-30752070,-24583010,-38269040,8496094,35839840
2026-01-14 17:14:17.501,-16110160,17435980,-70572570,-24873030,385437,54003900,32763670
2026-01-14 17:14:17.511,-16423490,-22444940,-31192280,-25181180,121154800,32739260,3322754
2026-01-14 17:14:17.521,-16746310,-26625700,-27494900,-25497100,21057130,2409668,2998047
2026-01-14 17:14:17.531,22269720,1588231,-7048627,-65169140,25854490,1697998,25878910
2026-01-14 17:14:17.541,2191579,15355750,-70443090,-6547124,30249020,28027340,23779300
2026-01-14 17:14:17.551,21553290,14829220,-70382670,-65764730,34448240,2565918,22546390
2026-01-14 17:14:17.561,2119075,1431132,-7031362,-6607546,3330078,1484375,19616700
2026-01-14 17:14:17.571,-18418270,-24024540,-32426610,-27139710,30981440,16320800,13061520
2026-01-14 17:14:17.581,-1875751,38864980,-44551520,-2747374,31079100,140625,98083500
2026-01-14 17:14:17.591,41217970,-24491510,-32771020,-45910150,25683590,4067993,13562010
2026-01-14 17:14:17.601,-19442850,-24712480,-32929840,-28152210,24975590,-49468990,19274900
2026-01-14 17:14:17.611,41124740,11764980,-69787090,-45951580,16894530,-10604860,2841797
2026-01-14 17:14:17.621,-20117850,11272970,-69640350,-28823750,8642578,81970220,3569336
2026-01-14 17:14:17.631,4104964,-25343460,-33369190,-4600943,-18600460,18457030,4909668
2026-01-14 17:14:17.641,18411360,10271700,-69312340,-68664970,-4248047,29663090,53564450
2026-01-14 17:14:17.651,-21107900,-25730160,-33621230,-29818980,-69885260,18661500,47192380
2026-01-14 17:14:17.661,40984910,9304946,-68932550,-46143200,-36346440,-16467290,18786620
2026-01-14 17:14:17.671,40952980,-26044350,-33807680,-46175140,52093500,12988280,20275120
2026-01-14 17:14:17.681,17125250,851949,5,-6852687,-70020140,17852780,35131840,-56396480
2026-01-14 17:14:17.691,-2241734,-26231660,-33879320,-3113360,-11090090,38989260,3378296
2026-01-14 17:14:17.701,16495130,-26284310,-33878460,-70702050,-25830080,46166990,769043
2026-01-14 17:14:17.711,16193020,34685520,-40703520,-71055940,-41333010,5800781,101135300
2026-01-14 17:14:17.721,-23394430,-26338690,-33824080,-32124500,-54003900,5966797,20227050
2026-01-14 17:14:17.731,-23726750,-26330920,-33762790,-32465460,-73828130,35375980,34326170
2026-01-14 17:14:17.741,-24051300,6870814,-66895470,-32796910,-9140625,7519531,58935550
2026-01-14 17:14:17.751,-24384480,-26325740,-33647130,-33137000,-10810550,-66467280,80371100
2026-01-14 17:14:17.761,1468245,6370180,-66291260,-7289449,-11464840,-9777832,85595700
2026-01-14 17:14:17.771,14354470,611126,-6599779,-73239760,-11865230,-33862300,7866211
2026-01-14 17:14:17.781,14009210,32783970,-38772620,-73585020,-12324220,-828125,70458980
2026-01-14 17:14:17.791,-25729300,5558802,-65479880,-34485270,-13203130,-12705080,54589840
2026-01-14 17:14:17.801,1332729,32277280,-38278020,-7414607,-15341800,-15908200,47753900
2026-01-14 17:14:17.811,-26327470,4980476,-65125980,-35061000,-14042970,-7368164,40234380
2026-01-14 17:14:17.821,1264540,467837,3,-6497924,-7456904,-13076170,-51635740,45532230
2026-01-14 17:14:17.831,40415220,435901,8,-6483252,-46661100,-13662110,-13476560,5605469
2026-01-14 17:14:17.841,1198075,-26895430,-33767970,-7495748,-14082030,-20263670,6015625
2026-01-14 17:14:17.851,11652760,33825200,-34434080,-75130100,-13369140,-16137700,56347660
2026-01-14 17:14:17.861,1133337,30840970,-36952200,-7529408,-12382810,-15368650,57470700
2026-01-14 17:14:17.871,-27898430,299520,8,-6434912,-36545650,-11582030,-68359380,546875
2026-01-14 17:14:17.881,-28148750,264994,3,-6422828,-36778700,-10361330,9727478,61328120
2026-01-14 17:14:17.891,-28390440,30123680,-36305680,-37003120,-8442383,30639650,6230469
2026-01-14 17:14:17.901,-28632130,29888040,-36092480,-37227550,-89453130,-7684326,7416992
2026-01-14 17:14:17.911,-28865180,162277,-6390890,-37443340,-9868164,-4909668,8823242
2026-01-14 17:14:17.921,39449340,1277494,-63822600,-46125080,-9501953,-3466797,9423828
2026-01-14 17:14:17.931,9097776,914960,-63736280,-76286740,-9033203,-18554690,9770508
2026-01-14 17:14:17.941,8778408,31794340,-32425320,-76381690,-80859380,-20056150,96484380
2026-01-14 17:14:17.951,-33584030,28715850,-35054950,-34433560,-8051758,-30908200,10039060
2026-01-14 17:14:17.961,-29962270,-164000,-63520490,-38435120,-80615230,-38500980,10195310
2026-01-14 17:14:17.971,-30155620,-535160,-63477330,-38604300,-8173828,-32885740,10400390
2026-01-14 17:14:17.981,-30348970,-897694,-63442800,-38773480,-7753906,-2849121,11015630
2026-01-14 17:14:17.991,7276500,27857870,-34324720,-76726960,-71240230,-30444340,11064450
2026-01-14 17:14:18.001,-30693370,-159684,-6341690,-39067820,-6020508,-18078610,10976560
2026-01-14 17:14:18.011,6724072,-1924858,-63416910,-76761490,-50683590,-9588623,10976560
2026-01-14 17:14:18.021,-34740680,-2235600,-63434180,-35572940,-43603520,-1790,524,11523440
2026-01-14 17:14:18.031,6188912,27152660,-33752440,-76761480,-3540039,17480470,11923830
2026-01-14 17:14:18.041,37812780,-32833770,-33440230,-44895930,-3544922,-6762695,10146480
2026-01-14 17:14:18.051,5671008,-3046976,-63485960,-76761490,-3310547,-2232666,8666992
2026-01-14 17:14:18.061,-31557400,-3228246,-63511860,-39774750,-2841797,-2607422,6567383
2026-01-14 17:14:18.071,37369970,-3349088,-63546390,-44527360,-18493650,-9307861,55322260
2026-01-14 17:14:18.081,37219780,-3418140,-63580910,-44401340,9010315,6040039,60253900
2026-01-14 17:14:18.091,4652472,26702950,-33408030,-76726950,-6829834,49951170,7260742
2026-01-14 17:14:18.101,441940,3,26694320,-33399400,-7675284,-20336910,15258790,7910156
2026-01-14 17:14:18.111,4186360,-348716,5,-6356366,-76778740,-1965332,19226070,8022461
2026-01-14 17:14:18.121,395328,-3478564,-63537760,-7680464,-25341800,6866455,8383789
2026-01-14 17:14:18.131,374611,8,-3452668,-63511860,-7683917,-33520510,-19714360,82373050
2026-01-14 17:14:18.141,36530970,26683100,-33376100,-43864440,-36694340,-31567380,7392578
2026-01-14 17:14:18.151,332318,3,26702950,-33390770,-7688232,-35351560,-39916990,59228520
2026-01-14 17:14:18.161,-32882370,-3349086,-63494590,-40883920,-38623050,-4416504,53271480
2026-01-14 17:14:18.171,36206420,-3280034,-63511860,-43602040,-3684082,-39404300,55908200
2026-01-14 17:14:18.181,274485,-3202350,-63537760,-7687370,-35351560,-41870120,52734380
2026-01-14 17:14:18.191,2554976,26892850,-33563400,-76839170,-33203120,-49389650,5854492
2026-01-14 17:14:18.201,35863740,-30314440,-36373880,-43305970,-30810550,-578125,61328120
2026-01-14 17:14:18.211,35745490,-30305810,-36382510,-43199800,-24157720,-49023440,6298828
2026-01-14 17:14:18.221,-33389040,-288296,-6382258,-41257680,-17150880,-42358400,7026367
2026-01-14 17:14:18.231,1829912,-2796660,-63943440,-76580210,-13574220,-38793940,7373047
2026-01-14 17:14:18.241,35315630,-2718974,-64055660,-42801020,-9094238,-29614260,63720700
2026-01-14 17:14:18.251,35164580,-2649922,-64193760,-42658600,-859375,-2614746,61376950
2026-01-14 17:14:18.261,124294,5,-30360190,-36535290,-7626949,-29716490,-6188965,64746100
2026-01-14 17:14:18.271,3823380,-2511816,-64452710,-3898513,112976100,25097660,6308594
2026-01-14 17:14:18.281,845896,-2451392,-64582180,-76062320,16601560,30810550,53564450
2026-01-14 17:14:18.291,-3383014,27796580,-34506840,-4148986,15063480,20727540,5019531
2026-01-14 17:14:18.301,44019,-2356448,-64832510,-7586379,18469240,20117190,46191410
2026-01-14 17:14:18.311,-33954420,30987970,-31660720,-41555470,17944340,8251953,45483400
2026-01-14 17:14:18.321,6039,5,-2270128,-65091460,-7563936,1784668,66345220,43115230
2026-01-14 17:14:18.331,33912120,-2235604,-65229560,-41476920,20910640,1270752,3774414
2026-01-14 17:14:18.341,-31076,5,-2201074,-65384940,-7538905,2199707,16821290,33154300
2026-01-14 17:14:18.351,-500640,-30683880,-37022980,-75250940,16760250,16577150,25708010
2026-01-14 17:14:18.361,-67330,-2123392,-65704300,-7511284,19763180,23596190,2130127
2026-01-14 17:14:18.371,33264740,-30784870,-37163680,-40846810,18933100,34106440,21606440
2026-01-14 17:14:18.381,33117140,-2028444,-66023680,-40700940,19177250,3154297,18688960
2026-01-14 17:14:18.391,-1165276,-197662,-6617905,-74689870,11566160,31433100,22094730
2026-01-14 17:14:18.401,36236200,28790950,-35618600,-36994930,7940674,-19555660,27514650
2026-01-14 17:14:18.411,-34280700,-1890334,-66507050,-41574460,9979248,10513310,27416990
2026-01-14 17:14:18.421,32538830,-31017060,-37501170,-40122620,103637700,13806150,22827150
2026-01-14 17:14:18.431,-34281560,29093060,-35955240,-41521800,-9155273,-41168210,21130370
2026-01-14 17:14:18.441,32283330,-31109420,-37633240,-39860210,-4397583,-12792970,23071290
2026-01-14 17:14:18.451,32165070,29280370,-36164990,-39736780,-6210327,-9552002,19152830
2026-01-14 17:14:18.461,32055450,-31192280,-37757530,-39621980,-76171870,-1895752,14440920
2026-01-14 17:14:18.471,31963950,-1596862,-67439270,-39523580,-11236570,-5493164,1829834
2026-01-14 17:14:18.481,-34190930,29567800,-36481770,-41318960,-10003660,-7939453,2467041
2026-01-14 17:14:18.491,31774920,29673970,-36600020,-39315550,-10757450,-58740230,3203125
2026-01-14 17:14:18.501,-34089070,29780140,-36718280,-41179130,16125490,983429,3642578
2026-01-14 17:14:18.511,-37564,49,-1389698,-68112540,-37568,64,2244873,40844730,29003910
2026-01-14 17:14:18.521,-33969090,30001970,-36962550,-41022900,16711430,40405270,19616700
2026-01-14 17:14:18.531,-224426,8,-1242960,-68449180,-7260965,11248780,32373050,14013670
2026-01-14 17:14:18.541,-2244240,-1148012,-68613180,-72454270,12200930,5317383,1307373
2026-01-14 17:14:18.551,31299320,-31519420,-38293560,-38755360,125,7167969,12683110
2026-01-14 17:14:18.561,-33707550,-914960,-68932550,-40697480,88012700,79541020,17053220
2026-01-14 17:14:18.571,31167250,-768220,-69079300,-38593940,8428955,81103520,16210940
2026-01-14 17:14:18.581,31105100,-60419,75,-6922605,-38517980,65193180,4951172,-1713562
2026-01-14 17:14:18.591,31033460,30985990,-37963830,-38434260,-7788086,11375430,-18835450
2026-01-14 17:14:18.601,30972170,-189892,-69519500,-38357440,-11853030,-37475580,-22167970
2026-01-14 17:14:18.611,-2261500,60420,-69683500,-71435740,-10748290,-45874020,-21875
2026-01-14 17:14:18.621,-33311360,328004,-69847500,-40213240,-75927740,-43115230,-17211910
2026-01-14 17:14:18.631,30765010,612848,-70028780,-38098480,-3161621,-3762207,-16113280
2026-01-14 17:14:18.641,-2209708,-31082660,-38195160,-70917840,3314972,-30810550,-19226070
2026-01-14 17:14:18.651,-217520,-30979080,-38143370,-7072795,68603520,-20825200,-22790530
2026-01-14 17:14:18.661,33843930,1631384,-70563940,-34570720,121398900,-1583252,-25024410
2026-01-14 17:14:18.671,-208889,5,2028444,-70736580,-7036541,16516110,-18481440,-2409668
2026-01-14 17:14:18.681,30457730,246004,3,-7090922,-37680710,23461910,-28222660,-16394040
2026-01-14 17:14:18.691,30399890,290889,3,-7106459,-37600440,29760740,-39990230,-7678223
2026-01-14 17:14:18.701,30352420,-30210000,-37669490,-37527070,34350580,-4345703,-24547580
2026-01-14 17:14:18.711,-1855816,3815204,-71401220,-69631710,3605957,-48706060,13122560
2026-01-14 17:14:18.721,-1760864,-29863870,-37445930,-69433180,39501950,-4699707,9063721
2026-01-14 17:14:18.731,-1631384,-29695550,-37338030,-69234660,40234380,-40014650,-29922480
2026-01-14 17:14:18.741,30248830,5118586,-71893220,-37302640,40014650,-2758789,-12426760
2026-01-14 17:14:18.751,-34750170,35473590,-42125160,-35425340,39013670,-14611820,-18481440
2026-01-14 17:14:18.761,-1156640,595588,5,-7219533,-68656340,375,51513670,-1817627
2026-01-14 17:14:18.771,-34387650,6370180,-72333420,-35062810,3317871,18127440,-21411130
2026-01-14 17:14:18.781,-31156890,6775864,-72445640,-37913760,28295900,16625980,-24060060
2026-01-14 17:14:18.791,-517900,-28701180,-36675120,-68172960,23950200,9020996,-2915039
2026-01-14 17:14:18.801,30462910,39786060,-40436720,-37295740,18676760,-32844540,-27270510
2026-01-14 17:14:18.811,-17268,7967040,-72721860,-67914020,13439940,-5996704,-26464840
2026-01-14 17:14:18.821,-30374000,8346834,-72790910,-37177480,113708500,118896500,-23461910
2026-01-14 17:14:18.831,51788,37569360,-43982700,-6768957,10925290,22790530,-20458980
2026-01-14 17:14:18.841,-29976940,9071888,-72894490,-36814960,113098100,11987310,-31079100
2026-01-14 17:14:18.851,107029,3,9425786,-72937650,-6748243,8782959,25634770,-34765620
2026-01-14 17:14:18.861,1346540,-2746337,-3573772,-67396110,36376950,5205078,-2578125
2026-01-14 17:14:18.871,31181060,-27290760,-35599620,-37751490,-13671880,57714840,-21130370
2026-01-14 17:14:18.881,1864442,38580140,-44836370,-67258010,-51849360,56152340,-24267580
2026-01-14 17:14:18.891,-29084430,-30707180,-31544450,-36015660,-6829834,59277340,-33251950
2026-01-14 17:14:18.901,2347812,11031280,-72972180,-67171690,-7385254,60498050,-40234380
2026-01-14 17:14:18.911,2563606,-26601960,-35028200,-67145790,-602417,56152340,-48242190
2026-01-14 17:14:18.921,2779398,-26425870,-34876280,-67137170,-3338623,39819340,-6220703
2026-01-14 17:14:18.931,31846560,-26250640,-34723500,-38259900,17181400,3227539,-75878900
2026-01-14 17:14:18.941,3193722,-26083190,-34580210,-67119900,5987549,31762700,-8378906
2026-01-14 17:14:18.951,3392250,-25900200,-34417940,-67111270,6524658,26879880,-9736328
2026-01-14 17:14:18.961,-31764560,12705830,-72695960,-31764570,123413100,2902832,-10791020
2026-01-14 17:14:18.971,32292820,-25540260,-34104610,-38625020,16296390,29760740,-11142580
2026-01-14 17:14:18.981,3240759,13284150,-72566490,-3871737,18981930,22106930,-11494140
2026-01-14 17:14:18.991,-27868220,-25164780,-33772290,-35004900,22070310,113586400,-12177730
2026-01-14 17:14:19.001,32672620,-24981790,-33610010,-38935760,24536130,-6084442,-12548830
2026-01-14 17:14:19.011,-27592880,14130050,-72359330,-34779610,26879880,-71792600,-12294920
2026-01-14 17:14:19.021,32966950,14397630,-72281640,-39176580,32226560,-28514860,-12695310
2026-01-14 17:14:19.031,-27278680,-24425910,-33112830,-34524110,38598630,10546880,-13222660
2026-01-14 17:14:19.041,5645116,-24235150,-32941060,-67137170,43945310,28955080,-12939450
