Timestamp,Rotation X,Rotation Y,Rotation Z,Rotation W,Acceleration X,Acceleration Y,Acceleration Z
2026-01-14 17:14:05.501,1872211,-1631387,-4963213,15857250,-8330078,12298580,42626950
2026-01-14 17:14:05.511,-61094990,-14155950,-48337370,78789920,-8569336,6915283,41210940
2026-01-14 17:14:05.521,1826460,-11911710,-46956310,15816680,-9121094,-11390690,4074707
2026-01-14 17:14:05.531,1808335,17591350,-18143780,15800280,-97314460,21316530,45507810
2026-01-14 17:14:05.541,-61172680,-7336928,-43935220,78764020,-984375,25741580,38598630
2026-01-14 17:14:05.551,-61172680,-4833742,-42467840,78764020,-97216800,-62286380,3088379
2026-01-14 17:14:05.561,8095905,-19654320,-23504050,9495445,-10009770,-12231450,29711910
2026-01-14 17:14:05.571,1797114,17738090,-21622350,15794240,-99365230,-11053470,25048830
2026-01-14 17:14:05.581,1805745,2848454,-37375150,15802870,-9140625,-85998540,3034668
2026-01-14 17:14:05.591,1814377,5437954,-35648820,15811500,-85253900,4852295,41748050
2026-01-14 17:14:05.601,-6998475,8113774,-33836160,6998651,-8652344,19458010,42333980
2026-01-14 17:14:05.611,1866167,10703280,-31937200,15863290,-9301758,13720700,42822260
2026-01-14 17:14:05.621,1892062,13120150,-30038230,15889190,-96240230,-11428830,37475580
2026-01-14 17:14:05.631,1917957,15623330,-27880310,15915080,-10742190,-17602540,43017580
2026-01-14 17:14:05.641,1935220,-35786920,-40171810,15932340,-12109380,-99609380,5019531
2026-01-14 17:14:05.651,8259908,-12472770,-16874920,9659447,-11552730,-101135300,53808590
2026-01-14 17:14:05.661,8277172,10832750,6430597,9676711,-10820310,-25170900,515625
2026-01-14 17:14:05.671,198787,6,5481113,1078959,1598327,-10693360,-2590332,6298828
2026-01-14 17:14:05.681,198787,7,7984299,3582145,1598328,-10830080,-32177730,63378900
2026-01-14 17:14:05.691,198786,6,22675410,-21000860,1598328,-11923830,-41235350,61035160
2026-01-14 17:14:05.701,-69069790,22761720,-20569280,70866910,-11972660,-55810550,703125
2026-01-14 17:14:05.711,-69069790,35044600,-7941137,70866910,-12519530,-50927740,6972656
2026-01-14 17:14:05.721,2006865,37288840,-5006373,15998810,-12285160,-33862300,5366211
2026-01-14 17:14:05.731,2033623,39533070,-2244234,16023840,-10224610,-16992190,3935547
2026-01-14 17:14:05.741,-60896460,41777300,517905,1,78988450,-78271490,904541,41625980
2026-01-14 17:14:05.751,-6086194,43848900,3107402,7900574,-56103520,29907230,33203120
2026-01-14 17:14:05.761,2096634,46006820,5610589,16081680,-47583010,2980957,25097660
2026-01-14 17:14:05.771,-60827410,48164740,8286411,79005710,-52246100,27148440,28051760
2026-01-14 17:14:05.781,-60827410,22822140,-16710920,78988450,-57128900,28686520,3293457
2026-01-14 17:14:05.791,2073328,22968890,-16391550,16053190,-5732422,18396000,27612300
2026-01-14 17:14:05.801,2074192,54811130,15623330,16052330,-56591800,18273930,1673584
2026-01-14 17:14:05.811,2067288,39325910,35424390,16041970,-4501953,15209960,22995000
2026-01-14 17:14:05.821,2068152,41311200,37409680,16041110,-37158200,101989700,-9991455
2026-01-14 17:14:05.831,-60810150,23728470,-15459330,78902140,-24267580,5621338,-11260990
2026-01-14 17:14:05.841,-60810150,62838580,23478160,78884880,-23156740,7543945,-16040040
2026-01-14 17:14:05.851,2054338,24237740,-15295330,16020390,-2644043,1015625,-26611330
2026-01-14 17:14:05.861,-60784240,24470790,-15234900,78858970,-30493160,1640625,-37963870
2026-01-14 17:14:05.871,2064696,24669320,-15209010,16027300,-328125,26586910,-48535160
2026-01-14 17:14:05.881,2074193,68362860,28139260,16035070,-34350580,2939453,-5942383
2026-01-14 17:14:05.891,-60715200,25100910,-15295320,78876240,-31176760,37304690,-63964840
2026-01-14 17:14:05.901,2136338,20954250,-19959880,16093760,-22485350,45117190,-6713867
2026-01-14 17:14:05.911,2171729,25739650,-15692390,16127420,-18945310,4975586,-6191406
2026-01-14 17:14:05.921,-60585720,71901850,29779280,78953930,-2631836,4494629,-57910160
2026-01-14 17:14:05.931,-60551200,26654610,-16331130,78971180,-36669920,33862300,-4741211
2026-01-14 17:14:05.941,2252867,7440502,3055613,16201650,-52978520,28125,-37695310
2026-01-14 17:14:05.951,-68810840,55941880,51436150,70659750,-6479492,1161499,-18615720
2026-01-14 17:14:05.961,2289983,28639900,-17625880,16233590,-5541992,-10467530,-34454340
2026-01-14 17:14:05.971,-6039582,80360890,33059310,7900576,-74316410,-71777340,-13781740
2026-01-14 17:14:05.981,-60318140,30115910,-18394100,79031610,-7783203,-21887210,-20483400
2026-01-14 17:14:05.991,-60231830,3076326,-1860987,79066140,-69189460,-17077640,-27490230
2026-01-14 17:14:06.001,2533397,8830202,3806569,16456290,-61572260,-21838380,-43432620
2026-01-14 17:14:06.011,2624029,32222040,-19050110,16538290,-31835940,-2467041,-5136719
2026-01-14 17:14:06.021,-59860660,32938470,-19196840,79212870,46081540,-2253418,-6274414
2026-01-14 17:14:06.031,282254,9,33663530,-19334950,1671957,16503910,-22436520,-6357422
2026-01-14 17:14:06.041,-59567190,34483540,-19550740,79316460,16149900,-22766110,-625
2026-01-14 17:14:06.051,-59403180,10539270,5032268,79376870,2697754,-24023440,-60791020
2026-01-14 17:14:06.061,-59247810,84107030,78513700,79411410,45336910,-23706060,-59277340
2026-01-14 17:14:06.071,3240331,36969460,-19999590,17095900,6484375,-15039060,-59814450
2026-01-14 17:14:06.081,-58971600,37849890,-20154960,79463200,61816410,-8746338,-5571289
2026-01-14 17:14:06.091,-58842120,38583580,-20111800,79471820,5683594,-2633667,-43798830
2026-01-14 17:14:06.101,3457848,39325910,-20060010,17275440,6176758,3665161,-23205570
2026-01-14 17:14:06.111,-5861772,30782280,-28776280,7943732,7158203,23547360,-4522705
2026-01-14 17:14:06.121,3565744,40206340,-19352210,17357440,6220703,37304690,8898926
2026-01-14 17:14:06.131,-58384650,40439390,-18773890,79394140,6245117,34643560,26538090
2026-01-14 17:14:06.141,3674503,40577500,-18117880,17438570,7080078,43554690,36132810
2026-01-14 17:14:06.151,-58142960,40465290,-17194290,79359620,8725586,46142580,3864746
2026-01-14 17:14:06.161,-5800486,40171810,-16106700,7934237,10283200,4416504,40405270
2026-01-14 17:14:06.171,3887707,15183120,9693370,17605160,10908200,23730470,35986330
2026-01-14 17:14:06.181,-5769412,39507180,-13836570,7932510,121875,-21629330,27270510
2026-01-14 17:14:06.191,-57538740,39213700,-12748980,79307820,13242190,-9088135,28442380
2026-01-14 17:14:06.201,-57392000,1616709,1110899,79281930,13652340,-67871100,33691410
2026-01-14 17:14:06.211,-57245260,16503760,11566450,79256030,140625,-9819031,29882810
2026-01-14 17:14:06.221,-57098530,38592210,-9745158,79230140,13779300,-61187740,2854004
2026-01-14 17:14:06.231,4319289,38359160,-8769782,17933170,13935550,-82214350,31225590
2026-01-14 17:14:06.241,4379711,38298740,-7967036,17976330,13867190,-57373050,33789060
2026-01-14 17:14:06.251,-5667559,38212420,-7190184,7911795,134375,-16235350,32080080
2026-01-14 17:14:06.261,-56546100,3820376,-650825,6,79092040,12080080,-29663090,35302740
2026-01-14 17:14:06.271,-56425260,1618919,1614505,79040250,11865230,-30737300,46435550
2026-01-14 17:14:06.281,4576514,3841095,-543795,6,18107530,11396480,-17504880,52197260
2026-01-14 17:14:06.291,4628304,38540420,-4963214,18142050,10078130,-47546390,43139650
2026-01-14 17:14:06.301,-5606273,38833900,-4669736,7891942,90771490,415802,36035160
2026-01-14 17:14:06.311,-55950510,39127380,-4376257,78876240,8432617,88256830,36987300
2026-01-14 17:14:06.321,4755190,39412220,-4091414,18222330,80029300,16455080,39013670
2026-01-14 17:14:06.331,4798349,39783390,-3892884,18248220,78027340,18603520,3671875
2026-01-14 17:14:06.341,4832012,40059600,-3616670,18266350,73046870,10510250,32983400
2026-01-14 17:14:06.351,-55518930,40335810,-3340455,78669090,70166020,-3567505,21679690
2026-01-14 17:14:06.361,-5541535,40612030,-3064244,7861731,7373047,-12237550,6402588
2026-01-14 17:14:06.371,4925233,23742280,-19933990,18311230,83251950,-16796880,-32287600
2026-01-14 17:14:06.381,4950265,41052240,-2451396,18320730,8847656,-15222170,-9790039
2026-01-14 17:14:06.391,-55113240,41302560,-2201075,78436020,87841800,-14732360,-12524410
2026-01-14 17:14:06.401,-5500967,23645610,-19685400,7838425,8857422,57769780,-14685060
2026-01-14 17:14:06.411,-54914710,23582590,-19575770,78341070,86083980,5834961,-18310550
2026-01-14 17:14:06.421,-5480251,23433270,-19379830,7829793,7675781,22598270,-21374510
2026-01-14 17:14:06.431,-65303800,41725510,-742321,1,67658520,7583008,2218628,-25439450
2026-01-14 17:14:06.441,5167783,23044840,-18905090,18448480,74316410,-57800290,-29077150
2026-01-14 17:14:06.451,-54491760,41630560,198528,9,78177070,7050781,-9588623,-29589840
2026-01-14 17:14:06.461,5250649,41570140,656008,3,18503720,59033200,-13696290,-28027340
2026-01-14 17:14:06.471,5291217,41492460,1096222,18532210,5151367,-26098630,-27954100
2026-01-14 17:14:06.481,5323154,41414780,1536438,18552060,3876953,-30444340,-22229000
2026-01-14 17:14:06.491,5355090,41406140,1873074,18571910,34814450,-4177246,-15466310
2026-01-14 17:14:06.501,5386164,41475200,2114760,18592630,2397461,-45458980,-8770752
2026-01-14 17:14:06.511,-53982490,41526980,2339187,77978540,28344730,-52783200,-7006836
2026-01-14 17:14:06.521,5404290,4157877,256360,7,18591760,28686520,-48242190,-10604860
2026-01-14 17:14:06.531,-53904810,24142790,20258540,77883600,2902832,-37548830,7861328
2026-01-14 17:14:06.541,5404292,24263640,20379380,18574500,26660160,-32861330,7281494
2026-01-14 17:14:06.551,-53844390,24367220,20500230,77788660,23999020,-20446780,118774400
2026-01-14 17:14:06.561,-53818490,24488060,20621070,77745490,2097168,-16210940,10180660
2026-01-14 17:14:06.571,5372356,24608900,20724650,18520120,14050290,-19299320,10626220
2026-01-14 17:14:06.581,-5378395,24729750,20845490,7762466,10864260,-17492680,16088870
2026-01-14 17:14:06.591,-53775330,4241602,340090,3,77564220,6958008,-18347170,22436520
2026-01-14 17:14:06.601,5297259,42718160,3357720,18422580,35705570,-15942380,22998050
2026-01-14 17:14:06.611,-64400060,22170450,-17535250,66766870,52986140,-10571290,23278810
2026-01-14 17:14:06.621,5254964,43348270,3297300,18361300,3704071,-8276367,22998050
2026-01-14 17:14:06.631,-53697640,43753960,3185089,77279380,-40771480,-7733154,20336910
2026-01-14 17:14:06.641,-64250730,44254590,2995193,66605450,-8770752,-80444340,16821290
2026-01-14 17:14:06.651,-53619960,44763860,2813929,77132650,-8178711,-3515625,1842041
2026-01-14 17:14:06.661,-53576810,23716390,-18924080,77054960,-50445560,1222229,20715330
2026-01-14 17:14:06.671,5188499,45808300,2477290,18237870,18554690,3878784,20654300
2026-01-14 17:14:06.681,516865,6,26525140,22122980,1820594,9082031,46142580,17114260
2026-01-14 17:14:06.691,-53464590,26758190,22286990,76770110,14978030,39642340,14318850
2026-01-14 17:14:06.701,5122034,25172550,-20230060,18131700,16760250,12573240,12371830
2026-01-14 17:14:06.711,-63810520,47957580,1864445,66130710,19348140,14868160,11645510
2026-01-14 17:14:06.721,5084919,48415060,1804022,18065230,1595459,21826170,6298828
2026-01-14 17:14:06.731,-53266060,48881170,1752233,76381690,1328125,1986084,-30975340
2026-01-14 17:14:06.741,5057298,49338650,1691808,18006540,12261960,1463623,-5947876
2026-01-14 17:14:06.751,-63525680,49796120,1631389,65828610,1652832,17456060,-59417720
2026-01-14 17:14:06.761,5046076,24514040,-23995970,17965970,1953125,17822270,-12548830
2026-01-14 17:14:06.771,5045216,28544950,23642160,17949570,21435550,19335940,-15148930
2026-01-14 17:14:06.781,-52946690,5097001,159688,1,75941470,18041990,14575200,-19458010
2026-01-14 17:14:06.791,5069384,28959270,23970160,17942660,15698240,11419680,-21118160
2026-01-14 17:14:06.801,-5277405,29166430,24125530,7580338,10345460,11291500,-25219730
2026-01-14 17:14:06.811,5101321,52282060,1355174,17945250,6976318,-6829834,-3100586
2026-01-14 17:14:06.821,-5262732,52722260,1277488,7565665,15576170,-15686040,-25268560
2026-01-14 17:14:06.831,-62912820,28699450,-23263220,65215750,16955570,-119018600,-23864750
2026-01-14 17:14:06.841,5107362,53507750,1199800,17904690,2364502,-13916020,-20825200
2026-01-14 17:14:06.851,-52420160,29166420,-23659420,75414940,32763670,-60913090,-125
2026-01-14 17:14:06.861,-52351100,29442640,-23901110,75328620,35498050,15571590,-9020996
2026-01-14 17:14:06.871,-52290680,54802500,940854,8,75250940,27514650,63819880,-7196045
2026-01-14 17:14:06.881,-52221630,30763290,25325330,75164620,28442380,-6939697,-41809080
2026-01-14 17:14:06.891,5083194,30961810,25454810,17808010,29370120,-18188480,-46539310
2026-01-14 17:14:06.901,5064204,31151710,25592920,17775210,38330080,-18017580,10482790
2026-01-14 17:14:06.911,-52092150,31332980,25722390,74879780,4267578,-88378900,32073980
2026-01-14 17:14:06.921,-5204900,56994950,371160,3,7478485,4321289,-37384030,86242670
2026-01-14 17:14:06.931,5015003,57486950,172632,3,17686300,41845700,44006350,11651610
2026-01-14 17:14:06.941,-51962680,31814620,-26017590,74612190,40063480,4849243,17614750
2026-01-14 17:14:06.951,-51919520,32174560,-26348180,74534510,4152832,8728027,10821530
2026-01-14 17:14:06.961,4974434,58893910,-319371,7,17606030,4741211,10473630,22033690
2026-01-14 17:14:06.971,-5180729,29733530,29134490,7437052,57373050,4147339,-47668460
2026-01-14 17:14:06.981,-51755520,32619100,26542400,74284190,65966800,-13160710,-18029780
2026-01-14 17:14:06.991,4951992,6044761,-100990,7,17542150,7949219,-8203125,-2446289
2026-01-14 17:14:07.001,4949401,34232360,-28260960,17527480,86816410,-692749,-296875
2026-01-14 17:14:07.011,-5160879,61664680,-1691806,7405117,98046870,-53344730,-3894043
2026-01-14 17:14:07.021,4926961,62294800,-2097496,17480870,10380860,-5065918,-39941410
2026-01-14 17:14:07.031,-5152245,33473630,26930820,7391304,11220700,-9851074,-3881836
2026-01-14 17:14:07.041,-51487940,33611740,26965350,73861240,11972660,-11767580,-45654300
2026-01-14 17:14:07.051,-51462040,64029760,-3297299,73818080,12382810,-12854000,-4572754
2026-01-14 17:14:07.061,-51453410,64513130,-3677089,73774930,13886720,-15405270,-45751950
2026-01-14 17:14:07.071,-5146205,64815240,-3892886,7373180,1390625,-15185550,-4296875
2026-01-14 17:14:07.081,-51496570,65100090,-4125941,73679980,14863280,-2133789,-35595700
2026-01-14 17:14:07.091,-6248644,37835220,-31736080,6270741,15371090,-28833010,-2932129
2026-01-14 17:14:07.101,10353430,65359040,-4384892,11605550,15136720,-4272461,-20056150
2026-01-14 17:14:07.111,-5172964,37918940,-31824980,7353325,14931640,-4975586,-59539800
2026-01-14 17:14:07.121,-51859100,35176400,-34567520,73472820,14082030,-515625,5419922
2026-01-14 17:14:07.131,-51979940,65350400,-4566154,73421020,13837890,-5966797,90148930
2026-01-14 17:14:07.141,4342595,65384940,-4704264,16891330,13408200,-7011719,1159668
2026-01-14 17:14:07.151,4225205,65410830,-4851004,16784290,13134770,-76904300,11706540
2026-01-14 17:14:07.161,-52471950,38324630,-32282460,73222500,13613280,-73339840,234375
2026-01-14 17:14:07.171,-52661850,33698060,26585560,73136180,12265630,-70654300,3256836
2026-01-14 17:14:07.181,-5286036,33663530,26499240,7304124,11044920,-6328125,35864260
2026-01-14 17:14:07.191,3634799,33637640,26387030,16235320,9326172,-37646480,40844730
2026-01-14 17:14:07.201,-5329198,39678940,-33690290,7283409,75,-579834,5024414
2026-01-14 17:14:07.211,3304205,66999060,-7233342,15927170,3972168,22631840,3779297
2026-01-14 17:14:07.221,-53714910,67197580,-7552711,72618280,29525760,74902340,2319336
2026-01-14 17:14:07.231,-53930700,67050850,-7526819,72506060,2708435,15644530,36791990
2026-01-14 17:14:07.241,2857947,66817790,-7414608,15510260,8338928,17275390,33862300
2026-01-14 17:14:07.251,2802704,66334420,-7034814,15461920,-36694340,73779300,-28808590
2026-01-14 17:14:07.261,2731063,33206050,26024500,15395460,-21411130,-2631836,-6796875
2026-01-14 17:14:07.271,2624029,64461340,-5282584,15295330,21411130,-30322270,-8564453
2026-01-14 17:14:07.281,2542891,63391020,-4281306,15221100,34692380,-43914800,-91748050
2026-01-14 17:14:07.291,-54603970,32808990,26197130,72247120,17834470,-17675780,-93359380
2026-01-14 17:14:07.301,8135094,61725100,-2839820,9404470,-52978520,-37402340,-10097660
2026-01-14 17:14:07.311,23409100,60965510,-2218343,150432800,-8331299,-4428711,-96533200
2026-01-14 17:14:07.321,-62711700,60188660,-1614121,64432860,-115234400,-15112310,-8076172
2026-01-14 17:14:07.331,-62780760,32204770,26162610,64484650,-29101560,836792,-65771480
2026-01-14 17:14:07.341,20810960,32513780,-26699500,148197200,-5336914,17956540,-50390620
2026-01-14 17:14:07.351,2005138,57866740,34526,28,14757580,-67626950,17468260,-46557620
2026-01-14 17:14:07.361,1921410,31109420,-25341730,14685930,-61083980,112854000,-37939450
2026-01-14 17:14:07.371,-55674300,304936,7,-247484,9,72109010,-56591800,10290530,-32299800
2026-01-14 17:14:07.381,17444610,29878540,-24155740,145348800,-57128900,17907720,-25976560
2026-01-14 17:14:07.391,-63207160,55182290,1838549,64817830,-6557617,19506840,-16638180
2026-01-14 17:14:07.401,-56105880,54828400,2002553,72022700,-7260742,12390140,-95825190
2026-01-14 17:14:07.411,72222940,54655760,2002546,85046160,-7709961,3466797,-43182370
2026-01-14 17:14:07.421,1343089,54578080,1924864,14176660,-81152340,-6744385,-7763672
2026-01-14 17:14:07.431,-56554730,29230300,-23595540,71867320,-80078130,-6994629,-12915040
2026-01-14 17:14:07.441,1118665,54690290,1519176,13969500,-8203125,-93322750,-15368650
2026-01-14 17:14:07.451,1003001,54802500,1286120,13860750,-8901367,-8703613,-14013670
2026-01-14 17:14:07.461,8951048,55001020,966744,8,137614800,-91503900,-12408450,-13061520
2026-01-14 17:14:07.471,779441,30668340,25195860,13652720,-9892578,-15112310,-122802700
2026-01-14 17:14:07.481,-57279790,3064241,2511820,71504790,-10537110,-23168940,-13806150
2026-01-14 17:14:07.491,557607,30633810,25040490,13442970,-10712890,-18444820,-58502200
2026-01-14 17:14:07.501,6252180,31177610,-25618810,7541236,-10566410,-9857178,44288640
2026-01-14 17:14:07.511,3452676,56589250,-1070327,132409900,-10478520,-66223140,5105591
2026-01-14 17:14:07.521,248591,5,57072630,-1622754,13147770,-10927730,17745970,14758300
2026-01-14 17:14:07.531,151917,5,57564640,-2166550,13054550,-11035160,-31082150,2121582
2026-01-14 17:14:07.541,725056,30711500,24634800,129785900,-10976560,-5718994,2578125
2026-01-14 17:14:07.551,-6905,5,58643590,-3331826,12902630,-10732420,-16647340,30151370
2026-01-14 17:14:07.561,-58186120,59221920,-3961937,70943740,-10849610,7659912,3869629
2026-01-14 17:14:07.571,5672650,59895190,-4669736,6964124,-11269530,23596190,50390620
2026-01-14 17:14:07.581,5612230,30892760,24315430,6903701,-12558590,23046880,78271490
2026-01-14 17:14:07.591,61416000,30961810,24263630,62707470,-13291020,20788570,94970700
2026-01-14 17:14:07.601,-29434,25,61638780,-6378806,1262040,-13251950,24499510,9926758
2026-01-14 17:14:07.611,-58445070,62182580,-6870809,70684780,-14003910,22277830,10615230
2026-01-14 17:14:07.621,-5847097,62735010,-7354188,7062439,-13330080,13537600,10849610
2026-01-14 17:14:07.631,-401371,5,31298450,24185950,12502980,-12802730,19348140,10966800
2026-01-14 17:14:07.641,-424677,5,31410660,24194580,12474500,-11435550,31420900,10283200
2026-01-14 17:14:07.651,-58470970,64633980,-8907885,70468990,-10585940,4765625,90527340
2026-01-14 17:14:07.661,53287640,40255540,-34667400,66174730,-9291992,46264650,72753900
2026-01-14 17:14:07.671,-4920052,31868140,24203220,123864500,-62939450,58154300,56591800
2026-01-14 17:14:07.681,52605740,67318420,-11057170,65475570,-41870120,6274414,36669920
2026-01-14 17:14:07.691,-58436440,68380130,-11894450,70158260,-33935550,5595703,2980957
2026-01-14 17:14:07.701,-58436440,32472360,24237740,70054670,-28564450,41625980,28295900
2026-01-14 17:14:07.711,-653418,70598460,-13646680,12185340,-28808590,8123779,30249020
2026-01-14 17:14:07.721,-691397,5,71573850,-14397630,12137000,-28930660,-23498540,28759770
2026-01-14 17:14:07.731,50387400,7246288,-1506230,63205440,-27392580,-34033200,2607422
2026-01-14 17:14:07.741,-7587244,33249210,24358590,120489600,-27929690,-4050293,26098630
2026-01-14 17:14:07.751,-796702,5,33430480,24401740,12000620,-2364502,-33569340,28857420
2026-01-14 17:14:07.761,-826053,48563530,-42759590,11960910,-3022461,-33129880,33935550
2026-01-14 17:14:07.771,-63836410,7522502,-1696122,63946900,-26049800,-2993164,32763670
2026-01-14 17:14:07.781,-58350120,29709360,28778870,69329610,-14477540,-24157720,34765620
2026-01-14 17:14:07.791,-58324220,7623492,-1750501,69234660,-6921387,-17407230,3034668
2026-01-14 17:14:07.801,-943440,5,34198700,24755640,11802090,2986145,-17858890,21765140
2026-01-14 17:14:07.811,47753010,7715851,-1796253,60488190,-4034424,-17358400,22131350
2026-01-14 17:14:07.821,47586420,34500800,24919640,60309510,8132935,-10882570,29663090
2026-01-14 17:14:07.831,47505280,78246130,-18601260,60218020,9686279,90148930,35424800
2026-01-14 17:14:07.841,-9650212,7894525,-1911053,117373500,5218506,23474120,23632810
2026-01-14 17:14:07.851,53313280,30509510,29515150,54582650,18081660,1743164,9527588
2026-01-14 17:14:07.861,47606270,35139540,25057750,60289660,-7293701,1373291,-10559080
2026-01-14 17:14:07.871,-9589784,81215420,-20810960,117140500,-13085940,-17578120,55389400
2026-01-14 17:14:07.881,-9796952,35467550,25161330,116829700,-22399900,-21606440,20666500
2026-01-14 17:14:07.891,-57944430,35631550,25239020,68561390,-38745120,-25341800,4658203
2026-01-14 17:14:07.901,-57927170,35804180,25325330,68457820,-4819336,-7904053,703125
2026-01-14 17:14:07.911,-1072052,31240620,30182370,11550910,-54345700,7244873,7915039
2026-01-14 17:14:07.921,-1090181,8421924,-2246825,11517240,-5214844,16491700,81591800
2026-01-14 17:14:07.931,-1106582,84918410,-22804890,11481860,-46899420,21789550,78466800
2026-01-14 17:14:07.941,-1122118,3669324,2581734,11445600,-26782230,2758789,7182617
2026-01-14 17:14:07.951,-11376550,36952200,25989970,114093500,-10510250,25317380,5751953
2026-01-14 17:14:07.961,-11514660,8702450,-2363352,113713700,881958,25073240,40942380
2026-01-14 17:14:07.971,-11566440,8768913,-2383205,113420200,24157720,15283200,26171880
2026-01-14 17:14:07.981,44517000,37780840,26542400,56991490,37841800,93322750,5609131
2026-01-14 17:14:07.991,44529080,89018460,-24229120,56979410,34594730,38604740,-9094238
2026-01-14 17:14:08.001,-11281600,38333260,26922190,112962700,34570310,-12670900,-18896480
2026-01-14 17:14:08.011,-11160750,9033906,-2463480,112841900,35375980,-17199710,-23303220
2026-01-14 17:14:08.021,44652520,38859800,27276090,57028610,33154300,-1739502,-21044920
2026-01-14 17:14:08.031,44664600,39118740,27448720,57016530,37109380,-9436035,-140625
2026-01-14 17:14:08.041,44676690,39377700,27621360,57004440,32250980,36254880,-3604126
2026-01-14 17:14:08.051,44687900,92919970,-25506600,56993220,27197270,8288574,4397583
2026-01-14 17:14:08.061,44872620,63035390,-56254350,57153770,1821289,21224980,5834961
2026-01-14 17:14:08.071,45056480,9418018,-2597273,57315180,11077880,-7836914,-22247310
2026-01-14 17:14:08.081,45326650,40344440,28260100,57562910,6173706,-14904790,-5722046
2026-01-14 17:14:08.091,-55898720,35099840,33884510,66239470,6500244,-12384030,-524292
2026-01-14 17:14:08.101,-915819,5,40793290,28570840,11273830,101623500,-7513428,36499020
2026-01-14 17:14:08.111,-55639770,41026340,28717580,66032310,6149292,-39711,15222170
2026-01-14 17:14:08.121,-55510300,65395290,-58382920,65937360,56793210,4937744,19995120
2026-01-14 17:14:08.131,-55372190,97667390,-27146610,65833790,44311520,-19592280,21521000
2026-01-14 17:14:08.141,-791523,5,41742780,29175060,11304910,10046390,-53833010,15490720
2026-01-14 17:14:08.151,-753545,5,9891898,-2762136,11318710,21826170,-48614500,11456300
2026-01-14 17:14:08.161,-715564,5,42200260,29477170,11332530,31079100,12008670,1048584
2026-01-14 17:14:08.171,-668955,10007560,-2801842,11354970,35180660,52459720,15576170
2026-01-14 17:14:08.181,47688280,42640470,29779280,59689760,4189453,9838867,18676760
2026-01-14 17:14:08.191,48045630,101042400,-28260100,60022940,41259770,10229490,28637700
2026-01-14 17:14:08.201,-548114,65276000,-64544380,11406760,46484380,14355470,33911130
2026-01-14 17:14:08.211,-501501,102017800,-28493160,11429210,54003900,16564940,41577150
2026-01-14 17:14:08.221,-54042920,6929592,-6190549,65022400,46557620,21765140,54833980
2026-01-14 17:14:08.231,-5885075,43745330,30538860,5995564,515625,16784670,5761719
2026-01-14 17:14:08.241,-53706280,10389080,-2920956,64823880,59277340,15942380,5439453
2026-01-14 17:14:08.251,-58565910,4425457,3082374,59688030,6479492,13562010,47705080
2026-01-14 17:14:08.261,50638580,71618730,-64071200,62436360,6821289,10169980,37109380
2026-01-14 17:14:08.271,-179538,5,10639400,-3050434,11590610,81396480,-52093500,41845700
2026-01-14 17:14:08.281,-5294670,10719680,-3091003,6446136,86035150,-1259613,48779300
2026-01-14 17:14:08.291,-38843,10799950,-3131572,11674340,91796870,924,1104,51171880
2026-01-14 17:14:08.301,-52541010,74201320,-66494960,64314610,90234380,748291,47680660
2026-01-14 17:14:08.311,1277488,4581688,3162645,117839600,9404297,16125490,37646480
2026-01-14 17:14:08.321,219245,11063220,-3282626,11847840,94091800,20153810,29663090
2026-01-14 17:14:08.331,310740,5,11159030,-3342184,11911710,10488280,13317870,31640620
2026-01-14 17:14:08.341,56016970,77296640,-69441820,67588600,12265630,19519040,31152340
2026-01-14 17:14:08.351,495458,5,11368780,-3477702,12037730,13046880,21374510,3161621
2026-01-14 17:14:08.361,587817,11473220,-3545892,12100740,13671880,12188720,42993160
2026-01-14 17:14:08.371,688804,5,80027700,-72062390,12172390,14550780,21575930,5571289
2026-01-14 17:14:08.381,59443760,47715900,32334250,70894540,15888670,-2281189,6621094
2026-01-14 17:14:08.391,-50486660,11801220,-3753050,63693130,16289060,4928589,83691410
2026-01-14 17:14:08.401,999544,82681940,-74587160,12379550,16210940,-11528020,11240230
2026-01-14 17:14:08.411,62088500,48674010,32774460,73428780,15380860,11148450,13232420
2026-01-14 17:14:08.421,1230879,49027910,32938470,12528010,11855470,-1953125,12460940
2026-01-14 17:14:08.431,-49278230,122638800,-40154540,63261550,6791992,-73535150,88964850
2026-01-14 17:14:08.441,-48941600,49718440,33301000,63149340,5126953,-115625,49682620
2026-01-14 17:14:08.451,1633113,12438240,-4082782,12799050,5708008,-13759770,11505130
2026-01-14 17:14:08.461,72813100,5032263,3374982,73925370,640625,-13046880,-18847660
2026-01-14 17:14:08.471,-47940320,50590240,33982910,62873120,54248050,-11894530,-5
2026-01-14 17:14:08.481,20672860,5081461,3424184,131072000,3256836,-12578130,-6459961
2026-01-14 17:14:08.491,2189856,12520240,-3966255,13191790,22790530,-13876950,-6074219
2026-01-14 17:14:08.501,-47059890,124581000,-38557690,62579640,3647461,-13574220,-3408203
2026-01-14 17:14:08.511,-4681819,44058660,42447980,6245882,44067380,-9716797,-12780760
2026-01-14 17:14:08.521,2468659,5143615,3550208,13361830,-4934082,50878900,-3828125
2026-01-14 17:14:08.531,2570511,122725100,-35407130,13432620,-81396480,14736330,-5546875
2026-01-14 17:14:08.541,7451551,122259000,-34492170,8534314,21445310,26054690,-18212890
2026-01-14 17:14:08.551,2622300,82956430,-74140050,13415350,10253910,27460940,-26464840
2026-01-14 17:14:08.561,-45799660,83322420,-74464590,61802790,-11201170,86328130,-21679690
2026-01-14 17:14:08.571,78357040,83514900,-74617380,79429960,-10273440,12705080,-18603520
2026-01-14 17:14:08.581,-53439040,5262730,3669327,53593720,8917236,24101560,-20429690
2026-01-14 17:14:08.591,75424700,12550450,-3590780,76492780,18774410,23886720,-19326170
2026-01-14 17:14:08.601,2119076,1269287,-370730,5,12779190,-45922850,98535150,-11298830
2026-01-14 17:14:08.611,1955939,53361010,36736400,12597070,-1046875,-31835940,25830080
2026-01-14 17:14:08.621,17677660,84437970,-83534420,123881800,-95996100,-11328130,16601560
2026-01-14 17:14:08.631,1604625,89121180,-80059640,12206060,-7836914,-13486330,24589840
2026-01-14 17:14:08.641,66884260,13054540,-3967121,67942500,-5932617,-12080080,29550780
2026-01-14 17:14:08.651,1313743,54111970,37038510,11875460,-30371090,-6982422,31113280
2026-01-14 17:14:08.661,59553380,13125320,-3982657,70094380,-20275880,-11437990,278125
2026-01-14 17:14:08.671,-51944550,13156400,-3986105,53223770,-25512700,26049800,2171875
2026-01-14 17:14:08.681,-46127670,13188330,-3988695,58798960,-42016600,30004880,14365230
2026-01-14 17:14:08.691,-46032720,54767970,37539160,58617700,-47607420,35205080,63623050
2026-01-14 17:14:08.701,-45929140,54923340,37677260,58479600,-35009770,4807129,-2602539
2026-01-14 17:14:08.711,-45808290,13274650,-3988695,58358750,-31591800,6870117,-98291020
2026-01-14 17:14:08.721,-45670190,13286730,-3976610,58272440,-36816410,7363281,-14296880
2026-01-14 17:14:08.731,1157509,55285870,38022530,11531060,-49194340,6323242,-15761720
2026-01-14 17:14:08.741,1243824,13289330,-3939496,11600110,-69140620,42822260,-15732420
2026-01-14 17:14:08.751,59739820,55423980,38229680,70080570,-8149414,17126460,-14355470
2026-01-14 17:14:08.761,1387974,13261700,-3880801,11714910,-90966800,-19683840,-10947270
2026-01-14 17:14:08.771,-44962390,55518930,38428220,58168860,-9477539,-9716797,-53125
2026-01-14 17:14:08.781,-44858810,55562080,38505900,58151590,-91308590,-2553711,-48065180
2026-01-14 17:14:08.791,-44763860,13211640,-3792756,58142960,-7246094,-28466800,29589840
2026-01-14 17:14:08.801,62273220,13191790,-3760824,72553540,-75683590,-44433590,35253900
2026-01-14 17:14:08.811,62797160,131624400,-37211150,73065400,-7661133,-5786133,17675780
2026-01-14 17:14:08.821,-44444490,131330900,-36814080,58151600,-7685547,-51416020,-10473630
2026-01-14 17:14:08.831,-44332280,5568291,3893750,58160220,-72216800,-46264650,-28808590
2026-01-14 17:14:08.841,6471080,13065760,-3593367,7494970,-7060547,-42871100,-3935547
2026-01-14 17:14:08.851,65320200,13019150,-3536400,75548730,-63916020,-4284668,-48388670
2026-01-14 17:14:08.861,2004275,12982040,-3487197,12220730,-5800781,-34716800,-5732422
2026-01-14 17:14:08.871,2070739,12945790,-3437133,12275100,-6191406,-24816900,-5336914
2026-01-14 17:14:08.881,2137199,86329700,-76808960,12329490,-58154300,-13928220,-66259770
2026-01-14 17:14:08.891,21950350,129060800,-33732580,123752300,-7114258,-12428280,-62158200
2026-01-14 17:14:08.901,22528670,129034900,-33585840,124209800,-79541020,57739260,-61083980
2026-01-14 17:14:08.911,-43400060,129181600,-33611730,58160230,-93896480,-11224370,-5761719
2026-01-14 17:14:08.921,-4329650,129242100,-33551320,5812576,-9243164,-23376460,-4013672
2026-01-14 17:14:08.931,2375436,129388800,-33577220,12505580,-86035150,-18811040,-39404300
2026-01-14 17:14:08.941,2407371,86452260,-76859020,12525430,-10126950,-24304200,-35668940
2026-01-14 17:14:08.951,2430676,86458300,-76852980,12536650,-10527340,-4152832,-43115230
2026-01-14 17:14:08.961,-4296849,129734100,-33577210,5797038,-10244140,-44677740,-5439453
2026-01-14 17:14:08.971,-42916690,129699500,-33439110,57935810,-9316406,-46801760,-5986328
2026-01-14 17:14:08.981,2479016,129561400,-33231950,12557370,-92578130,-3713379,-54052740
2026-01-14 17:14:08.991,2490237,129414700,-33033420,12563410,-92529300,-33789060,-5600586
2026-01-14 17:14:09.001,-42821740,56304410,40128660,57875380,-9267578,-42773440,-49658200
2026-01-14 17:14:09.011,-42821740,56269880,40180450,57875380,-7973633,-4482422,-4753418
2026-01-14 17:14:09.021,2491103,56226730,40223610,12562540,-67529300,-36206060,-4025879
2026-01-14 17:14:09.031,2498872,56166310,40284030,12572040,-5786133,-28076170,-40429690
2026-01-14 17:14:09.041,2504909,83627980,-73986390,12583260,-6171875,-15271000,-3713379
2026-01-14 17:14:09.051,2510956,55993670,40387610,12594480,-5722656,-16687010,-4375
2026-01-14 17:14:09.061,25152700,12540950,-2909738,126074200,-41577150,34729000,-44384770
2026-01-14 17:14:09.071,70649390,8137508,-7175083,80750180,-3251953,2052002,-48461910
2026-01-14 17:14:09.081,25239010,80681120,-71063720,126333200,-3203125,28808590,-5810547
2026-01-14 17:14:09.091,70813400,12323440,-2712939,80931450,-28271480,29467770,-56640620
2026-01-14 17:14:09.101,25411640,12250070,-2648199,126678400,-21899410,2619629,-55126950
2026-01-14 17:14:09.111,71063710,12194830,-2599864,81199020,-88256830,3161621,-52001950
2026-01-14 17:14:09.121,2567920,78249580,-68661520,12710140,-18066410,26660160,-34887700
2026-01-14 17:14:09.131,-43080680,121016100,-25204490,58410540,-16101070,18237300,-24829100
2026-01-14 17:14:09.141,-43080690,55147760,40594770,58479600,-121276900,15991210,-21105960
2026-01-14 17:14:09.151,-43063420,5510459,4056889,58548650,-15246580,19677730,-1640625
2026-01-14 17:14:09.161,2711209,12030830,-2470385,12877600,-14331060,21582030,-18823240
2026-01-14 17:14:09.171,73462460,55009660,40508440,83634020,-23291020,21203610,-13183590
2026-01-14 17:14:09.181,73891460,12006660,-2460030,84068190,-18579100,11828610,-7891846
2026-01-14 17:14:09.191,2858813,54906080,40491180,13040740,-2553711,8758545,-36712650
2026-01-14 17:14:09.201,2890750,54837020,40491180,13077850,-31420900,-23474120,-5429077
2026-01-14 17:14:09.211,2904560,54750710,40525710,13098570,-2355957,-3557129,-77697750
2026-01-14 17:14:09.221,-42994370,75281150,-65760410,59032020,-22998050,-48779300,13885500
2026-01-14 17:14:09.231,2914054,11748570,-2234740,13123600,-21081540,-5644531,28793340
2026-01-14 17:14:09.241,-43080680,48220840,46831150,59118340,-19616700,-45996100,72021490
2026-01-14 17:14:09.251,2895064,11661390,-2166550,13125320,-2529297,-25170900,14904790
2026-01-14 17:14:09.261,7498251,54327760,40534340,8522141,-34326170,-6378174,32348630
2026-01-14 17:14:09.271,2877800,7353323,-6405566,13125320,-39111330,14709470,47094730
2026-01-14 17:14:09.281,-43270580,48039580,46667150,59273710,-49609380,27001950,6723633
2026-01-14 17:14:09.291,-43296480,11586290,-2120801,59299600,-70214850,18359380,86572260
2026-01-14 17:14:09.301,7479778,11558680,-2096634,8506084,-59716800,-22735600,80126950
2026-01-14 17:14:09.311,-43356900,11540550,-2080232,59308240,-47265620,-97473140,6665039
2026-01-14 17:14:09.321,2840682,72659710,-63202850,13110650,-35766600,-14904790,4489746
2026-01-14 17:14:09.331,-43382800,72658850,-63203710,59334140,-38891600,-15429690,2322998
2026-01-14 17:14:09.341,2838958,115103400,-20586540,13112380,-4099121,-12963870,23651120
2026-01-14 17:14:09.351,2845860,72483620,-63033660,13122740,-37939450,17196660,-20629880
2026-01-14 17:14:09.361,2844136,114818500,-20353480,13124470,-32543940,14770510,-31567380
2026-01-14 17:14:09.371,2841547,114620000,-20206750,13127060,-3251953,19348140,-42333980
2026-01-14 17:14:09.381,-43460480,5389615,4046531,59446340,-32861330,20959470,-49853520
2026-01-14 17:14:09.391,-43477740,53835750,40456660,59480870,-3623047,16308590,-5419922
2026-01-14 17:14:09.401,2858813,53775330,40448030,13161580,-3786621,8654785,-47753900
2026-01-14 17:14:09.411,7503256,11328210,-1912780,8534395,-38549800,-41168210,-44555660
2026-01-14 17:14:09.421,2876076,53611330,40456660,13196110,-37768560,-4269409,-37402340
2026-01-14 17:14:09.431,-4358996,5352502,4043940,5969667,-3569336,-79956060,-26733400
2026-01-14 17:14:09.441,2901103,69603230,-60217150,13240130,-30639650,-50872800,-24035640
2026-01-14 17:14:09.451,2913192,53326480,40430760,13262570,-21411130,6652832,-17785640
2026-01-14 17:14:09.461,29339070,11095150,-1731515,132936400,-13452150,18591310,-17333980
2026-01-14 17:14:09.471,29546220,53145210,40387600,133247200,-14343260,20336910,-20239260
2026-01-14 17:14:09.481,76465420,53050270,40361710,86845860,-43792720,14697270,-2878418
2026-01-14 17:14:09.491,2996057,52963950,40327180,13386870,-14564510,15661620,-3388672
2026-01-14 17:14:09.501,-43788480,52886270,40301290,60223190,-6931305,14770510,-33764650
2026-01-14 17:14:09.511,7731393,52799950,40266760,8772373,-30456540,-7873535,-34448240
2026-01-14 17:14:09.521,-43814380,108974900,-16011750,60369940,29327390,-12878420,-31811520
2026-01-14 17:14:09.531,3090137,67049980,-57764030,13517210,13366700,55603030,-31518560
2026-01-14 17:14:09.541,-43840280,67044800,-57769200,60516670,10479740,1348877,-32250980
2026-01-14 17:14:09.551,-4384025,52592790,40076860,6058575,9790039,17370600,-34814450
2026-01-14 17:14:09.561,31919930,10904390,-1646062,136397700,7800293,23156740,-39746100
2026-01-14 17:14:09.571,32239300,46879480,45617540,136768900,7891846,2770996,-45288090
2026-01-14 17:14:09.581,-43805740,10964810,-1723743,60775620,24291990,19091800,-49145510
2026-01-14 17:14:09.591,-51464630,5256687,3977478,53168530,-4345703,27053830,-5151367
2026-01-14 17:14:09.601,3303340,69178550,-59951300,13770110,-10290530,-15478520,-48266600
2026-01-14 17:14:09.611,3318015,111270900,-19067370,13789970,-13122560,-32202150,-4038086
2026-01-14 17:14:09.621,-43823010,52644580,39489920,60930990,-72021490,-46411130,-38476560
2026-01-14 17:14:09.631,3323196,52687740,39394960,13802050,-13391110,-4663086,-24584960
2026-01-14 17:14:09.641,-43857540,52730900,39282760,60965520,-14685060,-48461910,-17382810
2026-01-14 17:14:09.651,3311109,113912200,-21950350,13796870,-13623050,-4008789,-20129400
2026-01-14 17:14:09.661,-43892060,52825840,39084220,60982780,-28466800,-35253900,-21081540
2026-01-14 17:14:09.671,-4392659,11533640,-2346089,6096552,-30615230,-27197270,-21618650
2026-01-14 17:14:09.681,3239467,116018300,-24160060,13730410,-20605470,-54534910,-24804690
2026-01-14 17:14:09.691,32040770,71238840,-70320620,136967400,-11694340,10534670,-3034668
2026-01-14 17:14:09.701,78911630,11737350,-2556705,89406020,-680542,14477540,-40063480
2026-01-14 17:14:09.711,78652680,11804670,-2627484,89147060,-8831787,2541504,-32617190
2026-01-14 17:14:09.721,3134158,77612570,-68435370,13628550,-16479490,16564940,-22912600
2026-01-14 17:14:09.731,-51626040,11968680,-2791481,53300590,-24169920,13110350,-17163090
2026-01-14 17:14:09.741,3136751,12063630,-2886432,13625960,-3322754,10321050,-10845950
2026-01-14 17:14:09.751,78656990,80288380,-71111190,89142750,-32177730,-29251100,-13391110
2026-01-14 17:14:09.761,31583300,53559530,38229680,136389100,-2788086,-5770874,-10821530
2026-01-14 17:14:09.771,31609190,12350190,-3169552,136363200,-13977050,-13781740,-94055180
2026-01-14 17:14:09.781,31635080,124468700,-32627730,136337300,-12237550,-24157720,-11444090
2026-01-14 17:14:09.791,31574660,12543540,-3355997,136225100,1586914,-14550780,-12475590
2026-01-14 17:14:09.801,7858364,53982490,37927580,8904351,91918940,-18334960,-140625
2026-01-14 17:14:09.811,3127252,85734980,-76540510,13583670,13049320,-11431890,-16442870
2026-01-14 17:14:09.821,3112582,12790420,-3592504,13563810,8319092,-85632320,-103759800
2026-01-14 17:14:09.831,-43917960,54275960,37737680,60542560,4156494,-66711420,-11895750
2026-01-14 17:14:09.841,-43909330,12940600,-3735787,60499410,-28213500,-81604000,-1439209
2026-01-14 17:14:09.851,-43892070,88677500,-79467500,60447620,-7165527,-87890620,-103759800
2026-01-14 17:14:09.861,-43874800,13083890,-3868716,60413090,-12390140,39794920,-8654785
2026-01-14 17:14:09.871,3040939,13165030,-3942949,13462820,-19750980,32958980,-5996704
2026-01-14 17:14:09.881,3027992,13236670,-4009413,13441240,-24230960,2468872,6866455
2026-01-14 17:14:09.891,-51211730,91538040,-82303880,52851740,-17016600,-3616333,10253910
2026-01-14 17:14:09.901,29658440,54957860,37470100,133652800,-11833190,32958980,6707764
2026-01-14 17:14:09.911,76201290,55044180,37452830,86592100,-5718994,117370600,-4864502
2026-01-14 17:14:09.921,76032100,13459370,-4201040,86416010,-59265140,20858760,-18945310
2026-01-14 17:14:09.931,-43788480,46326280,46326110,59981510,6341553,-59021000,-43774420
2026-01-14 17:14:09.941,-43797110,13458500,-4184634,59921080,23461910,-11425780,-70214850
2026-01-14 17:14:09.951,2852769,13428300,-4145794,13219410,4189453,5819702,-8876953
2026-01-14 17:14:09.961,-43788480,13389450,-4098317,59808870,34545900,2529297,-95458980
2026-01-14 17:14:09.971,-43762590,91743470,-82443710,59782980,74523930,45385740,-8901367
2026-01-14 17:14:09.981,2845860,91489710,-82179580,13191790,-22155760,6347656,-49951170
2026-01-14 17:14:09.991,-43641750,91322250,-82001770,59713930,-44506840,91308590,-16625980
2026-01-14 17:14:10.001,-43546800,13324710,-3990421,59688030,-7182617,9321289,-14440920
2026-01-14 17:14:10.011,-43434580,13306590,-3956757,59644870,-77783200,3310547,-36401370
2026-01-14 17:14:10.021,29770640,55441240,38264220,132677500,-49658200,-11364750,-7026367
2026-01-14 17:14:10.031,76172790,13231490,-3841962,86447940,-2479248,-28173830,-82373050
2026-01-14 17:14:10.041,29926020,13189190,-3780675,132522100,-4598999,-47338870,-86328130
2026-01-14 17:14:10.051,2982240,89044350,-79618560,13228040,-6210327,-74365230,-86572260
2026-01-14 17:14:10.061,2962391,13102880,-3659830,13196100,-14086910,-10087890,-7128906
2026-01-14 17:14:10.071,-43072060,55631140,38954750,59126970,-2644043,-12666020,-3293457
2026-01-14 17:14:10.081,-43089320,55674300,39084220,58988870,-17858890,-12871090,105773900
2026-01-14 17:14:10.091,27483250,12999300,-3504461,129440600,18829350,-8120117,32226560
2026-01-14 17:14:10.101,2651651,12948380,-3434544,12833570,18713380,-25073240,22644040
2026-01-14 17:14:10.111,-4318431,86078500,-76542230,5847964,39648440,17822270,-6567383
2026-01-14 17:14:10.121,24945540,55855560,39714340,126454000,6166992,3564453,-56396480
2026-01-14 17:14:10.131,-4317562,55907350,39886970,5817751,6669922,18151860,-9926758
2026-01-14 17:14:10.141,2371986,55941880,40042340,12491760,6279297,-11999510,-11640630
2026-01-14 17:14:10.151,2309834,83702210,-74084800,12415800,54345700,-2467041,-10449220
2026-01-14 17:14:10.161,22390570,12647120,-3010728,123312100,4892578,-12597660,-78515620
2026-01-14 17:14:10.171,2168279,56062730,40491180,12246620,32714840,-18218990,-44360350
2026-01-14 17:14:10.181,-43175630,56123140,40620660,57452420,16369630,29411320,-22998050
2026-01-14 17:14:10.191,20552020,4924020,4769344,121007400,-4436,97,152282700,-6109619
2026-01-14 17:14:10.201,20120430,56313040,40827820,120403200,-1895752,7733154,70251460
2026-01-14 17:14:10.211,-43054790,56442520,40940040,57003580,-28735350,-37078860,15722660
2026-01-14 17:14:10.221,-42985740,12633320,-2869167,56830950,-38500980,97473140,16687010
2026-01-14 17:14:10.231,-42882160,12647990,-2854493,56641050,-39208980,56762700,12841800
2026-01-14 17:14:10.241,1875663,12639360,-2811336,11796910,-40356440,-66833500,-29953000
2026-01-14 17:14:10.251,18489050,57020830,41621940,117373500,-45654300,-2944336,-46051020
2026-01-14 17:14:10.261,62487280,12616050,-2713801,72339470,-49682620,-49975580,6477356
2026-01-14 17:14:10.271,-42381530,81190390,-71244980,55743360,-48388670,-58251950,10455320
2026-01-14 17:14:10.281,1727195,80694940,-70704630,11496530,-5654297,-7006836,22290040
2026-01-14 17:14:10.291,-42096680,12528010,-2491099,55165030,-6347656,-86083980,3425293
2026-01-14 17:14:10.301,1608946,57875380,42994370,11286780,-6357422,-10009770,35083010
2026-01-14 17:14:10.311,1546796,12431340,-2294299,11176290,-5048828,-9453125,34887700
2026-01-14 17:14:10.321,-41630560,7785941,-6767059,54163760,-23828120,-64941410,20922850
2026-01-14 17:14:10.331,1406963,12310490,-2069876,10936330,15617370,-7611084,55877690
2026-01-14 17:14:10.341,-4131983,12267340,-1974927,5347323,18396000,40771480,3237915
2026-01-14 17:14:10.351,-46521280,75952690,-65606760,47719360,2421875,79003900,8856201
2026-01-14 17:14:10.361,1211886,122604300,-18609890,10578990,20288090,9272461,24072270
2026-01-14 17:14:10.371,1154918,122871900,-18342310,10463320,12286380,10214840,19482420
2026-01-14 17:14:10.381,-40508450,7612013,-6561193,51971310,-43396000,96191410,123535200
2026-01-14 17:14:10.391,10608330,59938340,45696080,102466600,-18054200,51953120,18017580
2026-01-14 17:14:10.401,-40050970,60240460,45963660,51168570,-83740230,6713867,2076416
2026-01-14 17:14:10.411,936538,5,60551200,46239880,9991166,345459,-3178711,34106440
2026-01-14 17:14:10.421,53326060,12542680,-1803160,54224620,16210940,-69189460,6894531
2026-01-14 17:14:10.431,-39282750,12589300,-1791071,49882450,3425293,-7133789,10019530
2026-01-14 17:14:10.441,-39006540,12643670,-1788481,49468130,38623050,-59814450,13173830
2026-01-14 17:14:10.451,-38713060,61820060,47301580,49053810,5307617,-37182620,153125
2026-01-14 17:14:10.461,46660240,127869600,-18178310,55366150,65478520,-31152340,16699220
2026-01-14 17:14:10.471,-38126100,128508400,-18230100,48190640,89404300,-5878906,17431640
2026-01-14 17:14:10.481,660320,5,79086850,-67996880,9214315,11982420,-49731440,17753910
2026-01-14 17:14:10.491,44187270,12938880,-1786759,52660120,14951170,-17980960,16738280
2026-01-14 17:14:10.501,-37193880,12988940,-1771218,46688720,17373050,1842041,16279300
2026-01-14 17:14:10.511,-3683135,13040730,-1753956,4613631,18398440,30615230,16337890
2026-01-14 17:14:10.521,45078920,57537880,56054960,45898930,19746090,40942380,16015630
2026-01-14 17:14:10.531,-36045870,13165890,-1732375,44919230,19785160,9091797,15566410
2026-01-14 17:14:10.541,3228248,58306090,56805910,83088500,18925780,12958980,13759770
2026-01-14 17:14:10.551,-3515682,133747800,-17824410,4352960,17294920,14082030,12021480
2026-01-14 17:14:10.561,1769492,13502520,-1827326,79195620,1640625,13027340,11142580
2026-01-14 17:14:10.571,-34146900,13632870,-1869619,41949940,15771480,12519530,9428711
2026-01-14 17:14:10.581,33725680,84560190,-72708910,41197260,14990230,1078125,77246100
2026-01-14 17:14:10.591,-72506,13945330,-2006001,7254060,13417970,7636719,6381836
2026-01-14 17:14:10.601,-1450120,68242020,52031730,70330890,12275390,44311520,40820310
2026-01-14 17:14:10.611,-31824980,68811710,52342480,38436850,11425780,19714360,14648440
2026-01-14 17:14:10.621,28328290,14464100,-2264089,35200830,93847660,26611330,-22717280
2026-01-14 17:14:10.631,-30538870,14635000,-2352130,36650090,85302740,-14489750,-43164060
2026-01-14 17:14:10.641,26151380,14796420,-2432407,32716640,74609380,-14880370,-67871100
2026-01-14 17:14:10.651,25105230,14963870,-2523902,31518560,640625,-19836430,-87402340
2026-01-14 17:14:10.661,-403962,3,15121830,-2607629,5859182,64160160,-31396480,-9326172
2026-01-14 17:14:10.671,-4333098,71910480,53956600,56813680,6230469,-44580080,-10742190
2026-01-14 17:14:10.681,-45402,73,15416170,-2762136,551219,4,5966797,-5234375,-11425780
2026-01-14 17:14:10.691,-4747420,72790910,54422710,53430070,5654297,-5209961,-12001950
2026-01-14 17:14:10.701,-4885526,73205230,54647130,51841840,5854492,-43579100,-12109380
2026-01-14 17:14:10.711,19850260,15796830,-2951170,25379710,5708008,-37768560,-12832030
2026-01-14 17:14:10.721,-5179004,15912490,-3008138,48682640,5493164,-3642578,-12929690
2026-01-14 17:14:10.731,-5325740,74353250,55242720,47103050,53125,-3466797,-14833980
2026-01-14 17:14:10.741,-5481112,16157630,-3142793,45532080,43286130,-36865230,-15771480
2026-01-14 17:14:10.751,1668244,16278470,-3211846,2164221,28515620,-49902340,-16640630
2026-01-14 17:14:10.761,15889190,75414940,55751990,20709120,8508301,-66064450,-18105470
2026-01-14 17:14:10.771,15095070,16508940,-3343912,19776890,-14404300,-68310540,-20292970
2026-01-14 17:14:10.781,-22578730,76062320,56019570,22910190,-32128910,-7919922,-21074220
2026-01-14 17:14:10.791,-6404701,67257140,65239060,37824000,-2705078,-74902340,-21835940
2026-01-14 17:14:10.801,12780920,16803280,-3515682,17084670,-87768550,-55322260,-21953120
2026-01-14 17:14:10.811,-6646386,76821900,56382100,35303550,7556152,-59765620,-18886720
2026-01-14 17:14:10.821,-19067370,7702042,5649432,21846770,3359375,-82128900,-15117190
2026-01-14 17:14:10.831,-18592630,10940730,-9602650,21337500,49365230,-9916992,-13427730
2026-01-14 17:14:10.841,-18117880,16975910,-3567470,20880020,6425781,-10810550,-12480470
2026-01-14 17:14:10.851,-4894159,16971600,-3537260,33206050,7885742,-12050780,-1125
2026-01-14 17:14:10.861,-3927412,16975910,-3515680,33275100,88134770,-10429690,-9057617
2026-01-14 17:14:10.871,-2969296,16979370,-3494965,33352790,9223633,-80322260,-10830080
2026-01-14 17:14:10.881,13852980,16991450,-3482881,17393690,7055664,-5185547,-9941406
2026-01-14 17:14:10.891,-1277488,17011300,-3480290,33214680,56347660,-4230957,-11054690
2026-01-14 17:14:10.901,-543795,10949360,-9594019,32998890,50927740,-40600580,-10068360
2026-01-14 17:14:10.911,34527,10985100,-9627337,32593200,52441410,-5073242,-9135742
2026-01-14 17:14:10.921,14735130,7834970,5765095,17892600,49682620,-4074707,-10097660
2026-01-14 17:14:10.931,949489,78496450,57711380,31505620,39624020,-17932130,-11875
2026-01-14 17:14:10.941,14578030,17256440,-3614947,17531790,26391600,6726074,-14316410
2026-01-14 17:14:10.951,1640021,78798560,57823590,30124550,13024900,23840330,-18212890
2026-01-14 17:14:10.961,1821284,17363480,-3680546,29252740,12792970,26245120,-21777340
2026-01-14 17:14:10.971,1924867,79074770,57961700,28286000,24597170,2602539,-25234380
2026-01-14 17:14:10.981,1864441,1744460,-372025,2,27137980,41552740,33374020,-2828125
2026-01-14 17:14:10.991,-10694640,79325090,58108430,13456780,70410160,3305664,-2984375
2026-01-14 17:14:11.001,11796050,79445940,58177490,14098980,91064460,3161621,-31347660
2026-01-14 17:14:11.011,1070326,17542150,-3760822,22925730,10712890,32226560,-33261720
2026-01-14 17:14:11.021,-9235891,1756804,-376944,8,11428340,11826170,36621100,-34980470
2026-01-14 17:14:11.031,8955362,17594800,-3777221,10897490,12050780,30517580,-36523440
2026-01-14 17:14:11.041,-284845,17603440,-3768589,17893460,12675780,23413090,-38261720
2026-01-14 17:14:11.051,-76821900,17602570,-3752186,92186280,10761720,8129883,-35019530
2026-01-14 17:14:11.061,-1303383,17787290,-3930001,14596160,-121875,76953130,22246090
2026-01-14 17:14:11.071,-68794450,18057460,-4194991,78116660,-2046875,41484380,11308590
2026-01-14 17:14:11.081,-52998480,80550780,58177490,82346180,-74414060,75820310,-32695310
2026-01-14 17:14:11.091,-27051670,18271530,-4395248,-14380370,-71132820,396875,58691410
2026-01-14 17:14:11.101,-65169140,8070614,5814299,53257430,-61328120,6386719,49621580
2026-01-14 17:14:11.111,-14941430,80688900,58212020,-3702986,-43320310,9248047,23095700
2026-01-14 17:14:11.121,-17712200,18150690,-4257142,-6801758,-79248050,7973633,28300780
2026-01-14 17:14:11.131,-20042750,11821080,-10431380,-9477580,7973633,-22155760,21738280
2026-01-14 17:14:11.141,-68103910,17931440,-4027537,34095110,23984380,3479004,18857420
2026-01-14 17:14:11.151,-67413380,17805420,-3894609,29606650,41953120,79052740,26738280
2026-01-14 17:14:11.161,-25118170,80334990,58842120,-16141230,54140620,10585940,31582030
2026-01-14 17:14:11.171,-42355620,80309100,58937080,37918950,5875,99902340,3625
2026-01-14 17:14:11.181,-57918530,80300470,58997500,10616960,50234380,8294678,37636720
2026-01-14 17:14:11.191,-2762133,80309100,59057910,-2209705,37519530,-98339840,35390620
2026-01-14 17:14:11.201,-46611040,80317730,59101070,-5696902,20800780,-11962890,309375
2026-01-14 17:14:11.211,-16046280,17580130,-3636524,10539280,9716797,-89404300,27265620
2026-01-14 17:14:11.221,-35389870,17597400,-3653786,-22787620,-13496090,-8354492,25273440
2026-01-14 17:14:11.231,-3060792,17571500,-3627893,-3067696,-25195310,-59375,18955080
2026-01-14 17:14:11.241,-25549760,17519710,-3576101,-38669900,-28457030,-19091800,11855470
2026-01-14 17:14:11.251,9002837,17442020,-3498418,-15683750,-24550780,-3947754,9111328
2026-01-14 17:14:11.261,-16831760,80101940,59316860,-52048990,-18896480,-671875,8276367
2026-01-14 17:14:11.271,-32878050,17276300,-3336140,-37383780,-16123050,-12167970,8847656
2026-01-14 17:14:11.281,23460890,17189980,-3249827,-30573390,-1546875,-12460940,8496094
2026-01-14 17:14:11.291,27336510,7981711,5958444,-34466280,-1890625,-56884770,67822260
2026-01-14 17:14:11.301,-1208436,16982820,-3042665,-69226030,-19355470,-49121100,64208980
2026-01-14 17:14:11.311,2071608,79618560,59800240,-71124990,-18623050,-6586914,7807617
2026-01-14 17:14:11.321,552427,16777390,-2833780,-7233343,-17988280,-44458010,7597656
2026-01-14 17:14:11.331,8804308,10390640,-8996104,-73023970,-14814450,-9320068,6430664
2026-01-14 17:14:11.341,39662550,79333720,60136870,-45791030,-9428711,-2319336,70996100
2026-01-14 17:14:11.351,-24729750,79247400,60223190,-33620370,-7285156,-39208980,6738281
2026-01-14 17:14:11.361,1838547,16417450,-2468659,-7397345,-36987300,-63623050,6503906
2026-01-14 17:14:11.371,-21794980,16357020,-2408236,-31376140,-24093630,-10400390,6201172
2026-01-14 17:14:11.381,-20569280,16287970,-2339183,-30530230,10601810,-11933590,37524420
2026-01-14 17:14:11.391,2693083,16227550,-2278762,-7664927,39111330,-13125,30371090
2026-01-14 17:14:11.401,53703690,78928030,60542560,-54192240,2849121,-11484380,10032650
2026-01-14 17:14:11.411,32196150,9820950,-8426414,-80360890,1895752,-796875,-107299800
2026-01-14 17:14:11.421,-18031570,16035060,-2091454,-29787910,6719971,-5371094,-24987790
2026-01-14 17:14:11.431,-17694930,15964280,-2024127,-29951910,-15905760,-26000980,-3935547
2026-01-14 17:14:11.441,-23183810,78617290,60749720,-24463030,-3005371,-6524658,-44555660
2026-01-14 17:14:11.451,-17168400,15831360,-1898105,-30478440,-5083008,13145450,-49853520
2026-01-14 17:14:11.461,-16909450,78453300,60844680,-30737390,-6923828,3543091,-63427740
2026-01-14 17:14:11.471,-16667760,7838425,6087920,-30979080,-7475586,-40771480,-58251950
2026-01-14 17:14:11.481,-16521030,93968730,-80045830,-31298450,-7758789,-14782720,-48535160
2026-01-14 17:14:11.491,52135310,15617290,-1697852,-100127400,-73779300,-29467770,-38598630
2026-01-14 17:14:11.501,-23386660,15581040,-1665049,-24950720,-6044922,-4013672,-34326170
2026-01-14 17:14:11.511,7774552,78151180,60974150,-8263099,-32836910,-48901370,-28710940
2026-01-14 17:14:11.521,5731435,78090760,60982780,-10686010,-16357420,-62646480,-32666020
2026-01-14 17:14:11.531,81552060,7803900,6100001,-86592950,29541020,-7558594,-40600580
2026-01-14 17:14:11.541,-17038930,15434300,-1535574,-34233220,18774410,-86035150,-56347660
2026-01-14 17:14:11.551,-17444620,153980400,-15027740,-35035960,15319820,-89208980,-80371100
2026-01-14 17:14:11.561,-26032270,153609300,-14708370,-27829370,58166500,-9326172,-8769531
2026-01-14 17:14:11.571,8916516,90842330,-76957420,-9468942,-92041020,-74902340,-8642578
2026-01-14 17:14:11.581,-19084630,15295330,-1415594,-37884420,-40478520,-7734375,-81347660
2026-01-14 17:14:11.591,-19818320,77693700,61034570,-39049690,-6591797,-62646480,-7421875
2026-01-14 17:14:11.601,6793128,15237500,-1369847,-12887090,-10009770,-44311520,-7207031
2026-01-14 17:14:11.611,-21536030,70132350,68475070,-41647820,-13105470,-46142580,-6801758
2026-01-14 17:14:11.621,6983027,77538330,61000040,-13560360,-15410160,-26123050,-6845703
2026-01-14 17:14:11.631,-23875210,7751246,6093964,-44832920,-16669920,-3200531,-58935550
2026-01-14 17:14:11.641,7121132,15246990,-1412142,-14268160,-16269530,14697270,-47070310
2026-01-14 17:14:11.651,-26369770,153203600,-14941420,-48207900,-159375,13439940,-27661130
2026-01-14 17:14:11.661,7267872,77572860,60568460,-15019110,-13037110,40100100,-16101070
2026-01-14 17:14:11.671,-28933370,77607390,60413090,-51686460,-10615230,-15930180,6561279
2026-01-14 17:14:11.681,7431871,155870800,-17971140,-15787330,-89501950,-29418940,12237550
2026-01-14 17:14:11.691,-31402030,77659180,60136870,-55087340,-8364258,-6772461,10211180
2026-01-14 17:14:11.701,7613138,15688930,-1919685,-16503760,-87646480,-7675781,26107790
2026-01-14 17:14:11.711,-33318260,77616020,59990140,-57832210,-10537110,-59472660,-2479248
2026-01-14 17:14:11.721,7794402,15672530,-1918822,-17082080,-11083980,-3474121,-49072260
2026-01-14 17:14:11.731,7872091,69617900,67867410,-17315140,-10771480,-20288090,-7866211
2026-01-14 17:14:11.741,7949771,155637700,-18204200,-17496400,-11542970,-52459720,-11738280
2026-01-14 17:14:11.751,-35174080,15493860,-1752229,-60810150,-13300780,2121582,-15996090
2026-01-14 17:14:11.761,-46790580,15432570,-1692670,-49366270,-15722660,4711914,-19277340
2026-01-14 17:14:11.771,8122407,15398040,-1658145,-17703560,-18779300,6098633,-20546880
2026-01-14 17:14:11.781,8139669,15381640,-1640019,-17669040,-22128910,61279300,-19599610
2026-01-14 17:14:11.791,-3425046,77218960,60214560,-6000737,-22148440,5307617,-17089840
2026-01-14 17:14:11.801,8182827,15366970,-1620166,-17453240,-17929690,10292970,-3166504
2026-01-14 17:14:11.811,8295036,91293770,-77541780,-17254710,-17949220,33203120,-34594730
2026-01-14 17:14:11.821,-30167700,77408860,60093720,-55631140,-7998047,628125,-17734380
2026-01-14 17:14:11.831,-28130630,15908180,-2166549,-53697640,26914060,18955080,15380860
2026-01-14 17:14:11.841,9115048,16008300,-2273584,-16779980,29902340,4840088,20996090
2026-01-14 17:14:11.851,-22192030,15953930,-2224382,-48587700,20507810,8330078,89697260
2026-01-14 17:14:11.861,-1930906,15907310,-2184677,-4629167,15009770,17363280,20471190
2026-01-14 17:14:11.871,-29520330,15918540,-2207981,-32282460,10195310,9638672,4560547
2026-01-14 17:14:11.881,-15537010,15912490,-2214024,-43848910,987,0529,-28198240,11533200
2026-01-14 17:14:11.891,-14501210,77434750,59429080,-43503640,-12792970,-55078120,13671880
2026-01-14 17:14:11.901,-13802050,77262120,59480870,-43512270,-21542970,-29760740,15449220
2026-01-14 17:14:11.911,-13379090,69186320,67435820,-43762590,-25117190,-17993160,1890625
2026-01-14 17:14:11.921,-12982040,76873690,59644870,-43987010,-24667970,-8383789,20957030
2026-01-14 17:14:11.931,-26905800,91412020,-77768790,-30063260,-19599610,-14277340,21191410
2026-01-14 17:14:11.941,-12438240,15112340,-1477742,-44530810,-9506836,-14003910,19365230
2026-01-14 17:14:11.951,-12351930,82423250,-81060660,-44962390,42138670,-12763670,19091800
2026-01-14 17:14:11.961,-12248350,14886190,-1272308,-45411240,17197270,-13447270,18339840
2026-01-14 17:14:11.971,-27226890,14801600,-1201528,-30605330,2765625,-10722660,14560550
2026-01-14 17:14:11.981,-11695920,14767930,-1183402,-46136300,32832030,-4243164,10214840
2026-01-14 17:14:11.991,-11178020,14793830,-1226560,-46308940,33984380,3894043,7602539
2026-01-14 17:14:12.001,-26690860,14868920,-1324098,-30278190,33652340,64746100,63134770
2026-01-14 17:14:12.011,15528380,14986310,-1465659,-21138970,29863280,11513670,37963870
2026-01-14 17:14:12.021,-2591571,68302440,66627900,-2967221,26816410,11914060,30688480
2026-01-14 17:14:12.031,16521030,15258210,-1797978,-22062560,22792970,10253910,3371582
2026-01-14 17:14:12.041,-801883,3,153954500,-19714750,-4774172,20332030,25854490,5307617
2026-01-14 17:14:12.051,-7915244,75725680,58099800,-48881170,18330080,-29663090,69433590
2026-01-14 17:14:12.061,-8018826,75596210,57780430,-50331300,17294920,-16479490,5620117
2026-01-14 17:14:12.071,18842940,15620740,-2333142,-24919640,15429690,3269043,23876950
2026-01-14 17:14:12.081,-9279050,75181890,57141680,-54595340,13525390,6982422,-3265381
2026-01-14 17:14:12.091,-10366640,74905670,56830940,-57305680,11884770,80126950,-25463870
2026-01-14 17:14:12.101,-3575099,74594930,56502940,-3623712,1015625,5932617,-38916020
2026-01-14 17:14:12.111,21302970,15568090,-2523903,-28985160,7910156,4086914,-54589840
2026-01-14 17:14:12.121,-38228820,73913020,55838300,-43426810,16894530,33447270,-48754880
2026-01-14 17:14:12.131,-16512390,15489540,-2585186,-70149620,6817627,40112300,-4440918
2026-01-14 17:14:12.141,-18195570,73205230,55095980,-73472810,-24487300,53271480,-3935547
2026-01-14 17:14:12.151,-19878740,72851340,54690290,-76796000,-48632810,6386719,-27539060
2026-01-14 17:14:12.161,-47915290,15470550,-2794071,-53765840,-59375,5463867,-117370600
2026-01-14 17:14:12.171,24703850,15482640,-2885569,-35389860,-6503906,34472660,904541
2026-01-14 17:14:12.181,25221760,71832790,53326480,-36408400,-6894531,9765625,14978030
2026-01-14 17:14:12.191,30973040,71496160,52851740,-32141760,-6196289,-1328125,19226070
2026-01-14 17:14:12.201,-2857945,71168160,52368370,-9312711,-59521480,-43896480,23522950
2026-01-14 17:14:12.211,-3021084,62310330,60414820,-9615683,-5942383,-5756836,18847660
2026-01-14 17:14:12.221,27103460,70512140,51401620,-40206340,-56933590,-6430664,16381840
2026-01-14 17:14:12.231,-33352790,15687210,-3578691,-101991900,-5488281,-5620117,11376950
2026-01-14 17:14:12.241,27983890,69856140,50417610,-41949940,-6191406,-54345700,9106445
2026-01-14 17:14:12.251,28415470,15786470,-3841960,-42795840,-4597168,-67041020,3970337
2026-01-14 17:14:12.261,-3756505,15805460,-3943812,-11003660,-38378900,-75878900,29510500
2026-01-14 17:14:12.271,-3866127,15806320,-4029265,-11239300,-4248047,-72802740,-4888916
2026-01-14 17:14:12.281,29787910,15772660,-4080194,-45204080,-6899414,-58154300,-11206060
2026-01-14 17:14:12.291,-74736500,5903379,5704505,-82359980,-7270508,-57666020,-13146970
2026-01-14 17:14:12.301,-4119896,67551490,47681370,-11865960,-6870117,-54052740,-18554690
2026-01-14 17:14:12.311,-77203420,15627650,-4190675,-85072060,-70947260,-53564450,-22094730
2026-01-14 17:14:12.321,-4222615,15542190,-4189814,-12212090,-7475586,-6088867,-24450680
2026-01-14 17:14:12.331,3226522,66135890,46524720,-4883799,-7607422,-7529297,-2536621
2026-01-14 17:14:12.341,32826260,65626620,46170830,-49485390,-8701172,-8330078,-36376950
2026-01-14 17:14:12.351,-4180318,65100090,45816930,-12530600,-81347660,-9160156,-48168940
2026-01-14 17:14:12.361,-7914642,15031200,-4027538,-8761754,-68066410,-10966800,-6123047
2026-01-14 17:14:12.371,-3997328,14856840,-3942948,-12592750,-7319336,-11699220,-79003900
2026-01-14 17:14:12.381,35381230,14672990,-3850592,-51815940,-7758789,-10039060,-12548830
2026-01-14 17:14:12.391,-37159360,62735020,44522180,-125634000,-6645508,-8178711,-18388670
2026-01-14 17:14:12.401,-3572650,14271610,-3647745,-12551320,-46484380,-66064450,-22851560
2026-01-14 17:14:12.411,37556420,14072220,-3553663,-53542280,-22814940,-5629883,-259375
2026-01-14 17:14:12.421,-3320606,9178060,-8137079,-12561680,-881958,-52001950,-27851560
2026-01-14 17:14:12.431,-74379140,59972880,42985740,-83753140,-11682130,-25878910,-27226560
2026-01-14 17:14:12.441,-74226360,59230550,42571420,-83733290,-19152830,-11260990,-2546875
2026-01-14 17:14:12.451,40275390,86599870,-76538780,-56105880,-21166990,7757568,-22089840
2026-01-14 17:14:12.461,40870980,12946650,-3004688,-56787790,-28125,72784420,-1875
2026-01-14 17:14:12.471,-3055613,8276827,-7294714,-12947510,-49365230,-10089110,-16650390
2026-01-14 17:14:12.481,42036250,76529980,-75560120,-58125690,-54003900,-32885740,-14833980
2026-01-14 17:14:12.491,42562780,55354930,40439390,-58755800,-15576170,-23547360,-11435550
2026-01-14 17:14:12.501,-30184960,120515400,-25877760,-132608400,-12646480,-55566410,-4609375
2026-01-14 17:14:12.511,-76394640,11882370,-2532530,-86744020,-56396480,-6044922,29312130
2026-01-14 17:14:12.521,-76516340,11723540,-2484193,-86967570,-45361330,-36743160,-62438960
2026-01-14 17:14:12.531,4454808,11564720,-2435858,-6094825,-2578125,5456543,-19787600
2026-01-14 17:14:12.541,44996920,11406760,-2386660,-61448890,-16223150,7631836,-1640625
2026-01-14 17:14:12.551,4539399,51367100,37746310,-6196677,12731930,16328130,21618650
2026-01-14 17:14:12.561,-78661300,44701720,43358630,-89483700,45043940,246875,10136720
2026-01-14 17:14:12.571,-3139340,10964820,-2258909,-14037690,9350586,28886720,16455080
2026-01-14 17:14:12.581,-8264227,68954130,-60348350,-9361653,13427730,27617190,17480470
2026-01-14 17:14:12.591,-3518271,10523740,-2026717,-14573720,68408200,23945310,26992190
2026-01-14 17:14:12.601,-3716798,42514450,41299110,-14858560,15771480,28222660,28222660
2026-01-14 17:14:12.611,-3897203,63169190,-54912120,-15127010,-35595700,28066410,24296880
2026-01-14 17:14:12.621,55618190,4640391,3488920,-57560320,-8286133,24667970,14990230
2026-01-14 17:14:12.631,-4188091,60621980,-52625600,-15595710,-99365230,12373050,11826170
2026-01-14 17:14:12.641,47413790,44945130,33706680,-67525580,-85498050,3701172,13330080
2026-01-14 17:14:12.651,47664100,44306390,33067940,-68086650,-5307617,-17041020,15820310
2026-01-14 17:14:12.661,47888530,60344040,-52730900,-68621820,-3581543,-39135740,1890625
2026-01-14 17:14:12.671,-4668873,9450822,-1960253,-16392410,-64331060,-7519531,23691410
2026-01-14 17:14:12.681,48259690,9461182,-2088005,-69648980,5332031,-10732420,2796875
2026-01-14 17:14:12.691,48432320,9463771,-2206258,-70115090,9140625,-13798830,30292970
2026-01-14 17:14:12.701,48622220,41604670,29831060,-70563940,86572260,-11855470,29003910
2026-01-14 17:14:12.711,48829380,94352830,-24073740,-70995520,68115230,-10488280,24296880
2026-01-14 17:14:12.721,49062440,93860830,-24738380,-71401210,51708980,-11679690,20214840
2026-01-14 17:14:12.731,49304120,93187560,-25239010,-71798260,26586910,-12158200,19707030
2026-01-14 17:14:12.741,-5229930,39274120,27500510,-17402320,16552730,-12470700,19492190
2026-01-14 17:14:12.751,4980477,38661270,26956720,-7254057,110839800,-13496090,19150390
2026-01-14 17:14:12.761,50072340,38039790,26438820,-72877230,9893799,-13076170,21015620
2026-01-14 17:14:12.771,5033130,37426940,25946810,-7318795,1381836,-11269530,21523440
2026-01-14 17:14:12.781,60890420,59997050,-53768430,-63181260,6274414,-6894531,221875
2026-01-14 17:14:12.791,-5241156,59340170,-53216860,-17701840,-3289795,-36035160,19423830
2026-01-14 17:14:12.801,-5223890,8576432,-2558428,-17736360,-72387700,-37646480,17753910
2026-01-14 17:14:12.811,51315300,35061860,24065110,-74310090,-19946290,-35913090,16083980
2026-01-14 17:14:12.821,5154835,83243870,-25169970,-7457763,-2836914,-25610350,14501950
2026-01-14 17:14:12.831,-5210078,33844800,23176050,-17871020,-19628910,-24133300,12734380
2026-01-14 17:14:12.841,51979940,33214680,22735830,-75112820,-1026001,-29614260,11816410
2026-01-14 17:14:12.851,-5204901,78798560,-23918370,-17962510,-13586430,-23388670,12304690
2026-01-14 17:14:12.861,5242017,31945830,21864030,-7562209,-14941410,-11755370,12617190
2026-01-14 17:14:12.871,52635950,7582929,-2308975,-75855160,-3652954,-53649900,13076170
2026-01-14 17:14:12.881,52851740,74430930,-22761720,-76088220,75927740,-31036380,13515630
2026-01-14 17:14:12.891,-5158288,30081390,20534750,-18095440,12158200,900,7454,13271480
2026-01-14 17:14:12.901,-5146203,29468540,20094540,-18124790,35766600,87524420,14179690
2026-01-14 17:14:12.911,-5143614,28872950,19637060,-18161900,5439453,2407837,13642580
2026-01-14 17:14:12.921,-5133258,69234660,-21743190,-18189520,6035156,25787350,12490230
2026-01-14 17:14:12.931,53801230,27724940,18765260,-77124010,6538086,41625980,1171875
2026-01-14 17:14:12.941,-5097004,6686959,-2134613,-18225780,6689453,-11472700,10292970
2026-01-14 17:14:12.951,54155130,65695680,-21138970,-77460650,7519531,-14282230,88378900
2026-01-14 17:14:12.961,54353650,64539030,-20914550,-77607380,7895508,-3125,77978510
2026-01-14 17:14:12.971,54543550,63391020,-20681490,-77728220,71435540,-36401370,8256836
2026-01-14 17:14:12.981,-11551180,6216533,-2035348,-11564440,6220703,-30297850,78808590
2026-01-14 17:14:12.991,5492333,42529120,-38435980,-7795263,6352539,-33789060,61621100
2026-01-14 17:14:13.001,-4813024,59644870,-19593900,-18129970,6064453,-4338379,45239260
2026-01-14 17:14:13.011,-4737926,5835013,-1916232,-18084220,44262700,-38085940,4104004
2026-01-14 17:14:13.021,-4663695,56977680,-18635780,-18037610,30981440,-3161621,40551760
2026-01-14 17:14:13.031,55717460,55518930,-18022940,-78297920,18798830,-29614260,40429690
2026-01-14 17:14:13.041,-4516092,21889930,14760160,-17943520,1673584,-14453130,51904300
2026-01-14 17:14:13.051,56097260,52428790,-16624610,-78436020,17272950,-18203740,5703125
2026-01-14 17:14:13.061,-10452270,20819600,14138680,-11800190,24938960,8404541,6381836
2026-01-14 17:14:13.071,-4340870,49338650,-15226270,-17842530,3149414,115356400,5722656
2026-01-14 17:14:13.081,-4302891,47879900,-14613420,-17828720,33642580,110839800,5732422
2026-01-14 17:14:13.091,56675580,19214110,13206460,-78789930,4267578,15710450,47070310
2026-01-14 17:14:13.101,67833910,30494850,-27337380,-67856010,5078125,11462400,36694340
2026-01-14 17:14:13.111,-4245058,15649230,15096800,-17834760,6347656,-13511660,29052730
2026-01-14 17:14:13.121,-4218300,41362980,-11462860,-17826990,6459961,-35369870,4099121
2026-01-14 17:14:13.131,57133060,17056190,12032550,-79143820,6870117,9588623,42260740
2026-01-14 17:14:13.141,-4173415,37970740,-9676108,-17820090,7573242,17138670,3959961
2026-01-14 17:14:13.151,-4156152,16003120,11497390,-17820090,7753906,99243170,3232422
2026-01-14 17:14:13.161,57417900,34595750,-7872089,-79376870,79052740,6726074,29077150
2026-01-14 17:14:13.171,-4123351,32921210,-6957130,-17818360,72753900,4949951,20617680
2026-01-14 17:14:13.181,-4115583,31255290,-6033543,-17826130,765625,15356450,15722660
2026-01-14 17:14:13.191,-410004,8,29684330,-5187637,-1782440,875,8178711,68847660
2026-01-14 17:14:13.201,67594640,28122000,-4333105,-69787090,88671870,121032700,9100342
2026-01-14 17:14:13.211,57806320,26568300,-3469935,-79696250,8408203,15490720,15136720
2026-01-14 17:14:13.221,57875380,2511821,-267584,4,-79748050,8979492,14953610,18103030
2026-01-14 17:14:13.231,57935800,13865060,-11684700,-79791200,10,15197750,27734380
2026-01-14 17:14:13.241,-4027539,22338770,-1139381,-17810600,10917970,17443850,2644043
2026-01-14 17:14:13.251,-4013729,21009500,-397057,3,-17807140,11992190,-67329410,10357670
2026-01-14 17:14:13.261,58117070,10756800,-8750794,-79903420,11796880,-18981930,45776370
2026-01-14 17:14:13.271,5817749,18385470,1122118,-7992930,11748050,-2692871,-11193850
2026-01-14 17:14:13.281,58246540,17004400,1985283,-79946570,11689450,-32543940,-22766110
2026-01-14 17:14:13.291,58298330,7225579,-5376673,-79963830,10136720,-25146480,-39379880
2026-01-14 17:14:13.301,-3890296,5907519,-4105224,-17723420,8598633,-42999270,-50683590
2026-01-14 17:14:13.311,-3852318,46766410,-29192320,-17692340,49267580,42260740,-34594730
2026-01-14 17:14:13.321,-3849727,8864730,8312302,-17694930,16418460,9423828,-1743164
2026-01-14 17:14:13.331,-3864398,102026400,65773360,-17714780,4611206,7285156,-45703120
2026-01-14 17:14:13.341,-3853180,19412640,-3029717,-17708740,59631350,43237300,-59472660
2026-01-14 17:14:13.351,58565910,7993538,7992324,-80041510,9777832,6821289,-13647460
2026-01-14 17:14:13.361,58643600,785485,8,778574,4,-80015620,24182130,10371090,27441410
2026-01-14 17:14:13.371,58695380,7660615,7651977,-80015620,45385740,8149414,25195310
2026-01-14 17:14:13.381,-3696947,750783,8,749402,1,-17571500,6191406,22741700,11772160
2026-01-14 17:14:13.391,-3668459,83899870,63183860,-17548190,74365230,-9301758,-47546390
2026-01-14 17:14:13.401,-3658967,21898560,-7449135,-17540430,89208980,-45922850,-18884280
2026-01-14 17:14:13.411,5884212,25230380,-11022650,-8000698,10351560,-8798828,-3317871
2026-01-14 17:14:13.421,-3630480,90805220,49373180,-17517120,11425780,-10351560,-30932620
2026-01-14 17:14:13.431,58911180,29382220,-15502490,-79989730,11044920,-9067383,-859375
2026-01-14 17:14:13.441,-3558840,30193600,-16417440,-17450650,10302730,-76220700,10510250
2026-01-14 17:14:13.451,-3514818,31039500,-17297870,-17408360,10693360,-5600586,15441900
2026-01-14 17:14:13.461,59057910,31048140,-17289250,-79894780,11357420,-42919920,25585940
2026-01-14 17:14:13.471,59101070,31082660,-17254720,-79851620,11455080,-37768560,28515620
2026-01-14 17:14:13.481,59135600,9468950,4462573,-79817090,10654300,-33691410,33862300
2026-01-14 17:14:13.491,59170120,73023970,68017600,-79782560,81591800,-34765620,24401860
2026-01-14 17:14:13.501,-3333553,31315720,-17021660,-17227090,5473633,-38745120,16992190
2026-01-14 17:14:13.511,-3325784,30556130,-16054910,-17217600,20812990,-38793940,9552002
2026-01-14 17:14:13.521,68424150,28078840,-13353210,-70476760,-35949710,-3425293,36102300
2026-01-14 17:14:13.531,5917014,9123680,5843643,-7969625,-24804690,-31640620,93566900
2026-01-14 17:14:13.541,68389620,88215710,64047020,-70442230,-39282230,-29003910,7739258
2026-01-14 17:14:13.551,5914424,7743303,7741921,-7967035,-46948240,-24511720,7519531
2026-01-14 17:14:13.561,68363720,78807180,78807180,-70416330,-578125,-13391110,10437010
2026-01-14 17:14:13.571,-3334415,8009505,8010885,-17208970,-5776367,10205080,927124
2026-01-14 17:14:13.581,59066550,80015620,82777750,-79644460,-5258789,10614010,30258180
2026-01-14 17:14:13.591,-3363762,-11575080,28130630,-17231410,-6484375,60157780,-7885742
2026-01-14 17:14:13.601,-3374116,58177480,109967500,-17238310,-7792969,28884890,-13562010
2026-01-14 17:14:13.611,58997490,-22537300,39610750,-79609930,-85498050,8477783,-13427730
2026-01-14 17:14:13.621,-3368938,83123020,90200990,-17226230,-88916020,8111572,-17834470
2026-01-14 17:14:13.631,-3361174,4902792,12671300,-17216740,-9277344,50567630,-15539550
2026-01-14 17:14:13.641,-3345635,-31660980,49476760,-17197750,-87890620,12805180,-10949710
2026-01-14 17:14:13.651,-3346498,-41394060,43196350,-17196890,-77441410,26245120,-12641910
2026-01-14 17:14:13.661,-9596607,-34051960,52264790,-10981310,-67529300,22790530,-49194340
2026-01-14 17:14:13.671,58902550,-33965640,52351100,-79532250,-50683590,60668940,-44036860
2026-01-14 17:14:13.681,68173830,-33896580,52420160,-70243700,-3383789,32691960,2015686
2026-01-14 17:14:13.691,-3456121,-33827530,52489210,-17294430,-2220459,-46661380,11260990
2026-01-14 17:14:13.701,58781700,-33775740,52541000,-79584040,-2010498,-25222780,10961910
2026-01-14 17:14:13.711,-3501005,-33723950,52592790,-17335860,-31420900,-3366089,10058590
2026-01-14 17:14:13.721,-3519134,5066793,13871100,-17352260,-39941410,-3378296,10296630
2026-01-14 17:14:13.731,58712650,-36244400,55251340,-79601300,-42944340,6829834,12963870
2026-01-14 17:14:13.741,-3538124,-3707304,5614905,-17367790,-3803711,13586430,18676760
2026-01-14 17:14:13.751,-3546754,-3963664,5876444,-17376420,-43823240,22741700,21740720
2026-01-14 17:14:13.761,-3573511,-41337090,60516670,-17401460,-4572754,22399900,1907959
2026-01-14 17:14:13.771,58626330,-43900690,63132060,-79635820,-34301760,12121580,2915039
2026-01-14 17:14:13.781,58600440,3944678,15338480,-79644460,-27148440,23291020,53027340
2026-01-14 17:14:13.791,-9848135,3720252,15631960,-11230410,-29174800,32983400,6245117
2026-01-14 17:14:13.801,-3646017,-52428790,71867320,-17467060,-28833010,46166990,6142578
2026-01-14 17:14:13.811,58522750,-5496647,7450859,-79670350,-2763672,48535160,80029300
2026-01-14 17:14:13.821,5850550,3271405,16391550,-7967036,-24963380,63427740,9765625
2026-01-14 17:14:13.831,5849686,3426776,16374290,-7966173,-16760250,7885742,11630860
2026-01-14 17:14:13.841,-3684861,3608040,16382920,-17497270,-17956540,8647461,12958980
2026-01-14 17:14:13.851,5847097,3797937,16400180,-7963583,-23339840,8798828,13251950
2026-01-14 17:14:13.861,67977900,4082786,16339760,-70094380,-24902340,80566410,12929690
2026-01-14 17:14:13.871,-3671914,4272679,16357020,-17475690,-2331543,69433590,13017580
2026-01-14 17:14:13.881,58453700,4376262,16460600,-79566780,-3605957,67822260,12304690
2026-01-14 17:14:13.891,-9857973,-51634680,72661430,-11237840,-53564450,6977539,10605470
2026-01-14 17:14:13.901,58445070,4030995,17151130,-79523620,-7314453,59716800,85546870
2026-01-14 17:14:13.911,58445070,3668465,17651770,-79506350,-9526367,49609380,64453120
2026-01-14 17:14:13.921,-3642562,-65255460,86662020,-17435990,-9584961,27001950,4777832
2026-01-14 17:14:13.931,-3626167,244277,1,1901558,-17417860,-91015620,-52734380,3684082
2026-01-14 17:14:13.941,-3582145,-8076657,10222490,-17375560,-94189460,-26708980,21618650
2026-01-14 17:14:13.951,58565910,595589,20793700,-79402780,-10791020,-12792970,5341797
2026-01-14 17:14:13.961,-9676711,10640440,10662540,-11056570,-10693360,-29006960,65625
2026-01-14 17:14:13.971,-3440585,-1406962,22589090,-17240910,-10253910,-14562990,49194340
2026-01-14 17:14:13.981,-3395700,-2511817,23555840,-17199470,-91064460,-4169922,22473140
2026-01-14 17:14:13.991,-3324058,9028732,11825390,-17133010,-68115230,-4597168,52001950
2026-01-14 17:14:14.001,58902540,-13814130,15878830,-79238770,-5029297,-2993164,9555664
2026-01-14 17:14:14.011,-3225656,-5394798,25851870,-17041520,-19885250,-23925780,94921870
2026-01-14 17:14:14.021,68084920,-6163012,26464710,-70108180,-6881714,-51171880,73828130
2026-01-14 17:14:14.031,-9390656,-6844916,26991240,-10772930,13830570,-45263670,8305664
2026-01-14 17:14:14.041,59075180,-7518184,27526400,-79169720,18798830,-33129880,7685547
2026-01-14 17:14:14.051,-3107402,-17940760,18139640,-16935340,17980960,-3762207,54833980
2026-01-14 17:14:14.061,-3072012,-8571253,28372320,-16901680,14697270,-3330078,3347168
2026-01-14 17:14:14.071,59221920,-17831310,19802780,-79092030,16064450,-43286130,36206060
2026-01-14 17:14:14.081,-2975337,-9158207,28821160,-16808460,15979000,-3955078,20166020
2026-01-14 17:14:14.091,59351400,-9261785,28890210,-79014350,16821290,-6020508,64941410
2026-01-14 17:14:14.101,-2843274,7889351,11721820,-16681570,19226070,-58496100,1907959
2026-01-14 17:14:14.111,-2773356,7880720,11730450,-16613380,15820310,-47631840,31762700
2026-01-14 17:14:14.121,68246340,7897986,11747710,-70171200,88134770,-3449707,21789550
2026-01-14 17:14:14.131,68252380,7923880,11756340,-70165160,35491940,-16845700,20324710
2026-01-14 17:14:14.141,59713930,7949775,11782230,-78720870,-52948000,-10253910,11804200
2026-01-14 17:14:14.151,59774350,-9184100,28967900,-78660450,-19396970,-3149414,1282959
2026-01-14 17:14:14.161,-2460026,-8985572,28821160,-16305230,-26049800,-4260254,2401123
2026-01-14 17:14:14.171,-8629862,-18631300,18830170,-10014560,-3095703,4537964,3359375
2026-01-14 17:14:14.181,-8578071,-8588516,28527680,-9962767,-27929690,18249510,46875
2026-01-14 17:14:14.191,-8534912,-8381355,28389580,-9919608,-29003910,24646000,43798830
2026-01-14 17:14:14.201,-8500385,-8087879,28165150,-9885081,-30908200,25683590,43237300
2026-01-14 17:14:14.211,-8483122,-7872087,28035680,-9867818,-38476560,20080570,3251953
2026-01-14 17:14:14.221,-8474491,-16769620,18792880,-9859186,-44604490,1282959,27954100
2026-01-14 17:14:14.231,6006784,-7449135,27768100,-7838424,-5541992,7751465,27783200
2026-01-14 17:14:14.241,6006784,-7164290,27535040,-7838424,-61865230,6976318,3425293
2026-01-14 17:14:14.251,60050560,-6870810,27310620,-78384240,-6855469,-77934260,5102539
2026-01-14 17:14:14.261,60024670,-6663648,27172500,-78392870,-7084961,-22094730,5834961
2026-01-14 17:14:14.271,-2289982,8623043,11954870,-16130010,-7167969,19515990,6791992
2026-01-14 17:14:14.281,5994698,-607669,4,2672366,-7843602,-7207031,-2911377,75634770
2026-01-14 17:14:14.291,59886560,-5688270,26421550,-78479180,-78759770,34118650,82421870
2026-01-14 17:14:14.301,-2440174,-14754980,16836950,-16273300,-87841800,14379880,9135742
2026-01-14 17:14:14.311,-2519585,-4911423,25817340,-16349260,-84814460,3708496,81152340
2026-01-14 17:14:14.321,59601710,-13883180,15982410,-78660450,-7836914,38110350,64208980
2026-01-14 17:14:14.331,-8941810,-3961939,25040490,-10324090,-72998050,49835200,60009770
2026-01-14 17:14:14.341,-2827736,-13011390,15127870,-16645320,-70947260,-3330078,5415039
2026-01-14 17:14:14.351,59230550,9253157,11980760,-78910770,-7138672,-31982420,55615230
2026-01-14 17:14:14.361,6805904,-2718977,24039210,-7004777,-7651367,-49951170,47070310
2026-01-14 17:14:14.371,-3144518,-2330552,23737100,-16950020,-6816406,-65966800,3461914
2026-01-14 17:14:14.381,58876660,-2028440,23521310,-79143820,-50878900,-67822260,15698240
2026-01-14 17:14:14.391,-9529972,-1717703,23314150,-10909830,-22619630,-62158200,13195800
2026-01-14 17:14:14.401,-3400878,-1303383,23037940,-17194300,5230713,-4790039,-74920660
2026-01-14 17:14:14.411,58591810,-802742,22675400,-79307820,43286130,-2064209,14205930
2026-01-14 17:14:14.421,5852276,-379793,22407830,-7934235,6020508,17297360,-5029297
2026-01-14 17:14:14.431,-3545029,9995478,12239710,-17326360,5673828,5683594,-14111330
2026-01-14 17:14:14.441,58436440,11201500,11223590,-79342360,38964840,7763672,-3088379
2026-01-14 17:14:14.451,-3564882,10176740,12403720,-17341030,6980896,8779297,-6464844
2026-01-14 17:14:14.461,-9729709,34526,22649510,-11107150,-4699707,9199219,-8491211
2026-01-14 17:14:14.471,-3504459,-120844,22839410,-17280610,-9057617,6904297,-8725586
2026-01-14 17:14:14.481,-3469933,-224424,22908460,-17246090,-11337890,3696289,-90185540
2026-01-14 17:14:14.491,67865670,-267579,22865300,-69930370,-1296875,15307620,-8066406
2026-01-14 17:14:14.501,-3406057,-250318,22709940,-17189120,-13623050,-79956060,-7758789
2026-01-14 17:14:14.511,-3387069,-10194010,12420980,-17173580,-12978520,-30517580,-8173828
2026-01-14 17:14:14.521,58695390,9917797,12144760,-79204250,-10488280,-42895510,-7109375
2026-01-14 17:14:14.531,58755810,10899390,10921480,-79195620,-71240230,-48608400,-58154300
2026-01-14 17:14:14.541,5882487,10761280,10783380,-7917835,-39013670,-59765620,-44506840
2026-01-14 17:14:14.551,-3230836,10623170,10645270,-17036340,-14111330,-58984380,-23352050
2026-01-14 17:14:14.561,-3175592,1038564,1060660,-16988000,8105469,-48168940,-35308840
2026-01-14 17:14:14.571,5905792,1023890,1045986,-7911793,19909670,-33935550,5404663
2026-01-14 17:14:14.581,59152860,9097788,11324750,-79092030,26513670,-20544430,13464360
2026-01-14 17:14:14.591,-3002959,8942414,11186650,-16832630,3647461,-10992430,12915040
2026-01-14 17:14:14.601,5931687,8795676,11039910,-7903161,46362300,-99609380,647583
2026-01-14 17:14:14.611,68229070,-10330390,12284600,-70188460,48168940,-16442870,-6365967
2026-01-14 17:14:14.621,-9035549,-1778125,21009500,-10420240,45458980,-16394040,-12915040
2026-01-14 17:14:14.631,59610340,-2114758,21018120,-78928030,40234380,-119140600,-24133300
2026-01-14 17:14:14.641,59722550,-2356443,20949070,-78884870,33520510,-18457030,-375
2026-01-14 17:14:14.651,-2561017,-2693083,20957700,-16428670,36865230,-265625,-36889650
2026-01-14 17:14:14.661,59955610,-2934767,20888650,-78772660,41259770,-38085940,-37426760
2026-01-14 17:14:14.671,6009373,-3185086,20810970,-7870361,40795900,-44189450,-41918940
2026-01-14 17:14:14.681,-2258045,-3435406,20733280,-16144690,5,-40966800,-43701170
2026-01-14 17:14:14.691,-2151012,-3763409,20750540,-16044560,51171880,-47558590,-55859380
2026-01-14 17:14:14.701,68603680,-4186360,20845490,-70400800,5185547,-45214840,-56347660
2026-01-14 17:14:14.711,60672050,68880760,94603140,-78401500,47998050,-2915039,-51660160
2026-01-14 17:14:14.721,-80395420,-5101315,21138970,-94309670,4038086,-8685303,-30444340
2026-01-14 17:14:14.731,-164515,7,65514400,92099960,-1556633,39404300,375,-34454340
2026-01-14 17:14:14.741,-1513133,-5619219,21138970,-15439480,49047850,71191410,27905270
2026-01-14 17:14:14.751,-1398331,-5619220,20966340,-15329850,6435547,7138672,6142578
2026-01-14 17:14:14.761,61397100,63011220,89078880,-77952650,69970700,7192383,7836914
2026-01-14 17:14:14.771,6149209,62838580,88388340,-7789221,8066406,29663090,8305664
2026-01-14 17:14:14.781,-74253980,-4980473,20051380,-88194140,9189453,36572260,11425780
2026-01-14 17:14:14.791,-1109169,-4635209,19706110,-15049330,10068360,10693360,12626950
2026-01-14 17:14:14.801,-1126429,64047030,87525180,-15066590,9765625,15761720,12011720
2026-01-14 17:14:14.811,-11713180,6542816,8769782,-151080200,7426758,1671875,91064460
2026-01-14 17:14:14.821,-1250729,-2788030,18273260,-15183980,2944336,12207030,34294130
2026-01-14 17:14:14.831,-1303379,68708130,88043070,-15234900,-3970337,-51193240,-20585940
2026-01-14 17:14:14.841,61423000,-975376,16805870,-77874970,-37841800,-7167969,-30
2026-01-14 17:14:14.851,-74517250,-172629,16054920,-88448770,-11347660,-15166020,-14335940
2026-01-14 17:14:14.861,-1103991,241688,15606070,-15037240,-11191410,-18349610,25566410
2026-01-14 17:14:14.871,-74517250,586958,15260800,-88448770,-7080078,16279300,33300780
2026-01-14 17:14:14.881,-14363100,992649,5,14975960,-153609300,15930180,17587890,17617190
2026-01-14 17:14:14.891,60948260,1286123,14751530,-78228860,-18005370,91064460,9682617
2026-01-14 17:14:14.901,-1873073,1355174,14647950,-15787330,-7548828,21374510,18493650
2026-01-14 17:14:14.911,-2012905,1217068,14682480,-15923710,-85009770,-75439460,-3803711
2026-01-14 17:14:14.921,-2090588,71815540,85626210,-16001400,-8129883,-8125,-7910156
2026-01-14 17:14:14.931,60473510,975382,5,14613420,-78651820,-8930664,-70947260,-7895508
2026-01-14 17:14:14.941,60456250,1078963,14371740,-78669080,-7753906,-5488281,-8149414
2026-01-14 17:14:14.951,-2157918,1355174,13957420,-16072180,-5234375,-27563480,-8286133
2026-01-14 17:14:14.961,-2148421,70002890,81741960,-16064410,-2824707,-34985350,-6542969
2026-01-14 17:14:14.971,60482140,-46869990,61889100,-78694980,-105041500,-2861328,-40356440
2026-01-14 17:14:14.981,-2155327,-43486380,58367380,-16074770,8862305,-9472656,-91674810
2026-01-14 17:14:14.991,-8436252,2710346,12032560,-9828369,34960940,8178711,20666500
2026-01-14 17:14:15.001,-2233011,68967080,77253480,-16152450,6245117,6732178,13171390
2026-01-14 17:14:15.011,6035269,-30720130,45238610,-7884173,8779297,-4272461,14978030
2026-01-14 17:14:15.021,-2336593,-27310620,41742780,-16256040,10361330,12310790,20861820
2026-01-14 17:14:15.031,-2379752,-24747010,39127380,-16299190,10214840,13439940,33398440
2026-01-14 17:14:15.041,60205930,4151839,10194010,-78971190,8540039,80566410,40454100
2026-01-14 17:14:15.051,60171400,-22174770,36520610,-79005720,5541992,5958557,359375
2026-01-14 17:14:15.061,-2493690,6913973,7466399,-16409680,19616700,-15649410,2861328
2026-01-14 17:14:15.071,-2511816,-18661680,33128370,-16426080,-72143550,-2692871,16784670
2026-01-14 17:14:15.081,60076460,-16892180,31445190,-79048870,-36914060,-26879880,10046390
2026-01-14 17:14:15.091,-2548066,52566900,93998940,-16458880,-5229492,-122558600,9136963
2026-01-14 17:14:15.101,-2573964,-10755070,25497970,-16484770,-5488281,38635260,18249510
2026-01-14 17:14:15.111,68580380,-639603,9,2122526,-70493160,-43481440,1862793,25024410
2026-01-14 17:14:15.121,59929710,-2037072,16952600,-79126560,-27905270,23754880,29907230
2026-01-14 17:14:15.131,-2689629,7487979,7496610,-16593530,-13134770,2722168,35131840
2026-01-14 17:14:15.141,-2733652,7526821,7526820,-16635830,-21865840,32299800,3955078
2026-01-14 17:14:15.151,59774340,7557035,7548397,-79230140,60577390,2286377,390625
2026-01-14 17:14:15.161,-2838954,84417780,67154430,-16737680,7989502,11602780,28466800
2026-01-14 17:14:15.171,59627600,88992560,63097530,-79325080,9753418,-62316900,15808110
2026-01-14 17:14:15.181,-2962391,24902380,-9624316,-16855930,10888670,-22949220,100097700
2026-01-14 17:14:15.191,59480870,28398210,-13033830,-79420040,12030030,-35180660,13598630
2026-01-14 17:14:15.201,68438820,2580529,-2425849,-70444820,14294430,-35961910,17810060
2026-01-14 17:14:15.211,5933412,37142100,-21553290,-7951497,11541750,-3647461,1451416
2026-01-14 17:14:15.221,-3210116,82000900,75268200,-17091580,10736080,-24633790,17163090
2026-01-14 17:14:15.231,59178750,45920510,-30038230,-79601300,105041500,-16247560,17858890
2026-01-14 17:14:15.241,5910969,50314030,-34276380,-7963580,64086910,-13183590,10748290
2026-01-14 17:14:15.251,59049280,12757620,3435404,-79661720,758667,-15161130,4257202
2026-01-14 17:14:15.261,5898890,86748320,76735580,-7968758,9851074,-18859860,-18936160
2026-01-14 17:14:15.271,58962970,62640060,-46119040,-79696250,7696533,-27734380,-47729490
2026-01-14 17:14:15.281,-3452671,14130050,2563607,-17315140,4852295,-27124020,-8270264
2026-01-14 17:14:15.291,58911180,90459940,78202970,-79696240,4814148,-28930660,-4953003
2026-01-14 17:14:15.301,58911180,14915540,2140652,-79678980,-38238520,-28222660,15525820
2026-01-14 17:14:15.311,-3456124,15260800,1968021,-17311690,-7543945,-2043457,-32928470
2026-01-14 17:14:15.321,58893910,93826300,80188260,-79644460,-13000490,-1060791,-4852295
2026-01-14 17:14:15.331,-3431955,15770070,1786757,-17284070,-17687990,15289310,22369380
2026-01-14 17:14:15.341,5890255,16020390,1691808,-7960130,-18811040,10961910,6573486
2026-01-14 17:14:15.351,-3415554,8229440,-6444409,-17265940,-27954100,120666500,-23620600
2026-01-14 17:14:15.361,58911180,16486500,1467382,-79575410,-29370120,14440920,15926360
2026-01-14 17:14:15.371,-340001,6,16702290,1337910,-1724694,-2541504,72509770,-41015620
2026-01-14 17:14:15.381,-9622504,16900820,1191172,-11007200,-19677730,14511110,-89782710
2026-01-14 17:14:15.391,-9613873,8934646,-7120268,-10998570,-18811040,-30345920,-16430660
2026-01-14 17:14:15.401,-9596609,9917794,8260512,-10981300,-18151860,-8166504,-24353030
2026-01-14 17:14:15.411,-9587977,17556830,638744,-10972670,-14050290,-14013670,-28051760
2026-01-14 17:14:15.421,-9579345,17815780,379794,-10964040,-5029297,-24291990,-2788086
2026-01-14 17:14:15.431,-333959,4,17988410,207160,-1718652,9448242,-26123050,-23510740
2026-01-14 17:14:15.441,-9553450,18255990,-43158,03,-10938140,26660160,-32543940,-13513180
2026-01-14 17:14:15.451,-9527556,18445890,-198529,-10912250,4802246,-22595220,-14038090
2026-01-14 17:14:15.461,-9501662,10496980,-8665338,-10886360,62158200,-22106930,8520508
2026-01-14 17:14:15.471,-9467134,18877470,-457479,-10851830,7314453,-21643070,22998050
2026-01-14 17:14:15.481,-3210983,19119160,-561059,3,-17056190,80566410,-17272950,30419920
2026-01-14 17:14:15.491,-3176456,19291790,-561059,3,-17021660,76416020,-19262700,40551760
2026-01-14 17:14:15.501,59161500,19481690,-543798,-79273300,5786133,-58685300,5463867
2026-01-14 17:14:15.511,-3101361,19697480,-500637,3,-16941390,40649420,11669920,6738281
2026-01-14 17:14:15.521,59178760,20008220,-535166,-79186980,19580080,31274410,75878900
2026-01-14 17:14:15.531,-3070287,20336220,-552427,3,-16903410,12626650,41333010,7939453
2026-01-14 17:14:15.541,-3072876,20681490,-552427,3,-16900820,-15759280,46850580,7470703
2026-01-14 17:14:15.551,-9304340,11333390,9140943,-10686620,-2800293,4675293,6923828
2026-01-14 17:14:15.561,-3104813,21725920,-889063,3,-16920670,-33520510,41357420,5830078
2026-01-14 17:14:15.571,5902339,22347400,-1130749,-7908339,-5522461,38134770,34765620
2026-01-14 17:14:15.581,-3162646,22951620,-1389700,-16966420,-64404300,28637700,17810060
2026-01-14 17:14:15.591,58885280,23555840,-1648653,-79083400,-6088867,31811520,-957489
2026-01-14 17:14:15.601,58798970,24142800,-1924866,-79100660,-6567383,33691410,-27270510
2026-01-14 17:14:15.611,-3302479,24807430,-2296026,-17085540,-4189453,30908200,-3071289
2026-01-14 17:14:15.621,58634970,25549760,-2762140,-79143830,-20397950,4555664,-40429690
2026-01-14 17:14:15.631,-3429364,26283450,-3236878,-17200340,-1665039,16699220,-75
2026-01-14 17:14:15.641,-3492376,26999880,-3728884,-17258170,-10998540,16937260,-86621100
2026-01-14 17:14:15.651,58376020,27612730,-4151839,-79230140,-16235350,-70251460,-10
2026-01-14 17:14:15.661,58306960,28122000,-4505736,-79247410,-11584470,-45837400,-11113280
2026-01-14 17:14:15.671,-3628756,28700320,-4963215,-17380740,-18811040,-2692871,-11689450
2026-01-14 17:14:15.681,58194750,18541700,-16157630,-79290560,-57128900,-45141600,-10820310
2026-01-14 17:14:15.691,-3700399,29736120,-5826382,-17447200,-7244873,-44384770,-11240230
2026-01-14 17:14:15.701,-3718526,30202230,-6223440,-17463600,-11993410,-31030270,-10380860
2026-01-14 17:14:15.711,58108430,19845090,-17443760,-79325090,-1607666,-32165530,-10585940
2026-01-14 17:14:15.721,58091170,13931530,10099060,-79342350,-8682251,-3579712,-10146480
2026-01-14 17:14:15.731,-3763411,31609190,-7578610,-17505040,26660160,-6097412,-8623047
2026-01-14 17:14:15.741,5806527,32135730,-8087879,-7935097,53808590,-92163090,-7036133
2026-01-14 17:14:15.751,-3781538,32670890,-8588517,-17521440,66015620,-8581543,-5283203
2026-01-14 17:14:15.761,58039380,22354320,-19940900,-79342350,75097660,-10241700,-44604490
2026-01-14 17:14:15.771,5803938,33775740,-9555263,-7932508,7207031,31223300,-42773440
2026-01-14 17:14:15.781,-3766863,14389000,9952321,-17501580,7163086,927124,-3017578
2026-01-14 17:14:15.791,58022110,35035970,-10539280,-79290560,7446289,11975100,-23022460
2026-01-14 17:14:15.801,-3770316,35743760,-11039910,-17498130,8066406,14672850,-18969730
2026-01-14 17:14:15.811,-3772906,25243330,-22748780,-17495540,87890620,3286743,-15234380
2026-01-14 17:14:15.821,-3775495,3730611,-1206708,-17492950,9223633,-14660650,-13134770
2026-01-14 17:14:15.831,-3770315,13036420,12530600,-17480870,9008789,-25268560,-10101320
2026-01-14 17:14:15.841,57892640,38946120,-13016570,-79143820,8652344,-22509770,-7220459
2026-01-14 17:14:15.851,-3769452,39748860,-13422250,-17464460,78222660,-15527340,-18615720
2026-01-14 17:14:15.861,57814950,16098080,10660120,-79048870,6738281,-9686279,1486969
2026-01-14 17:14:15.871,-9933157,16400180,10824120,-11300760,6323242,-6982422,-3604126
2026-01-14 17:14:15.881,-3784126,42347000,-14622060,-17449790,5180664,-24169920,-2482605
2026-01-14 17:14:15.891,-3789305,43210160,-14967320,-17444610,41430660,22491460,-34179690
2026-01-14 17:14:15.901,-3786716,43995640,-15217640,-17429940,2631836,101989700,-70251460
2026-01-14 17:14:15.911,57573270,17686300,11644130,-78755400,7183838,14221190,-8465576
2026-01-14 17:14:15.921,57530110,18005680,11859920,-78677710,-5444336,13562010,-36499020
2026-01-14 17:14:15.931,-3743558,46455670,-16037650,-17352250,-10827640,13696290,-30059810
2026-01-14 17:14:15.941,-3723705,47241160,-16287970,-17320310,-16357420,17956540,-32073980
2026-01-14 17:14:15.951,-3712484,48121580,-16615970,-17297010,-14013670,13757320,-7128906
2026-01-14 17:14:15.961,-3701261,19317690,12705830,-17273710,-93322750,37353520,-9527588
2026-01-14 17:14:15.971,-3681410,49934240,-17392830,-17241770,-23651120,-37902830,-13000490
2026-01-14 17:14:15.981,-3661558,50797400,-17738090,-17209830,9399414,-7397461,-8709717
2026-01-14 17:14:15.991,-3633073,51738260,-18178310,-17169260,115722700,-7678223,1676941
2026-01-14 17:14:16.001,-3613219,20586540,13474040,-17137330,23266600,-8258057,21118160
2026-01-14 17:14:16.011,57219370,5343873,-1889476,-77900860,37939450,-2286377,8569336
2026-01-14 17:14:16.021,-3565746,54198280,-19170950,-17063950,54003900,-34155270,51849360
2026-01-14 17:14:16.031,57150320,54862920,-19369480,-77728220,6230469,-53027340,15820310
2026-01-14 17:14:16.041,57124430,55354930,-19395370,-77633280,6386719,-40454100,22717280
2026-01-14 17:14:16.051,57098530,39195570,-35554730,-77538340,7314453,-43481440,37329100
2026-01-14 17:14:16.061,57081260,39132560,-35445110,-77452020,74853520,-59277340,3869629
2026-01-14 17:14:16.071,-3403471,38896920,-35162850,-16846440,78564460,-77441410,38110350
2026-01-14 17:14:16.081,-3322332,55423980,-17599990,-16754940,5595703,-59521480,6381836
2026-01-14 17:14:16.091,-3223930,5507009,-1674545,-16646180,33276370,-3659668,7998047
2026-01-14 17:14:16.101,-3117763,37331990,-33447740,-16527930,20129400,-12359620,8334961
2026-01-14 17:14:16.111,-3002960,54655760,-15260800,-16401040,13903810,10266110,99658200
2026-01-14 17:14:16.121,57340210,36699300,-32699370,-76502530,13098150,37402340,10546880
2026-01-14 17:14:16.131,-2775947,54923340,-14302690,-16144680,12414550,55371100,10957030
2026-01-14 17:14:16.141,57426530,55329040,-14069630,-76105470,12792970,69970700,11025390
2026-01-14 17:14:16.151,65757820,55821040,-13922890,-67601540,19311520,6660156,11279300
2026-01-14 17:14:16.161,57478320,56399360,-13862470,-75708420,27319340,6723633,11191410
2026-01-14 17:14:16.171,57504220,21933950,21224420,-75509890,29370120,6333008,10605470
2026-01-14 17:14:16.181,-8226503,25480700,18316410,-9554745,25854490,5727539,10400390
2026-01-14 17:14:16.191,-2154466,5846234,-1404373,-15419620,24084470,44067380,11083980
2026-01-14 17:14:16.201,-20612440,59126980,-14069630,-153056900,18518070,34277340,10263670
2026-01-14 17:14:16.211,65266680,59877930,-14181850,-66987830,1381836,21081540,92871100
2026-01-14 17:14:16.221,-1925727,60715200,-14380370,-15130460,7896423,10028080,78564460
2026-01-14 17:14:16.231,-83931210,61457530,-14501210,-85249610,-14758300,-14839170,7006836
2026-01-14 17:14:16.241,-18178300,27647260,19930540,-149794100,-29296880,27175900,61865230
2026-01-14 17:14:16.251,-1785031,63365120,-15183120,-14925890,-36523440,-17213820,37402340
2026-01-14 17:14:16.261,-1761725,64426820,-15675120,-14880140,-47509770,-60699460,26708980
2026-01-14 17:14:16.271,64659870,43293030,-38362620,-66317150,-5498047,-1625061,12927250
2026-01-14 17:14:16.281,-1730651,4426928,-3928534,-14807640,-6069336,-9240723,13198850
2026-01-14 17:14:16.291,57038100,67801810,-17479140,-73541860,-5917969,-21142580,-59173580
2026-01-14 17:14:16.301,56960420,45955900,-40878750,-73446920,-53271480,-27905270,-49682620
2026-01-14 17:14:16.311,56891360,2558873,2557984,-73343340,-4777832,-3251953,48309330
2026-01-14 17:14:16.321,-1704755,30254020,21294340,-14712690,-37329100,-25512700,17700200
2026-01-14 17:14:16.331,56779150,71435740,-19542110,-73162070,-19396970,-18151860,21386720
2026-01-14 17:14:16.341,-16831760,30702870,21501500,-146652100,-13464360,-22509770,1796875
2026-01-14 17:14:16.351,-16633240,26714180,25783680,-146332800,-7055664,-20959470,20739750
2026-01-14 17:14:16.361,-16434710,31082670,21691400,-146013400,17044070,-13146970,21081540
2026-01-14 17:14:16.371,-1613259,31238030,21777710,-14562500,-18815990,-14355470,1529541
2026-01-14 17:14:16.381,-158390,3,31384770,21889920,-1452278,-11260990,-118652300,14854430
2026-01-14 17:14:16.391,56632420,31496980,21984870,-72670060,-29467770,-1274414,-13452150
2026-01-14 17:14:16.401,56632420,31609190,22079820,-72601020,-5078125,-18408200,-29736330
2026-01-14 17:14:16.411,-1491554,7474167,-2089728,-14407990,-6376953,-31396480,-43017580
2026-01-14 17:14:16.421,56632420,75069680,-21087180,-72480170,-7631836,-45703120,-5341797
2026-01-14 17:14:16.431,-72438740,75449470,-21397920,-85348270,-9223633,-5317383,-6879883
2026-01-14 17:14:16.441,-72094340,7581204,-2172590,-85002140,-9682617,-62890620,-7885742
2026-01-14 17:14:16.451,-1374162,31937200,22114350,-14283690,-99072260,-60546880,-8105469
2026-01-14 17:14:16.461,56779150,31945830,22053920,-72350700,-91015620,-30249020,-5883789
2026-01-14 17:14:16.471,-1301655,31911300,21984880,-14218090,-62158200,12451170,-34643560
2026-01-14 17:14:16.481,56891370,27376220,26381850,-72342060,-19482420,47338870,26916500
2026-01-14 17:14:16.491,-1216203,31738660,21829500,-14148180,4949951,6113281,2232666
2026-01-14 17:14:16.501,57072630,7588971,-2251143,-72350700,5770874,4580078,42578120
2026-01-14 17:14:16.511,-11022650,75276840,-22088450,-140549600,-15063480,29174800,40356440
2026-01-14 17:14:16.521,-6878670,50813800,-45515680,-8174971,-28100590,46905520,38989260
2026-01-14 17:14:16.531,-989190,7413746,-2132887,-13960870,-2722168,-17980960,21875
2026-01-14 17:14:16.541,5748696,31065400,21570560,-7231616,-26293940,-36889650,11273190
2026-01-14 17:14:16.551,57573270,7347285,-2095773,-72298900,-35620120,-34472660,-13513180
2026-01-14 17:14:16.561,-66527770,30918660,21492870,-79520170,-38134770,-21276860,-20715330
2026-01-14 17:14:16.571,-761313,5,7330018,-2095770,-13757160,-30737300,-11755370,-28515620
2026-01-14 17:14:16.581,57789060,30858240,21432440,-72203950,-15759280,-3643799,-2512207
2026-01-14 17:14:16.591,-663775,30840970,21415180,-13664800,-51452640,27374270,-15075680
2026-01-14 17:14:16.601,57909900,30823710,21415180,-72134900,22296910,58380130,-40161130
2026-01-14 17:14:16.611,-5489748,30797820,21406550,-135551800,-18859860,6591797,7745361
2026-01-14 17:14:16.621,-486825,30763290,21406550,-13496490,-117126500,6738281,16955570
2026-01-14 17:14:16.631,-6289210,30728760,21389290,-7590521,-14465330,10498050,23291020
2026-01-14 17:14:16.641,-389287,5,30694240,21372030,-13404130,-19006350,11035160,37109380
2026-01-14 17:14:16.651,5822929,26472480,25541990,-7195363,-19506840,17871090,4584961
2026-01-14 17:14:16.661,58281070,30616550,21328870,-71936380,-14807130,7928467,25268560
2026-01-14 17:14:16.671,-61417820,30564760,21294340,-74444740,-11987310,5206299,2763672
2026-01-14 17:14:16.681,-61069960,7205725,-2030167,-74102060,-13574220,2310791,32788090
2026-01-14 17:14:16.691,-66675200,7182419,-2018946,-67978930,-12463380,32983400,26538090
2026-01-14 17:14:16.701,-202846,48323560,-43172180,-13245300,-40100100,48046880,13793950
2026-01-14 17:14:16.711,-200255,5,71099100,-19706110,-13247890,50201420,44140620,3050232
2026-01-14 17:14:16.721,-2062976,26086650,25185500,-132591200,2121582,35913090,86120610
2026-01-14 17:14:16.731,-2123392,7029641,-1912779,-132703400,3815918,30444340,14929200
2026-01-14 17:14:16.741,-67019260,29977810,21087180,-68325400,52246100,19189450,20800780
2026-01-14 17:14:16.751,-2615396,25507040,25506150,-133247200,59228520,6842041,22814940
2026-01-14 17:14:16.761,-286571,29882860,21078550,-13351470,5932617,-74035650,23120120
2026-01-14 17:14:16.771,-312467,6940730,-1846315,-13377370,56347660,-109069800,18920900
2026-01-14 17:14:16.781,-338361,29856960,21069920,-13403260,56347660,-1361084,15014650
2026-01-14 17:14:16.791,-355625,6940730,-1846315,-13420530,61035160,-96191410,14208980
2026-01-14 17:14:16.801,58419180,29865590,21095810,-72212590,61572260,-69732660,123168900
2026-01-14 17:14:16.811,-6252266,29882860,21130340,-7558411,6645508,23254400,12298580
2026-01-14 17:14:16.821,58384640,69217400,-18135150,-72195320,7167969,3475952,20141600
2026-01-14 17:14:16.831,-369437,69182870,-17997040,-13423980,77734380,27374270,22717280
2026-01-14 17:14:16.841,58376010,69070660,-17763990,-72134900,7495117,-44769290,22937010
2026-01-14 17:14:16.851,5835874,45904110,-40757900,-7208310,7421875,-13586430,22607420
2026-01-14 17:14:16.861,-316783,5,69070660,-17418720,-13355790,74658200,-17028810,25561520
2026-01-14 17:14:16.871,-61502400,69174240,-17315140,-74532780,65478520,-16235350,20361330
2026-01-14 17:14:16.881,-2390972,69286450,-17202930,-132608400,3720703,-1274414,14355470
2026-01-14 17:14:16.891,-6056157,45861810,-40627560,-7357465,2998047,-6713867,8892822
2026-01-14 17:14:16.901,-162277,5,45789310,-40527440,-13165030,36816410,-7940674,10070800
2026-01-14 17:14:16.911,58358750,69519500,-16624610,-71582470,35668940,-52368160,12878420
2026-01-14 17:14:16.921,-68192,5,45643430,-40328050,-13051950,3293457,-74523930,25634770
2026-01-14 17:14:16.931,-207160,69433190,-16020390,-129958500,31323240,-690918,27783200
2026-01-14 17:14:16.941,258952,45237750,-39870570,-129388800,3137207,-11663820,32885740
2026-01-14 17:14:16.951,64736,44990880,-39599530,-12891400,3227539,-23034670,30249020
2026-01-14 17:14:16.961,58358750,44829470,-39415680,-71116370,3425293,-24084470,24743650
2026-01-14 17:14:16.971,-5705969,6895845,-1459616,-6999857,26123050,-2006836,19897460
2026-01-14 17:14:16.981,138970,5,31419300,23115620,-12793000,14562990,-713501,20751950
2026-01-14 17:14:16.991,145013,31471080,23236470,-12781780,16784670,22399900,1430664
2026-01-14 17:14:17.001,5829833,68250650,-13404990,-7091781,17358400,10398870,12512210
2026-01-14 17:14:17.011,5827242,43143700,-37648780,-7089193,20422360,46081540,21118160
2026-01-14 17:14:17.021,14759,56,67482430,-12446870,-1276708,25512700,80444340,19665530
2026-01-14 17:14:17.031,58229280,66990420,-11903080,-70883310,26513670,53985600,1973877
2026-01-14 17:14:17.041,58203380,6648982,-1136794,-70909210,30297850,29876710,17456060
2026-01-14 17:14:17.051,58168850,6579929,-1067741,-70943730,33544920,-13183590,6149292
2026-01-14 17:14:17.061,58125700,65186410,-10081800,-70986890,27685550,-27661130,6427002
2026-01-14 17:14:17.071,-258952,39610760,-34103750,-129388800,22180180,-27685550,16625980
2026-01-14 17:14:17.081,-64609720,6367589,-865754,-65901190,2866211,-23693850,2076416
2026-01-14 17:14:17.091,58013480,3102227,2392698,-71168160,38354490,-7611084,20617680
2026-01-14 17:14:17.101,6454179,62130790,-7267873,-6467435,45166020,-70617680,19836430
2026-01-14 17:14:17.111,-209750,61293520,-6551441,-13134820,51708980,-14587400,19482420
2026-01-14 17:14:17.121,63979700,30607920,24013320,-65322780,4621582,-17370600,15673830
2026-01-14 17:14:17.131,-61117430,34747670,-29299350,-74054580,4104004,-97473140,12634280
2026-01-14 17:14:17.141,-61545560,58237910,-3910146,-74489620,3935547,-77819820,105163600
2026-01-14 17:14:17.151,5788402,30090020,24082370,-7160836,36132810,-10247800,9069824
2026-01-14 17:14:17.161,57866740,56166310,-2183819,-71711950,34594730,-8013916,6738281
2026-01-14 17:14:17.171,57840850,30915210,-25535950,-71806900,32128910,-6762695,8013916
2026-01-14 17:14:17.181,-63948620,29520330,24082380,-76920300,2553711,-11315920,115600600
2026-01-14 17:14:17.191,-622344,52834480,526533,7,-13602650,23522950,-5456543,-20324710
2026-01-14 17:14:17.201,5777181,29071480,24047840,-7213489,17663570,-647583,-23651120
2026-01-14 17:14:17.211,-741460,5,50417610,2425500,-13742490,76416020,-10597230,-3262329
2026-01-14 17:14:17.221,-72373310,48976130,3573518,-73674620,-3289795,9106445,-10467530
2026-01-14 17:14:17.231,-67029260,47534630,4721530,-80054460,-8135986,32885740,-49865720
2026-01-14 17:14:17.241,-89596,56,46257140,5688272,-1393323,-736084,54052740,-93811030
2026-01-14 17:14:17.251,-942579,4497966,665501,9,-13990220,-11090090,66796880,-11419680
2026-01-14 17:14:17.261,-988326,5,43788480,7535452,-14048050,-111206100,62353520,-59417720
2026-01-14 17:14:17.271,-1016811,42856260,8156930,-14088620,5014038,4555664,-16145710
2026-01-14 17:14:17.281,-69330480,42174370,8510834,-82414370,4189453,2854004,7330322
2026-01-14 17:14:17.291,-69497060,26827250,23547210,-82593040,46240230,15429690,32104490
2026-01-14 17:14:17.301,-69749980,41250780,8795679,-82858040,6713867,-569458,27416990
2026-01-14 17:14:17.311,-1104855,18454520,-13482680,-14225000,6430664,-3959961,1583252
2026-01-14 17:14:17.321,57970330,40491190,8899252,-73351970,61328120,-41601560,4498291
2026-01-14 17:14:17.331,-1154054,40059600,8985574,-14296640,5727539,-31030270,-10449220
2026-01-14 17:14:17.341,-1182539,39628020,9071891,-14337210,45922850,-375,-22753910
2026-01-14 17:14:17.351,58056640,39110120,9244522,-73628180,24536130,-3623047,-119262700
2026-01-14 17:14:17.361,58091170,38583590,9408522,-73714500,17004400,-21777340,-14355470
2026-01-14 17:14:17.371,5815160,38048420,9563895,-7379217,14294430,-19628910,-29882810
2026-01-14 17:14:17.381,65258920,25005960,22226560,-66822970,-34637450,-19042970,-42993160
2026-01-14 17:14:17.391,-1183402,36891780,9960954,-14405400,-2614746,-23498540,-5317383
2026-01-14 17:14:17.401,58427810,15356620,-10711050,-73947560,-42797850,-26586910,-5854492
2026-01-14 17:14:17.411,-1090181,14991490,-10385630,-14343250,-5180664,-30517580,-60253900
2026-01-14 17:14:17.421,-1039253,35174080,10487490,-14307860,-54052740,-26733400,-546875
2026-01-14 17:14:17.431,-9796956,34613020,10616960,-142638400,-53222660,-2310791,-54833980
2026-01-14 17:14:17.441,-68963620,34138280,10660120,-82263300,-46826170,-13952640,-4477539
2026-01-14 17:14:17.451,-851946,5,13612150,-9175470,-14167170,-4716797,-37139890,-4074707
2026-01-14 17:14:17.461,-6773879,23072470,20845490,-8107127,-4970703,7287598,-28564450
2026-01-14 17:14:17.471,59368660,32601840,10850010,-74111560,-3918457,24975590,-18640140
2026-01-14 17:14:17.481,-6283860,32196150,10789600,-139936700,-26879880,3239746,-13293460
2026-01-14 17:14:17.491,59653500,12569450,-8319211,-74171980,-15441900,24938960,-15795900
2026-01-14 17:14:17.501,-499774,5,12373510,-8169880,-13897860,-57037350,11218260,-12323000
2026-01-14 17:14:17.511,-431583,5,30892760,10694650,-13845210,10131840,3390503,-19519040
2026-01-14 17:14:17.521,-3633936,30495710,10642860,-137925500,4940796,-37994380,-171875
2026-01-14 17:14:17.531,-278802,5,30029600,10694650,-13721770,10101320,-4788208,-24475100
2026-01-14 17:14:17.541,-202843,5,29494430,10850020,-13659620,-66101070,-10852050,-27612300
2026-01-14 17:14:17.551,-119120,109760400,-69778460,-13587980,-11254880,-16809080,-27490230
2026-01-14 17:14:17.561,-66998370,10614370,-6648976,-68346290,-20874020,-10101320,-38745120
2026-01-14 17:14:17.571,55242,5,2788031,1148013,-13434340,-17224120,-4425049,-4506836
2026-01-14 17:14:17.581,60896460,27232930,11868550,-74102930,-30078120,-60791020,-46044920
2026-01-14 17:14:17.591,-58328540,26594190,12265610,-71837110,-36694340,12963870,-48046880
2026-01-14 17:14:17.601,61164040,8577298,-4715487,-74007980,-44433590,13232420,-6123047
2026-01-14 17:14:17.611,435900,25325330,13068360,-13089930,-46362300,9136963,-53808590
2026-01-14 17:14:17.621,-55726950,24790170,13396360,-69259690,-51416020,22546390,-58935550
2026-01-14 17:14:17.631,61526580,7164293,-3366356,-73869870,-4074707,40740970,-6245117
2026-01-14 17:14:17.641,61647420,23650790,14155940,-73818080,-3215332,17224120,-4038086
2026-01-14 17:14:17.651,61742360,61120890,-23469520,-73774910,-18322750,25390620,-2956543
2026-01-14 17:14:17.661,8398616,55864200,-18368200,-127170500,-36987300,23449710,-3852539
2026-01-14 17:14:17.671,911504,5,50616140,-13258250,-12650580,-4543457,4440918,-22717280
2026-01-14 17:14:17.681,957254,18894740,18342310,-12610010,-20141600,54248050,-11621090
2026-01-14 17:14:17.691,984874,41863620,-4747421,-12585840,8459473,5385742,-5731201
2026-01-14 17:14:17.701,62087630,35778290,1251591,-73654080,13745120,58251950,-3753662
2026-01-14 17:14:17.711,62096260,29701600,7259236,-73662710,-18444820,6796875,-3567505
2026-01-14 17:14:17.721,-5138867,18450200,18441570,-6496629,-5576172,48339840,-3762207
2026-01-14 17:14:17.731,-5190657,1838547,1842000,-6548420,-6220703,11065670,-5
2026-01-14 17:14:17.741,-52509930,8856100,27845780,-66089280,-5522461,-2897644,-39746100
2026-01-14 17:14:17.751,6192363,-1457113,1822923,-7390440,-31860350,-10809330,8105469
2026-01-14 17:14:17.761,750094,5,-5066792,41544250,-12834440,-19238280,20980840,35888670
2026-01-14 17:14:17.771,689671,5,15174480,21216660,-12894860,-3005371,19274900,27197270
2026-01-14 17:14:17.781,67314980,-19818320,56140410,-68547580,-50634770,2109375,6652832
2026-01-14 17:14:17.791,5696908,-43072910,46696490,-130165600,-6479492,21789550,31375880
2026-01-14 17:14:17.801,501500,5,12809400,23340050,-13086480,-9477539,101379400,-24487300
2026-01-14 17:14:17.811,441942,5,12058450,23970160,-13147770,-12226560,44189450,-48535160
2026-01-14 17:14:17.821,61561100,11281600,24574380,-74370500,-14208980,-31143190,-546875
2026-01-14 17:14:17.831,3426772,-5468160,9033047,-132556600,-16181640,-18200680,-56933590
2026-01-14 17:14:17.841,2934768,9840112,25549760,-133100400,-17148440,-22253420,-52734380
2026-01-14 17:14:17.851,61483420,16710930,18385470,-74620820,-16533200,-2614746,-49047850
2026-01-14 17:14:17.861,6802037,8484935,26266180,-6815294,-14335940,-23803710,-2697754
2026-01-14 17:14:17.871,-5999617,7872087,26516500,-7362214,-115625,-11425780,-15722660
2026-01-14 17:14:17.881,-60596080,7155659,26835880,-74230670,-93359380,-687027,-53710940
2026-01-14 17:14:17.891,-61110530,-101899500,105260700,-74752040,-68652340,21560670,1661377
2026-01-14 17:14:17.901,61405730,5817752,27396930,-75095570,-53222660,6518555,20471190
2026-01-14 17:14:17.911,-67326,5,5109950,27724940,-13726090,-40161130,-31341550,171875
2026-01-14 17:14:17.921,61397100,4402158,28052940,-75276830,-33862300,-15710450,12548830
2026-01-14 17:14:17.931,61379840,3789309,28303260,-75363150,-28125,-28125,9716797
2026-01-14 17:14:17.941,-63507540,-11101190,14275930,-77188740,-3413086,-29589840,-6866455
2026-01-14 17:14:17.951,-242550,-11550040,14690250,-13930660,-43359380,-32714840,-71899420
2026-01-14 17:14:17.961,-282254,2062969,28993790,-13977270,-5073242,-25634770,-21472170
2026-01-14 17:14:17.971,-649653,6,13974680,16754080,-786655,7,-53222660,-21142580,-2644043
2026-01-14 17:14:17.981,-379792,854535,29511700,-14086890,-5292969,-1899414,-21972660
2026-01-14 17:14:17.991,61293520,258952,29779270,-75846530,-53515620,-15673830,-2590332
2026-01-14 17:14:18.001,-4678368,-353893,30029600,-141887500,-45410160,-1381836,-20983890
2026-01-14 17:14:18.011,61250360,-871796,30202230,-76010520,-36645510,-13549810,-19921880
2026-01-14 17:14:18.021,61241730,-1484646,30452540,-76088210,-26367190,-19116210,-25097660
2026-01-14 17:14:18.031,-605079,-1933496,30521600,-14344980,-17126460,-19189450,-15698240
2026-01-14 17:14:18.041,-644785,5,12464140,15761440,-14391590,-59692380,-23022460,-12011720
2026-01-14 17:14:18.051,-68737470,12265610,15597440,-82489460,4159546,-19934080,-1537323
2026-01-14 17:14:18.061,-69079290,12075720,15424810,-82838180,14257810,-11987310,5819702
2026-01-14 17:14:18.071,-756996,5,-3245510,30418020,-14521070,22045900,-24749760,10247800
2026-01-14 17:14:18.081,-797566,-15574990,18261170,-14566820,2722168,-29510500,32562260
2026-01-14 17:14:18.091,-7027995,-3633934,30202230,-8405439,19372560,-42877200,4473877
2026-01-14 17:14:18.101,61155410,-3866986,30141800,-76640630,10620120,-12866210,22583010
2026-01-14 17:14:18.111,61155410,-4091412,30090010,-76692420,79711910,-10211180,26138310
2026-01-14 17:14:18.121,-900282,5,-15805460,18375970,-14688520,10144040,-12646480,-29800420
2026-01-14 17:14:18.131,6114680,-4289942,29718850,-7678738,1352539,-1730957,10185240
2026-01-14 17:14:18.141,-77685670,-4333095,29503060,-79065530,21484380,-2709961,49102780
2026-01-14 17:14:18.151,-9451680,10780970,14130050,-147472200,22680660,-30200200,7354736
2026-01-14 17:14:18.161,-9598416,1066881,1398332,-147670700,19384770,-33544920,-1146698
2026-01-14 17:14:18.171,-71901840,10556540,13853840,-85712520,16125490,-3244629,-8178711
2026-01-14 17:14:18.181,-9822848,10452970,13733000,-147964200,15441900,-2590332,-103881800
2026-01-14 17:14:18.191,-72071030,-15115780,17511940,-85888620,19360350,-20141600,-9802246
2026-01-14 17:14:18.201,-72155620,-4350361,28104740,-85976660,15209960,-11236570,-8673096
2026-01-14 17:14:18.211,-9943688,-4272672,27837150,-148188600,1697998,-19677730,-1303711
2026-01-14 17:14:18.221,-72152160,-4177728,27586830,-85980100,16137700,-14477540,-4824829
2026-01-14 17:14:18.231,-9822848,-3987829,27258830,-148136800,14624020,-15344240,-67871100
2026-01-14 17:14:18.241,-71976940,-3789303,26939460,-85810060,12146000,-17822270,-4196167
2026-01-14 17:14:18.251,-71889760,-3487193,26551030,-85724610,12371830,-18566900,10144040
2026-01-14 17:14:18.261,-9451680,-3262767,26257550,-147817400,7952881,-16601560,1899414
2026-01-14 17:14:18.271,-71542770,-2943397,25886400,-85381070,4434204,-13806150,30395510
2026-01-14 17:14:18.281,6137122,-2598133,25541120,-7701180,17852780,-7281494,3935547
2026-01-14 17:14:18.291,-892514,5,10107690,12852560,-14730810,-9564209,-4522705,43481440
2026-01-14 17:14:18.301,-883882,5,-1881704,24876490,-14722180,-22302250,7324219,5004883
2026-01-14 17:14:18.311,-883882,5,-1424226,24470800,-14722180,-3095703,19384770,58203120
2026-01-14 17:14:18.321,68400840,-958113,24073740,-69964900,-37646480,33374020,5410156
2026-01-14 17:14:18.331,-71544500,-492002,23676690,-85379340,-4243164,34765620,42871100
2026-01-14 17:14:18.341,-71890620,-103577,23374580,-85723740,-46435550,3203125,3552246
2026-01-14 17:14:18.351,61241730,362533,22977510,-77072220,-47460940,36816410,24230960
2026-01-14 17:14:18.361,-1043569,10608330,12800770,-14873240,-5390625,35620120,6542969
2026-01-14 17:14:18.371,-1078959,1113486,22347400,-14906900,-55810550,3100586,6512451
2026-01-14 17:14:18.381,61112260,-9096918,11446460,-77149900,-69433590,3557129,69885260
2026-01-14 17:14:18.391,68317110,1829918,21682760,-69927780,-76953130,3022461,15563970
2026-01-14 17:14:18.401,61034570,2183817,21346130,-77210330,-7519531,2541504,22131350
2026-01-14 17:14:18.411,-80532920,2615402,20914550,-81915190,-6767578,17004400,26245120
2026-01-14 17:14:18.421,-80791870,2960669,20569280,-82174140,-6669922,7562256,40454100
2026-01-14 17:14:18.431,-80964500,10927710,12602250,-82346780,-60546880,9851074,5473633
2026-01-14 17:14:18.441,-81137140,-6763777,9118504,-82519410,-45043940,-80566410,6640625
2026-01-14 17:14:18.451,-1280941,-6332196,8686917,-15101980,-38354490,-14074710,7685547
2026-01-14 17:14:18.461,6090511,4799211,18782520,-7730528,-34716800,-18078610,82666020
2026-01-14 17:14:18.471,6090511,5256690,18376830,-7730528,-42114260,-24487300,78027340
2026-01-14 17:14:18.481,60905090,5809120,17893460,-77288010,-45214840,-27270510,7402344
2026-01-14 17:14:18.491,-12645400,11830580,11941060,-150838500,-45141600,-4038086,67626950
2026-01-14 17:14:18.501,-74574220,7008923,16849030,-88391800,-49047850,-5620117,64746100
2026-01-14 17:14:18.511,-74228950,-31186240,55130510,-88046540,-61279300,-6743164,6982422
2026-01-14 17:14:18.521,-1161823,8389988,15640590,-14979410,-79248050,-5942383,7294922
2026-01-14 17:14:18.531,-1128159,-28140980,30554400,-14944020,-82128900,-30737300,63134770
2026-01-14 17:14:18.541,61060460,-9451680,33706680,-77080850,-64404300,-395813,7128906
2026-01-14 17:14:18.551,-1078095,-2477289,26870400,-14890500,-49780270,2208252,81103520
2026-01-14 17:14:18.561,6108637,3625303,20888650,-7702043,-47460940,50097660,8071289
2026-01-14 17:14:18.571,6107773,12313950,12320850,-7701179,-43237300,76171870,7607422
2026-01-14 17:14:18.581,-1081549,1238646,1238645,-14887050,-36108400,94384770,53564450
2026-01-14 17:14:18.591,-1108307,12441700,12434790,-14912080,-26245120,9785156,3227539
2026-01-14 17:14:18.601,-1135928,12490550,12489520,-14936250,-9765625,99121100,26733400
2026-01-14 17:14:18.611,-7380685,12551150,12549760,-8760545,7122803,9394531,20251460
2026-01-14 17:14:18.621,-12162030,12611490,12610270,-150113500,33618160,74902340,19543460
2026-01-14 17:14:18.631,-74673480,12680450,12679420,-88465180,4987793,44482420,17370600
2026-01-14 17:14:18.641,-1297341,12761930,12753300,-15085580,4501953,17785640,11071780
2026-01-14 17:14:18.651,-1343089,1289573,1280941,-15126150,37451170,-9503174,19152830
2026-01-14 17:14:18.661,68060760,12956750,12955540,-69718040,21887210,-25024410,13781740
2026-01-14 17:14:18.671,-1461343,9077070,-6459946,-15232320,7696533,-23730470,-9289551
2026-01-14 17:14:18.681,-77276790,24444910,2002552,-91040860,32714840,-18115230,-22424320
2026-01-14 17:14:18.691,-1614987,28907480,-2166550,-15372150,8508301,-11639400,-30517580
2026-01-14 17:14:18.701,60180040,33378690,-6327021,-77305280,23254400,-23083500,-43798830
2026-01-14 17:14:18.711,-1760862,39584860,-12205190,-15502490,41503900,-33374020,-4272461
2026-01-14 17:14:18.721,-18255990,44936500,-17211560,-155585900,64208980,-33447270,-3034668
2026-01-14 17:14:18.731,5986065,52031740,-23927000,-7736568,7998047,-26367190,-22460940
2026-01-14 17:14:18.741,59765720,18661680,9857369,-77374330,95996100,-296875,-12878420
2026-01-14 17:14:18.751,59662140,66256740,-37323360,-77374330,10283200,-3317871,-78186030
2026-01-14 17:14:18.761,59558560,20646970,8735251,-77357070,10585940,-36767580,-11260990
2026-01-14 17:14:18.771,-2101812,21656870,8191458,-15783020,10527340,-35424800,-14453130
2026-01-14 17:14:18.781,67447040,22684040,7664924,-69244160,10009770,-2902832,-1628418
2026-01-14 17:14:18.791,-2201077,16244810,14604790,-15856390,9248047,-16210940,-19104000
2026-01-14 17:14:18.801,-2258909,24574380,6793128,-15902130,82373050,-35949710,-14562990
2026-01-14 17:14:18.811,-2308973,25359860,6542810,-15938390,70410160,39489740,-21521000
2026-01-14 17:14:18.821,-2377162,26145340,6292490,-15991040,6035156,10204320,-27197270
2026-01-14 17:14:18.831,5875577,120075200,-87084960,-7724480,48095700,-27893070,-28393560
2026-01-14 17:14:18.841,5861771,27560940,5981751,-7722758,33911130,5420685,-2536621
2026-01-14 17:14:18.851,-2581734,28363680,5748694,-16149000,28173830,30685420,-2770996
2026-01-14 17:14:18.861,58332850,29175060,5524269,-77184420,18310550,-27980800,-26538090
2026-01-14 17:14:18.871,58186120,29986440,5299844,-77158540,13598630,1838684,-29638670
2026-01-14 17:14:18.881,58039380,30892770,4997737,-77132640,12609860,6921387,-33789060
2026-01-14 17:14:18.891,57901270,31704140,4773313,-77098120,12408450,7867432,-31640620
2026-01-14 17:14:18.901,-2918369,32610470,4471209,-16399320,50933840,1640625,-31860350
2026-01-14 17:14:18.911,-2988286,16558140,-12789550,-16450240,17486570,1977539,-35327150
2026-01-14 17:14:18.921,-3066834,34604380,3702989,-16509800,39245600,23522950,-3486328
2026-01-14 17:14:18.931,-3137614,35691980,3236877,-16559870,20568850,23132320,-30078120
2026-01-14 17:14:18.941,57089900,36874520,2693079,-76925480,-14411930,1862793,-25830080
2026-01-14 17:14:18.951,-3288669,38057050,2149288,-16667760,-5908203,25439450,-24560550
2026-01-14 17:14:18.961,-3368080,20858440,-16775660,-16726460,-14880370,24633790,-24377440
2026-01-14 17:14:18.971,65668050,21839870,-17693210,-67691310,-20678710,21826170,-1463623
2026-01-14 17:14:18.981,56373460,41760040,327999,1,-76761480,-37231440,24255370,-15576170
2026-01-14 17:14:18.991,56174940,43020270,-310740,9,-76735580,-36450200,21801760,-16552730
2026-01-14 17:14:19.001,55959140,44280490,-949488,9,-76709690,-3095703,15625,-25976560
2026-01-14 17:14:19.011,55743360,45532090,-1596863,-76683790,-24633790,7867432,-3046875
2026-01-14 17:14:19.021,-3964528,4687000,-233055,-17183070,-13647460,-4840088,-28076170
2026-01-14 17:14:19.031,-4062929,48294220,-3150558,-17257300,-19424440,-20788570,-22143560
2026-01-14 17:14:19.041,-4151836,49623500,-3892884,-17323770,-8552551,-20471190,-25097660
2026-01-14 17:14:19.051,5491472,25938180,20379380,-7654568,-25730130,-19067380,-19958500
2026-01-14 17:14:19.061,64519180,31262200,-26570020,-66699540,45928960,-25219730,-1763916
2026-01-14 17:14:19.071,-4431501,26766820,20759180,-17527480,12072750,-33862300,-14074710
2026-01-14 17:14:19.081,54293230,33654040,-28839290,-76407580,16760250,-31933590,-53955080
2026-01-14 17:14:19.091,-4595504,34808090,-29929470,-17639690,21923830,-2861328,1015625
