Timestamp,Rotation X,Rotation Y,Rotation Z,Rotation W,Acceleration X,Acceleration Y,Acceleration Z
2026-01-14 17:14:05.511,28018420,21630970,66429360,65566200,39331060,4350586,11933590
2026-01-14 17:14:05.521,45023680,21717290,66343040,48750840,3659668,42114260,11513670
2026-01-14 17:14:05.531,2849319,21812240,66248100,6547126,29345700,42626950,10214840
2026-01-14 17:14:05.541,28752110,21924450,66153140,65419460,28222660,3569336,9145508
2026-01-14 17:14:05.551,-13468000,2203666,6605822,22905870,29760740,23950200,84228510
2026-01-14 17:14:05.561,-13301410,2215750,6593737,22761730,3461914,17370600,7661133
2026-01-14 17:14:05.571,2952896,2226972,6582515,6529862,41259770,11810300,6977539
2026-01-14 17:14:05.581,45752190,22373290,65704300,49299800,48754880,5886841,6503906
2026-01-14 17:14:05.591,45879080,41875700,46184630,49397350,57373050,1473999,6176758
2026-01-14 17:14:05.601,30305810,-17021660,25825970,65212300,64990230,-20187380,62060550
2026-01-14 17:14:05.611,30556130,41873110,46135430,65186400,73876950,-6896973,71435540
2026-01-14 17:14:05.621,30806450,22787620,65169140,65177780,8769531,-7183838,75341800
2026-01-14 17:14:05.631,-12244890,-16673810,25466030,21867480,9707031,-10247800,7338867
2026-01-14 17:14:05.641,-12103330,-16555550,25342600,21750090,10175780,-15112310,7368164
2026-01-14 17:14:05.651,31566040,2308107,6472028,65160520,10830080,-21459960,72509770
2026-01-14 17:14:05.661,31807720,2316739,6456491,65160510,11513670,-23999020,73339840
2026-01-14 17:14:05.671,-16542060,23253730,64409560,16551780,12333980,-23217770,7558594
2026-01-14 17:14:05.681,47100460,23348680,64245550,50385670,12773440,-28173830,7963867
2026-01-14 17:14:05.691,-11409350,-15934070,24686590,21183860,12851560,-38354490,8232422
2026-01-14 17:14:05.701,47385300,-15799420,24545030,50618720,12880860,-44604490,8461914
2026-01-14 17:14:05.711,3311975,-19588460,20462510,6516050,12773440,-50878900,8588867
2026-01-14 17:14:05.721,-10954460,-15511980,24245510,20810100,12646480,-48706060,89453130
2026-01-14 17:14:05.731,33680790,2392698,6335648,65134620,13330080,-37841800,91552740
2026-01-14 17:14:05.741,33982900,-15190020,23911460,65125980,13828130,-19433590,93066410
2026-01-14 17:14:05.751,-10438280,-15019110,23737100,20376800,14199220,25024410,9511719
2026-01-14 17:14:05.761,-1025096,41653880,45491520,2021885,14121090,21472170,92041020
2026-01-14 17:14:05.771,-10055900,2456574,6254512,20051380,13623050,3190918,8959961
2026-01-14 17:14:05.781,35251760,-14418350,23129430,64979250,12724610,40161130,8671875
2026-01-14 17:14:05.791,35579760,-14185300,22896380,64927460,11552730,42944340,80615230
2026-01-14 17:14:05.801,-9436144,25264920,61880480,19514490,10605470,42089840,68896480
2026-01-14 17:14:05.811,49093510,-13689840,22407820,51948870,9511719,3996582,63916020
2026-01-14 17:14:05.821,-9013194,-13419670,22142840,19143330,8417969,29736330,56640620
2026-01-14 17:14:05.831,-8793950,2614534,6115542,18948250,7373047,20581060,5649414
2026-01-14 17:14:05.841,37219780,26464710,60905090,64564920,6821289,1105957,4885254
2026-01-14 17:14:05.851,37547780,26792710,60646140,64478600,6118164,1033783,41992190
2026-01-14 17:14:05.861,37867160,-12239720,20992230,64400920,5551758,-13500980,39770510
2026-01-14 17:14:05.871,38177900,27500510,60110980,64314610,5957031,-1907959,3630371
2026-01-14 17:14:05.881,38488640,-11609600,20379380,64228290,58740230,-17260740,23339840
2026-01-14 17:14:05.891,-7532859,28216940,59567180,17827000,5390625,-111328100,10681150
2026-01-14 17:14:05.901,-7332607,-10971720,19757040,17647460,5053711,-8255005,26885990
2026-01-14 17:14:05.911,39369070,-10656670,19450610,63986600,5517578,15393070,-68359380
2026-01-14 17:14:05.921,39628020,29252740,58755800,63917550,5703125,30151370,-12658690
2026-01-14 17:14:05.931,3988699,42593860,45483740,6384852,55029300,4165039,-14147950
2026-01-14 17:14:05.941,4012003,-13723850,14605310,6378807,38623050,5395508,-27075200
2026-01-14 17:14:05.951,40335810,3021083,5800483,63727650,13757320,50683590,-36621100
2026-01-14 17:14:05.961,-6364996,-9216040,18042790,16785150,-17456060,37280270,-38378900
2026-01-14 17:14:05.971,40698350,30763290,57538740,63641340,-22961430,20227050,-35253900
2026-01-14 17:14:05.981,40853720,31030860,57322940,63606810,-36621100,-34240720,-27124020
2026-01-14 17:14:05.991,40991820,-12921180,12922060,63589540,-4169922,-26635740,-1583252
2026-01-14 17:14:06.001,51228990,42940850,45482020,53473220,-4753418,-41503900,-9118652
2026-01-14 17:14:06.011,41259410,-8076661,16920670,63546390,-6948242,-46972660,-14794920
2026-01-14 17:14:06.021,41380250,-7886766,16730770,63546380,-9536133,-44995120,-1505127
2026-01-14 17:14:06.031,-5771136,-7722759,16566770,16274160,-10830080,-37426760,-13500980
2026-01-14 17:14:06.041,-5722799,32213410,56209460,16236180,-10605470,-33447270,19592280
2026-01-14 17:14:06.051,41665100,-11859480,11860360,63555020,-91308590,-28955080,21582030
2026-01-14 17:14:06.061,-10383820,-7311892,16149000,11437060,-8125,-24682620,30688480
2026-01-14 17:14:06.071,-5595914,-7192775,16026430,16138640,-8051758,-87768550,3503418
2026-01-14 17:14:06.081,-5547576,32653620,55648410,16100660,-8598633,8862305,33422850
2026-01-14 17:14:06.091,-5491471,-6963173,15789920,16053190,-87646480,27905270,26953120
2026-01-14 17:14:06.101,-5434502,-6862182,15683750,16006580,-9448242,5415039,21521000
2026-01-14 17:14:06.111,-10148260,32929840,55251350,11206510,-10185550,7841797,12756350
2026-01-14 17:14:06.121,42321100,-10616440,11497910,63589550,-99121100,94091800,10266110
2026-01-14 17:14:06.131,-5290352,-6540220,15349710,15891780,-9428711,10478520,6774902
2026-01-14 17:14:06.141,42502370,33188780,54871550,63598180,-8535156,10097660,-19317630
2026-01-14 17:14:06.151,52061080,42931360,45077190,54160300,-87939460,96240230,-7489014
2026-01-14 17:14:06.161,-5127214,-6219985,15013930,15761440,-10292970,84228510,-18164060
2026-01-14 17:14:06.171,42864900,33413210,54422700,63632700,-13251950,73828130,-42871100
2026-01-14 17:14:06.181,43028900,-6017144,14785190,63658600,-16767580,5566406,-66259770
2026-01-14 17:14:06.191,-4901063,-5913561,14664350,15590530,-17587890,13293460,-73828130
2026-01-14 17:14:06.201,43400060,3347361,5382711,63736280,-18408200,-50598140,-8701172
2026-01-14 17:14:06.211,-4712029,33482260,53594060,15451560,-18427730,-2397461,-99316410
2026-01-14 17:14:06.221,43831640,4242293,4441168,63839870,-17216800,-16638180,-10927730
2026-01-14 17:14:06.231,44056070,-5493201,14152490,63891660,-14667970,-37548830,-10634770
2026-01-14 17:14:06.241,-4428910,33473630,52860380,15251310,-10585940,-43774420,-96972660
2026-01-14 17:14:06.251,-4320151,33490900,52601420,15170170,-70458980,-35668940,-8100586
2026-01-14 17:14:06.261,44737970,-5116860,13700190,64038390,-40966800,-3203125,-8364258
2026-01-14 17:14:06.271,53581120,-4973574,13532740,55488720,-18835450,-33496090,-9135742
2026-01-14 17:14:06.281,-3950716,33611740,51772780,14883600,8201599,-44335940,-9086914
2026-01-14 17:14:06.291,45497550,-8473286,9325227,64090180,23205570,-4597168,-8857422
2026-01-14 17:14:06.301,53990270,-82842500,91344690,55821900,42114260,-45629880,-90234380
2026-01-14 17:14:06.311,4600684,-4257142,12747260,6402976,5151367,-45483400,-93408200
2026-01-14 17:14:06.321,46257140,3411235,5068518,63969340,5214844,-40429690,-9638672
2026-01-14 17:14:06.331,-31721400,-7647066,8494173,142120500,4658203,-35205080,-9638672
2026-01-14 17:14:06.341,46749150,-36227140,120869300,63822600,4111328,-35229490,-92529300
2026-01-14 17:14:06.351,-28527680,3463022,4992562,139272100,24328610,-41625980,-8227539
2026-01-14 17:14:06.361,-2689630,-3207531,11656210,13779610,8477783,-48266600,-76708980
2026-01-14 17:14:06.371,-2535122,-3003824,11445600,13640630,-110961900,-48999020,-7529297
2026-01-14 17:14:06.381,-2390106,-28087470,112436200,13509430,-26171880,-49047850,-7036133
2026-01-14 17:14:06.391,47854000,35312180,48967490,63477330,-40478520,-53125,-71435540
2026-01-14 17:14:06.401,-7133475,414423,6,427682,5,8248169,-5361328,-5551758,-7138672
2026-01-14 17:14:06.411,-70119410,35622920,48501380,81280160,-6176758,-48339840,-69091800
2026-01-14 17:14:06.421,48423700,35769660,48285580,63321960,-66503900,-39501950,-64501950
2026-01-14 17:14:06.431,-67948540,-1887751,10282920,79135190,-7211914,-39526370,-54248050
2026-01-14 17:14:06.441,48751700,-54934570,63319370,63270170,-77783200,-4025879,-4453125
2026-01-14 17:14:06.451,4889843,-157096,8,994368,7,6326154,-8022461,-37939450,-4086914
2026-01-14 17:14:06.461,-1497596,3619261,4741379,12727400,-6821289,-31054690,-35375980
2026-01-14 17:14:06.471,-14216370,36278920,47206630,126652600,-5205078,-29077150,-2536621
2026-01-14 17:14:06.481,-1354308,36356610,46990840,12611740,-3955078,-32958980,-18103030
2026-01-14 17:14:06.491,-1286983,-4754241,5586507,12558220,-38989260,-31982420,-114868200
2026-01-14 17:14:06.501,49563070,36546500,46576510,63270170,-2927246,-34643560,-72753900
2026-01-14 17:14:06.511,-67280270,-44444490,52748160,68409650,-24914550,-39697260,-53771970
2026-01-14 17:14:06.521,-1053926,36770930,46179460,12359700,-28100590,-4111328,-914917
2026-01-14 17:14:06.531,-962430,-41259400,49545810,12278560,-3581543,-42626950,-13354490
2026-01-14 17:14:06.541,50089610,-39536520,47816020,63157970,-36743160,-47875980,-22436520
2026-01-14 17:14:06.551,-780301,-41622540,42449970,12115420,-37475580,-45336910,-3149414
2026-01-14 17:14:06.561,50357190,-36262530,44529940,63063010,-37182620,-41870120,-4169922
2026-01-14 17:14:06.571,-582637,5,256360,5,8007605,11933290,-30444340,-34350580,-4892578
2026-01-14 17:14:06.581,5062481,4100044,78505070,6295081,-26098630,-35473630,-46044920
2026-01-14 17:14:06.591,-386698,5,563647,8,7693412,11749440,-2536621,-33789060,-4716797
2026-01-14 17:14:06.601,-53960040,7181552,75371780,65329690,-26171880,-3828125,-4428711
2026-01-14 17:14:06.611,-174357,8640308,73895760,11547460,-28442380,-4416504,-38500980
2026-01-14 17:14:06.621,5113407,10021380,72514700,6264870,-2442627,-49267580,-3095703
2026-01-14 17:14:06.631,-50846600,-25739660,33991540,62228330,-26464840,-54052740,-29174800
2026-01-14 17:14:06.641,142424,-24444900,32696780,11242760,-25390620,-53125,-23168940
2026-01-14 17:14:06.651,56399360,1389697,6862179,57486950,-22351070,-54833980,-19238280
2026-01-14 17:14:06.661,-4756138,-22028030,30279910,5895347,-16809080,-47583010,-17285160
2026-01-14 17:14:06.671,51764150,1622752,6629124,62191220,-14440920,-45166020,-6530762
2026-01-14 17:14:06.681,-45314560,17358290,65177780,56711820,-8673096,-4440918,26779180
2026-01-14 17:14:06.691,719022,18575360,63977970,10679970,-3778076,-4013672,9075928
2026-01-14 17:14:06.701,-42724200,-17363480,25622270,54123190,9407043,-37548830,15429690
2026-01-14 17:14:06.711,52307940,-16238770,24502730,61699210,48065180,-30859380,20007320
2026-01-14 17:14:06.721,11600970,2217473,6049940,102406200,5218506,-2479248,1854248
2026-01-14 17:14:06.731,13327310,23495410,59230540,100679800,35247800,-14099120,2010498
2026-01-14 17:14:06.741,5280861,41223150,41554610,6118133,24780270,-10015870,20251460
2026-01-14 17:14:06.751,-34265160,-11049410,19334090,45664150,5355835,-4425049,19177250
2026-01-14 17:14:06.761,-32280740,40076860,42821740,43678000,-27832030,-3656006,17529300
2026-01-14 17:14:06.771,53378280,-8108597,16405360,60577090,-77819820,-82092290,15722660
2026-01-14 17:14:06.781,23141520,-6551445,14855110,90813840,-18249510,-76538090,10229490
2026-01-14 17:14:06.791,-31108640,-4994288,13304860,32247850,-29492190,-7165527,3881836
2026-01-14 17:14:06.801,-23911460,-34371330,117546100,35301820,-37182620,-64819340,-4159546
2026-01-14 17:14:06.811,56666940,35579760,47664100,57219370,-4333496,-4446411,-10974120
2026-01-14 17:14:06.821,-19943480,-40719060,49050350,31328660,-44750980,-8477783,-12792970
2026-01-14 17:14:06.831,-18132560,-25178590,33516790,29514280,-46240230,-74157710,-1895752
2026-01-14 17:14:06.841,5686927,2791484,5553619,5691346,-5126953,-56243900,-24084470
2026-01-14 17:14:06.851,-14856840,4176866,4175142,26229930,-50634770,16036990,-31298830
2026-01-14 17:14:06.861,-18507610,19717330,-11356690,19644400,-4621582,44830320,-39013670
2026-01-14 17:14:06.871,-12013560,7205721,1163551,23376300,-42797850,3829956,-44140620
2026-01-14 17:14:06.881,4030127,49073660,-40695750,7327431,-4645996,41229250,-55810550
2026-01-14 17:14:06.891,-9602735,47897160,35985450,20953390,-5522461,15991210,-64453120
2026-01-14 17:14:06.901,-13675080,7465224,-7381255,14809450,-64746100,-54656980,-7290039
2026-01-14 17:14:06.911,-7711538,13007930,-4600682,19046650,-7167969,-1149292,-8183594
2026-01-14 17:14:06.921,-6938139,52273420,31902670,18266350,-7753906,-16088870,-9394531
2026-01-14 17:14:06.931,44686180,53714910,30582020,68509600,-8022461,-17797850,-10195310
2026-01-14 17:14:06.941,-5825517,16995770,-8553989,17134740,-7988281,-14709470,-10664060
2026-01-14 17:14:06.951,55389460,5625260,2828597,57616420,-79785150,-11236570,-11015630
2026-01-14 17:14:06.961,55354930,19425580,-10957910,57547380,-76416020,-1685791,-10732420
2026-01-14 17:14:06.971,-5235975,20467430,-11987670,16515850,-72998050,-22521970,-10244140
2026-01-14 17:14:06.981,-5242016,59731180,25204490,16509810,-7319336,-28100590,-9423828
2026-01-14 17:14:06.991,4532492,22552840,-14045460,6724939,-8261719,-36206060,-88964850
2026-01-14 17:14:07.001,551220,5,44539440,40672450,573317,8,-9213867,-40283200,-82421870
2026-01-14 17:14:07.011,-5690865,24552800,-16016070,16924120,-8144531,-42163090,-73339840
2026-01-14 17:14:07.021,44712070,25596360,-17044110,67499700,-7319336,-42822260,-7211914
2026-01-14 17:14:07.031,44479020,6510006,2056063,67611900,-98828130,-44506840,-73339840
2026-01-14 17:14:07.041,-5967076,66204940,19593900,17165810,-12353520,-44433590,-6845703
2026-01-14 17:14:07.051,-6058573,28550130,-19959880,17246950,-14736330,-3293457,-68359380
2026-01-14 17:14:07.061,44332280,45532080,40491180,67465170,-16738280,-24780270,-7397461
2026-01-14 17:14:07.071,-11007890,30460320,-21847630,12125000,-17333980,-21313480,-73291020
2026-01-14 17:14:07.081,44245960,70037400,16175750,67378850,-17285160,-19970700,-69873050
2026-01-14 17:14:07.091,44211440,7085739,1544205,67344330,-17226560,-24963380,-6850586
2026-01-14 17:14:07.101,-6078424,71677420,14708380,17227100,-16962890,-39331060,-6611328
2026-01-14 17:14:07.111,-6168196,33412350,-24765140,17309960,-16552730,-5185547,-63427740
2026-01-14 17:14:07.121,-6344282,33933700,-25279580,17479140,-15322270,-6220703,-6875
2026-01-14 17:14:07.131,43555430,7343826,1318918,67724110,-13623050,-6958008,-74902340
2026-01-14 17:14:07.141,43261950,7382668,1288707,67948540,-12753910,-7890625,-78027340
2026-01-14 17:14:07.151,-7046034,43708210,43091910,18158460,-11181640,-89746100,-80322260
2026-01-14 17:14:07.161,42571420,74439550,12464140,68466440,-10419920,-10341800,-8183594
2026-01-14 17:14:07.171,-7831517,74586300,12438250,18926680,-99316410,-11484380,-8803711
2026-01-14 17:14:07.181,4161331,74646720,12498670,6923470,-95410160,-12568360,-94970700
2026-01-14 17:14:07.191,41129930,4673186,4056885,69614460,-83447260,-12363280,-10146480
2026-01-14 17:14:07.201,-9143532,7411155,1334457,20204160,-7026367,-10830080,-10888670
2026-01-14 17:14:07.211,-15050190,34160710,-25397840,15160670,-48901370,-8261719,-11572270
2026-01-14 17:14:07.221,39714340,33307040,-24525180,70615730,-21826170,-40673830,-12509770
2026-01-14 17:14:07.231,-10286370,7172058,1630524,21305560,1743164,2705078,-12822270
2026-01-14 17:14:07.241,-10553080,70356780,17876200,21556750,76953130,10488280,-10039060
2026-01-14 17:14:07.251,38799380,46688720,41734140,71081840,14619140,12734380,-3017578
2026-01-14 17:14:07.261,-15333570,28081430,-19220150,16431000,18134770,84375,42749020
2026-01-14 17:14:07.271,-9625181,27314070,-18433800,20585680,14658200,24597170,10263670
2026-01-14 17:14:07.281,53343750,46740520,42252040,56123150,5917969,-12475590,13222660
2026-01-14 17:14:07.291,-6963169,46775040,42390160,17896050,-31835940,-265625,13027340
2026-01-14 17:14:07.301,4364176,66161780,23176050,6556623,-83251950,-40771480,12236330
2026-01-14 17:14:07.311,44945130,25450490,-16499450,64107450,-11044920,-6435547,11552730
2026-01-14 17:14:07.321,4617082,24942950,-15971190,6274365,-11923830,-7651367,10908200
2026-01-14 17:14:07.331,47301580,24348220,-15357480,61457520,-10234380,-63720700,10205080
2026-01-14 17:14:07.341,-524806,6420239,2587777,11386910,-6201172,-3918457,91845700
2026-01-14 17:14:07.351,504952,5,22897240,-13873690,10345060,-2775879,-10632320,79052740
2026-01-14 17:14:07.361,1535575,22040980,-13003620,9304083,-26062010,23376460,5942383
2026-01-14 17:14:07.371,5138438,45421600,45090140,5690865,23461910,5727539,48950200
2026-01-14 17:14:07.381,-9265238,20242140,-11177150,20082450,47338870,79589840,42114260
2026-01-14 17:14:07.391,54034280,19385880,-10307080,54034280,5517578,8930664,38305660
2026-01-14 17:14:07.401,6777591,18616800,-9522463,4015456,5161133,9213867,3400879
2026-01-14 17:14:07.411,83243870,17762260,-8650668,24548480,35107420,8339844,29711910
2026-01-14 17:14:07.421,9784002,16907720,-7778866,979695,6,68847660,68847660,21936040
2026-01-14 17:14:07.431,59446340,15966870,-6820752,48052530,-21936040,5229492,113220200
2026-01-14 17:14:07.441,12187060,14681620,-5516504,-1450984,-41992190,37768560,48065180
2026-01-14 17:14:07.451,61284890,9177108,-8258875,45920510,-49316410,28198240,-4558563
2026-01-14 17:14:07.461,1363891,11764110,-2564471,-293390,1,-47607420,17041020,-28961180
2026-01-14 17:14:07.471,62087630,58124830,-48907930,44824290,-40795900,9643555,-6951904
2026-01-14 17:14:07.481,14229320,80688900,11635500,-3551931,-29614260,2506256,-3048706
2026-01-14 17:14:07.491,14223270,60913730,31566030,-3557974,-14538570,-55511480,11909490
2026-01-14 17:14:07.501,14130050,4626578,4635209,-3478565,23361210,-62805180,62438960
2026-01-14 17:14:07.511,61828690,2134611,7140981,44565340,11126710,-1340332,13745120
2026-01-14 17:14:07.521,13773560,-17263,9304946,-3144519,15588380,-13916020,21704100
2026-01-14 17:14:07.531,6129353,-2169140,11468910,4489334,21704100,-11657720,32641600
2026-01-14 17:14:07.541,60905100,-85114350,94424470,45195440,3034668,-1194458,41210940
2026-01-14 17:14:07.551,12810270,45471660,47715900,-2208843,46557620,-12414550,5175781
2026-01-14 17:14:07.561,60041930,-8716266,18041920,45885980,6875,-13659670,62353520
2026-01-14 17:14:07.571,59662140,-10697240,20031520,46196730,97216800,-14709470,77978510
2026-01-14 17:14:07.581,11763250,-12593610,21933080,-1184266,12861330,-7800293,9326172
2026-01-14 17:14:07.591,11759790,-14143860,23490240,-1187719,14902340,4207611,10927730
2026-01-14 17:14:07.601,12015290,26740930,66791900,-1450120,1546875,56488040,12060550
2026-01-14 17:14:07.611,12444290,25731020,67853590,-1884294,14882810,16516110,12509770
2026-01-14 17:14:07.621,13045910,-17070000,26433640,-2491102,13369140,23535160,12490230
2026-01-14 17:14:07.631,13906490,2457439,6911382,-3356858,12353520,20959470,11777340
2026-01-14 17:14:07.641,62303420,-17928850,27301120,43141100,12646480,14538570,11162110
2026-01-14 17:14:07.651,16060100,24099640,69674880,-5519092,13232420,81604000,10537110
2026-01-14 17:14:07.661,17438570,-18010850,27391760,-6902751,13544920,11016850,10058590
2026-01-14 17:14:07.671,1899055,2457438,6928645,-845817,7,12910160,1619873,9448242
2026-01-14 17:14:07.681,68000340,-17143370,26532900,37271570,12548830,26757810,9140625
2026-01-14 17:14:07.691,22438900,25825970,68121180,-11915160,11201170,31860350,8520508
2026-01-14 17:14:07.701,24335280,-15671670,25069840,-13816720,10175780,38305660,8310547
2026-01-14 17:14:07.711,26232520,2750052,6651567,-15717420,9169922,33764650,81396480
2026-01-14 17:14:07.721,75509890,28562200,65505770,29589390,81591800,26831060,8515625
2026-01-14 17:14:07.731,7730529,-12644540,22054790,2775946,7631836,14782720,9013672
2026-01-14 17:14:07.741,31922520,-11348060,20761760,-21421230,7626953,6549835,92871100
2026-01-14 17:14:07.751,33733450,32325620,61845950,-23235600,75683590,-15673830,9511719
2026-01-14 17:14:07.761,8276913,-8582474,18003080,2217476,7314453,-21716310,9248047
2026-01-14 17:14:07.771,37268980,35372600,58850760,-26778040,7416992,-28271480,93652340
2026-01-14 17:14:07.781,86187270,37021250,57219370,18687580,7158203,-33789060,94140620
2026-01-14 17:14:07.791,5597643,46283040,47957580,4888119,6870117,-36499020,8989258
2026-01-14 17:14:07.801,37640400,40560240,53680380,-36592000,67333980,-34814450,84716800
2026-01-14 17:14:07.811,52798230,42459200,51781410,52024830,72753900,-30029300,83251950
2026-01-14 17:14:07.821,92540190,21216650,73006700,12265610,78271490,-20043940,7651367
2026-01-14 17:14:07.831,9399896,47107360,47116000,1078962,7949219,-30410770,62890620
2026-01-14 17:14:07.841,48224300,64375030,29848330,-37747180,8173828,103637700,47485350
2026-01-14 17:14:07.851,56813680,45279180,-35858570,47940320,8588867,28588870,3540039
2026-01-14 17:14:07.861,50897530,53671750,40551610,-40425580,84765620,45825200,23950200
2026-01-14 17:14:07.871,9929880,56347570,37875790,538618,9,73046870,5649414,12963870
2026-01-14 17:14:07.881,100481300,59204660,35035960,4151845,60058590,60253900,28549190
2026-01-14 17:14:07.891,57219360,19645690,-10219910,47361990,46118160,63916020,-29220580
2026-01-14 17:14:07.901,10249250,65013770,29278640,201984,3,39941410,58447260,-15783690
2026-01-14 17:14:07.911,56407990,25518680,-16085990,-45963660,35742190,52685550,-24047850
2026-01-14 17:14:07.921,57374740,28542360,-19104490,46982200,29516600,4729004,-31982420
2026-01-14 17:14:07.931,10478850,31479720,-22036660,-51788,83,24975590,4560547,-34887700
2026-01-14 17:14:07.941,57417900,34417070,-24968850,46766410,2944336,41455080,-35058590
2026-01-14 17:14:07.951,58979370,79894780,14639320,-48571300,40893560,3552246,-3244629
2026-01-14 17:14:07.961,106204100,50849190,43736680,-2209712,5019531,27734380,-26464840
2026-01-14 17:14:07.971,57400640,51168560,43469110,46490200,60009770,20336910,-16552730
2026-01-14 17:14:07.981,10687740,51496570,43192900,-309011,8,6357422,20629880,-11126710
2026-01-14 17:14:07.991,10725720,9191007,283118,8,-357351,3,6796875,15112310,23620600
2026-01-14 17:14:08.001,10771470,9504336,-25031,74,-415183,3,6611328,12976070,7556152
2026-01-14 17:14:08.011,61624110,55496490,-46012000,-51278180,6303711,16479490,13183590
2026-01-14 17:14:08.021,10872460,101474000,-6594600,-538612,1,57373050,21374510,19580080
2026-01-14 17:14:08.031,10926840,10477130,-985737,3,-605080,3,5449219,29003910,26586910
2026-01-14 17:14:08.041,10981220,5355092,4139751,-671544,4501953,29418940,30371090
2026-01-14 17:14:08.051,11035600,11178880,-1682313,-738007,8,2890625,2944336,3071289
2026-01-14 17:14:08.061,64701300,115509100,-20526120,-54415800,8654785,2775879,2927246
2026-01-14 17:14:08.071,11145220,54655770,40327180,-870070,7,-35369870,28564450,21264650
2026-01-14 17:14:08.081,6581222,55026930,39956020,-5554912,-12445070,3173828,13427730
2026-01-14 17:14:08.091,11245340,83814420,-74317860,-994365,6,-21813960,30859380,6707764
2026-01-14 17:14:08.101,5736611,13016570,-3521723,4504009,-31762700,28564450,-24612430
2026-01-14 17:14:08.111,67089690,13370470,-3875625,-56861150,-3930664,2944336,-12182620
2026-01-14 17:14:08.121,67429780,13714010,-4222617,-57211600,-42919920,2565918,-20263670
2026-01-14 17:14:08.131,113532400,14058410,-4568750,-11454230,-41625980,18554690,-29858400
2026-01-14 17:14:08.141,57236640,57081260,37798100,44720710,-41015620,9033203,-41357420
2026-01-14 17:14:08.151,57193480,57392000,37470100,44660290,-34765620,38726810,-5551758
2026-01-14 17:14:08.161,11354110,15013930,-5529451,-1179087,-25097660,7910156,-6933594
2026-01-14 17:14:08.171,6317419,15315180,-5832423,-6215772,-22314450,80078130,-8203125
2026-01-14 17:14:08.181,11343750,58272430,36537880,-1189443,-23852540,8660889,-9448242
2026-01-14 17:14:08.191,56977680,11626000,-10678250,44461750,-19238280,96069340,-10107420
2026-01-14 17:14:08.201,56925890,58816220,35942290,44409970,-12695310,11584470,-11025390
2026-01-14 17:14:08.211,56874100,16441610,-6967490,44340910,-12323000,76660160,-12050780
2026-01-14 17:14:08.221,11330800,5934277,3538123,-1219656,-20153810,38909910,-12314450
2026-01-14 17:14:08.231,11342020,48577340,46129390,-1242960,-33203120,-52612300,-12402340
2026-01-14 17:14:08.241,5675328,59843400,34863330,4413378,-42138670,-15307620,-128125
2026-01-14 17:14:08.251,11366190,60067820,34621650,-1287844,-44311520,-27978520,-13261720
2026-01-14 17:14:08.261,6847593,17681120,-8213902,-5840967,-50683590,-40063480,-13730470
2026-01-14 17:14:08.271,11398130,17888280,-8421062,-1342224,-5131836,-453125,-13925780
2026-01-14 17:14:08.281,56632420,18094580,-8629087,43823010,-50390620,-48632810,-13798830
2026-01-14 17:14:08.291,11456820,18284480,-8818983,-1421636,-50341800,-49414060,-13505860
2026-01-14 17:14:08.301,69836290,61060470,33577210,-59811460,-50390620,-5229492,-13828130
2026-01-14 17:14:08.311,11540550,61233100,33404580,-1527804,-48632810,-5239258,-13857420
2026-01-14 17:14:08.321,11604420,18817910,-9355872,-1602038,-49389650,-5161133,-13730470
2026-01-14 17:14:08.331,56641050,18981910,-9519875,43296480,-5185547,-4897461,-13984380
2026-01-14 17:14:08.341,72577700,19145060,-9684741,-62594310,-5151367,-47143560,-14335940
2026-01-14 17:14:08.351,11840070,61854580,32731310,-1867028,-50439450,-4338379,-14453130
2026-01-14 17:14:08.361,5676189,19428170,-9971310,4286491,-5390625,-3828125,-13945310
2026-01-14 17:14:08.371,75584120,19565420,-10110280,-65630070,-50097660,-36401370,-13486330
2026-01-14 17:14:08.381,5690865,62225740,32308360,4254555,-48999020,-3708496,-13095700
2026-01-14 17:14:08.391,78078670,6233798,3216159,-68141890,-5214844,-3474121,-12861330
2026-01-14 17:14:08.401,57098530,19924490,-10476270,42182990,-5546875,-34106440,-12412110
2026-01-14 17:14:08.411,76627340,20034980,-10590200,-75635390,-60595700,-32788090,-11308590
2026-01-14 17:14:08.421,57340220,62605530,31790450,41785940,-6386719,-49438480,-98779300
2026-01-14 17:14:08.431,57478320,62674580,31669610,41578780,-62890620,-76416020,-91015620
2026-01-14 17:14:08.441,130726700,62735010,31557390,-31721400,-5415039,-9135742,-79589840
2026-01-14 17:14:08.451,13252210,20376790,-10956180,-3355131,-46313480,-10351560,-73876950
2026-01-14 17:14:08.461,57970330,62804060,31315720,40965930,-4506836,-11357420,-7241211
2026-01-14 17:14:08.471,136475400,62821330,31177600,-37539150,-4567871,-11357420,-73876950
2026-01-14 17:14:08.481,58376020,20575320,-11189240,40577500,-3942871,-11015630,-7602539
2026-01-14 17:14:08.491,14055820,62795440,30910030,-4157012,-32861330,-10449220,-78027340
2026-01-14 17:14:08.501,14273340,16462240,-15526740,-4371080,-2565918,-97314460,-7529297
2026-01-14 17:14:08.511,5907518,20715160,-11377410,3999919,-16918940,-7680664,-6791992
2026-01-14 17:14:08.521,14719600,62683220,30504340,-4805251,-28857420,-44726560,-80566410
2026-01-14 17:14:08.531,59610340,6259689,3038347,39619380,-60498050,39379880,-11962890
2026-01-14 17:14:08.541,15203830,20728970,-11449920,-5270500,-55371100,19228520,-13574220
2026-01-14 17:14:08.551,15449840,62355220,30245390,-5507870,-21044920,28828120,-12685550
2026-01-14 17:14:08.561,50808630,62251630,30176330,48662800,15234380,27988280,-10185550
2026-01-14 17:14:08.571,60766990,62165320,30090010,38756220,28686520,26132810,-60546880
2026-01-14 17:14:08.581,16294010,16506610,-15585960,-6338238,66223140,28730470,-16564940
2026-01-14 17:14:08.591,61431630,20648690,-11461140,38143370,-37402340,30449220,26953120
2026-01-14 17:14:08.601,61759630,20665090,-11496530,37815370,-88134770,27382810,8310547
2026-01-14 17:14:08.611,17269390,6186322,2964980,-7313618,-14521480,2140625,14365230
2026-01-14 17:14:08.621,62337950,61802780,29572110,37185260,-19853520,15283200,20117190
2026-01-14 17:14:08.631,17777800,20678040,-11552640,-7823750,-24003910,8178711,24296880
2026-01-14 17:14:08.641,62743640,61647420,29503060,36831360,-26542970,23413090,26679690
2026-01-14 17:14:08.651,18016890,20556330,-11449920,-8050762,-26835940,-16711430,25078120
2026-01-14 17:14:08.661,18032430,61379840,29598010,-8052487,-24824220,-5673828,21582030
2026-01-14 17:14:08.671,62985330,61215830,29692960,37003990,-20800780,-7910156,17158200
2026-01-14 17:14:08.681,63002590,61000040,29805170,37211150,-16035160,-9370117,11386720
2026-01-14 17:14:08.691,17790740,19951250,-10881090,-7741749,-11064450,-10019530,59033200
2026-01-14 17:14:08.701,51662300,19746680,-10688600,49138400,-6113281,-97509770,8538818
2026-01-14 17:14:08.711,17545610,46721520,43721160,-7434460,-19555660,-8286133,-40649420
2026-01-14 17:14:08.721,63080270,59938340,30348960,38359160,12384030,-73291020,-71533200
2026-01-14 17:14:08.731,6312345,59636240,30478440,3864403,41845700,-57958980,-99560540
2026-01-14 17:14:08.741,17240910,18868840,-9874638,-7031362,68408200,-46020510,-11992190
2026-01-14 17:14:08.751,63252910,18651320,-9677837,39170540,10019530,-35791020,-13525390
2026-01-14 17:14:08.761,17109710,46162200,43365530,-6834558,11103520,-40649420,-13408200
2026-01-14 17:14:08.771,17081220,18268080,-9336021,-6776726,11328130,-39282230,-12792970
2026-01-14 17:14:08.781,17077770,45920510,43192900,-6745652,11015630,-35375980,-10996090
2026-01-14 17:14:08.791,17090720,5794444,3096181,-6732706,10,-31958010,-88183590
2026-01-14 17:14:08.801,17119200,45692630,43023720,-6738745,85498050,-34716800,-5649414
2026-01-14 17:14:08.811,63969340,57478320,31065390,40042340,71240230,-42773440,-29882810
2026-01-14 17:14:08.821,17208100,1309004,-1308121,-6787948,65722660,-4963379,-49713140
2026-01-14 17:14:08.831,64211030,57089890,31143080,40145920,6220703,-56933590,14562990
2026-01-14 17:14:08.841,64349130,56908620,31168970,40180440,5673828,-5966797,33374020
2026-01-14 17:14:08.851,17369520,17179620,-8387398,-6902750,59277340,-58935550,5527344
2026-01-14 17:14:08.861,64599460,45154010,42612840,40206340,62402340,-5332031,71240230
2026-01-14 17:14:08.871,17512810,56442520,31168980,-7018413,66259770,-4946289,87060540
2026-01-14 17:14:08.881,17587900,16957790,-8212177,-7081426,6152344,-43017580,10234380
2026-01-14 17:14:08.891,17663000,16906860,-8176786,-7144437,52441410,-328125,11943360
2026-01-14 17:14:08.901,65125990,56071360,31074030,40163180,4645996,-16394040,13339840
2026-01-14 17:14:08.911,65238200,5597639,3103084,40154550,4326172,8563,995,14238280
2026-01-14 17:14:08.921,17876200,16781700,-8094785,-7328292,4501953,9869385,14648440
2026-01-14 17:14:08.931,65436730,16749760,-8074936,40128660,50878900,20056150,15097660
2026-01-14 17:14:08.941,17971150,16727320,-8062847,-7405976,4729004,23400880,15800780
2026-01-14 17:14:08.951,18009130,16704880,-8050764,-7437050,43896480,27539060,16777340
2026-01-14 17:14:08.961,18029840,16683300,-8037815,-7450860,47143560,27197270,17001950
2026-01-14 17:14:08.971,65678420,55536190,30849600,40180450,5288086,3010254,16513670
2026-01-14 17:14:08.981,65712940,44390970,41925760,40197710,57177740,25317380,16347660
2026-01-14 17:14:08.991,18047110,44365080,41899870,-7450858,51416020,18493650,16337890
2026-01-14 17:14:09.001,65764730,5542397,3077190,40266760,38623050,13171390,165625
2026-01-14 17:14:09.011,18035890,44304660,41839450,-7427554,27441410,57861330,17021480
2026-01-14 17:14:09.021,6577338,55380820,30711500,4036174,24902340,-12306210,16572270
2026-01-14 17:14:09.031,17988410,55363560,30676970,-7371447,23962400,-18029780,15615230
2026-01-14 17:14:09.041,65756100,16659990,-8061123,40465290,17944340,-30566410,14521480
2026-01-14 17:14:09.051,6574747,16675530,-8080111,4050846,15917970,-4387207,1296875
2026-01-14 17:14:09.061,13116520,16707470,-8117228,-12053440,12005620,-49780270,11279300
2026-01-14 17:14:09.071,17867570,55363560,30487080,-7233341,-13008120,-4543457,9550781
2026-01-14 17:14:09.081,65712940,16770480,-8192326,40681080,-9503174,-39916990,77783200
2026-01-14 17:14:09.091,54470180,16802420,-8229441,51975630,-8062744,-36791990,61279300
2026-01-14 17:14:09.101,65678410,5538944,3027126,40819190,6329346,-32714840,41796880
2026-01-14 17:14:09.111,6565253,55415350,30210860,4087964,14575200,-33081060,25073240
2026-01-14 17:14:09.121,65635250,55441240,30133170,40931400,17883300,-27563480,13366700
2026-01-14 17:14:09.131,17646600,16990590,-8438325,-6988204,7080078,-23950200,7672119
2026-01-14 17:14:09.141,65600720,17048420,-8501339,41017720,-35339360,-17321780,-30044560
2026-01-14 17:14:09.151,17597400,17106250,-8564349,-6933825,-3967285,-1295166,-125
2026-01-14 17:14:09.161,17580990,17172720,-8635991,-6915696,-81970220,-60302740,-18798830
2026-01-14 17:14:09.171,65566200,17247810,-8716269,41104030,-15783690,10643010,-25830080
2026-01-14 17:14:09.181,65548940,17314270,-8787911,41138560,-20727540,7897949,-21008300
2026-01-14 17:14:09.191,65531670,55743350,29468530,41155820,-24682620,6427002,-16638180
2026-01-14 17:14:09.201,17497270,55795140,29364960,-6826790,-32348630,3390503,-28305050
2026-01-14 17:14:09.211,17471370,17549060,-9036501,-6800896,-40283200,-184021,14428710
2026-01-14 17:14:09.221,17429080,17624150,-9116776,-6756875,-44384770,-104003900,34228520
2026-01-14 17:14:09.231,65419460,55967780,29071470,41319820,-5175781,-25610350,4753418
2026-01-14 17:14:09.241,6538493,17767440,-9266966,4137162,-5527344,-37768560,59521480
2026-01-14 17:14:09.251,65341780,14011020,-13161500,41449300,-5703125,-47680660,6738281
2026-01-14 17:14:09.261,12419860,17891740,-9401621,-11351770,-57666020,-47265620,68603520
2026-01-14 17:14:09.271,65246820,17940930,-9456003,41613300,-5493164,-45361330,71972660
2026-01-14 17:14:09.281,65195040,17990130,-9510382,41716880,-48608400,-42089840,70751950
2026-01-14 17:14:09.291,65134620,56166300,28579470,41829100,-31347660,-3623047,6621094
2026-01-14 17:14:09.301,65074190,56183570,28510420,41958570,61920170,-2644043,6230469
2026-01-14 17:14:09.311,65005140,56192200,28450000,42079410,40454100,-2836914,56640620
2026-01-14 17:14:09.321,64944720,56209460,28380940,42191620,69921870,-25634770,51220700
2026-01-14 17:14:09.331,64910190,5622671,2831186,42295210,8144531,-28466800,5996094
2026-01-14 17:14:09.341,64875670,56243990,28225570,42381520,8261719,-33032230,6323242
2026-01-14 17:14:09.351,11740370,56261260,28139260,-10667450,81689460,-38891600,6611328
2026-01-14 17:14:09.361,64841140,18337990,-9904850,42485100,83203130,-4008789,67871100
2026-01-14 17:14:09.371,16545190,5632169,2794073,-5810843,80126950,-4140625,62939450
2026-01-14 17:14:09.381,16554690,56356200,27819880,-5818609,7294922,-35791020,5678711
2026-01-14 17:14:09.391,16580580,56407990,27699040,-5844504,5961914,-22814940,5654297
2026-01-14 17:14:09.401,16615110,18642690,-10238890,-5879033,50341800,-11968990,54589840
2026-01-14 17:14:09.411,64953350,5652882,2745733,42372890,35595700,-7244873,4921875
2026-01-14 17:14:09.421,64996510,18826540,-10434830,42312470,2232666,-12367250,5185547
2026-01-14 17:14:09.431,16766160,18918900,-10532370,-6038719,13244630,-28884890,5449219
2026-01-14 17:14:09.441,16824860,56727360,27086200,-6100865,7928467,-7110596,4970703
2026-01-14 17:14:09.451,16891320,5680505,2697398,-6172510,1461792,-10925290,4489746
2026-01-14 17:14:09.461,65160510,5687409,2687038,41975830,-7965088,-14416500,4128418
2026-01-14 17:14:09.471,65203670,15498170,-14660900,41880880,-12219240,-23022460,34887700
2026-01-14 17:14:09.481,65220930,57012210,26697770,41794570,-16394040,-27246090,30029300
2026-01-14 17:14:09.491,54659220,57072630,26637350,52304500,-2578125,-30639650,22766110
2026-01-14 17:14:09.501,65272720,57124420,26585560,41639200,-31835940,-27734380,19677730
2026-01-14 17:14:09.511,65281350,15722590,-14885330,41578780,-39672850,-28271480,14904790
2026-01-14 17:14:09.521,12411230,57210740,26551030,-11343140,-44360350,-29345700,8087158
2026-01-14 17:14:09.531,17232280,57245260,26568290,-6556617,-48413090,-30493160,14015200
2026-01-14 17:14:09.541,17246950,19531750,-11145220,-6576473,-55908200,-2722168,774765
2026-01-14 17:14:09.551,17244360,57297060,26637350,-6579060,-62597660,-23095700,-107421900
2026-01-14 17:14:09.561,65212300,19504990,-11102930,41406140,-6821289,-17565920,-30319210
2026-01-14 17:14:09.571,65169140,57314310,26792710,41397510,-7294922,-1694336,34942630
2026-01-14 17:14:09.581,17177890,15630060,-14787960,-6524682,-80810540,-15307620,6890869
2026-01-14 17:14:09.591,17133870,19356530,-10923380,-6482388,-8535156,-19787600,15527340
2026-01-14 17:14:09.601,6498789,57279790,27172510,4149249,-82666020,-18591310,2064209
2026-01-14 17:14:09.611,17001810,57253900,27336510,-6355499,-82128900,-21643070,32226560
2026-01-14 17:14:09.621,54383000,19082900,-10610060,52062810,-7973633,-22302250,4267578
2026-01-14 17:14:09.631,6472893,18969830,-10481440,4169963,-7211914,-22485350,4934082
2026-01-14 17:14:09.641,16740270,43979240,41060010,-6099139,-67285150,-24658200,55810550
2026-01-14 17:14:09.651,64521770,57063990,28147890,41872260,-6660156,-17456060,671875
2026-01-14 17:14:09.661,54310500,56994940,28389570,52066260,-64697260,-16479490,74560540
2026-01-14 17:14:09.671,64297340,56925890,28631260,42079420,-56933590,-13903810,7470703
2026-01-14 17:14:09.681,64193760,18252540,-9679562,42183000,-5317383,-15579220,8149414
2026-01-14 17:14:09.691,64072920,18079900,-9489664,42303840,-50341800,15673830,91015620
2026-01-14 17:14:09.701,63960710,17890010,-9282506,42416050,-38012700,21887210,96191410
2026-01-14 17:14:09.711,63848500,17700110,-9075344,42545520,-15283200,23742680,9428711
2026-01-14 17:14:09.721,15851210,17509350,-8869046,-5210079,11993410,25146480,94091800
2026-01-14 17:14:09.731,63641340,17317730,-8663614,42804470,84350580,15039060,91064460
2026-01-14 17:14:09.741,6355503,56140410,30538860,4290808,19067380,-39398190,8647461
2026-01-14 17:14:09.751,15561180,56028200,30771920,-4913147,46142580,-27563480,7817383
2026-01-14 17:14:09.761,15509390,12898740,-12029530,-4861359,5234375,-4165039,7602539
2026-01-14 17:14:09.771,15474000,44744880,42279670,-4827694,31420900,-4597168,87597660
2026-01-14 17:14:09.781,15456740,55751980,31376140,-4810430,115722700,-49438480,8911133
2026-01-14 17:14:09.791,54234540,5567428,3154012,52211270,6573486,-4868164,8154297
2026-01-14 17:14:09.801,54234540,16310410,-7582066,52211270,-49621580,-41479490,75
2026-01-14 17:14:09.811,6333060,16193020,-7457767,4309796,-1307373,-3395996,6870117
2026-01-14 17:14:09.821,15446380,55423980,31997620,-4803524,-6677246,-28027340,56933590
2026-01-14 17:14:09.831,15462780,55354930,32135720,-4821652,8062744,-25927730,4560547
2026-01-14 17:14:09.841,63365120,5529449,3226517,43028900,14489750,-24023440,37548830
2026-01-14 17:14:09.851,15537880,44948580,42662920,-4901927,11639400,-20690920,35888670
2026-01-14 17:14:09.861,63442800,55190920,32472360,42882160,64453120,-1505127,41308590
2026-01-14 17:14:09.871,6349462,44985700,42729380,4279586,10040280,-13635250,44580080
2026-01-14 17:14:09.881,15731230,5509598,3265362,-5105635,-14282230,-101623500,4440918
2026-01-14 17:14:09.891,54160300,55052820,32731300,52061080,16145710,-4159546,44433590
2026-01-14 17:14:09.901,6366724,55018290,32817630,4250239,31463620,38909910,44750980
2026-01-14 17:14:09.911,6373629,4404571,4382474,4239879,12780760,13684080,44018560
2026-01-14 17:14:09.921,16059230,54949240,32955740,-5450900,25,21606440,44140620
2026-01-14 17:14:09.931,16152450,15350570,-6556621,-5547577,2841797,24499510,48779300
2026-01-14 17:14:09.941,16244810,54888820,33067940,-5645113,31811520,1550293,5966797
2026-01-14 17:14:09.951,5308307,15291870,-6494472,5286211,29760740,-47454830,6899414
2026-01-14 17:14:09.961,16455420,5487156,3311973,-5866086,19274900,-19458010,79248050
2026-01-14 17:14:09.971,16582310,5487156,3311973,-5998151,19927980,-2199707,85009770
2026-01-14 17:14:09.981,16700570,45091870,42916680,-6121581,-12768560,-14990230,83984380
2026-01-14 17:14:09.991,16826590,45091870,42916680,-6254510,-15478520,-945282,8095703
2026-01-14 17:14:10.001,16943980,54897450,33111100,-6378805,-16015630,19946290,79052740
2026-01-14 17:14:10.011,17070860,5491472,3311110,-6510872,-9729004,3046875,8183594
2026-01-14 17:14:10.021,17179620,15328990,-6526410,-6626536,3358841,33398440,88134770
2026-01-14 17:14:10.031,64754820,5497511,3305065,40689710,6921387,39990230,9692383
2026-01-14 17:14:10.041,5390308,15406680,-6604095,5147241,9503174,38305660,10634770
2026-01-14 17:14:10.051,64927460,15459330,-6655024,40361710,37139890,35742190,12001950
2026-01-14 17:14:10.061,17663860,15519750,-6715443,-7143573,-41931150,25341800,13789060
2026-01-14 17:14:10.071,53802960,5521680,3282623,51296320,-19934080,6359863,15166020
2026-01-14 17:14:10.081,17904680,55303140,32757200,-7403385,-37109380,-13623050,16220700
2026-01-14 17:14:10.091,18003080,55380820,32679520,-7512144,-47021480,-33154300,16484380
2026-01-14 17:14:10.101,65272720,55467130,32593200,39550340,-48706060,-46533200,16132810
2026-01-14 17:14:10.111,65324510,55553450,32506880,39429490,-35375980,-546875,14824220
2026-01-14 17:14:10.121,18267210,55639770,32420570,-7800442,-13378910,-5136719,12949220
2026-01-14 17:14:10.131,1834144,16115340,-7311028,-788157,4,8148193,-41430660,10908200
2026-01-14 17:14:10.141,65462620,55821030,32187510,39066960,27246090,-29614260,8774414
2026-01-14 17:14:10.151,65523040,16327670,-7530275,38937480,42285160,-22521970,71777340
2026-01-14 17:14:10.161,18615930,16455430,-7661476,-8176784,51416020,-18286130,58496100
2026-01-14 17:14:10.171,18723830,56149040,31738670,-8293311,51123050,-18469240,46801760
2026-01-14 17:14:10.181,18839490,56278520,31557400,-8419333,4580078,-13171390,37548830
2026-01-14 17:14:10.191,14279380,56416620,31367500,-13238400,34277340,41168210,26342770
2026-01-14 17:14:10.201,53386900,17083810,-8310580,50607500,22839360,22583010,19152830
2026-01-14 17:14:10.211,65980520,56701470,30961810,37910310,17810060,38793940,1381836
2026-01-14 17:14:10.221,66058200,56865470,30746020,37711790,13415530,51416020,13464360
2026-01-14 17:14:10.231,66127260,57020840,30521600,37521890,7910156,5288086,13439940
2026-01-14 17:14:10.241,66204940,17813180,-9065851,37340620,105896,5019531,15722660
2026-01-14 17:14:10.251,19725100,17998770,-9260061,-9380904,26535030,4050293,16345220
2026-01-14 17:14:10.261,6635168,18184350,-9454272,3698673,99609380,2524414,23120120
2026-01-14 17:14:10.271,66429370,18362160,-9638993,36822720,14001470,7635498,36450200
2026-01-14 17:14:10.281,6648980,57737270,29408120,3665875,21166990,-10235600,5341797
2026-01-14 17:14:10.291,66558840,57866740,29209580,36503350,34887700,-25878910,6616211
2026-01-14 17:14:10.301,20280120,18834310,-10133590,-9982531,6064453,-3479004,7578125
2026-01-14 17:14:10.311,66688310,15065290,-14196090,36201240,8461914,-39111330,75
2026-01-14 17:14:10.321,20488140,19136420,-10452960,-10206090,10224610,-30810550,70703130
2026-01-14 17:14:10.331,5153040,19285750,-10614370,5122105,11806640,-119384800,6713867
2026-01-14 17:14:10.341,20722920,19443710,-10784420,-10454680,13808590,10455320,5986328
2026-01-14 17:14:10.351,67033580,58505480,27932090,35579760,14736330,29077150,5522461
2026-01-14 17:14:10.361,21010360,19790700,-11162480,-10754200,14951170,34423830,5449219
2026-01-14 17:14:10.371,21178680,58721280,27371040,-10931150,15166020,31518560,5214844
2026-01-14 17:14:10.381,16756760,20193800,-11605290,-15732870,15029300,26953120,39526370
2026-01-14 17:14:10.391,21583500,20424270,-11858200,-11354970,13857420,18518070,2956543
2026-01-14 17:14:10.401,21819140,20679770,-12137860,-11602700,12539060,12017820,24523930
2026-01-14 17:14:10.411,22070330,20961160,-12443420,-11869420,11542970,-7165527,15612790
2026-01-14 17:14:10.421,22337910,21275350,-12785240,-12154260,11699220,-3984375,-14320370
2026-01-14 17:14:10.431,22629660,21615440,-13152950,-12466730,11044920,-64453120,-18273930
2026-01-14 17:14:10.441,68561390,5992107,2439308,32826260,8129883,-7495117,-3022461
2026-01-14 17:14:10.451,68777180,22351720,-13953110,32386040,5493164,-72216800,-39672850
2026-01-14 17:14:10.461,2356880,60387190,23253730,-1347834,40307620,-77734380,-56103520
2026-01-14 17:14:10.471,23892480,23144110,-14818000,-13827940,36669920,-8251953,-8339844
2026-01-14 17:14:10.481,24223930,6086194,2201939,-14187020,31811520,-8105469,-11455080
2026-01-14 17:14:10.491,6960584,43228290,39255990,3046983,2927246,-6816406,-1453125
2026-01-14 17:14:10.501,69830240,24421600,-16216330,29917380,21716310,-5830078,-17333980
2026-01-14 17:14:10.511,7006332,42880430,38723420,2935634,41015620,-44360350,-18710940
2026-01-14 17:14:10.521,70296350,61828680,19309050,28760740,-15393070,-22363280,-19238280
2026-01-14 17:14:10.531,21675600,25766410,-17702700,-20688660,-20935060,-59295660,-19746090
2026-01-14 17:14:10.541,26530320,42271900,37830040,-16697110,-27807620,75805660,-2046875
2026-01-14 17:14:10.551,26959310,26662380,-18705700,-17165810,-25097660,16015630,-20878910
2026-01-14 17:14:10.561,71289000,62657320,16339760,26248920,-2055664,18310550,-20800780
2026-01-14 17:14:10.571,71547950,41569280,36840840,25541120,-1451416,20910640,-20605470
2026-01-14 17:14:10.581,71824160,6302848,1476013,24798800,-13684080,21826170,-19042970
2026-01-14 17:14:10.591,7210900,28490570,-20779030,2401333,-1262207,21447750,-16123050
2026-01-14 17:14:10.601,29371860,28956680,-21314200,-19811420,-9069824,12866210,-13457030
2026-01-14 17:14:10.611,50041260,29438320,-21868350,45010730,-12335210,7757568,-10039060
2026-01-14 17:14:10.621,72954910,6364133,1129883,21510140,-16247560,7698059,-66259770
2026-01-14 17:14:10.631,73231120,63779440,10383900,20646970,-10961910,-5962372,-39404300
2026-01-14 17:14:10.641,31507340,63900280,9451683,-22181670,-3314209,-20889280,-25463870
2026-01-14 17:14:10.651,32028690,64029760,8510831,-22765170,61187740,-4525757,-19812010
2026-01-14 17:14:10.661,7393028,28661730,-27944790,1804884,11798100,-59539800,-14501950
2026-01-14 17:14:10.671,33041180,32397260,-25314110,-23910600,16442870,-77697750,-13171390
2026-01-14 17:14:10.681,33524560,32905670,-25910560,-24463030,21276860,-17700200,-21252440
2026-01-14 17:14:10.691,33997580,64504500,4566153,-25008550,2199707,-24279780,-28515620
2026-01-14 17:14:10.701,47582970,37139510,31033460,41582230,12310790,-30566410,-3408203
2026-01-14 17:14:10.711,7469851,64720300,2537712,1370713,7865906,-36987300,-4099121
2026-01-14 17:14:10.721,31408680,34969500,-28335200,-30532220,-17004400,-4091797,-44702150
2026-01-14 17:14:10.731,4658601,6491882,49200,23,4030043,-3864746,-42382810,-44702150
2026-01-14 17:14:10.741,7492295,35515890,28962720,1118666,-5859375,-38500980,-5283203
2026-01-14 17:14:10.751,74957460,35096390,28432730,10375270,-75,-3334961,-5288086
2026-01-14 17:14:10.761,36923710,65151880,-2572242,-28469850,-9291992,-3894043,-5449219
2026-01-14 17:14:10.771,45189400,65220940,-3590778,38572360,-1140625,-47509770,-47265620
2026-01-14 17:14:10.781,37596120,33843930,26854000,-29299360,-13486330,-5126953,-4440918
2026-01-14 17:14:10.791,37909450,33414940,26316250,-29693820,-16025390,-4333496,-35424800
2026-01-14 17:14:10.801,7481936,6541946,-663776,4,654281,4,-184375,-24230960,-15344240
2026-01-14 17:14:10.811,38476560,32580260,25269220,-30421480,-20273440,-10055540,11199950
2026-01-14 17:14:10.821,40225760,65540300,-8623046,39530910,-21074220,1184082,28808590
2026-01-14 17:14:10.831,74482720,31769740,24249820,4445312,-21171880,53833010,31274410
2026-01-14 17:14:10.841,7431872,6568704,-1056518,378067,4,-21796880,-11077880,34179690
2026-01-14 17:14:10.851,74146080,30976490,23247680,3107404,-21289060,-21728520,57958980
2026-01-14 17:14:10.861,41768680,30597560,22763450,34621650,-20878910,-36938480,8100586
2026-01-14 17:14:10.871,7370587,6593736,-1342225,182128,4,-21425780,-37548830,91552740
2026-01-14 17:14:10.881,7345556,29862140,21824330,122571,2,-21679690,-31591800,98828130
2026-01-14 17:14:10.891,7318796,66135890,-15243540,66466,53,-21894530,-24316410,9628906
2026-01-14 17:14:10.901,40043200,66239470,-16123970,-32739080,-22363280,-23925780,77490230
2026-01-14 17:14:10.911,72626910,6634305,-1696990,-379795,8,-22617190,-17041020,54541020
2026-01-14 17:14:10.921,7233344,28536320,20111800,-86315,31,-22578120,-45776370,34106440
2026-01-14 17:14:10.931,39015170,6653294,-1860991,31678250,-22480470,16308590,99487300
2026-01-14 17:14:10.941,7172920,45381030,-40659500,-182989,6,-22578120,36328120,-7330322
2026-01-14 17:14:10.951,38222780,27592010,18898190,30847880,-21972660,61035160,-20507810
2026-01-14 17:14:10.961,37810180,27264870,18483000,30414570,-20976560,796875,-17126460
2026-01-14 17:14:10.971,70762460,6684369,-2183817,-3400884,-20273440,9194336,-52825930
2026-01-14 17:14:10.981,36959100,26617490,17662990,29522050,-19033200,90722660,-17929080
2026-01-14 17:14:10.991,70071940,47373220,-43017680,-4505736,-17851560,8364258,-10961910
2026-01-14 17:14:11.001,69718030,67016320,-24203220,-5084054,-16953120,7260742,-29174800
2026-01-14 17:14:11.011,40705250,21487090,20566430,-34338520,-16591800,6010742,-5024414
2026-01-14 17:14:11.021,6897572,25275270,15984140,-634427,1,-16230470,4975586,-7089844
2026-01-14 17:14:11.031,40883060,48899300,-44857950,-34730400,-14980470,4267578,-79541020
2026-01-14 17:14:11.041,33990670,24496690,15036370,26396520,-1390625,38964840,-54296880
2026-01-14 17:14:11.051,67750010,49655430,-45793620,-8519460,-13222660,33666990,-23156740
2026-01-14 17:14:11.061,29419940,66973160,-29304540,28653970,-21035160,5942383,-19665530
2026-01-14 17:14:11.071,41326730,23202810,13499070,-35633280,-32382810,28183590,-7739258
2026-01-14 17:14:11.081,6651569,22749640,12968230,-1080685,-36308590,50117190,-17851560
2026-01-14 17:14:11.091,31093880,66645160,-31945830,23320200,-34570310,58945310,-21308590
2026-01-14 17:14:11.101,30418880,51355870,-47994700,22596860,-28554690,58085940,-20839840
2026-01-14 17:14:11.111,65143250,21232200,11222900,-13612150,-17929690,521875,-12480470
2026-01-14 17:14:11.121,42171770,20670270,10593650,-37170580,-6899414,49609380,-3178711
2026-01-14 17:14:11.131,28249750,20116120,9973899,20260270,55371100,48203120,64160160
2026-01-14 17:14:11.141,6372765,6551441,-3649472,-1668502,20195310,40234380,16386720
2026-01-14 17:14:11.151,63261540,19178720,8926012,-17599980,33613280,27773440,25136720
2026-01-14 17:14:11.161,62829960,18864520,8566934,-18376840,4265625,13486330,28203120
2026-01-14 17:14:11.171,62441530,65160510,-38195160,-18989680,43554690,-47851560,23359380
2026-01-14 17:14:11.181,62070370,65177780,-38523170,-19481690,39648440,-1375,14238280
2026-01-14 17:14:11.191,42901150,65212300,-38799380,-38719960,36074220,-28085940,23828120
2026-01-14 17:14:11.201,24626160,65246820,-39110120,16460600,36171880,-39433590,-6381836
2026-01-14 17:14:11.211,24298160,65246830,-39455390,16132600,34453120,-45546880,-13886720
2026-01-14 17:14:11.221,60706570,17933170,7426689,-20897280,290625,-44570310,-2125
2026-01-14 17:14:11.231,60387200,65160510,-40301290,-21164860,22675780,-40078120,-26289060
2026-01-14 17:14:11.241,6004193,17421310,6833698,-2142381,17275390,-34765620,-29238280
2026-01-14 17:14:11.251,5968803,12331040,11267960,-2170865,13935550,-29863280,-2921875
2026-01-14 17:14:11.261,42530850,64815240,-41924040,-38796780,10761720,-23671880,-27265620
2026-01-14 17:14:11.271,58988860,16450250,5733156,-22269720,6845703,-17353520,-23730470
2026-01-14 17:14:11.281,58652220,16116200,5359404,-22554570,33276370,-11083980,-20253910
2026-01-14 17:14:11.291,58332860,6437504,-4355546,-22822150,-1541748,-6201172,-18222660
2026-01-14 17:14:11.301,21509270,10623170,9540415,13397220,-6503906,-3125,-15224610
2026-01-14 17:14:11.311,21207160,64055660,-44530810,13095120,-10537110,-7702637,-12617190
2026-01-14 17:14:11.321,57409270,63865760,-45014180,-23728470,-12753910,34118650,-9213867
2026-01-14 17:14:11.331,20563240,14546960,3631344,12444290,-14121090,24978640,-60791020
2026-01-14 17:14:11.341,20205880,55582800,-53832300,12076580,-14423830,-58685300,-33007810
2026-01-14 17:14:11.351,19831280,89469030,78503350,11691610,-14462890,-3671875,-3881836
2026-01-14 17:14:11.361,56140410,62985330,-46895890,-25411650,-13496090,-6791992,28173830
2026-01-14 17:14:11.371,19044060,13186610,2177771,10873320,-11171880,-81689460,6635742
2026-01-14 17:14:11.381,18646150,78884010,67854460,10459870,-79296870,-9169922,10527340
2026-01-14 17:14:11.391,55147770,75612610,64565790,-26870400,-5366211,-10634770,13232420
2026-01-14 17:14:11.401,54837020,62009950,-48613590,-27353780,-45410160,-11787110,14560550
2026-01-14 17:14:11.411,42524800,61794160,-48950230,-39855890,-47802740,-13535160,14316410
2026-01-14 17:14:11.421,17076910,11696780,611984,3,8818119,-5,-1546875,13740230
2026-01-14 17:14:11.431,16691070,114499200,3582148,8409846,-5629883,-15996090,13017580
2026-01-14 17:14:11.441,16313870,112194500,1225696,8010199,-625,-1625,11630860
2026-01-14 17:14:11.451,15946160,6093962,-5006372,7618316,-7416992,-159375,10332030
2026-01-14 17:14:11.461,15569810,10764560,-337499,2,7217806,-8881836,-15361330,93115230
2026-01-14 17:14:11.471,15185700,10540140,-561922,7,6807802,-9765625,-1421875,90185540
2026-01-14 17:14:11.481,14792100,60283610,-50754240,6390031,-9892578,-12148440,9345703
2026-01-14 17:14:11.491,52325210,101007900,-10030010,-31954460,-9272461,-10341800,10556640
2026-01-14 17:14:11.501,13989360,48968350,37866300,5535495,-7734375,-87646480,1203125
2026-01-14 17:14:11.511,13569860,9693370,-1406963,5091825,-61376950,-7285156,13691410
2026-01-14 17:14:11.521,51418880,95112420,-15873650,-33620360,-5288086,-6542969,15332030
2026-01-14 17:14:11.531,88769000,43526940,32431790,80239180,-48583980,-59472660,17001950
2026-01-14 17:14:11.541,50780140,5908383,-5181597,-34777020,-34423830,-59375,17675780
2026-01-14 17:14:11.551,11834890,40414360,29329570,3253280,-9307861,-5859375,1859375
2026-01-14 17:14:11.561,11390360,58747180,-52049000,2782855,11608890,-68115230,18984380
2026-01-14 17:14:11.571,49778870,32836100,31728820,-36537880,29589840,-86572260,19160160
2026-01-14 17:14:11.581,43895520,36693250,25627440,-42662910,40356440,-10253910,18603520
2026-01-14 17:14:11.591,49105600,8533275,-2525630,-37694520,4975586,-11494140,18027340
2026-01-14 17:14:11.601,9600149,34441240,23390980,895969,8,5551758,-11347660,17519530
2026-01-14 17:14:11.611,52355420,57987590,-52411530,43628800,48608400,-10400390,16630860
2026-01-14 17:14:11.621,47879040,32359280,21329730,39128240,3010254,-88134770,15195310
2026-01-14 17:14:11.631,8280366,31231990,20212790,-494593,8,1864624,-78564460,13125
2026-01-14 17:14:11.641,38839940,7954950,-3052162,30040820,-24719240,-60253900,10488280
2026-01-14 17:14:11.651,73904400,78013070,-31919940,-14345840,-40649420,-40600580,85253900
2026-01-14 17:14:11.661,6927782,26896300,15916810,-1921409,-33325200,-23278810,72753900
2026-01-14 17:14:11.671,24634800,7433597,-3532082,15761440,-12890630,-7836914,61865230
2026-01-14 17:14:11.681,19812280,72109010,-37409680,10916480,15759280,19299320,56152340
2026-01-14 17:14:11.691,55121880,20659920,9723580,-34060590,2553711,39941410,5444336
2026-01-14 17:14:11.701,45264500,18235280,7314479,-44142380,25878910,51416020,44726560
2026-01-14 17:14:11.711,448676,6,158106400,49053800,-447459,1,33276370,5888672,40185550
2026-01-14 17:14:11.721,40508450,62217110,-46680090,-49312750,4807129,6386719,3803711
2026-01-14 17:14:11.731,35415760,56363970,45489790,-54578080,65771480,7133789,37451170
2026-01-14 17:14:11.741,30236760,77598750,-30987710,-59929710,73535150,74316410,44506840
2026-01-14 17:14:11.751,-15682890,54212960,-54218130,-24713350,7758789,6767578,53759770
2026-01-14 17:14:11.761,-21028490,-23933040,-34762340,-30071030,7729492,5546875,63916020
2026-01-14 17:14:11.771,-26374950,53507760,-54629870,-35427840,66552740,32128910,7832031
2026-01-14 17:14:11.781,8890620,4570476,-6227754,-81741950,60302740,-19363400,875
2026-01-14 17:14:11.791,-37414860,4295124,-6487565,-46485020,4880371,-3803711,10585940
2026-01-14 17:14:11.801,4065517,52454690,-55199560,-5013275,31518560,-50390620,15273440
2026-01-14 17:14:11.811,-4802493,53583710,-53915160,-5710886,4111328,296875,23027340
2026-01-14 17:14:11.821,-1169593,3425049,-7309302,-10258750,15710450,18701170,26621090
2026-01-14 17:14:11.831,39351800,3139342,-7576022,-51626040,-8520508,24960940,25683590
2026-01-14 17:14:11.841,38963380,2828602,-7869499,-52066260,-17851560,2328125,21855470
2026-01-14 17:14:11.851,38557680,24652060,-82139020,-52523730,-18125,20410160,17324220
2026-01-14 17:14:11.861,-2849317,2040528,-8617863,-11962640,-12138670,19130860,13056640
2026-01-14 17:14:11.871,37789470,-32144360,-42778580,-53412800,-45507810,19677730,78271490
2026-01-14 17:14:11.881,3744419,-37077360,-47685680,-5384441,30419920,19160160,11303710
2026-01-14 17:14:11.891,37107570,567967,-10011020,-54284600,9399414,15449220,-48413090
2026-01-14 17:14:11.901,-4383167,52210410,-53251380,-13536190,14267580,9819336,-92041020
2026-01-14 17:14:11.911,36511980,-4151828,-109268400,-55156400,17431640,44873050,-11308590
2026-01-14 17:14:11.921,-5077153,46248510,-58505490,-14257800,19355470,-7347107,-12880860
2026-01-14 17:14:11.931,-5406884,45652930,-58755810,-14601340,22480470,-40454100,-13896480
2026-01-14 17:14:11.941,35726500,4509189,-5898888,-56356200,25625,-79248050,-13515630
2026-01-14 17:14:11.951,35493440,-67836330,-78211610,-56710100,26328120,-11152340,-12402340
2026-01-14 17:14:11.961,35286280,-71044730,-81390650,-57020840,25839840,-13408200,-10195310
2026-01-14 17:14:11.971,-6472036,-27474620,-130657600,-15711380,23671880,-14111330,-61279300
2026-01-14 17:14:11.981,34975540,-76422260,-86716390,-57521480,21367190,-13378910,-3161621
2026-01-14 17:14:11.991,34889220,-32541410,-135258300,-57711370,18554690,-11103520,6576538
2026-01-14 17:14:12.001,-6853550,-3470796,-13723500,-16123970,14394530,-8359375,2668457
2026-01-14 17:14:12.011,-1105062,-3677956,-13913400,-1197869,97216800,-45410160,5361328
2026-01-14 17:14:12.021,34949640,50200960,-51998070,-57944430,58984380,-50964360,66845700
2026-01-14 17:14:12.031,-6787949,-4079329,-14288870,-16085990,4753418,34179690,6040039
2026-01-14 17:14:12.041,-10876770,-4274405,-14473590,-11807270,5527344,63720700,42626950
2026-01-14 17:14:12.051,45437140,-4459122,-14651410,-47681370,8144531,8515625,25634770
2026-01-14 17:14:12.061,35536600,-4642976,-14830080,-57650960,11503910,10058590,39855960
2026-01-14 17:14:12.071,35769650,41026350,-60827420,-57469680,14287110,11621090,-21716310
2026-01-14 17:14:12.081,36045870,40879610,-60974150,-57245260,16640630,11972660,-43041990
2026-01-14 17:14:12.091,-5639937,-5074562,-15261660,-14972500,16630860,12226560,-6894531
2026-01-14 17:14:12.101,36693250,4070701,-6123312,-56666940,15263670,12080080,-99072260
2026-01-14 17:14:12.111,-4964079,40672450,-61353940,-14301820,13496090,10595700,-12255860
2026-01-14 17:14:12.121,-4601549,40672450,-61474790,-13939290,10761720,82714850,-15654300
2026-01-14 17:14:12.131,37780840,40681080,-61587000,-55579350,7373047,5576172,-18916020
2026-01-14 17:14:12.141,38126100,40706980,-61716480,-55182290,51171880,22998050,-19296880
2026-01-14 17:14:12.151,-34949660,-5418959,-15676850,-128189000,3557129,-11834720,-18525390
2026-01-14 17:14:12.161,-3128119,-5462124,-15737270,-12443420,13415530,-31079100,-18105470
2026-01-14 17:14:12.171,39101480,-5505281,-15797690,-53965230,-31176760,-3791504,-17041020
2026-01-14 17:14:12.181,-2457439,-10196340,-11227480,-11750300,-6118164,-3400879,-17519530
2026-01-14 17:14:12.191,-21630980,40879610,-62424270,-114404200,-9736328,-33984380,-19199220
2026-01-14 17:14:12.201,-18955160,-5665826,-16016930,-111555800,-13652340,-33935550,-16982420
2026-01-14 17:14:12.211,-1672822,40922770,-62778170,-10912160,-17011720,-35375980,-14150390
2026-01-14 17:14:12.221,40007810,-5844505,-16235320,-52178480,-18203120,-4650879,-11796880
2026-01-14 17:14:12.231,-54443430,-5973979,-16382050,-63637890,-17255860,-56933590,-8935547
2026-01-14 17:14:12.241,-1162687,-6119858,-16546920,-10334710,-16220700,-6171875,-59716800
2026-01-14 17:14:12.251,-1045296,4069835,-6372765,-10193140,-17275390,-57666020,-21813960
2026-01-14 17:14:12.261,-953800,5,-6484977,-16941390,-10077480,-1828125,-6591797,34606940
2026-01-14 17:14:12.271,4006823,-6694726,-17163220,-5094415,-17919920,-6582031,2166748
2026-01-14 17:14:12.281,-49323120,52281360,-52524430,-58400180,-19472660,-4909668,29956060
2026-01-14 17:14:12.291,-48989930,-7132352,-17623290,-58042830,-24101560,-19677730,41992190
2026-01-14 17:14:12.301,-8372728,39861080,-65134620,-98660030,-27675780,6335449,6875
2026-01-14 17:14:12.311,-8925152,39610760,-65436720,-98970780,-28574220,8190918,6689453
2026-01-14 17:14:12.321,-991782,5,39351810,-65764730,-9970446,-28007810,66345220,55859380
2026-01-14 17:14:12.331,39161910,-8268279,-18783390,-50365820,-27265620,-50872800,5126953
2026-01-14 17:14:12.341,-1303386,38721690,-66446630,-10228530,-26132810,-29516600,51416020
2026-01-14 17:14:12.351,-15062270,51162530,-54005800,-104054800,-24980470,-55859380,51171880
2026-01-14 17:14:12.361,-17539560,-9321340,-19836450,-106238700,-22714840,-73339840,5185547
2026-01-14 17:14:12.371,-60144650,37599580,-67516960,-68985210,-20410160,-8027344,4819336
2026-01-14 17:14:12.381,-63007770,-14804440,-15855260,-71818980,-18701170,-75634770,5336914
2026-01-14 17:14:12.391,-66130720,36814100,-68233380,-74910860,-17822270,-65966800,5341797
2026-01-14 17:14:12.401,-3015045,-10821530,-21322830,-11762380,-16533200,-6098633,55371100
2026-01-14 17:14:12.411,4278203,3606314,-6891529,-4432883,-16044920,-48266600,53515620
2026-01-14 17:14:12.421,-3759095,-11523290,-22019400,-12433930,-15673830,-3227539,5419922
2026-01-14 17:14:12.431,-4158743,-11860780,-22355170,-12793870,-16445310,-1953125,55029300
2026-01-14 17:14:12.441,-4584285,35027340,-69899300,-13179700,-18271480,-74157710,6254883
2026-01-14 17:14:12.451,-5019320,3468207,-7021003,-13573310,-19775390,-47668460,6323242
2026-01-14 17:14:12.461,32800360,3434546,-7051217,-52307950,-215625,-18225100,640625
2026-01-14 17:14:12.471,-6004196,33982900,-70822890,-14470140,-23613280,-34228520,6459961
2026-01-14 17:14:12.481,-6554032,-13528420,-24002100,-14973370,-24667970,-40966800,6303711
2026-01-14 17:14:12.491,-7148755,50403800,-54229360,-15518020,-24824220,-69677740,66503900
2026-01-14 17:14:12.501,29649800,3273997,-7175513,-53525020,-24296880,-79833980,7807617
2026-01-14 17:14:12.511,-8453864,-14688520,-25120760,-16716100,-23847660,-67871100,9926758
2026-01-14 17:14:12.521,-9173744,-15103700,-25516960,-17377290,-23222660,-4140625,10810550
2026-01-14 17:14:12.531,26715030,49872090,-54018740,-54716180,-21914060,-12451170,12255860
2026-01-14 17:14:12.541,38927980,30625180,-72972180,-41881740,-20917970,8843994,14228520
2026-01-14 17:14:12.551,24505320,-16458870,-26785810,-55648400,-19853520,3544922,16728520
2026-01-14 17:14:12.561,2334005,512152,-516571,3,-5614041,-18505860,7832031,1984375
2026-01-14 17:14:12.571,-13323850,-17477410,-27718030,-21202840,-16455080,13398440,22636720
2026-01-14 17:14:12.581,-17770640,27802620,-74051140,-18551450,-14404300,203125,253125
2026-01-14 17:14:12.591,-15216780,-18625430,-28745200,-22952490,-1203125,26054690,26601560
2026-01-14 17:14:12.601,36301370,-19267620,-29311440,-40313380,-93310540,2890625,2578125
2026-01-14 17:14:12.611,16857660,-19959020,-29914790,-58997500,-5839844,27988280,225
2026-01-14 17:14:12.621,-18361300,23642160,-74897040,-25867400,-18652340,24023440,18271480
2026-01-14 17:14:12.631,-19480830,2235605,-7504377,-26905790,28051760,1859375,12822270
2026-01-14 17:14:12.641,34273780,20992240,-75164620,-39129970,77783200,13095700,4958496
2026-01-14 17:14:12.651,10901810,-23095770,-32578530,-61638790,12880860,9350586,-26367190
2026-01-14 17:14:12.661,9391262,-23889880,-33234530,-62268900,16630860,5708008,-98339840
2026-01-14 17:14:12.671,-23952900,1677136,-7527682,-31030870,18837890,32226560,-16220700
2026-01-14 17:14:12.681,6447856,42327140,-48305440,-63468700,19052730,12976070,-19951170
2026-01-14 17:14:12.691,31586740,14138680,-75095570,-37483910,18300780,-8929443,-22460940
2026-01-14 17:14:12.701,3702988,-26611450,-35398500,-64556300,16708980,-9484863,-22421880
2026-01-14 17:14:12.711,2399606,-27144020,-35798140,-65065560,15,87768550,-22050780
2026-01-14 17:14:12.721,-28869500,-27614450,-36139090,-35540060,13339840,14123540,-2171875
2026-01-14 17:14:12.731,29686910,-28022730,-36421350,-36293600,11474610,19787600,-20332030
2026-01-14 17:14:12.741,-3057947,8873362,-73904400,-3711016,95410160,19665530,-17265620
2026-01-14 17:14:12.751,-31388220,8044722,-73559130,-37855070,7910156,19177250,-12255860
2026-01-14 17:14:12.761,-3349090,724200,5,-7318797,-67396120,6777344,101501500,-65771480
2026-01-14 17:14:12.771,28119400,-29216490,-37143820,-35340670,6567383,-5053711,-11401370
2026-01-14 17:14:12.781,-54035,91,-29456450,-37266390,-682594,1,71533200,-1973877,9918213
2026-01-14 17:14:12.791,-6421970,4911424,-71996790,-68673600,8544922,-29956060,6842041
2026-01-14 17:14:12.801,-35164580,-29920840,-37492540,-41329320,9526367,-4267578,-12298580
2026-01-14 17:14:12.811,-8398618,343543,8,-7112500,-69441820,10849610,-5991211,-33569340
2026-01-14 17:14:12.821,-933950,3,2736240,-70667520,-6981299,12089840,-7426758,-48486330
2026-01-14 17:14:12.831,25939910,206298,5,-7021869,-33981180,13154300,-8911133,-54052740
2026-01-14 17:14:12.841,-11108970,1424224,-69769820,-70512140,1484375,-95751950,-37036130
2026-01-14 17:14:12.851,-11954870,-30752930,-37765300,-70822890,16914060,-9995117,-14160160
2026-01-14 17:14:12.861,-39024660,189896,-68880760,-44857950,18798830,-95947260,14074710
2026-01-14 17:14:12.871,24633070,-431584,-68449180,-33130090,20371090,-8876953,34936520
2026-01-14 17:14:12.881,-40162320,-1078958,-68026220,-45878210,21445310,-86328130,4897461
2026-01-14 17:14:12.891,-40712160,-31388220,-37975920,-46364180,21699220,-8984375,6015625
2026-01-14 17:14:12.901,-1614124,-244276,-6721485,-7197091,22207030,-93359380,68603520
2026-01-14 17:14:12.911,2307848,-3176456,-66826420,-3199158,21992190,-9814453,71875
2026-01-14 17:14:12.921,-44786050,-32065810,-38316860,-45328630,22324220,-9589844,6791992
2026-01-14 17:14:12.931,-18851580,-32330800,-38466190,-72247120,22714840,-8769531,6171875
2026-01-14 17:14:12.941,21646510,-5532902,-65730200,-30851330,22246090,-78466800,52246100
2026-01-14 17:14:12.951,-20716020,25915740,-33090390,-72247120,21601560,-7626953,50341800
2026-01-14 17:14:12.961,-44412560,25277000,-32503430,-49465540,21132810,-74121100,37231440
2026-01-14 17:14:12.971,-2262363,24636520,-31918200,-7211763,20097660,-66748050,7598877
2026-01-14 17:14:12.981,19423860,23986560,-31325210,-28982570,18544920,-59375,-2084961
2026-01-14 17:14:12.991,18838630,23335730,-30733080,-28480210,17402340,-58935550,-4416504
2026-01-14 17:14:13.001,-25497960,-1087588,-6368449,-71694690,16455080,-5810547,-5541992
2026-01-14 17:14:13.011,17632780,-11799500,-63365120,-27424550,14863280,-58496100,-76123050
2026-01-14 17:14:13.021,17036330,-12714460,-63037120,-26898890,13447270,-49975580,-1046875
2026-01-14 17:14:13.031,16443340,-1360351,-6273502,-26369760,12001950,-43310550,-12783200
2026-01-14 17:14:13.041,-29062850,-1445803,-6243289,-70805630,10253910,-40844730,-13759770
2026-01-14 17:14:13.051,-48166470,-36369560,-41056560,-52237170,9536133,-4711914,-13857420
2026-01-14 17:14:13.061,19348330,19003490,-26796170,-20357370,8691406,-49658200,-13867190
2026-01-14 17:14:13.071,14310450,-16805870,-61604260,-24445770,71484380,-578125,-14375
2026-01-14 17:14:13.081,-48973530,-37245680,-41630560,-52759380,7265625,-6508789,-14277340
2026-01-14 17:14:13.091,-32532780,21079070,-21872140,-69545400,7915039,-7290039,-13603520
2026-01-14 17:14:13.101,17597310,17074320,-25048260,-18621200,7944336,-75683590,-14208980
2026-01-14 17:14:13.111,12597060,-38009580,-42144150,-22861860,77978510,-67871100,-15029300
2026-01-14 17:14:13.121,12241440,-1994779,-6060300,-22526940,7578125,-5527344,-16298830
2026-01-14 17:14:13.131,-34440380,15961700,-24054750,-68570020,7392578,-43164060,-17626950
2026-01-14 17:14:13.141,-34785650,-2090589,-6038718,-68345600,6665039,-31591800,-17441410
2026-01-14 17:14:13.151,11369640,-21311600,-60309510,-21689670,65283200,-21325680,-16425780
2026-01-14 17:14:13.161,-35329450,-21700020,-60266340,-67922650,6533203,-21948240,-14804690
2026-01-14 17:14:13.171,10917340,-2203666,-6024046,-21244280,58740230,-21020510,-13261720
2026-01-14 17:14:13.181,-35743770,-22364660,-60240450,-67508330,52734380,-20153810,-12597660
2026-01-14 17:14:13.191,-35925030,14645370,-22936950,-67309800,4885254,-16418460,-12314450
2026-01-14 17:14:13.201,-36071770,18245550,-19077810,-67111260,39282230,-10559080,-12324220
2026-01-14 17:14:13.211,10200910,-23210570,-60326770,-20510590,27294920,-8105469,-11621090
2026-01-14 17:14:13.221,-36296190,-40069090,-43761720,-66714210,1217041,-48034670,-11572270
2026-01-14 17:14:13.231,-36365240,-23668050,-60456240,-66524310,-4421997,-4196167,-11416020
2026-01-14 17:14:13.241,9828887,-2386657,-6055120,-20105760,-17150880,-5545044,-10800780
2026-01-14 17:14:13.251,-36425670,-24039210,-60654770,-66187680,-2524414,-103271500,-10253910
2026-01-14 17:14:13.261,9680424,-241858,6,-607670,3,-19926220,-33251950,-21533200,-9658203
2026-01-14 17:14:13.271,-49659750,-42423040,-42788840,-52608330,-34887700,-35205080,-9345703
2026-01-14 17:14:13.281,-36339350,-24427630,-61025940,-65738830,-33984380,-42041020,-9345703
2026-01-14 17:14:13.291,14147140,-24522590,-61172680,-15166030,-328125,-40063480,-9477539
2026-01-14 17:14:13.301,-36218510,17938520,-18797880,-65462620,-33032230,-26000980,-10429690
2026-01-14 17:14:13.311,-36114920,17989100,-18850880,-65324510,-32714840,72265620,-12207030
2026-01-14 17:14:13.321,9544902,-24686590,-61699210,-19664680,-30517580,5180664,-12412110
2026-01-14 17:14:13.331,9583747,14288870,-22948170,-19677630,-20507810,84716800,-11230470
2026-01-14 17:14:13.341,14170530,14409720,-23086280,-15177160,-14245610,10341800,-9848633
2026-01-14 17:14:13.351,9715812,18468760,-19337970,-19752720,-11987310,12167970,-91845700
2026-01-14 17:14:13.361,9816802,14732540,-23436720,-19824370,-41900640,12939450,-6513672
2026-01-14 17:14:13.371,-34975540,14906910,-23624890,-64789340,12524410,1140625,-3474121
2026-01-14 17:14:13.381,10020510,-41714290,-45603720,-19965930,21899410,7519531,-24353030
2026-01-14 17:14:13.391,-3448355,15238360,-23983970,-6465986,28515620,24682620,23254400
2026-01-14 17:14:13.401,-34250490,-24039210,-63572280,-64582190,19873050,-27661130,16784670
2026-01-14 17:14:13.411,-47746110,-23961520,-63805330,-50793090,3390503,-6816406,-4220581
2026-01-14 17:14:13.421,-47593330,-23866580,-64021130,-50652390,-82214350,-9135742,-23400880
2026-01-14 17:14:13.431,14883160,-23763000,-64245550,-15862860,-10736080,-10439450,-41210940
2026-01-14 17:14:13.441,10575530,-2364216,-6446999,-20343130,-3390503,-10517580,-46362300
2026-01-14 17:14:13.451,-47135850,16185250,-25005090,-50246700,57128900,-9638672,-47387700
2026-01-14 17:14:13.461,-32886680,-2335729,-6492744,-64202390,20056150,-81152340,-45239260
2026-01-14 17:14:13.471,-32636360,-42080270,-46273540,-64159240,27368160,-6503906,-42626950
2026-01-14 17:14:13.481,-46663700,-23055200,-65367660,-49838420,3503418,-5058594,-47485350
2026-01-14 17:14:13.491,-32127090,-2290844,-6558345,-64081550,3786621,-36694340,-5214844
2026-01-14 17:14:13.501,11292820,-22761730,-65781990,-20886060,34692380,-24572750,-5834961
2026-01-14 17:14:13.511,11427470,17253850,-26111680,-20993100,24414060,-11254880,-6567383
2026-01-14 17:14:13.521,-3135026,17424760,-26286040,-6402976,20837400,-8026123,-6953125
2026-01-14 17:14:13.531,-45903250,21584890,-22471180,-49200540,20092770,8947754,-7084961
2026-01-14 17:14:13.541,11899630,21748880,-22635180,-21384110,1895752,16882320,-73339840
2026-01-14 17:14:13.551,12094700,-2195035,-6666243,-21551570,23864750,18591310,-7138672
2026-01-14 17:14:13.561,12297550,-21786340,-66809160,-21728520,23999020,19421390,-65283200
2026-01-14 17:14:13.571,16758660,-2160507,-6695591,-17698990,21704100,15979000,-703125
2026-01-14 17:14:13.581,-29434010,18406190,-27255370,-64340500,20031740,19946290,-8276367
2026-01-14 17:14:13.591,13037280,18565870,-27406430,-22387110,23425290,2331543,-9584961
2026-01-14 17:14:13.601,13318670,-20992230,-67309800,-22640880,29614260,32543940,-99658200
2026-01-14 17:14:13.611,-28199680,-20750540,-67430640,-64746190,33691410,39672850,-9379883
2026-01-14 17:14:13.621,-27742200,-2049156,-6753421,-64910190,36035160,3955078,-83154300
2026-01-14 17:14:13.631,14294050,-20198120,-67637800,-23529940,36621100,34155270,-75097660
2026-01-14 17:14:13.641,18796940,-1988737,-6774139,-19717590,34350580,2553711,-6352539
2026-01-14 17:14:13.651,15023430,23705770,-24579810,-24198900,28588870,13842770,-5
2026-01-14 17:14:13.661,-43724610,-41135980,-46009420,-47719350,22729490,-23284910,-3869629
2026-01-14 17:14:13.671,15788200,-1883430,-6803487,-24901520,20446780,-16015630,-25585940
2026-01-14 17:14:13.681,16174900,-1846314,-6812982,-25257140,20654300,-29516600,-9472656
2026-01-14 17:14:13.691,16562460,-1807471,-6820750,-25611900,18554690,-4255371,6329346
2026-01-14 17:14:13.701,16957790,-40455800,-45515680,-25976160,1484375,-53222660,22265620
2026-01-14 17:14:13.711,-2310700,-1730651,-6835423,-6678327,15063480,-55126950,35888670
2026-01-14 17:14:13.721,-22597720,-16926710,-68406020,-66981790,1262207,-5488281,48535160
2026-01-14 17:14:13.731,-2211436,21695710,-30197910,-6718894,14050290,-50683590,64501950
2026-01-14 17:14:13.741,18422580,25721780,-26568900,-27325290,1661377,-46557620,7895508
2026-01-14 17:14:13.751,-21199400,22105720,-30547490,-67568750,23876950,-3864746,9086914
2026-01-14 17:14:13.761,-20793710,22292160,-30706320,-67732750,2854004,-25048830,10878910
2026-01-14 17:14:13.771,-2043120,-15295330,-68587280,-6788813,3701172,-73791500,12832030
2026-01-14 17:14:13.781,-41668550,-15062270,-68595910,-46460850,43310550,11810300,14492190
2026-01-14 17:14:13.791,-19809690,-39047970,-44420320,-68147070,4885254,36376950,15820310
2026-01-14 17:14:13.801,-41484690,22765180,-31096470,-46351230,53271480,5751953,165625
2026-01-14 17:14:13.811,20083320,22804890,-31125820,-28858280,55615230,73046870,16699220
2026-01-14 17:14:13.821,20189480,-14587530,-68535500,-28959270,5283203,8911133,16660160
2026-01-14 17:14:13.831,-1919686,22793660,-31102510,-6850096,54345700,10429690,17177730
2026-01-14 17:14:13.841,-19162320,22733250,-31042090,-68552760,5517578,11494140,17529300
2026-01-14 17:14:13.851,-19188210,-14768800,-68354220,-68595920,56347660,11679690,16699220
2026-01-14 17:14:13.861,-19265900,-1494140,-6826790,-68621820,5366211,11015630,14765630
2026-01-14 17:14:13.871,20233510,22333600,-30664890,-29036090,49658200,9609375,125
2026-01-14 17:14:13.881,20147190,-39103210,-44365080,-28967040,49389650,79003900,10947270
2026-01-14 17:14:13.891,24461720,-15744170,-67914020,-24462610,58154300,6435547,10761720
2026-01-14 17:14:13.901,19910680,-16106700,-67775900,-28771960,71240230,4724121,12578130
2026-01-14 17:14:13.911,19734600,21333180,-29749070,-28620040,8574219,25952150,14052730
2026-01-14 17:14:13.921,1953088,20988780,-29437460,-2844395,9086914,11743160,11708980
2026-01-14 17:14:13.931,19290930,-1755681,-6727528,-28235070,8339844,4852295,8623047
2026-01-14 17:14:13.941,19015580,-40158000,-45053890,-27992520,8823242,-39978030,73779300
2026-01-14 17:14:13.951,-21820870,-1873071,-6687821,-68293810,9584961,-9680176,6538086
2026-01-14 17:14:13.961,18410500,19359120,-27959720,-27458220,9091797,-16882320,39331060
2026-01-14 17:14:13.971,-22813510,22804370,-23668570,-68043490,8330078,-22705080,19458010
2026-01-14 17:14:13.981,17716510,18472650,-27154380,-26840190,8276367,-32421880,-2017212
2026-01-14 17:14:13.991,-2389250,-21216660,-65980520,-6774139,9501953,-41088870,-14782720
2026-01-14 17:14:14.001,-24453530,-2183811,-6573882,-67577380,11601560,-47045900,-8343506
2026-01-14 17:14:14.011,-2506641,-41826500,-46130260,-6739614,11152340,-4711914,-41748050
2026-01-14 17:14:14.021,-25705130,16671220,-25503140,-67188950,6933594,-53125,-10517580
2026-01-14 17:14:14.031,15651820,1624137,-2510437,-24986110,12927250,-70166020,-12607420
2026-01-14 17:14:14.041,-27008510,-42443660,-46497100,-66766000,-32202150,-7817383,-15644530
2026-01-14 17:14:14.051,-45178190,15418760,-24338730,-49062440,-7216797,-42163090,-17392580
2026-01-14 17:14:14.061,-45457850,-2521310,-6422827,-49248880,-85058590,-10852050,-16181640
2026-01-14 17:14:14.071,-45740100,14670400,-23636980,-49432740,-8051758,2915039,-15751950
2026-01-14 17:14:14.081,13170210,-26084920,-63736290,-22737560,-10253910,6098633,-18691410
2026-01-14 17:14:14.091,-3064245,14035100,-23029310,-6553166,-10214840,8564453,-18417970
2026-01-14 17:14:14.101,-31419300,13772700,-22773810,-65255460,-6201172,7885742,-12607420
2026-01-14 17:14:14.111,-32239300,-2701712,-6306300,-64953350,-105529800,37939450,-63134770
2026-01-14 17:14:14.121,10843110,-2733651,-6286449,-20610710,18481440,76293940,-18762210
2026-01-14 17:14:14.131,10119770,17044620,-17948190,-19935710,9063721,-10656740,-21594240
2026-01-14 17:14:14.141,9354144,12728270,-21781170,-19216700,-2442627,-13171390,-6660156
2026-01-14 17:14:14.151,-36019980,-28277360,-62407000,-63037120,-15637210,-19384770,-73291020
2026-01-14 17:14:14.161,7726212,16472520,-17380910,-17668180,51660160,-33666990,-76953130
2026-01-14 17:14:14.171,-48699040,12281150,-21382380,-51065850,13359380,-35888670,-81933590
2026-01-14 17:14:14.181,-48939010,-28847050,-62355210,-51119360,234375,-46801760,-7036133
2026-01-14 17:14:14.191,4876896,12094700,-21240820,-14906900,34414060,-7265625,-6015625
2026-01-14 17:14:14.201,3753914,11975590,-21152780,-13802910,40585940,-79785150,-8803711
2026-01-14 17:14:14.211,70667520,11854750,-21066470,-80732050,43789060,-6953125,-11699220
2026-01-14 17:14:14.221,1248138,-29882860,-62614170,-11319580,4625,-71533200,-15371090
2026-01-14 17:14:14.231,-45411240,11659670,-20950800,-55268620,47890620,-90625,-20761720
2026-01-14 17:14:14.241,29757690,-30366230,-62942170,-39813600,50039060,-11796880,-25878910
2026-01-14 17:14:14.251,-30400760,-30538860,-63166590,-69933830,49609380,-10302730,-32949220
2026-01-14 17:14:14.261,35568540,-45425920,-48693870,-45569200,56289060,-7216797,-35253900
2026-01-14 17:14:14.271,-62303430,11620820,-21075960,-37271570,57617190,45166020,-40117190
2026-01-14 17:14:14.281,-34817580,-3114310,-6382259,24913600,45976560,9472656,-4578125
2026-01-14 17:14:14.291,-53965230,-31367500,-63977960,-44453130,275,15849610,-49101560
2026-01-14 17:14:14.301,-114110700,11478400,-21045750,16400180,7373047,17880860,-5203125
2026-01-14 17:14:14.311,-56727360,11447330,-21042290,-40189080,-11123050,18134770,-47265620
2026-01-14 17:14:14.321,-58013480,11464590,-21076820,-38074320,-2046875,16728520,-39121100
2026-01-14 17:14:14.331,-16369970,-31755930,-64452710,6849232,-23222660,17119140,-34003900
2026-01-14 17:14:14.341,-17896050,-31643720,-64564920,8465081,-31171880,22226560,-26972660
2026-01-14 17:14:14.351,-61379840,11792590,-21404820,-32032150,-403125,23984380,-17011720
2026-01-14 17:14:14.361,-20697900,-31203510,-64763460,11446460,-39394530,21425780,-10029300
2026-01-14 17:14:14.371,-63201120,-30849600,-64892920,-28415480,-30585940,20820310,-44506840
2026-01-14 17:14:14.381,-63995240,-3044391,-6503964,-26689140,-25273440,21425780,16479490
2026-01-14 17:14:14.391,-24330960,-29977800,-65195040,15357470,-19140620,24433590,11171880
2026-01-14 17:14:14.401,-25399570,13177110,-22661600,16515850,-16787110,24375,16347660
2026-01-14 17:14:14.411,-65980520,-28985160,-65479880,-21976240,-12929690,1890625,21621090
2026-01-14 17:14:14.421,-66515680,13888360,-23296880,-20560650,-7783203,13476560,23144530
2026-01-14 17:14:14.431,-6699907,-2788031,-6579062,-1919685,-11553960,13427730,28007810
2026-01-14 17:14:14.441,-67447900,14637590,-23963250,-17884830,25219730,15722660,35566410
2026-01-14 17:14:14.451,-29825890,14975950,-24263630,21377210,47680660,15,403125
2026-01-14 17:14:14.461,-30537140,15278060,-24531220,22167860,59716800,11669920,42304690
2026-01-14 17:14:14.471,-31181060,-25946810,-66256730,22887750,9584961,52490230,39453120
2026-01-14 17:14:14.481,-31773200,15800280,-24993010,23555840,15068360,15271000,33789060
2026-01-14 17:14:14.491,-32296270,-2524766,-6647252,24154880,21152340,-2824707,30898440
2026-01-14 17:14:14.501,-43185130,20378950,-21294770,-37434710,26171880,-36914060,26855470
2026-01-14 17:14:14.511,-33224180,-24686590,-66809160,25246780,28203120,-5366211,20605470
2026-01-14 17:14:14.521,-33621240,16729910,-25876030,25730160,2515625,-87402340,16689450
2026-01-14 17:14:14.531,-6905340,-2416869,-6730980,-892515,1,20839840,-12324220,12246090
2026-01-14 17:14:14.541,-41546840,-23901110,-67663700,-35464960,21328120,-12558590,12353520
2026-01-14 17:14:14.551,-41058290,17650910,-26819470,-34917710,23789060,-1203125,14375
2026-01-14 17:14:14.561,-377536,8,18038470,-27226030,-371347,6,26660160,-10869140,19755860
2026-01-14 17:14:14.571,-34787380,18456240,-27671420,27412470,32304690,-7973633,2390625
2026-01-14 17:14:14.581,-6744792,18903370,-28156520,-505815,5,3578125,-55029300,29902340
2026-01-14 17:14:14.591,-66817790,19370340,-28673560,-4376257,33164060,-8569336,34335940
2026-01-14 17:14:14.601,-38012170,-2227834,-7135804,-31783550,32578120,-98779300,35449220
2026-01-14 17:14:14.611,-34404130,-2207121,-7225574,27571290,41328120,-98046870,39101560
2026-01-14 17:14:14.621,-64116080,-21889930,-73265650,-2624031,4875,-7006836,45
2026-01-14 17:14:14.631,-33651450,-21725920,-74361870,27150070,60820310,-4255371,55234380
2026-01-14 17:14:14.641,-30267400,22141100,-31858640,29636430,73632820,15429690,73007810
2026-01-14 17:14:14.651,-32446460,22777260,-32620820,26352500,8765625,359375,89609380
2026-01-14 17:14:14.661,-29002340,-47039170,-52725720,28415560,6890625,14472660,109140600
2026-01-14 17:14:14.671,-55950520,-21432450,-79834360,-379796,7,80390620,10087890,1159375
2026-01-14 17:14:14.681,-29577290,-2140655,-8141395,-24232560,79023440,11660160,120625
2026-01-14 17:14:14.691,-51039100,25590330,-36039830,-60418,65,56640620,85546870,121875
2026-01-14 17:14:14.701,-26466440,-21458340,-84763040,21646510,178125,42211910,11234380
2026-01-14 17:14:14.711,-24856640,-21432450,-86463480,-20373340,-34746100,-10966800,83984380
2026-01-14 17:14:14.721,-41742780,-21190760,-88155290,-604218,6,-9328125,-26230470,40117190
2026-01-14 17:14:14.731,-38350530,29166430,-40197710,-1320645,-14015630,-38984380,-22050780
2026-01-14 17:14:14.741,-34958280,-1904147,-9151299,-2365078,-18390620,-24003910,-9953125
2026-01-14 17:14:14.751,-31600560,32702830,-43687490,-3910146,-21109380,2758789,-2071875
2026-01-14 17:14:14.761,-28156520,35106750,-45927410,-5783220,-1990625,34355470,-321875
2026-01-14 17:14:14.771,-24600280,38008720,-48549720,-7630399,-133203100,96875,-370625
2026-01-14 17:14:14.781,-74379140,-50561110,-50653910,43874800,-20605470,1734375,-334375
2026-01-14 17:14:14.791,-49278230,189896,-9755516,20293070,69140620,2165625,-230625
2026-01-14 17:14:14.801,-23642160,8320932,-97434340,-4652472,-32832030,-696875,9703125
2026-01-14 17:14:14.811,-2235604,1643472,-9689917,-22433720,3690625,-2515625,1420
2026-01-14 17:14:14.821,-23763000,48160430,-57232320,-457476,7,-1096875,18203120,5321875
2026-01-14 17:14:14.831,-18126520,-429857,-9745160,-10962230,-459375,616875,-1165625
2026-01-14 17:14:14.841,-44435860,-792388,-9702001,13741630,-3009375,-3728125,-1375
2026-01-14 17:14:14.851,-50288140,-294341,-9737390,20318960,-147734400,8640625,-145546900
2026-01-14 17:14:14.861,-41621070,43930040,-53607880,38480870,-44804690,7734375,24921880
2026-01-14 17:14:14.871,-64582190,-47181680,-48163790,31402030,-102265600,47304690,-103828100
2026-01-14 17:14:14.881,-23219200,365120,5,-9623452,-12326030,-815625,22558590,-66601560
2026-01-14 17:14:14.891,-25014590,646513,-9554400,-12930250,18486330,-27978520,1753125
2026-01-14 17:14:14.901,-8707634,845903,5,-9481031,4671462,63515620,-3109375,19375
2026-01-14 17:14:14.911,-75673020,968471,-9410248,71410700,74179690,-53710940,14125
2026-01-14 17:14:14.921,-30262650,47724530,-56045460,-14242260,9265625,-59375,141953100
2026-01-14 17:14:14.931,-109933000,1020261,-9296308,63736290,1028125,-6390625,140
2026-01-14 17:14:14.941,-11792590,954663,-9251428,7024456,89140620,-58945310,13203130
2026-01-14 17:14:14.951,-34604380,-36798550,-46859630,-14337210,76953130,-51796880,11234380
2026-01-14 17:14:14.961,-13359240,706933,5,-9179786,8358050,68203130,-45117190,8640625
2026-01-14 17:14:14.971,-37029880,543796,-9149573,-13862470,55390620,-35859380,64609380
2026-01-14 17:14:14.981,-38117480,365120,-9117635,-13534470,42265620,-21757810,42421880
2026-01-14 17:14:14.991,-39187800,186445,-9082245,-13240990,17080080,-13076170,80322260
2026-01-14 17:14:15.001,-16281070,258952,-90425420,10960500,22485350,-13720700,-10751950
2026-01-14 17:14:15.011,-41198980,39877470,-48994250,-12731720,13842770,-8779297,-15917970
2026-01-14 17:14:15.021,-4215710,3894352,-4815007,-1249866,3947754,-38598630,38012700
2026-01-14 17:14:15.031,-43072060,38020800,-47311940,-12274240,-114746100,-20666500,40130620
2026-01-14 17:14:15.041,-43926590,-42708660,-51065850,-12041190,-1015625,31298830,2319336
2026-01-14 17:14:15.051,-44746600,-640470,-8821569,-11790870,-24157720,48583980,14111330
2026-01-14 17:14:15.061,-19859760,-43724610,-51724440,14149040,-7939453,9902344,-33691410
2026-01-14 17:14:15.071,-30614830,-9011468,-87197170,-27113810,-21191410,5493164,-70166020
2026-01-14 17:14:15.081,-4712895,-1019401,-8667064,-1125571,-22265620,-115356400,-6801758
2026-01-14 17:14:15.091,-47828110,-4496412,-5245294,-11229810,-10585940,-70739740,46142580
2026-01-14 17:14:15.101,-31703280,-45307660,-52644580,-27976120,70617680,-6008148,12607420
2026-01-14 17:14:15.111,-49114230,-45615810,-52802540,-11221180,-32348630,14379880,11455080
2026-01-14 17:14:15.121,-49752970,-1419047,-8460765,-11324760,-10087890,-9320068,7133789
2026-01-14 17:14:15.131,-50408980,-1503637,-8405522,-11497390,-17050780,-22753910,47631840
2026-01-14 17:14:15.141,-51073620,-15830500,-83468300,-11747710,-25488280,-19641110,25463870
2026-01-14 17:14:15.151,-23028440,-1652104,-8286407,16642730,-36191410,-24536130,7006836
2026-01-14 17:14:15.161,-52454690,-1709934,-8223394,-12576350,-44296880,-48632810,48583980
2026-01-14 17:14:15.171,-19989580,-17565450,-81612480,19923290,-43046880,-6455078,30444340
2026-01-14 17:14:15.181,-23285670,-49152640,-49783620,16523610,-38046880,-4663086,6044922
2026-01-14 17:14:15.191,-5425874,-18204200,-80455840,-1470838,-34375,-33740230,10605470
2026-01-14 17:14:15.201,-37130880,25820790,-35654000,-33217270,-3734375,-50231940,14824220
2026-01-14 17:14:15.211,-22874800,-1857537,-7934234,15691520,-41992190,93444820,15595700
2026-01-14 17:14:15.221,-55613880,25210530,-34952240,-17807140,-43085940,3461914,14970700
2026-01-14 17:14:15.231,-22175640,-48099490,-48696110,14664350,-4109375,6611328,15126950
2026-01-14 17:14:15.241,-56295780,-18428630,-77659180,-20612440,-38671880,8930664,14707030
2026-01-14 17:14:15.251,-56554740,28966350,-29918940,-22217930,-35234380,11064450,12480470
2026-01-14 17:14:15.261,-56761900,-17850300,-76493900,-23927010,-29570310,13798830,9394531
2026-01-14 17:14:15.271,-19692300,24594230,-33928520,11433520,-20761720,17011720,6723633
2026-01-14 17:14:15.281,-18843810,-43228290,-49078840,10400300,-8642578,203125,64453120
2026-01-14 17:14:15.291,-14025780,-16339760,-74931570,13163990,38085940,24824220,6826172
2026-01-14 17:14:15.301,-16872340,24861810,-33885360,8090471,10234380,278125,61328120
2026-01-14 17:14:15.311,-15759710,-15114060,-74068400,6820749,15830080,31425780,20788570
2026-01-14 17:14:15.321,-55475780,-14423530,-73636810,-35433020,23984380,33242190,-15075680
2026-01-14 17:14:15.331,-91538900,25389200,-34083030,82303020,36894530,20097660,-12255860
2026-01-14 17:14:15.341,-54198280,-13051090,-72799540,-39455380,46015620,11972660,-20390620
2026-01-14 17:14:15.351,-5344735,25787990,-34271200,-4129392,52578120,8408203,-28339840
2026-01-14 17:14:15.361,-9564762,-11739080,-72143540,-864,1798,5640625,61376950,-35683590
2026-01-14 17:14:15.371,-82656910,26280000,-34573310,-13776160,61171880,2915039,-36679690
2026-01-14 17:14:15.381,-25485020,26560530,-34758890,15774390,68046870,-12310790,-30019530
2026-01-14 17:14:15.391,-11531060,26784950,-34897000,1761726,77695310,-8696289,-22050780
2026-01-14 17:14:15.401,2257182,26905790,-34948780,-12071400,8421875,-19453120,-19873050
2026-01-14 17:14:15.411,15707920,-3995097,-4001286,-25551480,88359380,-30644530,-15449220
2026-01-14 17:14:15.421,-15631960,26910110,-34875420,-82959020,8734375,-21289060,-13691410
2026-01-14 17:14:15.431,-172635,5,26840190,-34772700,-9702001,83125,-13164060,-9628906
2026-01-14 17:14:15.441,56950060,-8847462,-70218670,-66828150,7828125,-61279300,-73913580
2026-01-14 17:14:15.451,26948090,26595920,-34481820,-125659900,728125,-20043940,13662110
2026-01-14 17:14:15.461,-40180450,-9071886,-69683500,-58410540,68164060,-1265625,3078125
2026-01-14 17:14:15.471,5617494,-938262,-6933824,-15461050,54179690,-28105470,50078120
2026-01-14 17:14:15.481,-37271580,-9771054,-69001600,-60974150,31503910,-33945310,66132810
2026-01-14 17:14:15.491,-47708120,-3656807,-4241171,-50295900,49145510,-35253900,73710940
2026-01-14 17:14:15.501,-35113660,24860950,-32798630,-62596900,-21894530,-23808590,70742190
2026-01-14 17:14:15.511,-3439726,-11592340,-68440540,-6295081,-475,-4338379,58007810
2026-01-14 17:14:15.521,9777960,23908010,-32007980,-19466150,-63085940,9423828,51367190
2026-01-14 17:14:15.531,9992027,-1371572,-6849234,-19631880,-73320310,22148440,54179690
2026-01-14 17:14:15.541,-33137000,-1508814,-6841464,-62899010,-89921870,37207030,4375
2026-01-14 17:14:15.551,-33033420,-16460600,-68181590,-62881740,-115078100,4640625,2078125
2026-01-14 17:14:15.561,10183650,20703940,-29256200,-19785520,-123125,47109380,14978030
2026-01-14 17:14:15.571,-32990260,-18998310,-67214850,-63218380,-124375,56171880,-16015630
2026-01-14 17:14:15.581,-3282626,-2009454,-6661926,-6358955,-99375,61875,-25996090
2026-01-14 17:14:15.591,10928560,18072140,-26778040,-20594310,-70195310,48164060,-33261720
2026-01-14 17:14:15.601,-3224796,-22045300,-65272720,-6463399,-41171880,38496100,-35996100
2026-01-14 17:14:15.611,-3189407,-22822150,-64599450,-6521231,-13486330,30449220,-34570310
2026-01-14 17:14:15.621,-31583300,19778360,-20652400,-65799260,6557617,11884770,-31464840
2026-01-14 17:14:15.631,-3130709,15246130,-23976200,-6636893,14228520,90234380,-41210940
2026-01-14 17:14:15.641,-3105679,-41630560,-45445760,-6693003,35703120,-5698242,-39003900
2026-01-14 17:14:15.651,13322120,-24893750,-62009950,-23155330,56523440,-25585940,-31542970
2026-01-14 17:14:15.661,13462820,-25264910,-61517940,-23325380,57382810,-22519530,-39824220
2026-01-14 17:14:15.671,13460230,13397220,-22061700,-23362490,5984375,-18798830,-54179690
2026-01-14 17:14:15.681,13395490,13060590,-21707800,-23340910,50585940,-17587890,-6921875
2026-01-14 17:14:15.691,-49785860,-25989960,-60223190,-50151670,4390625,-22832030,-71679690
2026-01-14 17:14:15.701,-32014880,-26033130,-59886550,-68371500,37988280,-24824220,-64335940
2026-01-14 17:14:15.711,-3230837,12559950,-21120840,-6847507,23652340,-209375,-59414060
2026-01-14 17:14:15.721,12975130,-25756920,-59472240,-23088000,11025390,-15634770,-53398440
2026-01-14 17:14:15.731,-32644990,12765390,-21243410,-68742660,105651900,-11630860,-45742190
2026-01-14 17:14:15.741,13072670,13050230,-21476470,-23232150,-10095220,-77441410,-35175780
2026-01-14 17:14:15.751,13222860,13415350,-21784620,-23392700,-61950680,-29345700,-24003910
2026-01-14 17:14:15.761,-3236015,-2354721,-5954129,-6940730,22079470,-16589360,-14267580
2026-01-14 17:14:15.771,-32152990,1431221,-2256232,-69631710,14086910,-25097660,-89941410
2026-01-14 17:14:15.781,13884910,-22045300,-59852030,-24059930,48828120,28100590,-9033203
2026-01-14 17:14:15.791,-31609200,-40435340,-40823240,-70071940,-8081055,31469730,-10244140
2026-01-14 17:14:15.801,14417490,-2037937,-6020594,-24580420,-16796880,15783690,-12558590
2026-01-14 17:14:15.811,14706650,-19490320,-60387200,-24860950,-2330017,17956540,-14130860
2026-01-14 17:14:15.821,15006170,17051870,-24967120,-25148380,18933100,16809080,-14091800
2026-01-14 17:14:15.831,-30271290,17657820,-25500550,-70995520,5102539,-1525116,-11552730
2026-01-14 17:14:15.841,-29917390,18279300,-26052980,-71176790,8725586,-23840330,-8623047
2026-01-14 17:14:15.851,-29546220,18918040,-26622670,-71323520,10947270,-3474121,-8359375
2026-01-14 17:14:15.861,16100660,-14803320,-61587000,-26160010,11972660,-46655270,-6953125
2026-01-14 17:14:15.871,16350120,-35462370,-40271940,-26376670,14951170,-6118164,-48095700
2026-01-14 17:14:15.881,16593530,2433684,-2508814,-26582100,17626950,-7055664,-17871090
2026-01-14 17:14:15.891,16822270,21675860,-29130170,-26767680,19648440,-6899414,9246826
2026-01-14 17:14:15.901,-2750054,-10893170,-63097540,-7147027,21621090,-61816410,3894043
2026-01-14 17:14:15.911,1723486,-991779,3,-6353776,-2708016,22480470,-61035160,6489258
2026-01-14 17:14:15.921,17418720,-8951046,-64003860,-27207040,23125,-47216800,8027344
2026-01-14 17:14:15.931,17586170,-3342960,-3907646,-27315800,21992190,-41723630,98828130
2026-01-14 17:14:15.941,-46081060,-711247,8,-6497922,-50593700,19667970,-3581543,11640630
2026-01-14 17:14:15.951,-25359860,29274070,-29991010,-70676140,1796875,-31201170,12490230
2026-01-14 17:14:15.961,-45399150,-3264238,-3870700,-49946320,17333980,-21179200,12724610
2026-01-14 17:14:15.971,-2453125,-4505734,-66515680,-7012373,15400390,-12683110,12900390
2026-01-14 17:14:15.981,-24125530,31678240,-31678250,-69821620,13779300,-68115230,12919920
2026-01-14 17:14:15.991,18239590,-2848454,-67551480,-27560070,10126950,1282959,13632810
2026-01-14 17:14:16.001,-23288260,-31744710,-38344480,-69191500,6088867,20581060,14492190
2026-01-14 17:14:16.011,18424310,30140080,-37117930,-27599780,29101560,1842041,14130860
2026-01-14 17:14:16.021,18522710,33894430,-34589280,-27622220,-11810300,1105957,13486330
2026-01-14 17:14:16.031,18621110,31395130,-38314280,-27644660,-32055660,40664670,12109380
2026-01-14 17:14:16.041,-4240054,1009904,-69907940,-4704090,-54589840,-5670166,12548830
2026-01-14 17:14:16.051,22801950,-30723580,-37932760,-23688250,-62353520,-1027832,13769530
2026-01-14 17:14:16.061,18889550,-30599290,-37918940,-27669700,-52197260,70266720,17353520
2026-01-14 17:14:16.071,-20172230,-30494840,-37919810,-66783260,-5209961,-11262890,19472660
2026-01-14 17:14:16.081,19034570,34217680,-41050520,-27645530,-76904300,-184021,17460940
2026-01-14 17:14:16.091,19103620,4005096,-72264380,-27628260,-87060540,13830570,12421880
2026-01-14 17:14:16.101,-39833460,35244860,-42060420,-44515280,-91552740,45117190,73535150
2026-01-14 17:14:16.111,-18230100,-3010121,-3793361,-65186410,-9897461,7734375,6254883
2026-01-14 17:14:16.121,-17677670,-29971760,-37907720,-64806610,-10039060,98583980,6459961
2026-01-14 17:14:16.131,23277730,633566,-7402525,-24092900,-10029300,10341800,9506836
2026-01-14 17:14:16.141,19795880,-29673970,-37808460,-27850960,-10185550,9580078,11201170
2026-01-14 17:14:16.151,-15813230,-29515150,-37742860,-63770810,-9897461,89208980,11875
2026-01-14 17:14:16.161,20211920,8079250,-75112830,-28073660,-103125,76464850,10595700
2026-01-14 17:14:16.171,-14518480,-29192320,-37599570,-63149330,-9921875,6845703,90234380
2026-01-14 17:14:16.181,-13862480,9184108,-75734310,-62873120,-10136720,5527344,74560540
2026-01-14 17:14:16.191,-13197830,-28850500,-37423480,-62605530,-10126950,39331060,6542969
2026-01-14 17:14:16.201,-125248,9,10271690,-76234940,-623638,1,-10458980,1529541,57177740
2026-01-14 17:14:16.211,-11851290,1080688,-7645936,-62139420,-11347660,-53100580,43798830
2026-01-14 17:14:16.221,-1116939,4072165,-4725237,-6194090,-94970700,-31225590,36035160
2026-01-14 17:14:16.231,22024580,-28038270,-36906450,-29247570,-7607422,-5419922,43432620
2026-01-14 17:14:16.241,22344810,12377820,-76960010,-29479760,-7128906,-7109375,53222660
2026-01-14 17:14:16.251,-9063260,1287849,-7708085,-61440260,-6381836,-81152340,5283203
2026-01-14 17:14:16.261,-8346834,-27392610,-36447240,-61293520,-44750980,-77978510,55566410
2026-01-14 17:14:16.271,23344360,13819310,-77279380,-30223810,-32104490,-75,60253900
2026-01-14 17:14:16.281,-6862182,-26958440,-36121830,-61069100,-20227050,-7138672,66796880
2026-01-14 17:14:16.291,-6093964,42933090,-49201410,-60974140,-105407700,-6567383,7324219
2026-01-14 17:14:16.301,-5308486,-26520820,-35782600,-60879200,446167,-66064450,7558594
2026-01-14 17:14:16.311,2488249,15580170,-77486540,-3141325,16430660,-5488281,76171870
2026-01-14 17:14:16.321,-3668462,-26079740,-35429570,-60723830,9277344,-31835940,7373047
2026-01-14 17:14:16.331,-2831192,-25844090,-35233630,-60680670,-20004270,-17700200,62841800
2026-01-14 17:14:16.341,-1976654,168147,7,-774606,4,-60637510,8569336,-121521000,45288090
2026-01-14 17:14:16.351,-27883760,1723747,-7741748,-33832710,-674057,-74646000,4194336
2026-01-14 17:14:16.361,-27400390,1762590,-7733979,-33435650,-41870120,-22155760,71533200
2026-01-14 17:14:16.371,-26924780,1799706,-7724484,-33048090,-51708980,-44140620,9916992
2026-01-14 17:14:16.381,1493276,-24634800,-34181430,-60620250,-6503906,-37939450,10332030
2026-01-14 17:14:16.391,2339180,18618520,-77020430,-60654770,-7519531,-1328125,67089840
2026-01-14 17:14:16.401,-25573930,-28523630,-29481220,-31964820,-60009770,24856570,21948240
2026-01-14 17:14:16.411,4039622,1915371,-7672696,-60784250,-46044920,10247800,-11425780
2026-01-14 17:14:16.421,4902792,45136760,-50847470,-60853300,-4267578,-7972717,-23522950
2026-01-14 17:14:16.431,-24234290,-23508360,-33115420,-30904850,-4230957,-21862790,-29345700
2026-01-14 17:14:16.441,6663644,20025490,-76131370,-61008670,-47436520,-49536130,-34521480
2026-01-14 17:14:16.451,7552714,-27304140,-28266570,-61086360,-4807129,-6665039,-39575200
2026-01-14 17:14:16.461,8433148,-22683170,-32317850,-61138150,-53515620,-66015620,-5517578
2026-01-14 17:14:16.471,32666570,21026760,-75423580,-37854210,-6386719,-58203120,-61816410
2026-01-14 17:14:16.481,10211270,21423820,-75181880,-61224460,-7211914,-4572754,-88623050
2026-01-14 17:14:16.491,11108970,-21684490,-31365780,-61207200,-7910156,13085940,-97998050
2026-01-14 17:14:16.501,11998030,-21292610,-30998070,-61181310,-10195310,42504880,-9042969
2026-01-14 17:14:16.511,-20407010,-20873110,-30606190,-27809530,-14833980,4580078,-6508789
2026-01-14 17:14:16.521,-19908960,2343501,-7413744,-27392620,-20703120,40942380,-18249510
2026-01-14 17:14:16.531,14535740,2386661,-7387851,-61025940,-24394530,3413086,-2841797
2026-01-14 17:14:16.541,-19105350,46453080,-51395580,-26728840,-24785160,18579100,-7373047
2026-01-14 17:14:16.551,36126150,-19594760,-29381360,-40661230,-24375,22827150,-8652344
2026-01-14 17:14:16.561,1609807,2454849,-7321387,-6117268,-22695310,14831540,-9667969
2026-01-14 17:14:16.571,-18612480,24565740,-73041220,-26375810,-18964840,28051760,-128125
2026-01-14 17:14:16.581,1642607,-19298700,-29038680,-6150069,-13027340,44628900,-15732420
2026-01-14 17:14:16.591,36802010,-19267620,-28983440,-41331910,-69091800,49267580,-17304690
2026-01-14 17:14:16.601,16331130,-19244320,-28937690,-61958160,-21044920,5229492,-16464840
2026-01-14 17:14:16.611,-19064780,2429817,-7239384,-26907520,18664550,58496100,-18320310
2026-01-14 17:14:16.621,-22757320,2429817,-7222121,-23542980,40844730,5341797,-17480470
2026-01-14 17:14:16.631,-19362570,-19012120,-28651980,-27231210,56933590,4182129,-16894530
2026-01-14 17:14:16.641,16020390,-18859340,-28494020,-62804060,61816410,37890620,-13798830
2026-01-14 17:14:16.651,-19520530,24677960,-71651520,-27418510,40893560,1060791,-7915039
2026-01-14 17:14:16.661,37206830,-18488180,-28122860,-41911100,14660650,-3564453,-43310550
2026-01-14 17:14:16.671,37264660,2508366,-7131491,-41974100,-7098389,-43676760,-24166110
2026-01-14 17:14:16.681,-19606850,25264920,-71185420,-27539360,-4140625,-6064453,5576172
2026-01-14 17:14:16.691,1607215,25403020,-71099100,-6328743,-66064450,-80078130,10
2026-01-14 17:14:16.701,-23280150,2546345,-7105593,-24073220,-50097660,-7553711,11904300
2026-01-14 17:14:16.711,-19812280,-17978050,-27631710,-27730980,-23254400,-5566406,12705080
2026-01-14 17:14:16.721,15614700,25377130,-71124990,-63382380,8712769,-3642578,14208980
2026-01-14 17:14:16.731,36976370,-18162770,-27809530,-41779030,1697998,-21447750,12197270
2026-01-14 17:14:16.741,1508815,-18304330,-27944180,-6340829,37182620,-7269287,10595700
2026-01-14 17:14:16.751,-20413910,24885120,-71444370,-28234210,4194336,-17028810,90234380
2026-01-14 17:14:16.761,14449420,-18640960,-28263550,-63442810,5439453,-14453130,5180664
2026-01-14 17:14:16.771,1413004,-18807560,-28424970,-6343419,7451172,4171753,12963870
2026-01-14 17:14:16.781,-20943900,24272270,-71815530,-28670970,77441410,-21826170,46691900
2026-01-14 17:14:16.791,-21087180,24099640,-71936370,-28786630,87402340,-14648440,-32543940
2026-01-14 17:14:16.801,-21211480,-23550570,-24510590,-28886760,9345703,-1361084,-4765625
2026-01-14 17:14:16.811,13146040,23857950,-72109010,-63416910,89746100,-25024410,-6381836
2026-01-14 17:14:16.821,-21375480,23797530,-72169430,-29016240,81884770,-19567870,-94433590
2026-01-14 17:14:16.831,-21416050,-23731840,-24691850,-29044720,5986328,-21411130,-6640625
2026-01-14 17:14:16.841,-21464390,-19436800,-29038680,-29082700,28637700,-6503906,-34887700
2026-01-14 17:14:16.851,35509850,-19452340,-29057670,-40569740,19836430,-57421880,-43188480
2026-01-14 17:14:16.861,1267130,2375437,-7231617,-6332196,18835450,-50927740,-4140625
2026-01-14 17:14:16.871,35418340,23745740,-72342060,-40488590,11907960,-55029300,-38476560
2026-01-14 17:14:16.881,-21586090,-19509310,-29121540,-29168160,7348633,-49072260,-38891600
2026-01-14 17:14:16.891,12472770,2373713,-7240249,-63261540,24841310,-36108400,-4260254
2026-01-14 17:14:16.901,-21619760,-19541250,-29158660,-29186280,31158450,-20373540,-3635254
2026-01-14 17:14:16.911,12403710,23745740,-72462900,-63209750,6732178,-41503900,-45141600
2026-01-14 17:14:16.921,12386450,23780270,-72480170,-63175230,25939940,15661620,-4650879
2026-01-14 17:14:16.931,-21599900,2382344,-7248880,-29154340,-17016600,20300290,-39379880
2026-01-14 17:14:16.941,1242096,48166330,-48214950,-6312342,-3930664,1953125,-18896480
2026-01-14 17:14:16.951,12464140,2392703,-7248881,-63097540,-49316410,22949220,-18554690
2026-01-14 17:14:16.961,-21494600,-19440250,-29087010,-29052490,-5444336,2697754,-28515620
2026-01-14 17:14:16.971,1255907,-19411770,-29063710,-6303713,-64501950,20605470,-34448240
2026-01-14 17:14:16.981,12610870,2406514,-7250607,-63002590,-80078130,11846920,-2734375
2026-01-14 17:14:16.991,12654030,45880800,-50724900,-62976690,-8876953,-34576420,-3659668
2026-01-14 17:14:17.001,12688560,24082370,-72540590,-62942160,-97509770,-11376950,-44628900
2026-01-14 17:14:17.011,35306130,45886840,-50736120,-40324590,-11025390,-24804690,-43823240
2026-01-14 17:14:17.021,12731720,24021950,-72601010,-62881740,-11923830,-3461914,-5058594
2026-01-14 17:14:17.031,-21269310,23961530,-72644170,-28828930,-1171875,-3310547,-5654297
2026-01-14 17:14:17.041,-21263270,-19580950,-29239800,-28817710,-11152340,-28173830,-76123050
2026-01-14 17:14:17.051,1270581,-19668130,-29325250,-6276955,-10927730,-19274900,-87646480
2026-01-14 17:14:17.061,-21252910,-19756170,-29409840,-28793540,-11035160,-1751709,-8515625
2026-01-14 17:14:17.071,12645400,45782400,-50719720,-62691850,-12226560,-20019530,-7163086
2026-01-14 17:14:17.081,1258496,47968550,-48464520,-6264867,-13193360,-20837400,-60546880
2026-01-14 17:14:17.091,-25011550,-20118700,-29755100,-25086690,-12451170,-21960450,-6455078
2026-01-14 17:14:17.101,12420980,-20268890,-29898390,-62571010,-11904300,-21838380,-7470703
2026-01-14 17:14:17.111,-21359080,45580420,-50628220,-28842740,-12275390,-30737300,-7680664
2026-01-14 17:14:17.121,-21410000,4552001,-5060232,-28878130,-12753910,-49365230,-6923828
2026-01-14 17:14:17.131,-21471290,-25130170,-26090190,-28920430,-12451170,-6660156,-5942383
2026-01-14 17:14:17.141,11885810,45349960,-50513420,-62398370,-11660160,-6660156,-66552740
2026-01-14 17:14:17.151,34497350,-21255490,-30828030,-39562420,-9946289,-5620117,-8457031
2026-01-14 17:14:17.161,11506020,-21486820,-31045540,-62312060,-8203125,-47216800,-95947260
2026-01-14 17:14:17.171,-21802750,2124256,-7422376,-29158660,-7397461,-32617190,-96777340
2026-01-14 17:14:17.181,1108304,20949070,-74379140,-6219984,-7319336,-27270510,-85498050
2026-01-14 17:14:17.191,1086726,-22179950,-31698960,-6215670,-7080078,-32910160,-7402344
2026-01-14 17:14:17.201,-22102270,44810470,-50241520,-29377040,-7084961,-27172850,-7050781
2026-01-14 17:14:17.211,-22211030,-22634840,-32124500,-29458180,-66308590,-2770996,-67285150
2026-01-14 17:14:17.221,10168110,19775170,-74983350,-62027200,-6303711,-21203610,-60595700
2026-01-14 17:14:17.231,-22437180,1947307,-7513008,-29629090,-6040039,-32440190,-5253906
2026-01-14 17:14:17.241,-22546800,-23321920,-32766700,-29709360,-53808590,11206060,-47753900
2026-01-14 17:14:17.251,-22664190,18903370,-75389040,-29799130,-5185547,32861330,-3605957
2026-01-14 17:14:17.261,9209998,-23733650,-33149080,-61880480,-5600586,49438480,-18408200
2026-01-14 17:14:17.271,-22905880,18376840,-75622100,-29989030,-67041020,54345700,12890630
2026-01-14 17:14:17.281,8709360,-24111720,-33496080,-61845940,-7788086,36083980,3413086
2026-01-14 17:14:17.291,8424516,1785033,-7582063,-61854580,-8876953,1628418,46533200
2026-01-14 17:14:17.301,8131038,1756548,-7589832,-61871840,-9038086,-7562256,47021480
2026-01-14 17:14:17.311,7794396,17263350,-75975990,-61897730,-8154297,-33032230,47753900
2026-01-14 17:14:17.321,-23781130,-24904970,-34204740,-30719270,-7324219,-51220700,43408200
2026-01-14 17:14:17.331,7069336,16607350,-76114100,-62001320,-5439453,-59228520,39257810
2026-01-14 17:14:17.341,31611780,-25329650,-34574170,-37148140,-3557129,-5917969,37402340
2026-01-14 17:14:17.351,-24483750,1592545,-7622630,-31328660,-25976560,-5239258,42041020
2026-01-14 17:14:17.361,5938588,15580180,-76260840,-62199840,-15466310,-39648440,5498047
2026-01-14 17:14:17.371,5558798,1523494,-7629538,-62286160,-12915040,-32421880,6484375
2026-01-14 17:14:17.381,5178998,14889640,-76329900,-62372480,-99853520,-234375,71191410
2026-01-14 17:14:17.391,30745160,-26349050,-35436480,-36512850,-15344240,-1940918,86279300
2026-01-14 17:14:17.401,-25739650,1418186,-7634715,-32437830,-21850590,-19299320,10615230
2026-01-14 17:14:17.411,3996464,-26756460,-35771380,-62691850,-30981440,-24206540,11523440
2026-01-14 17:14:17.421,3573514,1340502,-7632991,-62804060,-32348630,-2163086,11923830
2026-01-14 17:14:17.431,3133294,12973410,-76312630,-62950800,-34228520,-21130370,11982420
2026-01-14 17:14:17.441,-26913560,12533190,-76286740,-33490900,-30395510,-9790039,12285160
2026-01-14 17:14:17.451,2218338,-27667970,-36499900,-63244280,-24768070,-32806400,11826170
2026-01-14 17:14:17.461,1743596,40662100,-47122040,-63408280,-17883300,16052250,11455080
2026-01-14 17:14:17.471,-27918290,-28153930,-36877100,-34402400,-125,26953120,10634770
2026-01-14 17:14:17.481,768216,10599700,-76062310,-63762180,-16101070,31713870,10185550
2026-01-14 17:14:17.491,276216,1009046,-7596737,-63960710,-14648440,3215332,953125
2026-01-14 17:14:17.501,-224424,4237810,-4304098,-64167870,-1328125,32617190,8833008
2026-01-14 17:14:17.511,-725064,-29122400,-37600440,-64375030,-11187740,3713379,8330078
2026-01-14 17:14:17.521,28386980,8484936,-75622100,-34969500,-109069800,36987300,76416020
2026-01-14 17:14:17.531,-1752230,791527,8,-7548400,-64815240,-8886719,33813480,7324219
2026-01-14 17:14:17.541,-2270130,734558,-7532863,-65039670,-93566900,30322270,62109380
2026-01-14 17:14:17.551,-281394,3,-30102100,-38295280,-6527274,-1295166,25585940,5126953
2026-01-14 17:14:17.561,-31323490,6171648,-74983360,-37540020,-13842770,22607420,43896480
2026-01-14 17:14:17.571,27444410,559334,3,-7478484,-34410170,-17529300,14819340,41015620
2026-01-14 17:14:17.581,-4462582,5006372,-74577660,-66006420,-19616700,10021970,38916020
2026-01-14 17:14:17.591,-502365,35888780,-42883890,-6625672,-17907720,8886719,34985350
2026-01-14 17:14:17.601,26847100,-31260470,-39053150,-34058000,-19934080,8544922,27807620
2026-01-14 17:14:17.611,-33447740,3219616,-73861240,-39507170,-22216800,8215332,18774410
2026-01-14 17:14:17.621,-6775866,3456989,-4166509,-67042220,-23083500,36224360,15625
2026-01-14 17:14:17.631,-736282,3,-3185433,-3939151,-6731843,-23327640,-31463620,14782720
2026-01-14 17:14:17.641,26036580,148466,3,-7300672,-33591020,-19836430,-12207030,1459961
2026-01-14 17:14:17.651,-855400,8,-32209960,-39571050,-6787088,-17810060,-17053220,14355470
2026-01-14 17:14:17.661,25630030,36254,25,-7236797,-33358830,-14147950,-1986084,8148193
2026-01-14 17:14:17.671,-38773570,-17261,5,-7203994,-39360350,-7904053,-15100100,19616700
2026-01-14 17:14:17.681,25234700,-69915,-7170334,-33132680,-23612980,-10394290,2565918
2026-01-14 17:14:17.691,-10875910,31451230,-38707020,-68932550,8129883,-41412350,34423830
2026-01-14 17:14:17.701,-11428340,-32890990,-39822230,-69191500,20458980,13208010,44677740
2026-01-14 17:14:17.711,-40686880,-2175180,-70658880,-40744340,3269043,27612300,50439450
2026-01-14 17:14:17.721,-1253322,-2649924,-70304990,-6969214,41210940,38256840,5527344
2026-01-14 17:14:17.731,-38657820,29769780,-37073900,-44344360,5253906,34277340,53564450
2026-01-14 17:14:17.741,-13586260,-3547616,-69579930,-70175510,6254883,29370120,52783200
2026-01-14 17:14:17.751,23939940,-3961940,-69217390,-32390360,72998050,25952150,5083008
2026-01-14 17:14:17.761,27618330,-33390770,-39840360,-28470280,85253900,29101560,49682620
2026-01-14 17:14:17.771,-40131250,28222120,-35548680,-45719390,94091800,23901370,5107422
2026-01-14 17:14:17.781,23522170,27867360,-35195650,-32169390,9921875,14807130,515625
2026-01-14 17:14:17.791,23406510,-33530600,-39769580,-32112420,10546880,9338379,59228520
2026-01-14 17:14:17.801,-16106710,-5765960,-67534220,-71487530,11523440,50468440,65771480
2026-01-14 17:14:17.811,-4128533,-6068070,-67232110,-4680957,11416020,-122680700,7871094
2026-01-14 17:14:17.821,-16719560,26639940,-33971680,-71824160,11201170,-2680664,86376950
2026-01-14 17:14:17.831,23043120,-33672160,-39679810,-31940650,10683590,-4140625,10009770
2026-01-14 17:14:17.841,-17254720,26118590,-33457230,-72100370,10126950,-54052740,11669920
2026-01-14 17:14:17.851,22859260,25873450,-33219000,-31831030,93896480,-6743164,13300780
2026-01-14 17:14:17.861,-17772620,-7449134,-66092730,-72273020,92089840,-7475586,14394530
2026-01-14 17:14:17.871,22627930,-33912120,-39733320,-31665300,9399414,-703125,15214840
2026-01-14 17:14:17.881,22483780,25217440,-32597520,-31550500,9301758,-5996094,16259770
2026-01-14 17:14:17.891,22323240,-828639,3,-6568705,-31417570,9404297,-49243160,17285160
2026-01-14 17:14:17.901,-18912000,24791900,-32211680,-72307540,93896480,-37304690,17353520
2026-01-14 17:14:17.911,21925310,-8925152,-65531670,-31073160,91259770,-22399900,17207030
2026-01-14 17:14:17.921,-19576640,24357730,-31834480,-72160800,90625,-122924800,16298830
2026-01-14 17:14:17.931,21460070,-9658842,-65436730,-30657980,859375,-71899420,14921880
2026-01-14 17:14:17.941,-20293070,23899390,-31446920,-71910480,8618164,-44006350,13242190
2026-01-14 17:14:17.951,20929220,23662880,-31251840,-30170290,83984380,-80078130,11601560
2026-01-14 17:14:17.961,-21018130,23416010,-31049860,-71582480,80615230,-11767580,10029300
2026-01-14 17:14:17.971,-21372030,23176910,-30857370,-71401210,7895508,-14367680,80566410
2026-01-14 17:14:17.981,-2170867,22928320,-30657120,-7120267,7753906,-10772710,6435547
2026-01-14 17:14:17.991,-2203669,-12300130,-65471250,-7099552,7519531,-10101320,50439450
2026-01-14 17:14:18.001,-22330140,22474300,-30299770,-70788360,7236328,-9277344,39819340
2026-01-14 17:14:18.011,19337540,-1317192,-6556621,-28654570,6958008,-33966060,31347660
2026-01-14 17:14:18.021,19113120,-39350510,-39871000,-28430150,71435540,7067871,24560550
2026-01-14 17:14:18.031,18915450,-1395741,-6571295,-28230750,76220700,12683110,18823240
2026-01-14 17:14:18.041,18745410,21733700,-29745620,-28055530,83496100,13842770,17272950
2026-01-14 17:14:18.051,18584860,25224780,-26030110,-27888070,8857422,13061520,18786620
2026-01-14 17:14:18.061,18452790,-14950060,-66015050,-27743930,89208980,14282230,20227050
2026-01-14 17:14:18.071,-44089730,-15243530,-66135880,-48683500,8930664,6933594,22473140
2026-01-14 17:14:18.081,-2343501,21288300,-29465950,-6914834,8901367,27496340,24682620
2026-01-14 17:14:18.091,18133420,-38562870,-43627940,-27372770,86865230,12097170,14538570
2026-01-14 17:14:18.101,18058320,21161410,-29420200,-27275230,84277340,27563480,24307250
2026-01-14 17:14:18.111,-4370476,-1621891,-6674873,-4822258,7841797,41601560,-16699220
2026-01-14 17:14:18.121,-43580460,21089770,-29422790,-48087920,7182617,51416020,-32299800
2026-01-14 17:14:18.131,-43445810,-39302600,-44355580,-47946360,6743164,5229492,-4645996
2026-01-14 17:14:18.141,-23055210,21093220,-29488380,-68043490,6411133,44873050,-62597660
2026-01-14 17:14:18.151,17972010,-16779980,-67447900,-27050810,6074219,36547850,-87939460
2026-01-14 17:14:18.161,-22675410,-41972040,-42480270,-67767270,54003900,26293940,-13544920
2026-01-14 17:14:18.171,-22433720,21283990,-29746480,-67663700,3935547,15905760,-19082030
2026-01-14 17:14:18.181,18241320,-1669365,-6803487,-27213080,18286130,44525140,-23476560
2026-01-14 17:14:18.191,18408770,-16521020,-68242020,-27339100,21887210,-15332030,-24082030
2026-01-14 17:14:18.201,18603840,-16279340,-68466440,-27489290,47558590,-38891600,-17734380
2026-01-14 17:14:18.211,2322340,-39738500,-45007280,-2323227,91796870,-5727539,-8574219
2026-01-14 17:14:18.221,18987090,-15787330,-68958450,-27779320,12373050,-5942383,-109436000
2026-01-14 17:14:18.231,19128650,-15562910,-69200140,-27879450,12685550,-45458980,8430481
2026-01-14 17:14:18.241,-19990960,-15329850,-69433180,-67137160,10361330,-6286621,-5463867
2026-01-14 17:14:18.251,-41035840,23056930,-31529780,-45764280,67578130,3388672,-11572270
2026-01-14 17:14:18.261,-19542110,23312430,-31774920,-66964530,46899420,47094730,-14472660
2026-01-14 17:14:18.271,-19309060,-14406260,-70046040,-66904100,48168940,37304690,-13623050
2026-01-14 17:14:18.281,-40569740,23909740,-32334250,-45349960,37109380,39282230,-10683590
2026-01-14 17:14:18.291,-18782520,-1356034,-7042583,-66843690,3400879,37426760,-81884770
2026-01-14 17:14:18.301,19911550,24576110,-32945380,-28443090,29882810,38134770,-69873050
2026-01-14 17:14:18.311,-18152420,-12576350,-70771100,-66835060,17089840,36401370,-44213870
2026-01-14 17:14:18.321,20271480,-12067080,-70935100,-28739160,21032720,1953125,-55114740
2026-01-14 17:14:18.331,20442390,25619670,-33887090,-28878990,45385740,15356450,15159610
2026-01-14 17:14:18.341,-3955640,-38175300,-44188130,-4451616,5732422,23840330,-54138180
2026-01-14 17:14:18.351,20738460,-37999220,-44070740,-29118090,70410160,3071289,-7834,435
2026-01-14 17:14:18.361,-1674548,-10271690,-71522060,-6680916,7192383,37939450,14477540
2026-01-14 17:14:18.371,-16546920,30459280,-31274460,-66800530,6772461,31762700,23596190
2026-01-14 17:14:18.381,21029350,27026640,-35155950,-29345100,8383789,2175293,29882810
2026-01-14 17:14:18.391,-16270710,-9244520,-71841420,-66731480,11289060,11999510,48608400
2026-01-14 17:14:18.401,21104440,27452180,-35541780,-29390850,12265630,16003420,6254883
2026-01-14 17:14:18.411,-1614125,27642070,-35714420,-6661926,10332030,28027340,7260742
2026-01-14 17:14:18.421,-16158500,-8441778,-72126270,-66550210,7636719,18139650,42773440
2026-01-14 17:14:18.431,21000860,27985620,-36026880,-29270010,47802740,21643070,-38330080
2026-01-14 17:14:18.441,20923180,-7932506,-72290270,-29192320,12915040,44580080,-22265620
2026-01-14 17:14:18.451,-16365660,28351600,-36351430,-66343050,-26733400,47924800,-47753900
2026-01-14 17:14:18.461,-16426080,28563080,-36537020,-66299890,-20385740,44848630,-52734380
2026-01-14 17:14:18.471,-16443340,-6983024,-72480170,-66265360,-17504880,2590332,-14785770
2026-01-14 17:14:18.481,-3884514,28989480,-36904720,-4382904,-27368160,21560670,36401370
2026-01-14 17:14:18.491,20805780,29212180,-37096350,-29068020,-38427740,-22106930,6040039
2026-01-14 17:14:18.501,-16313870,29444370,-37295740,-66239470,-25195310,-4387207,67041020
2026-01-14 17:14:18.511,-1622757,29686060,-37502900,-6623946,-82458500,-5097656,70214850
2026-01-14 17:14:18.521,20920590,-5092688,-72730490,-29160390,10369870,-54345700,70458980
2026-01-14 17:14:18.531,20958570,-468698,8,-7277365,-29191460,9680176,-45410160,55908200
2026-01-14 17:14:18.541,-1604629,-3513264,-4198274,-6623084,16821290,-24157720,46826170
2026-01-14 17:14:18.551,-16011750,-391875,3,-7283406,-66230840,46044920,88134770,28442380
2026-01-14 17:14:18.561,21016400,-354760,5,-7285997,-29237210,4675293,41967770,2824707
2026-01-14 17:14:18.571,-38580140,31042950,-38649180,-43610670,59521480,6503906,32739260
2026-01-14 17:14:18.581,-1590819,31232850,-38804560,-6626536,74121100,8310547,41186520
2026-01-14 17:14:18.591,21105300,-34176250,-41212790,-29320940,8544922,91845700,6171875
2026-01-14 17:14:18.601,-1579599,-34014840,-41080730,-6632581,9477539,89990230,8076172
2026-01-14 17:14:18.611,21202840,-1942124,-72859970,-29413290,8989258,83740230,74902340
2026-01-14 17:14:18.621,-38499860,-169179,3,-7285131,-43570100,8286133,77978510,59521480
2026-01-14 17:14:18.631,-1564061,31976900,-39407040,-6641210,63183590,7919922,16223150
2026-01-14 17:14:18.641,21327140,-1225696,-72834070,-29530680,4194336,7661133,-33666990
2026-01-14 17:14:18.651,-1554565,-98400,75,-7279954,-6648979,30664060,5571289,-84375
2026-01-14 17:14:18.661,-15476590,-73366,5,-7277364,-66541580,30810550,34277340,-10761720
2026-01-14 17:14:18.671,25200170,-32975590,-40203750,-26020190,-2286377,1887207,-11767580
2026-01-14 17:14:18.681,-15243530,-14670,75,-7265280,-66722840,-7441406,-29125980,-11123050
2026-01-14 17:14:18.691,-40689630,-32572490,-39847260,-41207700,-4477539,-8618164,-107421900
2026-01-14 17:14:18.701,-14829220,46614,-7252332,-66964530,-13708500,-9082031,68359380
2026-01-14 17:14:18.711,-1462208,-32204780,-39524440,-6706812,20031740,-6176758,9135742
2026-01-14 17:14:18.721,-38164950,98402,75,-7240247,-43438900,46411130,-31030270,8105469
2026-01-14 17:14:18.731,22431130,121708,-7234207,-30584610,5385742,-16967770,7626953
2026-01-14 17:14:18.741,22572690,1424224,-72273010,-30719260,4423828,-20373540,7861328
2026-01-14 17:14:18.751,22722020,160551,-7219533,-30863410,38061520,-26635740,87646480
2026-01-14 17:14:18.761,-1375891,33416670,-40453210,-6760327,48242190,-34179690,9819336
2026-01-14 17:14:18.771,22987010,1881708,-72057220,-31116320,6591797,-35498050,99121100
2026-01-14 17:14:18.781,23110450,197666,8,-7199681,-31234580,8095703,-2890625,97998050
2026-01-14 17:14:18.791,23226110,33500390,-40490320,-31343330,96972660,-3010254,90722660
2026-01-14 17:14:18.801,-13137410,-31197460,-38598260,-67948540,11103520,-27172850,7109375
2026-01-14 17:14:18.811,-12964780,2175184,-71884580,-68000330,13056640,-13745120,45703120
2026-01-14 17:14:18.821,-37640140,2244232,-71867320,-43169590,12871090,-27236940,28125
2026-01-14 17:14:18.831,-12524560,-31049860,-38469640,-68095280,11484380,-10070800,10650640
2026-01-14 17:14:18.841,23911460,-30992030,-38423900,-31952730,10126950,-9777832,-1340332
2026-01-14 17:14:18.851,-12006660,-30915200,-38362610,-68164340,96240230,1838684,-5336914
2026-01-14 17:14:18.861,-3712399,-30818530,-38286660,-4277083,9448242,12890630,-8588867
2026-01-14 17:14:18.871,-11376550,301248,3,-7192774,-68207500,8310547,20043940,-10761720
2026-01-14 17:14:18.881,-11014020,-30565620,-38090720,-68224750,6035156,28125,-12412110
2026-01-14 17:14:18.891,-10591070,3633932,-71979540,-68233380,36767580,39453120,-13525390
2026-01-14 17:14:18.901,-1011633,403099,5,-7201406,-6825928,18823240,38256840,-13349610
2026-01-14 17:14:18.911,25436680,4497104,-72048580,-33224180,90026860,40625,-12910160
2026-01-14 17:14:18.921,29228570,-33131300,-33902280,-30001970,-18884280,47094730,-13642580
2026-01-14 17:14:18.931,26088370,5645118,-72074480,-33763660,-32666020,27270510,-13466800
2026-01-14 17:14:18.941,-7828932,6335652,-72074480,-68319700,-46923830,12219240,-12919920
2026-01-14 17:14:18.951,26807390,-28532000,-36447240,-34356660,-43286130,-18005370,-13066410
2026-01-14 17:14:18.961,-34318680,-28077970,-36072630,-40500680,-30151370,-2512207,-11650390
2026-01-14 17:14:18.971,-583504,3,8752518,-72039950,-6829380,-23779300,-56640620,-87646480
2026-01-14 17:14:18.981,-5179006,963298,3,-7202270,-68242020,-16748050,-6899414,-7480469
2026-01-14 17:14:18.991,-455755,5,10530640,-72005430,-6817296,-20666500,-7006836,-7402344
2026-01-14 17:14:19.001,-3936048,-26090960,-34434340,-68086650,-30615230,-6611328,-72021490
2026-01-14 17:14:19.011,-3340462,-25560970,-33997570,-67974430,-20581060,-6245117,-47436520
2026-01-14 17:14:19.021,-2762140,13344570,-71936370,-67844960,-9716797,-5991211,-4473877
2026-01-14 17:14:19.031,-220972,3,-24520000,-33139590,-6768961,-32861330,-55566410,37597660
