Timestamp,Rotation X,Rotation Y,Rotation Z,Rotation W,Acceleration X,Acceleration Y,Acceleration Z
2026-01-14 17:14:05.521,-50624770,-34773560,24508780,-19360850,89990230,-6816406,-5727539
2026-01-14 17:14:05.531,-50642030,-80991000,-21605080,-19291800,8671875,-67285150,-6669922
2026-01-14 17:14:05.541,-19213250,-54246620,-48297670,12223310,89208980,-63916020,-74902340
2026-01-14 17:14:05.551,-50702460,-34920300,24672780,-19162320,8754883,-63916020,-81103520
2026-01-14 17:14:05.561,-50754250,-3497640,2473754,-19093260,8613281,-65478520,-7636719
2026-01-14 17:14:05.571,-19382420,-8106006,-2122528,12399400,8701172,-62158200,-72021490
2026-01-14 17:14:05.581,-19451480,-8106869,-2111307,12468450,88916020,-59521480,-6972656
2026-01-14 17:14:05.591,-50935500,-35149900,24943810,-18877470,9614258,-60009770,-62646480
2026-01-14 17:14:05.601,-36517160,-35212050,25019770,-33295820,9838867,-58447260,-55322260
2026-01-14 17:14:05.611,-51090880,-81085950,-20698750,-18722100,10390630,-5307617,-4736328
2026-01-14 17:14:05.621,-51177190,-30313470,30211830,-18635780,10244140,-50634770,-42626950
2026-01-14 17:14:05.631,-51272140,-81085950,-20405280,-18540840,9785156,-43286130,-3581543
2026-01-14 17:14:05.641,-51367090,-81085950,-20249910,-18445890,92578130,-35717770,-26904300
2026-01-14 17:14:05.651,-51470670,-35546100,25428050,-18342310,9116211,-32666020,-16040040
2026-01-14 17:14:05.661,-51582880,-35615150,25514370,-18230090,9199219,-32104490,-72021490
2026-01-14 17:14:05.671,-51695100,-53490490,-47362000,-18117890,9448242,-3083496,7366943
2026-01-14 17:14:05.681,-51815940,-81060060,-19619800,-17997040,9790039,-27905270,16809080
2026-01-14 17:14:05.691,-20513180,-53332530,-47174690,13530150,10322270,-26367190,19506840
2026-01-14 17:14:05.701,-52066260,-35874100,25842370,-17781250,11103520,-3178711,23937990
2026-01-14 17:14:05.711,-52195740,-5010328,-5004139,-17669040,11699220,-3701172,26782230
2026-01-14 17:14:05.721,-52325210,-36002710,26007240,-17556830,12333980,-4189453,26611330
2026-01-14 17:14:05.731,-21008640,-52982080,-46765540,14018700,13007810,-42504880,20935060
2026-01-14 17:14:05.741,-52601420,-36138230,26182460,-17315140,13476560,-39282230,11077880
2026-01-14 17:14:05.751,-52739530,-8091331,-1845450,-17177030,13164060,-2644043,-16311650
2026-01-14 17:14:05.761,-52886270,-80887420,-18290520,-17047560,12412110,-7171631,-12817380
2026-01-14 17:14:05.771,-53024370,-36316910,26418100,-16892190,10615230,1821289,-22167970
2026-01-14 17:14:05.781,-21707800,-36376470,26496650,14717870,92529300,45507810,-23730470
2026-01-14 17:14:05.791,-53291960,-36436890,26574340,-16555560,89990230,63134770,-25439450
2026-01-14 17:14:05.801,-22003860,-80818370,-17651770,15026020,9550781,7373047,-18579100
2026-01-14 17:14:05.811,-53507750,-8082700,-1750501,-16184390,9628906,7050781,-10559080
2026-01-14 17:14:05.821,-22280080,-80827000,-17366930,15319490,97558590,56640620,-15144350
2026-01-14 17:14:05.831,-53689020,-8083563,-1722017,-15813230,93847660,47631840,8477783
2026-01-14 17:14:05.841,-53783960,-8085289,-1706479,-15614700,89501950,37426760,17236330
2026-01-14 17:14:05.851,-36569820,-8086151,-1690081,-32725270,8046875,2878418,25610350
2026-01-14 17:14:05.861,-22829060,-52010150,-45596820,15909900,64941410,19055180,35009770
2026-01-14 17:14:05.871,-36486080,-37034200,27289040,-32584570,4855957,5731201,3708496
2026-01-14 17:14:05.881,-23085420,-51881540,-45431960,16188700,31054690,-3656006,33666990
2026-01-14 17:14:05.891,-54198280,-37184390,27466850,-14665220,17858890,-81604000,34301760
2026-01-14 17:14:05.901,-54275970,-37255170,27551440,-14483950,10473630,-657959,29907230
2026-01-14 17:14:05.911,-23450530,-80921950,-15994490,16583170,4067993,-12802120,2220459
2026-01-14 17:14:05.921,-54448600,-80913320,-15882280,-14138690,-5026245,9472656,1550293
2026-01-14 17:14:05.931,-36271160,-8091330,-1577868,-32212550,-21594240,2310791,25927730
2026-01-14 17:14:05.941,-23850180,-37439020,27781910,17012170,-33251950,3388672,4975586
2026-01-14 17:14:05.951,-54724820,-37468370,27821610,-13568990,-3942871,37304690,6791992
2026-01-14 17:14:05.961,-54811140,-51458590,-44922690,-13379100,-3725586,3684082,7915039
2026-01-14 17:14:05.971,-36136500,-8085288,-1544205,-31967410,-21789550,2475586,8227539
2026-01-14 17:14:05.981,-36105430,-80835630,-15373010,-31912170,-9088135,8502197,7763672
2026-01-14 17:14:05.991,-36082120,-37564180,27950230,-31866420,6506348,-89538580,62939450
2026-01-14 17:14:06.001,-55121870,-37585760,27980440,-12757620,19311520,-19799800,41381840
2026-01-14 17:14:06.011,-36025160,-8080109,-1514857,-31768010,23657230,-32666020,2590332
2026-01-14 17:14:06.021,-55251350,-8080974,-1503636,-12472770,22314450,-3955078,20922850
2026-01-14 17:14:06.031,-55311770,-37733360,28160840,-12326030,21728520,-4597168,7525635
2026-01-14 17:14:06.041,-24974890,-37795520,28236800,18218010,22558590,-44091800,-17456060
2026-01-14 17:14:06.051,-35918990,-37874060,28330880,-31580710,1607666,-42504880,-50878900
2026-01-14 17:14:06.061,-25158740,-33665080,32712490,18413950,119506800,-38867190,-80566410
2026-01-14 17:14:06.071,-55570720,-8082699,-1424224,-11808130,42877200,-36767580,-11240230
2026-01-14 17:14:06.081,-55631140,-80844260,-14017840,-11678660,-10266110,-29223630,-14257810
2026-01-14 17:14:06.091,-25449630,-38290970,28828930,18727280,-26611330,-25683590,-15849610
2026-01-14 17:14:06.101,-55760610,-38433390,28997250,-11359280,-44360350,-18005370,-16611330
2026-01-14 17:14:06.111,-35732540,-80921940,-13146040,-31266520,-6513672,-7055664,-17011720
2026-01-14 17:14:06.121,-55898720,-80956480,-12818040,-10962230,-8203125,40039060,-17265620
2026-01-14 17:14:06.131,-55959140,-38940940,29594560,-10729170,-9863281,1484375,-1671875
2026-01-14 17:14:06.141,-26096140,-39132560,29817260,19444570,-11621090,21765140,-15683590
2026-01-14 17:14:06.151,-56088620,-3515474,3422669,-10219900,-12861330,2331543,-13730470
2026-01-14 17:14:06.161,-56149040,-8114637,-1131610,-9935056,-14121090,2479248,-11113280
2026-01-14 17:14:06.171,-35258660,-39744540,30534550,-30601010,-14912110,2109375,-80078130
2026-01-14 17:14:06.181,-35155080,-81241320,-10496110,-30462910,-14326170,10308840,-4987793
2026-01-14 17:14:06.191,-35061000,-40173540,31037780,-30332570,-13505860,-84106450,-16687010
2026-01-14 17:14:06.201,-56390730,-40386740,31290690,-8778416,-12431640,-31103520,10974120
2026-01-14 17:14:06.211,-5644252,-8137079,-920999,6,-851946,7,-1078125,-5078125,26782230
2026-01-14 17:14:06.221,-5648566,-40814870,31794770,-828642,6,-96777340,-6567383,29003910
2026-01-14 17:14:06.231,-5652019,-41021170,32037320,-807926,6,-8935547,-7758789,17749020
2026-01-14 17:14:06.241,-27562660,-8148301,-799291,7,21119980,-90478510,-8515625,70251460
2026-01-14 17:14:06.251,-34563820,-4141735,3250431,-29673110,-10068360,-84765620,-1543045
2026-01-14 17:14:06.261,-56597890,-41615890,32737360,-7449140,-11416020,-859375,26260380
2026-01-14 17:14:06.271,-27888080,-8160386,-683627,4,21502360,-12910160,-82128900,15771480
2026-01-14 17:14:06.281,-56641050,-41987920,33176710,-7008922,-14755860,-6870117,24267580
2026-01-14 17:14:06.291,-34207330,-8167289,-612847,1,-29218220,-16357420,-55322260,2607422
2026-01-14 17:14:06.301,-34115830,-8170742,-581773,4,-29102550,-17753910,-4284668,32617190
2026-01-14 17:14:06.311,-56692840,-42463520,33736900,-6301124,-19033200,-3166504,39672850
2026-01-14 17:14:06.321,-56710100,-47336100,-39688440,-6076700,-19443360,-19543460,44604490
2026-01-14 17:14:06.331,-33842200,-42700030,34018290,-28754700,-19472660,-40161130,45214840
2026-01-14 17:14:06.341,-33759340,-8177647,-485098,4,-28647660,-18945310,13208010,45922850
2026-01-14 17:14:06.351,-33692880,-43604280,-42833300,-28558760,-17333980,25634770,46899420
2026-01-14 17:14:06.361,-28878990,-42941720,34311770,22669360,-15732420,2980957,44970700
2026-01-14 17:14:06.371,-56865470,-42995230,34379100,-5092690,-13427730,31640620,40673830
2026-01-14 17:14:06.381,-56908630,-46884660,-39138600,-4945950,-1125,26245120,3215332
2026-01-14 17:14:06.391,-5695179,-81733330,-4186364,-479924,9,-9326172,18823240,20593260
2026-01-14 17:14:06.401,-29262240,-46780220,-39018620,23097500,-8334961,13964840,13977050
2026-01-14 17:14:06.411,-29353740,-81681540,-4013727,23195900,-78808590,6726074,45074460
2026-01-14 17:14:06.421,-57133060,-46672330,-38902100,-4358996,-7573242,6011963,-6762695
2026-01-14 17:14:06.431,-29578160,-8160386,-386698,1,23437590,-76123050,53741460,-17004400
2026-01-14 17:14:06.441,-57297060,-46554080,-38778660,-4022364,-7685547,2998352,-21057130
2026-01-14 17:14:06.451,-29845740,-4315407,3463461,23722430,-7651367,-5517578,-20739750
2026-01-14 17:14:06.461,-30003700,-46409920,-38629330,23892470,-7895508,-15975950,-23815920
2026-01-14 17:14:06.471,-3320866,-46326200,-38540430,-2778279,-81640620,-101745600,-2175293
2026-01-14 17:14:06.481,-33159440,-43179950,34712280,-27693870,-8652344,-17797850,-20275880
2026-01-14 17:14:06.491,-57892640,-81198160,-3254143,-2805298,-8701172,-27734380,-1430664
2026-01-14 17:14:06.501,-33039460,-46013730,-38214150,-27485840,-9038086,-34228520,-1048584
2026-01-14 17:14:06.511,-58177490,-43231740,34833120,-2157922,-90625,-3918457,-6088257
2026-01-14 17:14:06.521,-31275140,-43245560,34871100,25262320,-92871100,-40478520,-4714966
2026-01-14 17:14:06.531,-31530640,-8083564,-266717,3,25541990,-9316406,-3798828,-234,8423
2026-01-14 17:14:06.541,-58634970,-45532940,-37710920,-992646,2,-9663086,-30541990,-3741455
2026-01-14 17:14:06.551,-58798970,-4327663,3497816,-552426,2,-95654300,-2602539,12413030
2026-01-14 17:14:06.561,-58971600,-80507630,-2201075,-86321,71,-99121100,-18566900,109069800
2026-01-14 17:14:06.571,-32350650,-4514106,-3730867,-26396520,-9921875,-61035160,22631840
2026-01-14 17:14:06.581,-59316860,-4500296,-3717056,897694,-10068360,56610110,35717770
2026-01-14 17:14:06.591,-29358650,-43249870,35056680,-28749780,-9638672,1652832,4794922
2026-01-14 17:14:06.601,-33670440,-44750050,-36922850,27890660,-8989258,2529297,5488281
2026-01-14 17:14:06.611,-33992400,-44625760,-36805460,28241970,-82373050,31933590,59228520
2026-01-14 17:14:06.621,-60050560,-79670350,-1536435,2839816,-75,33081060,6430664
2026-01-14 17:14:06.631,-60249090,-44392700,-36589670,3297296,-6748047,3876953,625
2026-01-14 17:14:06.641,-34927210,-7934237,-141557,8,29257920,-5888672,36523440,5126953
2026-01-14 17:14:06.651,-60628880,-4292964,3487631,4177730,-5073242,36401370,4633789
2026-01-14 17:14:06.661,-60818780,-7900572,-130335,6,4609312,-44262700,40014650,37402340
2026-01-14 17:14:06.671,-61008670,-4392142,-3616324,5023638,-3605957,43286130,28100590
2026-01-14 17:14:06.681,-6119856,-42731100,34746810,543793,6,-27270510,45654300,12866210
2026-01-14 17:14:06.691,-61379840,-43661600,-35922440,5860906,-21618650,48168940,50628660
2026-01-14 17:14:06.701,-61561100,-42618900,34686390,6283859,-20056150,45214840,-5496216
2026-01-14 17:14:06.711,-6173372,-42578320,34675160,671542,3,-27807620,44995120,-14807130
2026-01-14 17:14:06.721,-61906370,-7797855,-74229,24,7147024,-35302740,5371094,-23986820
2026-01-14 17:14:06.731,-62061740,-7780592,-56965,98,7613136,-38305660,59277340,-3244629
2026-01-14 17:14:06.741,-62217110,-7763328,-36250,71,8096512,-37304690,5473633,-37963870
2026-01-14 17:14:06.751,-27233800,-39186080,-38412680,-26524270,-36889650,52490230,-35961910
2026-01-14 17:14:06.761,-38473100,-42571420,34854700,33135270,-40820310,5361328,-31518560
2026-01-14 17:14:06.771,-6263143,-77132640,414320,2,965017,6,-42041020,5361328,-23242190
2026-01-14 17:14:06.781,-29921700,-7696000,72507,41,-22627940,-43798830,41796880,-15661620
2026-01-14 17:14:06.791,-6285587,-41760040,-33974270,1075505,-4741211,32250980,-423584
2026-01-14 17:14:06.801,-29522050,-41509720,-33706690,-22095360,-51171880,31030270,4260254
2026-01-14 17:14:06.811,-29314030,-42852810,35384690,-21820010,-52001950,29248050,5291748
2026-01-14 17:14:06.821,-40336680,-4292965,3551504,35276790,-50097660,27612300,84106450
2026-01-14 17:14:06.831,-6315798,-40731140,-32862510,1309424,-3918457,26879880,15612790
2026-01-14 17:14:06.861,-24576360,-75708420,3754780,-23795550,-20251460,12475590,65966800
2026-01-14 17:14:06.871,-27841470,-39703980,-31731760,-19978010,-13085940,119506800,7080078
2026-01-14 17:14:06.881,-41949070,-39457110,-31460730,37220640,-18103030,10479740,67626950
2026-01-14 17:14:06.891,-42181260,-43632250,36590530,37506350,-24438480,15075680,65771480
2026-01-14 17:14:06.901,-27117270,-7518188,528259,4,-19096720,-26464840,17919920,6796875
2026-01-14 17:14:06.911,-6317524,-38735500,-30663160,1753091,-22766110,22131350,8105469
2026-01-14 17:14:06.921,-26604550,-74940200,6042168,-18487320,-28588870,17443850,96435540
2026-01-14 17:14:06.931,-6308892,-38260760,-30136630,1854945,-32128910,9680176,11835940
2026-01-14 17:14:06.941,-63037120,-74715780,6784498,19032840,-24084470,80078130,1453125
2026-01-14 17:14:06.951,-6298534,-37819680,-29645490,1948167,-14770510,17260740,16552730
2026-01-14 17:14:06.961,-6292492,-37615980,-29417610,1988736,-12036130,25512700,15791020
2026-01-14 17:14:06.971,-25451350,-7443092,779441,4,-17137330,-1907959,17443850,13710940
2026-01-14 17:14:06.981,-25259730,-7434460,810515,2,-16914630,-22241210,23596190,12451170
2026-01-14 17:14:06.991,-43945580,-37087720,-28823750,39764400,-15258790,44213870,11035160
2026-01-14 17:14:07.001,-6268321,-74232400,8597146,2121662,-11090090,41796880,72998050
2026-01-14 17:14:07.011,-24779810,-44780260,38239180,-16376020,-6341553,26391600,47729490
2026-01-14 17:14:07.021,-6249334,-33017970,-32185700,2166549,9429932,16259770,52978520
2026-01-14 17:14:07.031,-24463030,-36669940,-28326570,-16036790,23608400,7397461,57910160
2026-01-14 17:14:07.041,-62260270,-36578450,-28210900,22088460,28173830,10205080,609375
2026-01-14 17:14:07.051,-24151430,-36486090,-28096100,-15709650,22546390,23986820,62597660
2026-01-14 17:14:07.061,-61992690,-7429283,986603,4,22459620,17700200,15551760,78027340
2026-01-14 17:14:07.071,-61854580,-74335980,10064540,22614980,68481450,97839350,89746100
2026-01-14 17:14:07.081,-61699210,-45527770,39114430,22753090,25650020,1352539,11689450
2026-01-14 17:14:07.091,-44133750,-7446547,1043571,40266760,10955810,14562990,146875
2026-01-14 17:14:07.101,-23430680,-36245260,-27732710,-14997540,-18112180,101867700,15566410
2026-01-14 17:14:07.111,-19531580,-74655350,10677380,-18689480,-7220459,44189450,16113280
2026-01-14 17:14:07.121,-23236470,-36282380,-27730120,-14829220,-11480710,7232666,15908200
2026-01-14 17:14:07.131,-60905090,-74905670,10789600,22977510,-123535200,5316162,15029300
2026-01-14 17:14:07.141,-23095770,-7503514,1078097,-14728230,-18310550,22583010,14453130
2026-01-14 17:14:07.151,-6059437,-32651720,-31792360,2285666,-2368164,-154800400,146875
2026-01-14 17:14:07.161,-22986150,-75363140,10677380,-14665220,-21252440,-20788570,15341800
2026-01-14 17:14:07.171,-60266350,-7553579,1057382,22684040,-16186520,-32006840,16240230
2026-01-14 17:14:07.181,-22898970,-36944430,-28328290,-14631550,-15783690,-37182620,16865230
2026-01-14 17:14:07.191,-43057380,-3713521,-2851731,39306050,-17663570,-3918457,16357420
2026-01-14 17:14:07.201,-5977435,-3734236,-2872449,2226109,-17565920,-41723630,15761720
2026-01-14 17:14:07.211,-59610340,-76347160,9796954,22062560,-22253420,-23400880,14921880
2026-01-14 17:14:07.221,-5945497,-7656296,951210,7,2183813,-36791990,80322260,12324220
2026-01-14 17:14:07.231,-22895520,-38101080,-29502200,-14807640,-50146480,46411130,10019530
2026-01-14 17:14:07.241,-22935220,-38380740,-29792230,-14888780,-66796880,10566410,72753900
2026-01-14 17:14:07.251,-22999100,-38675080,-30102100,-14997540,-8334961,18857420,50878900
2026-01-14 17:14:07.261,-19097240,-7748653,810514,8,-19089290,-81152340,23125,44140620
2026-01-14 17:14:07.271,-58729910,-39258580,-30709770,20318960,-41601560,19892580,44067380
2026-01-14 17:14:07.281,-23266680,-77987180,7414608,-15420490,19189450,12900390,27563480
2026-01-14 17:14:07.291,-40870980,-7824615,706935,7,36969460,56396480,7504883,-15129090
2026-01-14 17:14:07.301,-58281060,-46204490,39024660,18903360,66748050,3269043,-20751950
2026-01-14 17:14:07.311,-3846309,-78764030,6396068,3806531,66064450,-2364502,-30688480
2026-01-14 17:14:07.321,-20465270,-46199310,38909000,-19706550,53222660,-81152340,-48486330
2026-01-14 17:14:07.331,-24038350,-7922150,583502,4,-16513260,16662600,-12675780,-7363281
2026-01-14 17:14:07.341,-57797690,-41135970,-32630320,16900820,-62890620,-16484380,-72021490
2026-01-14 17:14:07.351,-5769412,-7956677,555880,2,1652102,-10849610,-15859380,-23205570
2026-01-14 17:14:07.361,-24374120,-79696260,5532900,-16988870,-13632810,-125,93688970
2026-01-14 17:14:07.371,-24402610,-41384560,-32847840,-17046700,-15039060,-77001950,5407715
2026-01-14 17:14:07.381,-57400640,-7990342,563650,6,15899550,-12050780,-5678711,61340330
2026-01-14 17:14:07.391,-38613800,-80006990,5671014,34461960,-7607422,-5180664,23547360
2026-01-14 17:14:07.401,-24443170,-46595500,39151550,-17161500,-51171880,-51123050,3930664
2026-01-14 17:14:07.411,-57133060,-41602940,-33026510,15407540,-38208010,-546875,3959961
2026-01-14 17:14:07.421,-38220190,-41721200,-33149940,34026920,-33740230,-6308594,1928711
2026-01-14 17:14:07.431,-57064000,-80369520,5204902,14889630,-34326170,-7163086,-6311035
2026-01-14 17:14:07.441,-57046740,-46474660,38927120,14613420,-32128910,-69921870,-36499020
2026-01-14 17:14:07.451,-24916190,-80507620,4704264,-17776070,-2524414,-6870117,-6479492
2026-01-14 17:14:07.461,-5703810,-4630807,3869666,1412142,-1685791,-70654300,-8647461
2026-01-14 17:14:07.471,-25102630,-46227800,38587040,-18003950,-6549072,-7026367,-98339840
2026-01-14 17:14:07.481,-57038100,-80654370,3987838,13810680,7763672,-65625,-9868164
2026-01-14 17:14:07.491,-25186360,-8068025,380658,2,-18110120,25,-6459961,-90966800
2026-01-14 17:14:07.501,-2165689,-46026680,38322050,-2165686,38842770,-57177740,-8125
2026-01-14 17:14:07.511,-21648240,-80714780,3513092,-21648240,48095700,-5551758,-6694336
2026-01-14 17:14:07.521,-37535700,-45919640,38187390,33209500,5,-5073242,-52441410
2026-01-14 17:14:07.531,-35614550,-42912370,-34513750,35182440,45581060,-47851560,-36035160
2026-01-14 17:14:07.541,-57012210,-8068890,317648,3,13853840,35620120,-4375,-28637700
2026-01-14 17:14:07.551,-37639280,-42986600,-34612150,33330340,29345700,-39160160,-2849121
2026-01-14 17:14:07.561,-5705539,-43006460,-34644090,1401782,25561520,-33374020,-35864260
2026-01-14 17:14:07.571,-57081260,-8060258,291753,3,14130050,21313480,-27270510,-4086914
2026-01-14 17:14:07.581,-37835220,-45592510,37824000,33548730,20910640,-20666500,-45751950
2026-01-14 17:14:07.591,-24959350,-43000410,-34667400,-17801970,21862790,-60058590,-4296875
2026-01-14 17:14:07.601,-5721074,-8043858,282255,9,1458752,18322750,76538090,-3815918
2026-01-14 17:14:07.611,-5727114,-45472520,37719560,1476877,20043940,16174320,-7910156
2026-01-14 17:14:07.621,-57340210,-45433680,37689340,14958690,30029300,36279300,17443850
2026-01-14 17:14:07.631,-24756500,-45379300,37640140,-17504170,5761719,59375,12261960
2026-01-14 17:14:07.641,-24723700,-8013646,274488,7,-17450660,103125,703125,-7562256
2026-01-14 17:14:07.651,-5750420,-45227380,37481320,1539889,14570310,7939453,-41088870
2026-01-14 17:14:07.661,-24686590,-80041520,2442764,-17384200,18164060,8076172,-7602539
2026-01-14 17:14:07.671,-24682270,-8001562,220971,9,-17371240,20039060,8310547,-11796880
2026-01-14 17:14:07.681,-57616420,-7998973,195941,8,15562910,196875,88427740,-16005860
2026-01-14 17:14:07.691,-38726000,-7997248,171772,1,34522380,1765625,83935540,-19736330
2026-01-14 17:14:07.701,-24641700,-7995519,152782,2,-17308230,14628910,7583008,-20507810
2026-01-14 17:14:07.711,-57633690,-43332730,-35198240,15839120,1015625,6020508,-19755860
2026-01-14 17:14:07.721,-57599160,-7992068,137246,4,16046280,6484375,44311520,-17197270
2026-01-14 17:14:07.731,-57556010,-79903410,1424230,16313860,39868160,21472170,-13017580
2026-01-14 17:14:07.741,-24135890,-43249870,-35108480,-16726460,3149414,40039060,-95947260
2026-01-14 17:14:07.751,-57383370,-44686180,36865880,16952600,32128910,-15686040,-8574219
2026-01-14 17:14:07.761,-39288800,-44763870,36960830,35288880,37329100,-2854004,-71533200
2026-01-14 17:14:07.771,-57193470,-44841550,37055780,17608610,3869629,-43603520,-6557617
2026-01-14 17:14:07.781,-23335730,-42936540,-34731270,-15834810,2487793,-50097660,-66064450
2026-01-14 17:14:07.791,-56994950,-42858860,-34636320,18221470,7055664,-5732422,-6611328
2026-01-14 17:14:07.801,-56917260,-7984300,255499,9,18523580,-97229010,-6411133,-5991211
2026-01-14 17:14:07.811,-22781580,-42668960,-34411900,-15215060,-21203610,-734375,-5234375
2026-01-14 17:14:07.821,-39834310,-38833300,-38005870,36072630,-3022461,-78515620,-47851560
2026-01-14 17:14:07.831,-5669284,-7975668,317645,9,1947305,-40527340,-77197260,-44873050
2026-01-14 17:14:07.841,-22232600,-7971351,342678,4,-14590120,-44018560,-74072260,-36572260
2026-01-14 17:14:07.851,-22047020,-45473390,37874060,-14378650,-38256840,-7133789,-2932129
2026-01-14 17:14:07.861,-21861440,-79609940,3927412,-14167170,-3935547,-6245117,-24731440
2026-01-14 17:14:07.871,-21693990,-4564084,3810367,-13972090,-41430660,-5004883,-15478520
2026-01-14 17:14:07.881,-56382100,-41719470,-33324300,21095810,-46704100,-3959961,-7775879
2026-01-14 17:14:07.891,-21357350,-7943730,472153,9,-13583670,-40942380,-32250980,42510980
2026-01-14 17:14:07.901,-5629578,-7936825,499773,9,2170003,-29125980,-28588870,14782720
2026-01-14 17:14:07.911,-56252620,-45987840,38585320,21984870,-15319820,-22998050,16821290
2026-01-14 17:14:07.921,-40937440,-46065520,38697520,37541740,-39154050,-20349120,14221190
2026-01-14 17:14:07.931,-20766080,-40924500,-32427470,-12897450,6210327,-15527340,43029780
2026-01-14 17:14:07.941,-20638330,-46232110,38927990,-12748990,13183590,-713501,-8526611
2026-01-14 17:14:07.951,-20519220,-40624110,-32089110,-12609150,13293460,3289795,-22058100
2026-01-14 17:14:07.961,-56097250,-7896257,657736,23193310,7519531,8203125,-3190918
2026-01-14 17:14:07.971,-20305150,-46476390,39270670,-12357110,637207,9918213,-3876953
2026-01-14 17:14:07.981,-20193800,-43344210,42627270,-12226770,83618160,5441284,-39648440
2026-01-14 17:14:07.991,-56019570,-39967240,-31347650,23840680,121032700,-10185240,-34545900
2026-01-14 17:14:08.001,-55976410,-46765550,39672040,24056480,10192870,-75805660,-39648440
2026-01-14 17:14:08.011,-55950510,-46866540,39812740,24272260,440979,-13415530,-45361330
2026-01-14 17:14:08.021,-55915990,-39417400,-30723580,24479430,-8679199,-15612790,-57373050
2026-01-14 17:14:08.031,-55872830,-43947220,43249960,24695220,-23095700,-19311520,-67578130
2026-01-14 17:14:08.041,-55821040,-39021210,-30273870,24919640,-34057620,-22290040,-6669922
2026-01-14 17:14:08.051,-19359120,-38819230,-30044270,-11266060,-453125,-24584960,-6098633
2026-01-14 17:14:08.061,-19213250,-38600850,-29796540,-11101200,-4963379,-24865720,-55371100
2026-01-14 17:14:08.071,-19058740,-38382470,-29548810,-10927700,-5053711,-23913570,-45751950
2026-01-14 17:14:08.081,-15219540,-34175740,-33289430,-14404370,-4284668,-18701170,-4177246
2026-01-14 17:14:08.091,-18716060,-37945700,-29053350,-10545320,-3083496,-1348877,-3720703
2026-01-14 17:14:08.101,-42393610,-37735090,-28815120,39503720,-15148930,-12878420,-31958010
2026-01-14 17:14:08.111,-55303140,-7779729,1167868,26766820,-4043579,-99731450,-23254400
2026-01-14 17:14:08.121,-18206790,-37347530,-28374040,-9984258,38604740,-64697260,-15844730
2026-01-14 17:14:08.131,-55113240,-77650540,12326030,27267450,58044430,-7330322,-15637210
2026-01-14 17:14:08.141,-17893460,-48357230,41861030,-9641584,111328100,-10479740,-1295166
2026-01-14 17:14:08.151,-17752770,-77538340,12921620,-9488803,13269040,-9753418,-53100580
2026-01-14 17:14:08.161,-13896390,-36677710,-27611000,-13068960,39405820,-28717040,-83496100
2026-01-14 17:14:08.171,-17495540,-36532700,-27445270,-9210860,-12609860,48828120,-14257810
2026-01-14 17:14:08.181,-17363480,-77365700,13715730,-9066714,-20361330,21453860,-21130370
2026-01-14 17:14:08.191,-54612600,-7730529,1398334,28458630,-25170900,35980220,-2614746
2026-01-14 17:14:08.201,-54517660,-77244860,14250890,28674420,-33984380,85876460,-24841310
2026-01-14 17:14:08.211,-16931890,-35918120,-26747830,-8600602,-33251950,4586792,-22668460
2026-01-14 17:14:08.221,-16773930,-77106740,14803320,-8430560,-32250980,9147644,-15466310
2026-01-14 17:14:08.231,-16608210,-35584940,-26373220,-8251017,-33935550,-44158940,-1171875
2026-01-14 17:14:08.241,-12675610,-76960010,15364380,-11838340,-36083980,-11669920,-11639400
2026-01-14 17:14:08.251,-16277610,-35250900,-25999470,-7891078,-3605957,-1875,-8654785
2026-01-14 17:14:08.261,-16112750,-4939649,4330771,-7710675,-36108400,-26635740,-7873535
2026-01-14 17:14:08.271,-15947020,-7670969,1616713,-7531136,-36669920,-32226560,-9295654
2026-01-14 17:14:08.281,-53732180,-30572530,-29642030,30564760,-37719730,-3918457,-41107180
2026-01-14 17:14:08.291,-5364586,-7655433,1666777,3078918,-3774414,-45092770,-53619380
2026-01-14 17:14:08.301,-43414740,-76468010,16892190,41158410,-4111328,-46484380,-27679440
2026-01-14 17:14:08.311,-53490490,-34308320,-24956760,31203500,-4477539,-46826170,-26794430
2026-01-14 17:14:08.321,-15264250,-34176250,-24812610,-6781045,-5078125,-47460940,-28366090
2026-01-14 17:14:08.331,-1514944,-76234940,17522300,-665419,1,-5698242,-44873050,-20202640
2026-01-14 17:14:08.341,-15051920,-33919030,-24534670,-6544537,-6455078,-43066410,45959470
2026-01-14 17:14:08.351,-11137880,-7607095,1785894,-10285940,-64160160,-390625,12017820
2026-01-14 17:14:08.361,-14899130,-7599326,1802294,-6369313,-6738281,-36401370,17346190
2026-01-14 17:14:08.371,-14844750,-75915580,18152410,-6302852,-68847660,-34887700,14807130
2026-01-14 17:14:08.381,-14798140,-7583789,1826463,-6245880,-6948242,-39746100,41381840
2026-01-14 17:14:08.391,-14761030,-7576884,1836821,-6196680,-7080078,-390625,-43,6306
2026-01-14 17:14:08.401,-53317860,-7569117,1846318,32429200,-74560540,-38671880,-10192870
2026-01-14 17:14:08.411,-53343750,-33252670,-23837230,32506890,-7734375,-39208980,-15991210
2026-01-14 17:14:08.421,-14690250,-7554442,1860990,-6094825,-77490230,-41625980,-21789550
2026-01-14 17:14:08.431,-14678160,-33097290,-23681860,-6072385,-68896480,-5288086,-22875980
2026-01-14 17:14:08.441,-14674710,-7539768,1875664,-6058573,-5390625,-7246094,-2998047
2026-01-14 17:14:08.451,-53490490,-32959190,-23543750,32774460,-4416504,-88378900,-4597168
2026-01-14 17:14:08.461,-14684210,-32898760,-23483330,-6049079,-4338379,-10195310,-6254883
2026-01-14 17:14:08.471,-10807380,-32846110,-23432410,-9943172,-50683590,-10527340,-8515625
2026-01-14 17:14:08.481,-53645860,-75138730,18981060,32860780,-70703130,-9980469,-10283200
2026-01-14 17:14:08.491,-5370629,-32723540,-23313290,3288667,-84521490,-9013672,-10820310
2026-01-14 17:14:08.501,-5375805,-49853960,44265820,3293845,-87841800,-8286133,-10654300
2026-01-14 17:14:08.511,-53792600,-74905680,19214110,33007520,-8388672,-74121100,-10029300
2026-01-14 17:14:08.521,-14713550,-7481072,1934359,-6019730,-7998047,-5673828,-9873047
2026-01-14 17:14:08.531,-44570510,-74698510,19473060,42505810,-7939453,-37695310,-10009770
2026-01-14 17:14:08.541,-53896180,-32201330,-22782440,33352790,-9394531,19543460,-10810550
2026-01-14 17:14:08.551,-14584080,-74430930,19740640,-5838468,-15029300,11972660,-10146480
2026-01-14 17:14:08.561,-44869170,-49803900,44367670,42845900,-16982420,19619140,-31835940
2026-01-14 17:14:08.571,-53999760,-7407705,2011182,34008800,-97021490,18076170,58203120
2026-01-14 17:14:08.581,-54034280,-31493530,-22074640,34267750,-17272950,13496090,10068360
2026-01-14 17:14:08.591,-54077440,-7367999,2047436,34518060,30807500,14921880,9897461
2026-01-14 17:14:08.601,-54111970,-31152580,-21742320,34759750,15917970,16484380,87841800
2026-01-14 17:14:08.611,-54155130,-3101103,-2160765,35010070,5317383,13066410,92822260
2026-01-14 17:14:08.621,-5418964,-73162070,20785070,3523446,9067383,7661133,10595700
2026-01-14 17:14:08.631,-13884050,-30777960,-21391880,-4915739,11142580,265625,1015625
2026-01-14 17:14:08.641,-13827940,-72859970,20897280,-4833741,12099610,-13452150,8520508
2026-01-14 17:14:08.651,-13771840,-30576840,-21213200,-4751738,12587890,-35961910,6464844
2026-01-14 17:14:08.661,-54422700,-7256650,2093184,36019980,12226560,-45141600,51123050
2026-01-14 17:14:08.671,-13667390,-72428380,20931810,-4597233,11611330,-5073242,46923830
2026-01-14 17:14:08.681,-54552180,-7227303,2093184,36425660,11416020,-4411621,5024414
2026-01-14 17:14:08.691,-13556910,-26058160,-25127670,-4431503,11113280,-26879880,61328120
2026-01-14 17:14:08.701,-54707560,-30158210,-20872250,36839990,11220700,-11218260,68066410
2026-01-14 17:14:08.711,-54811130,-71781010,20888650,37029880,11611330,12121580,78808590
2026-01-14 17:14:08.721,-13472320,-29999380,-20754860,-4257144,1140625,39208980,89208980
2026-01-14 17:14:08.731,-13479220,-48625680,43560610,-4232975,10800780,61621100,8886719
2026-01-14 17:14:08.741,-13519790,-29887170,-20694440,-4244196,99658200,7285156,93310540
2026-01-14 17:14:08.751,-47425870,-29837970,-20674580,45640840,9267578,8276367,90722660
2026-01-14 17:14:08.761,-55657040,-25687090,-24773680,37703150,9042969,78564460,87841800
2026-01-14 17:14:08.771,-55881460,-7072795,2031899,37772200,95947260,6020508,7836914
2026-01-14 17:14:08.781,-13828800,-47894570,42858850,-4435819,9794922,44750980,7138672
2026-01-14 17:14:08.791,-13937560,-47745240,42714710,-4516957,9873047,2849121,5644531
2026-01-14 17:14:08.801,-56546100,-7021005,1997372,37918950,9121094,13952640,39794920
2026-01-14 17:14:08.811,-14118830,-70046040,19878750,-4646434,87402340,-19561770,27124020
2026-01-14 17:14:08.821,-56934530,-6987342,1980972,38048420,83496100,-1586914,109375
2026-01-14 17:14:08.831,-5709851,-47226480,42232190,3814335,89208980,-34472660,35614020
2026-01-14 17:14:08.841,-57253900,-29357190,-20430310,38246950,90283200,-4350586,-13053890
2026-01-14 17:14:08.851,-9990905,-29261380,-20353490,-9033307,98828130,-5336914,77941900
2026-01-14 17:14:08.861,-14321670,-6916561,1974065,-4719800,9658203,-50341800,18701170
2026-01-14 17:14:08.871,-57650950,-6900162,1974930,38609480,94628900,-5239258,28076170
2026-01-14 17:14:08.881,-10011790,-68828980,19766530,-9046947,9243164,-6171875,33520510
2026-01-14 17:14:08.891,-5789265,-28866910,-20022900,3881663,8515625,-6074219,40014650
2026-01-14 17:14:08.901,-58004850,-46587740,41714300,38911590,734375,-6123047,44311520
2026-01-14 17:14:08.911,-49500920,-28706360,-19889960,47588140,6074219,-6254883,44384770
2026-01-14 17:14:08.921,-14445110,-28639900,-19835590,-4717212,44311520,-6147461,47875980
2026-01-14 17:14:08.931,-58315590,-68129810,19775170,39118740,28881840,-5473633,5463867
2026-01-14 17:14:08.941,-5841916,-68008960,19775170,3917051,17248540,-47827150,6645508
2026-01-14 17:14:08.951,-58505490,-28449140,-19681080,39222330,9979248,-3256836,72265620
2026-01-14 17:14:08.961,-14543510,-67801800,19792430,-4756919,10461430,-19995120,734375
2026-01-14 17:14:08.971,-58652220,-28328290,-19577500,39351800,14172360,-8251953,6977539
2026-01-14 17:14:08.981,-58712650,-67611910,19826960,39412230,23474120,49926760,7207031
2026-01-14 17:14:08.991,-14553000,-46068970,41300840,-4730159,39648440,12548830,7919922
2026-01-14 17:14:09.001,-14549550,-67447900,19870110,-4716350,59472660,12878420,8203125
2026-01-14 17:14:09.011,-14553000,-28101280,-19372930,-4712896,80322260,8178711,82421870
2026-01-14 17:14:09.021,-58868020,-28065890,-19339270,39602120,9589844,9887695,83154300
2026-01-14 17:14:09.031,-14567680,-28038270,-19315100,-4715484,10693360,14001470,8701172
2026-01-14 17:14:09.041,-14586670,-67249380,19947800,-4731024,11416020,16784670,8847656
2026-01-14 17:14:09.051,-14596160,-6723211,1994781,-4738789,11992190,17333980,9243164
2026-01-14 17:14:09.061,-14615150,-24069340,-23197710,-4754328,13505860,19934080,10058590
2026-01-14 17:14:09.071,-14632410,-67197580,19947800,-4771593,15107420,18249510,10849610
2026-01-14 17:14:09.081,-14649680,-67206220,19939170,-4788856,1640625,13574220,11005860
2026-01-14 17:14:09.091,-14673840,-45936910,41208480,-4816476,17158200,11981200,1125
2026-01-14 17:14:09.101,-59057920,-2802620,-1930989,39481280,17158200,10089110,11181640
2026-01-14 17:14:09.111,-59083810,-24138390,-23266760,39386330,16875,78186030,10712890
2026-01-14 17:14:09.121,-59101070,-67344330,19852850,39265480,15761720,7086182,9946289
2026-01-14 17:14:09.131,-14908630,-28166880,-19445440,-5082331,140625,28915400,9038086
2026-01-14 17:14:09.141,-59144240,-6749971,1976656,38980640,13095700,-58502200,89501950
2026-01-14 17:14:09.151,-59161500,-67603270,19714750,38790740,11679690,-11639400,85546870
2026-01-14 17:14:09.161,-59187390,-67706860,19662960,38592220,99121100,-9307861,81347660
2026-01-14 17:14:09.171,-15297920,-67827700,19611160,-5538949,90966800,4798889,7841797
2026-01-14 17:14:09.181,-59239180,-28579480,-19826950,38126100,7885742,13342290,72998050
2026-01-14 17:14:09.191,-15550830,-28679600,-19916720,-5838466,6586914,20227050,63427740
2026-01-14 17:14:09.201,-15675980,-6825928,1947306,-5989519,49780270,27124020,5839844
2026-01-14 17:14:09.211,-15816680,-28889350,-20104030,-6159565,34936520,2709961,5185547
2026-01-14 17:14:09.221,-49252340,-6859594,1939539,47025360,22729490,26831060,45336910
2026-01-14 17:14:09.231,-49111640,-25135960,-24254480,46855320,11047360,27905270,33251950
2026-01-14 17:14:09.241,-59239180,-29206130,-20374200,36399770,10025020,20617680,20214840
2026-01-14 17:14:09.251,-59221920,-29301080,-20451890,36106290,-19241330,9436035,9851074
2026-01-14 17:14:09.261,-16428670,-29388260,-20520080,-6928646,-41122440,1423645,6939697
2026-01-14 17:14:09.271,-48522100,-46947680,41941310,46167380,8416748,-12438970,6390381
2026-01-14 17:14:09.281,-16587490,-29555720,-20646100,-7149617,53100580,-38879400,92041020
2026-01-14 17:14:09.291,-58988860,-29626500,-20696160,35079120,56671140,-33203120,1842041
2026-01-14 17:14:09.301,-12492880,-29696410,-20747090,-11554970,67993170,30380250,34106440
2026-01-14 17:14:09.311,-16767890,-29766330,-20798020,-7418063,12414550,8807373,4338379
2026-01-14 17:14:09.321,-4782640,-29837110,-20848080,4539570,20910640,13842770,51904300
2026-01-14 17:14:09.331,-16860250,-29907030,-20899010,-7567389,34545900,26049800,49365230
2026-01-14 17:14:09.341,-16906000,-47682240,42587820,-7642487,5288086,31689450,4116211
2026-01-14 17:14:09.351,-16960380,-70771100,19688850,-7726216,69970700,31933590,33422850
2026-01-14 17:14:09.361,-58419170,-7094375,1970614,33594480,74658200,28295900,22521970
2026-01-14 17:14:09.371,-17065680,-71124990,19732010,-7897123,69628900,32714840,77941900
2026-01-14 17:14:09.381,-17118340,-30327390,-21220970,-7982574,6010742,27001950,-5493164
2026-01-14 17:14:09.391,-17154590,-30407660,-21278800,-8049901,54052740,16223150,-121398900
2026-01-14 17:14:09.401,-58013480,-46006910,45488840,32722680,44482420,15600590,-99121100
2026-01-14 17:14:09.411,-17209830,-30541460,-21369440,-8167291,32250980,20361330,-52825930
2026-01-14 17:14:09.421,-17229690,-30594970,-21402240,-8216492,2322998,21289060,27328490
2026-01-14 17:14:09.431,-13198260,-30640720,-21425540,-12299700,21252440,17578120,16223150
2026-01-14 17:14:09.441,-17263350,-30684740,-21450570,-8303671,1973877,1303711,26660160
2026-01-14 17:14:09.451,-57486950,-7237661,2015499,31850880,1538086,58563230,35058590
2026-01-14 17:14:09.461,-5740065,-30789180,-21518760,3169550,6439209,23391720,33007810
2026-01-14 17:14:09.471,-57322950,-49040860,43801440,31548770,-42755130,-3189087,28442380
2026-01-14 17:14:09.481,-17354850,-30889310,-21591270,-8488390,-17358400,-13793950,2064209
2026-01-14 17:14:09.491,-17379010,-30946280,-21637880,-8533274,-18725590,-18640140,19946290
2026-01-14 17:14:09.501,-17396280,-72929020,20258540,-8567804,-24194340,-20910640,2006836
2026-01-14 17:14:09.511,-13440040,-31042090,-21714700,-12558570,-17041020,-20178220,17297360
2026-01-14 17:14:09.521,-57020840,-31088700,-21754410,30987710,-17004400,-26342770,1907959
2026-01-14 17:14:09.531,-17427350,-73170700,20241280,-8640308,-15441900,-34179690,26464840
2026-01-14 17:14:09.541,-56943160,-4672592,4672063,30823710,-18371580,-38793940,26245120
2026-01-14 17:14:09.551,-56908630,-7330883,2015498,30754660,-25390620,-40625,29760740
2026-01-14 17:14:09.561,-17480870,-31310530,-21964160,-8724897,-29003910,-38549800,2854004
2026-01-14 17:14:09.571,-56874100,-73429660,19999590,30616540,-3293457,-42163090,27490230
2026-01-14 17:14:09.581,-56865470,-31462450,-22122980,30556130,-37719730,-47729490,29663090
2026-01-14 17:14:09.591,-17556830,-31537550,-22203260,-8821572,-42944340,-5444336,38500980
2026-01-14 17:14:09.601,-56882730,-7358504,1967161,30435280,-43823240,-6152344,484375
2026-01-14 17:14:09.611,-4365502,-31710180,-22393150,4362848,-45922850,-6503906,4855957
2026-01-14 17:14:09.621,-56925900,-3180774,-2250275,30323070,-51220700,-69189460,5126953
2026-01-14 17:14:09.631,-5696043,-31905260,-22612400,3027127,-5058594,-68066410,5366211
2026-01-14 17:14:09.641,-17740680,-73757660,19015580,-9017513,-52001950,-60839840,5229492
2026-01-14 17:14:09.651,-17783840,-32114140,-22852360,-9060670,-5361328,-5053711,4321289
2026-01-14 17:14:09.661,-57081260,-7381810,1862717,30167700,-4482422,-42504880,4243164
2026-01-14 17:14:09.671,-17845990,-7384397,1842863,-9119365,-37231440,-3557129,4675293
2026-01-14 17:14:09.681,-17882240,-73861240,18221460,-9152168,-35742190,-29223630,4921875
2026-01-14 17:14:09.691,-17910730,-32518110,-23328830,-9175470,-32910160,-14868160,5761719
2026-01-14 17:14:09.701,-1794785,-32620830,-23450530,-920742,1,-32421880,31173710,6220703
2026-01-14 17:14:09.711,-17984960,-73887130,17608610,-9239347,-2602539,16845700,6616211
2026-01-14 17:14:09.721,-18022070,-32807270,-23678410,-9271282,-22167970,29907230,7060547
2026-01-14 17:14:09.731,-18068680,-48375350,42706070,-9310990,-2244873,37695310,70703130
2026-01-14 17:14:09.741,-14171220,-73869870,16987130,-13294770,-79711910,40185550,6665039
2026-01-14 17:14:09.751,-18161040,-33068810,-24003820,-9391262,58624270,33642580,5527344
2026-01-14 17:14:09.761,-18215420,-73861240,16598710,-9440465,15136720,18188480,36083980
2026-01-14 17:14:09.771,-57771800,-45163760,45106300,30012330,15942380,-41381840,20727540
2026-01-14 17:14:09.781,-18322450,-73869870,16227550,-9540592,90026860,-19421390,7293701
2026-01-14 17:14:09.791,-5790991,-33402850,-24412100,2994326,-3152466,-24121090,-21453860
2026-01-14 17:14:09.801,-57978960,-73852610,15899550,29926010,-18933100,-24145510,-12719730
2026-01-14 17:14:09.811,-18451070,-33516790,-24557110,-9653667,-35229490,-234375,-15734860
2026-01-14 17:14:09.821,-18471780,-33536640,-24589050,-9667476,-44628900,-23388670,-8758545
2026-01-14 17:14:09.831,-14501730,-73757660,15597430,-13620270,-4897461,-17370600,6890869
2026-01-14 17:14:09.841,-45529490,-33542690,-24617530,42720740,-5488281,-11102300,19616700
2026-01-14 17:14:09.851,-14018280,-47489750,41675450,-14017400,-5410156,-10473630,2854004
2026-01-14 17:14:09.861,-5823792,-33508160,-24600270,3027127,-5332031,-27175900,35327150
2026-01-14 17:14:09.871,-58272430,-7353325,1544209,30374860,-5756836,308609,38183590
2026-01-14 17:14:09.881,-18362160,-47346460,41542520,-9483622,-54541020,7104492,38232420
2026-01-14 17:14:09.891,-18334540,-33433930,-24553660,-9442188,-5888672,18896480,3239746
2026-01-14 17:14:09.901,-58384640,-73326080,15390280,30676970,-60302740,29223630,23425290
2026-01-14 17:14:09.911,-5841918,-3336488,-2450187,3079782,-546875,4309082,20007320
2026-01-14 17:14:09.921,-14214390,-33309630,-24453540,-13320660,-42407230,5883789,24255370
2026-01-14 17:14:09.931,-18192980,-73084380,15442070,-9238484,-22363280,7104492,27539060
2026-01-14 17:14:09.941,-18139460,-7299807,1549386,-9171154,-56884770,8305664,33203120
2026-01-14 17:14:09.951,-18086810,-72920380,15554280,-9102966,12042240,8027344,33789060
2026-01-14 17:14:09.961,-58514120,-72842700,15631960,31462450,31054690,63671880,30419920
2026-01-14 17:14:09.971,-58505490,-32952280,-24103090,31591930,48999020,45092770,2709961
2026-01-14 17:14:09.981,-17890870,-32866830,-24015910,-8867320,57910160,25610350,24279780
2026-01-14 17:14:09.991,-13744560,-72626910,15916810,-12841000,59472660,11047360,22717280
2026-01-14 17:14:10.001,-17739820,-32696780,-23840680,-8690370,5371094,8746338,29760740
2026-01-14 17:14:10.011,-17668170,-72480170,16115340,-8606646,3947754,48187260,40820310
2026-01-14 17:14:10.021,-58427800,-28539250,-27652950,32308360,24182130,4840851,54003900
2026-01-14 17:14:10.031,-58401910,-32443010,-23576550,32455090,8911133,8491516,60009770
2026-01-14 17:14:10.041,-58384640,-72273010,16426080,32593200,-13647460,6048584,55078120
2026-01-14 17:14:10.051,-58341490,-32274700,-23399600,32739940,-33813480,11407470,5107422
2026-01-14 17:14:10.061,-58289700,-32182340,-23302070,32912570,-3972168,66345220,47460940
2026-01-14 17:14:10.071,-13024420,-47200580,41671140,-12111020,-37573240,-24749760,45654300
2026-01-14 17:14:10.081,-17012170,-47223890,41716880,-7864321,-32910160,-13964840,46020510
2026-01-14 17:14:10.091,-58099800,-71927740,17082090,33516790,-1451416,-28344730,4753418
2026-01-14 17:14:10.101,-16732500,-31764560,-22856670,-7557031,70610050,-4140625,48999020
2026-01-14 17:14:10.111,-16592670,-27652690,-26761380,-7403387,7849121,-51708980,4777832
2026-01-14 17:14:10.121,-16462330,-71703320,17479140,-7257515,64575200,-57470700,4572754
2026-01-14 17:14:10.131,-57814960,-31477990,-22556290,34371330,28778080,-5336914,45239260
2026-01-14 17:14:10.141,-16200790,-31393400,-22468250,-6966626,-58044430,-41723630,4411621
2026-01-14 17:14:10.151,-47385300,-31307950,-22381070,45094460,-14331060,-32177730,45581060
2026-01-14 17:14:10.161,-15947880,-71401210,17884830,-6684372,-17907720,-24804690,51660160
2026-01-14 17:14:10.171,-15817540,-31137040,-22206710,-6538494,-11663820,-2553711,578125
2026-01-14 17:14:10.181,-4657480,-31051590,-22119530,4635381,-3866577,-34985350,54785160
2026-01-14 17:14:10.191,-57461060,-71176790,18161050,35605660,-38391110,-37817380,44921880
2026-01-14 17:14:10.201,-47675330,-47311940,42025900,45512230,-13586430,-2866211,3178711
2026-01-14 17:14:10.211,-57366110,-47305900,42031940,35942290,-3137207,-17114260,19042970
2026-01-14 17:14:10.221,-57322950,-7096964,1835097,36106290,-44384770,-8190918,9710693
2026-01-14 17:14:10.231,-10972500,-30714950,-21782900,-10037000,-5004883,-18753050,154800400
2026-01-14 17:14:10.241,-15084710,-70848780,18489050,-5717625,-5600586,21774290,6149292
2026-01-14 17:14:10.251,-57184840,-70779730,18575360,36589670,-5185547,-10055540,-11428830
2026-01-14 17:14:10.261,-14888780,-707106,5,186617,5,-5499241,-51708980,-12182620,-4425049
2026-01-14 17:14:10.271,-5709851,-70632990,18773900,3691764,-546875,-23059080,-13806150
2026-01-14 17:14:10.281,-14676440,-30298040,-21353900,-5262733,-5317383,-36254880,-2475586
2026-01-14 17:14:10.291,-10311490,-30188420,-21239100,-9368734,-45654300,-5620117,-3034668
2026-01-14 17:14:10.301,-56891370,-30053760,-21097530,37504620,-39916990,-7475586,-31640620
2026-01-14 17:14:10.311,-5681367,-70253200,19395370,3773765,-3071289,-90966800,-36083980
2026-01-14 17:14:10.321,-56718740,-47402570,42349590,37970740,-2626953,-9692383,-3857422
2026-01-14 17:14:10.331,-13934980,-2958506,-2059948,-4450491,-35546880,-9326172,-46948240
2026-01-14 17:14:10.341,-9469292,-69890670,20103170,-8519121,-5317383,-78808590,-51708980
2026-01-14 17:14:10.351,-13529290,-29184560,-20171360,-4010277,-66845700,-55810550,-4399414
2026-01-14 17:14:10.361,-13305730,-69571300,20698760,-3767729,-70654300,-3581543,-23254400
2026-01-14 17:14:10.371,-5607998,-69390030,21052650,3950714,-6386719,-19885250,-15535360
2026-01-14 17:14:10.381,-55933250,-24345470,-23439480,39878340,-5859375,-12915040,19628910
2026-01-14 17:14:10.391,-12578080,-6899298,2177772,-2976201,-5107422,-13049320,33496090
2026-01-14 17:14:10.401,-12338110,-68785810,22140240,-2715528,-5703125,-1776123,3635254
2026-01-14 17:14:10.411,-55493040,-47843640,43237780,40940040,-70410160,-16223150,28344730
2026-01-14 17:14:10.421,-118659600,-6836286,2289126,-22036660,-7998047,-23803710,19665530
2026-01-14 17:14:10.431,-72685600,-6815568,2327103,-63004320,-94970700,-33251950,10809330
2026-01-14 17:14:10.441,-7019106,-26711580,-17551650,-6049252,-10722660,-3972168,43426510
2026-01-14 17:14:10.451,-11133130,-26402570,-17221920,-1417323,-11767580,-3251953,40527340
2026-01-14 17:14:10.461,-10874180,-67482430,24531220,-1141111,-13134770,-1965332,-29937740
2026-01-14 17:14:10.471,-10597970,-25732750,-16510670,-847632,2,-14541020,109939600,2670288
2026-01-14 17:14:10.481,-10313120,-6698179,2546344,-545522,7,-15712890,22973630,87402340
2026-01-14 17:14:10.491,-100187800,-25005100,-15736400,-2356448,-16884770,4699707,12658690
2026-01-14 17:14:10.501,-97080440,-6643800,2649065,923583,8,-16835940,6767578,16296390
2026-01-14 17:14:10.511,-53576800,-24208400,-14893090,44617120,-16005860,80859380,26367190
2026-01-14 17:14:10.521,-53326480,-23788900,-14449420,45040080,-15205080,9975586,3010254
2026-01-14 17:14:10.531,-87335280,-23359900,-13997980,11203920,-14316410,1109375,3215332
2026-01-14 17:14:10.541,-84055250,-6515188,2869172,14656580,-13613280,1171875,2685547
2026-01-14 17:14:10.551,-36190020,-64815240,29252740,-26303300,-13457030,11728520,22094730
2026-01-14 17:14:10.561,-7721895,-64469980,29822430,2180358,-13789060,10810550,1706543
2026-01-14 17:14:10.571,-73585020,-64116080,30418020,25592910,-15136720,10498050,8166504
2026-01-14 17:14:10.581,-24991280,-63744910,31013610,-15059680,-16074220,10039060,5328369
2026-01-14 17:14:10.591,-20854990,-49078840,45904110,-10909580,-16953120,9667969,58288580
2026-01-14 17:14:10.601,-61353940,-20123890,-10604870,38221060,-18085940,9682617,12188720
2026-01-14 17:14:10.611,-11977310,-19608580,-10067120,-2006002,-19501950,96533200,22290040
2026-01-14 17:14:10.621,-25707720,-62113530,33508160,-15724330,-20097660,921875,36254880
2026-01-14 17:14:10.631,26076290,-61656050,34155540,36071760,-20332030,81396480,46777340
2026-01-14 17:14:10.641,3627892,-13669210,-12709190,13635450,-20839840,6767578,48339840
2026-01-14 17:14:10.651,13914000,-49340380,46816480,14915790,-20703120,51171880,4958496
2026-01-14 17:14:10.661,15528380,-16847300,-7217807,25558390,-20585940,32495120,47265620
2026-01-14 17:14:10.671,-23271000,-16257760,-6616177,77132640,-20429690,15527340,49365230
2026-01-14 17:14:10.681,-1677135,-11315180,-10350330,8375313,-20234380,3225708,5229492
2026-01-14 17:14:10.691,-9831476,-15046740,-5393071,90796580,-18896480,-14050290,5917969
2026-01-14 17:14:10.701,-45609770,-14425260,-4771588,55139140,-16806640,-34423830,6904297
2026-01-14 17:14:10.711,-44910600,-57219370,39282760,55941880,-14912110,-50390620,7866211
2026-01-14 17:14:10.721,-44211440,-56563370,39869710,56761890,-12373050,-64941410,8676758
2026-01-14 17:14:10.731,65380620,-12540960,-2909740,75488310,-10429690,-7480469,9404297
2026-01-14 17:14:10.741,2752641,-11936740,-2322784,12870690,-9501953,-83496100,10927730
2026-01-14 17:14:10.751,3523452,-54509020,41406140,13653580,-89453130,-91064460,12460940
2026-01-14 17:14:10.761,8849711,-5382713,4184635,9863760,-8261719,-9448242,14287110
2026-01-14 17:14:10.771,-49742610,-10215590,-677584,3,51765880,-71875,-1015625,15908200
2026-01-14 17:14:10.781,-49718440,-9671794,-168315,3,51893630,-6557617,-10439450,17099610
2026-01-14 17:14:10.791,6549715,-9144396,322824,7,16721280,-56884770,-10488280,18056640
2026-01-14 17:14:10.801,-3852318,-43900700,-34474900,6329605,-4958496,-10361330,19345700
2026-01-14 17:14:10.811,8031773,-39217150,-29836240,18225780,-44458010,-93359380,20722660
2026-01-14 17:14:10.821,8760286,-7670107,1662460,18964650,-3359375,-8334961,21992190
2026-01-14 17:14:10.831,9470672,-25682480,-25589670,19687120,-66345220,-72753900,228125
2026-01-14 17:14:10.841,10154300,-67706860,24548480,20384560,23364260,-5864258,22910160
2026-01-14 17:14:10.851,-49626940,-22279220,-13110650,52813760,4958496,-50927740,21953120
2026-01-14 17:14:10.861,-34733860,-59618980,31479720,67862220,77001950,-4658203,20429690
2026-01-14 17:14:10.871,12021330,-15313450,-6265734,22298200,10029300,-42651370,18212890
2026-01-14 17:14:10.881,12565130,-8304103,-7405546,22859260,10527340,-44750980,16220700
2026-01-14 17:14:10.891,13064040,-55387730,-46466030,23378890,9848633,-4567871,13642580
2026-01-14 17:14:10.901,13546550,-30323940,-21466110,23880390,10058590,-58496100,11025390
2026-01-14 17:14:10.911,13992810,-4399566,4394385,24349090,10371090,-7001953,96533200
2026-01-14 17:14:10.921,-32282460,12898310,21628390,71487530,91845700,-7426758,9760742
2026-01-14 17:14:10.931,-49997240,-6214808,80447200,53997160,7993164,-75097660,11015630
2026-01-14 17:14:10.941,-51914260,11367910,97391180,52321850,7158203,-6254883,12832030
2026-01-14 17:14:10.951,-31496970,-35527970,49856550,72980810,61572260,-42529300,15605470
2026-01-14 17:14:10.961,15851210,-33654900,51090880,26323150,5209961,-30249020,17587890
2026-01-14 17:14:10.971,16175760,-31781820,52325210,26671870,42944340,-17041020,19130860
2026-01-14 17:14:10.981,-3084095,-29822430,53645860,7434460,46020510,-12390140,19921880
2026-01-14 17:14:10.991,16792060,-27949360,54880180,27333060,48535160,-23571780,1984375
2026-01-14 17:14:11.001,-3046980,10908710,19129520,7518189,52246100,-4477539,196875
2026-01-14 17:14:11.011,17338450,-39153280,42450570,27926050,61328120,-66796880,19765620
2026-01-14 17:14:11.021,17568050,13731270,21831230,28179830,65234380,-7910156,20917970
2026-01-14 17:14:11.031,-50879410,14969050,23010320,55497350,5986328,-90625,23007810
2026-01-14 17:14:11.041,-30012330,16205960,24190270,76606110,56933590,-10048830,24589840
2026-01-14 17:14:11.051,-29951910,17356570,25283900,76908220,6357422,-11357420,2578125
2026-01-14 17:14:11.061,-2991738,-1692672,6181142,7720170,67041020,-12207030,26875
2026-01-14 17:14:11.071,18420860,19568000,27388300,29156930,63916020,-10947270,27382810
2026-01-14 17:14:11.081,18502000,-3640842,4129392,29265690,5678711,-4034424,33964840
2026-01-14 17:14:11.091,18556380,-13051090,64150600,29349420,89404300,15830080,4578125
2026-01-14 17:14:11.101,-3008999,-11255700,65462620,7811665,17509770,24355470,47773440
2026-01-14 17:14:11.111,18641830,25189810,32815030,29488390,26328120,27421880,4125
2026-01-14 17:14:11.121,-30262650,27368450,34952240,78444660,30878910,26542970,31035160
2026-01-14 17:14:11.131,-3040937,-34388600,41069510,7855686,31796880,24765620,20253910
2026-01-14 17:14:11.141,-30616550,3527313,3602448,78608660,29960940,23222660,95703130
2026-01-14 17:14:11.151,23327710,34064900,41548560,24422720,27910160,22324220,1616211
2026-01-14 17:14:11.161,-31143080,36321220,43780720,78617290,23144530,18867190,-42456060
2026-01-14 17:14:11.171,-31410660,38749310,46186360,78591390,1796875,16308590,-55859380
2026-01-14 17:14:11.181,17977190,41696170,49109050,28996390,12705080,1515625,-51464840
2026-01-14 17:14:11.191,17953880,-32040780,41846360,28985160,10195310,12832030,-57958980
2026-01-14 17:14:11.201,18020350,1652964,9015783,29056810,79003900,9863281,-7216797
2026-01-14 17:14:11.211,-54928090,2160506,9492254,55401970,55859380,64990230,-87646480
2026-01-14 17:14:11.221,-31194870,2729332,10028280,79031620,3955078,4802246,-9038086
2026-01-14 17:14:11.231,18708290,-29313160,43296480,29715400,-19152830,61328120,-4597168
2026-01-14 17:14:11.241,19090670,7338562,8060343,30075340,-22058100,68066410,-7133484
2026-01-14 17:14:11.251,-29744750,-27353780,44323650,79791200,13098150,52490230,6817627
2026-01-14 17:14:11.261,-29071480,5784083,12894860,80101940,6274414,24597170,82336420
2026-01-14 17:14:11.271,-54119300,6730114,13778740,54639790,11445310,5154419,504303
2026-01-14 17:14:11.281,21116530,-23693950,46101770,31951010,15068360,-20898440,-23986820
2026-01-14 17:14:11.291,21620620,8728348,15630230,32413660,18740230,-33325200,-13684080
2026-01-14 17:14:11.301,26928320,-2093182,4727567,28003660,21503910,-27661130,-8654785
2026-01-14 17:14:11.311,22531260,-19473060,47836740,33246620,23105470,-17370600,10284420
2026-01-14 17:14:11.321,22938680,-17988410,48371900,33616060,25097660,-33691410,13891600
2026-01-14 17:14:11.331,-24539850,-16451970,48889800,81854180,26679690,10217290,15136720
2026-01-14 17:14:11.341,23711210,14039420,20470010,34310900,30429690,32983400,-58929440
2026-01-14 17:14:11.351,-49846190,-13353200,49882450,55719190,30566410,16113280,-5522461
2026-01-14 17:14:11.361,-2289119,-30881280,31266770,8225985,3015625,-70610050,-98339840
2026-01-14 17:14:11.371,-22381930,-1026310,5079742,82320280,29941410,-1665039,-14580080
2026-01-14 17:14:11.381,25014590,-27863910,32108970,35441660,27832030,-453125,-18261720
2026-01-14 17:14:11.391,25260600,-7319662,51617410,35644500,25507810,-7260742,-20878910
2026-01-14 17:14:11.401,-21078550,20142010,25933860,82346180,24042970,-8725586,-20742190
2026-01-14 17:14:11.411,-20724650,-4583422,52368370,82285750,22265620,-97314460,-20097660
2026-01-14 17:14:11.421,-20379380,-3271408,52713640,82216700,21035160,-9379883,-19316410
2026-01-14 17:14:11.431,25922640,-24974030,30078790,36139090,20195310,-92041020,-18203120
2026-01-14 17:14:11.441,-47752150,-24429370,29691240,53980760,20292970,-8496094,-19423830
2026-01-14 17:14:11.451,26182460,24417280,29737840,36310860,19824220,-86328130,-20566410
2026-01-14 17:14:11.461,26291220,1665912,53973860,36374740,19453120,-85302740,-21757810
2026-01-14 17:14:11.471,-47052980,25963210,31109420,53333390,19335940,-8745117,-23027340
2026-01-14 17:14:11.481,-18514940,3892882,54578080,81405330,19160160,-85595700,-23125
2026-01-14 17:14:11.491,-18264620,4920050,54880190,81206800,19726560,-9042969,-228125
2026-01-14 17:14:11.501,-18022930,5895432,55182290,80982380,21328120,-7548828,-23320310
2026-01-14 17:14:11.511,26551900,6810390,55493030,36407540,20742190,-89990230,-240625
2026-01-14 17:14:11.521,-1759134,29322660,34137410,8051628,19404300,-85009770,-2328125
2026-01-14 17:14:11.531,-48515100,8450408,56114520,49143660,17636720,-6660156,-21054690
2026-01-14 17:14:11.541,-17202920,30456860,35178390,79989730,15966800,-4165039,-18583980
2026-01-14 17:14:11.551,-1697848,9952320,56736000,7973078,14384770,-25878910,-16298830
2026-01-14 17:14:11.581,-1608079,12110240,57599160,7900573,5107422,-5332031,-14785160
2026-01-14 17:14:11.591,-15666490,1282664,5783223,78798560,11315920,-73046870,-13525390
2026-01-14 17:14:11.621,-43041840,-18070410,25398700,49455180,-14099120,-11123050,-99658200
2026-01-14 17:14:11.631,2768267,15554280,58505490,3686502,-7507324,-12373050,-10166020
2026-01-14 17:14:11.641,-1310285,16184390,58617700,7806487,340271,-11396480,-10019530
2026-01-14 17:14:11.651,-1254182,-17181350,24734060,7795265,22741700,-10283200,-92822260
2026-01-14 17:14:11.661,-11980770,1741005,5880760,77840440,43481440,-8564453,-80908200
2026-01-14 17:14:11.671,32734500,-16587490,24274860,33625810,5566406,-6879883,-53125
2026-01-14 17:14:11.681,-40867520,1861850,5891120,47555350,6459961,-6489258,-82470700
2026-01-14 17:14:11.691,29328710,19179580,58937070,38101940,5517578,-59033200,-8046875
2026-01-14 17:14:11.701,-952935,5,-15686340,23553250,7751243,7109375,-93444820,-46850580
2026-01-14 17:14:11.711,-890788,8,2023264,5895433,7746065,86621100,15002440,-2890625
2026-01-14 17:14:11.721,30295450,2073327,5893706,38861520,10019530,19641110,-29174800
2026-01-14 17:14:11.731,3064159,-14845620,22857540,3913687,10546880,30322270,-30517580
2026-01-14 17:14:11.741,-6896708,-1458325,2263657,77331170,11796880,4104004,-54345700
2026-01-14 17:14:11.751,-622341,3,22062560,58850760,7729666,11337890,5444336,-7285156
2026-01-14 17:14:11.761,31723990,-14133510,22257630,40005220,10322270,7324219,-62597660
2026-01-14 17:14:11.771,-486826,8,-1394706,2209881,7725349,9760742,8769531,-49194340
2026-01-14 17:14:11.781,-422088,-13780470,21954660,7724485,8339844,7548828,-55322260
2026-01-14 17:14:11.791,-40036560,-13650130,21843320,40773180,6660156,43896480,-7451172
2026-01-14 17:14:11.801,-297792,3,-13566400,21771670,7722759,55126950,20874020,-96728510
2026-01-14 17:14:11.811,-2408240,-13528430,21740600,77227590,39672850,18481440,-9838867
2026-01-14 17:14:11.821,33711870,23435000,58704020,41625390,43408200,7036133,-6816406
2026-01-14 17:14:11.831,33938880,39273260,42813970,41812700,7890625,16757810,-78466800
2026-01-14 17:14:11.841,-115662,5,39226640,42791520,7721898,11943360,30175780,-11044920
2026-01-14 17:14:11.851,-3523189,39151550,42745780,4286750,91015620,34492190,-16357420
2026-01-14 17:14:11.861,-58693,75,39022070,42650830,7727076,-30578610,3015625,-20585940
2026-01-14 17:14:11.871,-328000,22295620,59032020,77339810,-76708980,27089840,-20234380
2026-01-14 17:14:11.881,3478220,-14646230,22728930,4254034,-125,25449220,-16826170
2026-01-14 17:14:11.891,-3492892,-15057960,23076780,4268708,-15869140,22753910,-9165039
2026-01-14 17:14:11.901,7769,25,-15527520,23470380,7778001,-17070310,18964840,-13378910
2026-01-14 17:14:11.911,35203420,19369480,59213290,42982280,-16005860,11621090,38549800
2026-01-14 17:14:11.921,371168,18549470,59170130,78211600,-12958980,44580080,89160160
2026-01-14 17:14:11.931,-34957420,-16793790,24482880,42865760,-103125,-22131350,11308590
2026-01-14 17:14:11.941,-34876280,1718564,5894572,42843320,-6689453,-76464850,14345700
2026-01-14 17:14:11.951,141561,8,16693660,58747180,7894531,-5073242,-13857420,10654300
2026-01-14 17:14:11.961,1890336,16313860,58488220,79195620,-47265620,-19228520,4580078
2026-01-14 17:14:11.971,-34474900,15994490,58186120,42657740,-3840332,-21953120,-6060791
2026-01-14 17:14:11.981,2762136,34654440,38870160,79773940,-31079100,-23574220,-48510740
2026-01-14 17:14:11.991,307288,5,-17426490,24713350,8006740,-29833980,-23417970,-8959961
2026-01-14 17:14:12.001,37975910,-20726290,21448070,45682270,-22973630,-215625,-1078125
2026-01-14 17:14:12.011,341816,8,14622060,56865470,8065437,8190918,-15712890,-77978510
2026-01-14 17:14:12.021,345267,8,-17641420,24722840,8091330,41064450,-8364258,-39257810
2026-01-14 17:14:12.031,343542,5,32956600,37201650,8117228,69140620,-12005620,1335907
2026-01-14 17:14:12.041,-34792550,13499940,56036830,43272310,9526367,4411621,3947754
2026-01-14 17:14:12.051,38549060,1319781,5576923,46386620,9580078,89160160,7089844
2026-01-14 17:14:12.061,-35098980,12912980,55518930,43604630,90527340,13105470,11425780
2026-01-14 17:14:12.071,-39072570,31845700,36102840,39924520,8071289,17080080,13232420
2026-01-14 17:14:12.081,3046984,31641990,35892230,82285750,55371100,18300780,11884770
2026-01-14 17:14:12.091,302111,3,12386450,54767970,8246703,42236330,18466800,12099610
2026-01-14 17:14:12.101,38866700,12326030,54500390,46828560,25512700,15332030,11660160
2026-01-14 17:14:12.111,3107404,-17645740,24304200,82812290,17822270,12685550,10644530
2026-01-14 17:14:12.121,322826,5,31106830,35270750,8296768,18139650,87402340,10878910
2026-01-14 17:14:12.131,39267210,-17317730,23941670,47239430,14099120,43798830,10439450
2026-01-14 17:14:12.141,358216,8,12654030,53499120,8323524,13952640,35888670,9140625
2026-01-14 17:14:12.151,-3542524,12843930,53240170,4414153,2866211,-35961910,11132810
2026-01-14 17:14:12.161,404827,3,31047270,35036830,8347694,51123050,-68066410,13125
2026-01-14 17:14:12.171,4333108,13404990,52730900,83571870,7890625,-98339840,13964840
2026-01-14 17:14:12.181,4652472,1375885,5248058,83649560,11074220,-12451170,14833980
2026-01-14 17:14:12.191,502365,5,14181840,52247530,8370998,146875,-14121090,15898440
2026-01-14 17:14:12.201,40665550,14656580,52014470,48499660,17568360,-15117190,14541020
2026-01-14 17:14:12.211,5817748,1517445,5180731,83761760,20820310,-15195310,14882810
2026-01-14 17:14:12.221,41120440,15735540,51591520,48873400,24433590,-14726560,16162110
2026-01-14 17:14:12.231,4133193,16322500,51401620,4904173,26660160,-14365230,16865230
2026-01-14 17:14:12.241,41545110,32373960,35799010,49208310,28710940,-14111330,17324220
2026-01-14 17:14:12.251,749230,-13259980,20127340,8362366,29121090,-13916020,16914060
2026-01-14 17:14:12.261,41943040,32996300,36246990,49500930,28496090,-13339840,15820310
2026-01-14 17:14:12.271,838138,3,19110530,50736980,8339062,2765625,-11992190,1484375
2026-01-14 17:14:12.281,-36742180,19887380,50616140,37662840,26601560,-11347660,14169920
2026-01-14 17:14:12.291,-32265200,-11348060,18465740,41501090,26230470,-9873047,13476560
2026-01-14 17:14:12.301,9788320,21518760,50383080,82864080,26386720,-8076172,128125
2026-01-14 17:14:12.311,10314850,-13576770,14303550,82631020,26210940,-6464844,11757810
2026-01-14 17:14:12.321,1089318,-9739120,17088130,8236344,25117190,-54248050,99316410
2026-01-14 17:14:12.331,11506030,24298160,50037810,82078590,23496090,-50146480,77734380
2026-01-14 17:14:12.341,-30098650,-8547087,16070450,39489910,21445310,-45507810,54248050
2026-01-14 17:14:12.351,43692680,26335240,49813390,50547950,19726560,-4182129,3544922
2026-01-14 17:14:12.361,13534470,27396930,49683920,80999630,17109380,-43237300,21606440
2026-01-14 17:14:12.371,-28421520,-6636896,14441660,37904270,14941410,-4411621,105041500
2026-01-14 17:14:12.381,14975960,-5966217,13869370,80127840,13134770,-4404297,8087158
2026-01-14 17:14:12.391,-27194950,-5278271,13279830,36731230,10888670,-40722660,12414550
2026-01-14 17:14:12.401,16477870,-4581696,12681660,79143820,9091797,-34228520,1821289
2026-01-14 17:14:12.411,44864000,-3859224,12057580,50999390,83740230,-3840332,2770996
2026-01-14 17:14:12.421,18031570,34198690,48751690,78056230,8359375,-43725580,3239746
2026-01-14 17:14:12.431,18808420,-2390114,10781820,77469280,8876953,-49609380,39526370
2026-01-14 17:14:12.441,45361180,36546510,48320110,51089160,10898440,-44677740,51123050
2026-01-14 17:14:12.451,45508780,-904601,5,9487934,51096920,14824220,-3815918,56884770
2026-01-14 17:14:12.461,-22388830,38902950,47879900,32059770,19882810,-2697754,57177740
2026-01-14 17:14:12.471,21915820,-33332940,42107900,74879780,24355470,-1182251,3828125
2026-01-14 17:14:12.481,22727200,41337090,47379260,74120190,26484380,-17959600,17687990
2026-01-14 17:14:12.491,2355586,42597310,47103050,7332609,26933590,97961420,-15686040
2026-01-14 17:14:12.501,-19195980,30840980,59843400,28882450,25820310,13195800,-45166020
2026-01-14 17:14:12.511,2523904,39533070,52135320,7159113,23828120,89416500,-64941410
2026-01-14 17:14:12.521,46132850,23621440,-14357930,50593700,22304690,12524410,-78466800
2026-01-14 17:14:12.531,-16595260,56900000,36701880,26252380,21953120,24633790,-95410160
2026-01-14 17:14:12.541,-15725180,23027580,-13570720,25361580,21152340,42651370,-12011720
2026-01-14 17:14:12.551,46078470,74171980,21346130,50009340,196875,6777344,-16035160
2026-01-14 17:14:12.561,-1396863,82838180,13612150,2354466,15664060,8935547,-19921880
2026-01-14 17:14:12.571,-13098570,91323120,6042173,22636570,11152340,12050780,-23359380
2026-01-14 17:14:12.581,3049571,9979942,-153643,4,6445272,88916020,15957030,-26582030
2026-01-14 17:14:12.591,3113447,50147440,48978710,6334788,70996100,20214840,-30234380
2026-01-14 17:14:12.601,-10553950,11619100,-1621891,19950390,45214840,23828120,-34511720
2026-01-14 17:14:12.611,-9745160,12427020,-2350404,19084630,587,4634,24863280,-37832030
2026-01-14 17:14:12.621,-13548490,86473840,-76319540,13641300,-6660156,23261720,-39433590
2026-01-14 17:14:12.631,33309640,60024660,42243410,58876660,-14609380,19365230,-38457030
2026-01-14 17:14:12.641,44573110,61094990,41863620,46974440,-2078125,14228520,-34921880
2026-01-14 17:14:12.651,3416419,62104900,41492460,5672740,-24589840,7607422,-30214840
2026-01-14 17:14:12.661,-6096552,16163670,-5743516,15120100,-25566410,18786620,-25644530
2026-01-14 17:14:12.671,-5517366,16803280,-6329607,14473590,-2390625,-33422850,-22363280
2026-01-14 17:14:12.681,-4997740,17407500,-6882033,13888370,-20898440,-68408200,-21289060
2026-01-14 17:14:12.691,35199970,65583460,40154550,53033010,-17285160,-93603520,-21464840
2026-01-14 17:14:12.701,-79779980,18592620,-7975663,88537670,-14052730,-11494140,-22714840
2026-01-14 17:14:12.711,35519340,67137160,39429490,51384360,-13134770,-12509770,-24296880
2026-01-14 17:14:12.721,-3145383,19770850,-9076204,11770150,-13486330,-13583980,-25976560
2026-01-14 17:14:12.731,35786920,15512410,-14439500,49787500,-14765630,-12832030,-27617190
2026-01-14 17:14:12.741,-2315016,20884340,-10120640,10805130,-17050780,-11767580,-2890625
2026-01-14 17:14:12.751,35968190,21393600,-10595380,48259690,-20351560,-1140625,-29804690
2026-01-14 17:14:12.761,-1595995,70598460,37711780,9953187,-23222660,-11289060,-30976560
2026-01-14 17:14:12.771,-1282668,22262820,-11400720,9575981,-24316410,-11044920,-31601560
2026-01-14 17:14:12.781,-10116320,22623620,-11730450,92427970,-24589840,-10517580,-32226560
2026-01-14 17:14:12.791,-44510950,18016810,-16924210,52681700,-23945310,-10224610,-32851560
2026-01-14 17:14:12.801,35968190,23207980,-12250940,45169560,-23554690,-10048830,-32578120
2026-01-14 17:14:12.811,-3305932,72885860,36978100,83873980,-23828120,-93310540,-31777340
2026-01-14 17:14:12.821,-131202,23659420,-12645400,8137944,-2390625,-8520508,-31660160
2026-01-14 17:14:12.831,35881870,23854490,-12812860,43702170,-23515620,-10166020,-28652340
2026-01-14 17:14:12.841,2701712,24030580,-12964770,76416220,-23535160,-10253910,-26015620
2026-01-14 17:14:12.851,4825108,24189400,-13099430,73878500,-24394530,-9448242,-24257810
2026-01-14 17:14:12.861,6957132,74327350,36779570,71349420,-24648440,-82666020,-22441410
2026-01-14 17:14:12.871,9115046,24450940,-13321260,68846230,-23867190,-66259770,-20078120
2026-01-14 17:14:12.881,36089030,19538400,-18423710,41578780,-23378910,-5292969,-18486330
2026-01-14 17:14:12.891,1375889,24639110,-13478360,6364998,-22128910,-35595700,-16748050
2026-01-14 17:14:12.901,36373880,75000620,36727780,40827820,-21328120,-24560550,-15527340
2026-01-14 17:14:12.911,-15741580,24796210,-13614740,23446220,-20410160,-1763916,-14052730
2026-01-14 17:14:12.921,2172592,24859220,-13672570,5521684,-19638670,-23937990,-11982420
2026-01-14 17:14:12.931,2462616,24920510,-13732130,5224754,-18662110,-32495120,-10703130
2026-01-14 17:14:12.941,27552300,24972290,-13783920,49304130,-18056640,-34570310,-10097660
2026-01-14 17:14:12.951,-3924820,57866740,53982490,11612190,-16328130,-30200200,-98339840
2026-01-14 17:14:12.961,-6430596,25053430,-13875420,83338820,-14775390,-22668460,-9916992
2026-01-14 17:14:12.971,-7371451,25109540,-13940160,15070910,-13105470,-18188480,-10019530
2026-01-14 17:14:12.981,41043610,25189820,-14032520,36037240,-11884770,-18066410,-98876950
2026-01-14 17:14:12.991,45065970,25294260,-14152500,32118460,-11484380,-18115230,-96191410
2026-01-14 17:14:13.001,14740310,2542288,-1430010,-7011509,-11679690,-23583980,-8774414
2026-01-14 17:14:13.011,19406590,7553579,3546754,-11667430,-1296875,-3413086,-7890625
2026-01-14 17:14:13.021,59290970,25779360,-14703200,18204200,-15957030,-49145510,-60058590
2026-01-14 17:14:13.031,64608080,20503680,-20393200,12990670,-18613280,-46533200,-46020510
2026-01-14 17:14:13.041,35044600,7577749,3443174,-27276090,-20449220,-31420900,-4326172
2026-01-14 17:14:13.051,75570300,26392210,-15402360,2201077,-20136720,-18530270,-40966800
2026-01-14 17:14:13.061,81129110,56907760,52679970,-3288664,-19130860,-53527830,-33642580
2026-01-14 17:14:13.071,8686052,21926960,-20834360,-895103,6,-17324220,-1008606,-15197750
2026-01-14 17:14:13.081,92661020,7609686,3283486,-14717010,-17041020,23345950,17425540
2026-01-14 17:14:13.091,63458340,76174530,32411940,-55658760,-16953120,42907720,21704100
2026-01-14 17:14:13.101,45557980,27542810,-16720420,32455100,-16445310,3842163,41430660
2026-01-14 17:14:13.111,11039910,27757740,-16971600,-3236877,-15517580,46203610,4946289
2026-01-14 17:14:13.121,11619100,5601699,5149916,-3814337,-13945310,109436000,52001950
2026-01-14 17:14:13.131,12197420,28162560,-17447200,-4392658,-11513670,20385740,5996094
2026-01-14 17:14:13.141,12758480,76398950,30392130,-4953715,-9301758,3659668,6020508
2026-01-14 17:14:13.151,13318680,76433480,30012330,-5515637,-6279297,41381840,52685550
2026-01-14 17:14:13.161,48976120,28721900,-18113570,29036950,-3918457,52197260,5390625
2026-01-14 17:14:13.171,49502650,28918700,-18348350,28441370,-24365230,6020508,47729490
2026-01-14 17:14:13.181,14985450,76528420,28812530,-7197950,-32409670,6777344,36621100
2026-01-14 17:14:13.191,15549100,29339060,-18842950,-7773685,4714966,7363281,2614746
2026-01-14 17:14:13.201,40023350,29578160,-19121750,37575400,11730960,7675781,28222660
2026-01-14 17:14:13.211,51539730,76701060,27483250,25886400,6210327,7368164,30639650
2026-01-14 17:14:13.221,17274570,30057220,-19678490,-9552674,-9942627,73876950,40673830
2026-01-14 17:14:13.231,52506470,30296310,-19957300,24505330,-22338870,70996100,5888672
2026-01-14 17:14:13.241,18408770,76882320,26128080,-10731760,-21228030,6977539,66015620
2026-01-14 17:14:13.251,18957750,26123330,-25097030,-11304900,-16320800,69677740,6533203
2026-01-14 17:14:13.261,53801220,76977270,25290810,22468250,-16088870,59033200,67529300
2026-01-14 17:14:13.271,19984050,77020430,24885120,-12384720,-12988280,46313480,6582031
2026-01-14 17:14:13.281,20478650,31370960,-21213200,-12908670,-1361084,29418940,61376950
2026-01-14 17:14:13.291,54888820,5062742,5062210,20500220,-23937990,38482660,6435547
2026-01-14 17:14:13.301,21422090,77193060,23728470,-13915980,-43676760,-15783690,80566410
2026-01-14 17:14:13.311,5548440,31963090,-21898560,1924865,-51220700,-20495600,8979492
2026-01-14 17:14:13.321,22261950,77296650,23089730,-14819720,-44360350,14930730,82177740
2026-01-14 17:14:13.331,22642610,7734845,2279625,-15233180,-36132810,35131840,6376953
2026-01-14 17:14:13.341,22987880,77400220,22537300,-15612970,-2998047,71435540,47875980
2026-01-14 17:14:13.351,38675940,77460640,22304240,34745080,-2697754,10429690,43164060
2026-01-14 17:14:13.361,56520210,77512430,22079820,16555560,-2565918,13447270,453125
2026-01-14 17:14:13.371,5666694,3282626,-2288257,1608081,-23474120,16279300,5292969
2026-01-14 17:14:13.381,24215300,32947100,-23020680,-16975050,-25317380,17080080,70947260
2026-01-14 17:14:13.391,5692591,49844210,49281940,1516587,-21789550,15478520,10107420
2026-01-14 17:14:13.401,5703809,33191380,-23294300,1476018,-111816400,11865230,13154300
2026-01-14 17:14:13.411,5714170,77771380,21061290,1439767,10614010,71435540,15087890
2026-01-14 17:14:13.421,37814500,77814540,20897280,33500400,39697260,2692871,15703130
2026-01-14 17:14:13.431,37720420,52150850,46440140,33370060,6503906,-19543460,15058590
2026-01-14 17:14:13.441,25452220,77883590,20586540,-18362150,7998047,-6254883,13671880
2026-01-14 17:14:13.451,22045300,52058490,46308070,-22045290,82666020,-8979492,12421880
2026-01-14 17:14:13.461,5742652,33769700,-23941670,1311153,7324219,-10126950,11181640
2026-01-14 17:14:13.471,37401040,78064860,20111800,32947110,5493164,-10361330,10205080
2026-01-14 17:14:13.481,37314730,51947140,46125940,32843520,32104490,-10087890,9667969
2026-01-14 17:14:13.491,37228410,29725330,-28745640,32739940,-29087070,-9848633,10390630
2026-01-14 17:14:13.501,37148140,78306540,19593900,32647590,-2084961,-94384770,10585940
2026-01-14 17:14:13.511,57366110,78384240,19464430,12274250,-3388672,-83984380,9794922
2026-01-14 17:14:13.521,2603746,78470550,19360850,-1908892,-4440918,-73095700,8642578
2026-01-14 17:14:13.531,57236630,51878090,45953310,12127510,-52001950,-5942383,7128906
2026-01-14 17:14:13.541,25991700,51892760,45955900,-19065640,-5883789,-4711914,609375
2026-01-14 17:14:13.551,57072630,78677710,19222740,12101610,-67626950,-4260254,57177740
2026-01-14 17:14:13.561,56977680,34652720,-24854040,12127500,-74853520,-40795900,63623050
2026-01-14 17:14:13.571,56874100,78789930,19283160,12196560,-71240230,-35375980,7270508
2026-01-14 17:14:13.581,56761890,52071440,46122490,12291510,-63378900,-31762700,8027344
2026-01-14 17:14:13.591,56641050,7888487,1944714,12429610,-5698242,-28100590,88671870
2026-01-14 17:14:13.601,56520200,78910770,19576630,12602250,-4399414,-18273930,92529300
2026-01-14 17:14:13.611,25245920,78936660,19723380,-18326770,-3774414,11558530,8803711
2026-01-14 17:14:13.621,56235350,34471460,-24586460,13059730,-3203125,17053220,8955078
2026-01-14 17:14:13.631,5608863,78971190,20085910,1334460,-3137207,3083496,93847660
2026-01-14 17:14:13.641,55941880,34310040,-24385340,13646680,-27783200,4814453,10019530
2026-01-14 17:14:13.651,55777880,7897982,2047431,13983310,-2709961,5649414,10800780
2026-01-14 17:14:13.661,55613880,78979820,20664230,14354480,-22265620,6044922,11435550
2026-01-14 17:14:13.671,23854490,34054540,-24071150,-16835210,-66101070,58447260,11728520
2026-01-14 17:14:13.681,55268610,33968230,-23967570,15183120,12963870,53759770,10742190
2026-01-14 17:14:13.691,19723380,29382480,-28380690,-19723370,3071289,4345703,9213867
2026-01-14 17:14:13.701,3744161,33811130,-23779400,3356256,45117190,29223630,765625
2026-01-14 17:14:13.711,22614990,50256440,50198980,-15485220,51416020,15441900,5644531
2026-01-14 17:14:13.721,54509020,78945300,21630970,17099360,5473633,56243900,31762700
2026-01-14 17:14:13.731,21946890,29108680,-28102060,-14754980,56103520,-8018494,6072998
2026-01-14 17:14:13.741,37923260,78936660,21812240,34323860,59277340,-24276730,-17126460
2026-01-14 17:14:13.751,21271900,78928030,21872660,-14014380,6269531,-27496340,-43041990
2026-01-14 17:14:13.761,20934400,33543550,-23460030,-13644090,6328125,820,1599,-6713867
2026-01-14 17:14:13.771,53550900,78910770,21941720,19697480,6455078,3253174,-91845700
2026-01-14 17:14:13.781,20243000,53281600,47588140,-12885360,625,657959,-11220700
2026-01-14 17:14:13.791,19906370,78884880,21967610,-12514200,6176758,11657720,-13369140
2026-01-14 17:14:13.801,52981220,33483130,-23399610,21302980,60302740,2277832,-15400390
2026-01-14 17:14:13.811,52799950,7884170,2197622,21846770,64160160,39648440,-17509770
2026-01-14 17:14:13.821,18856750,33454650,-23376300,-11354100,72753900,5395508,-18974610
2026-01-14 17:14:13.831,39168810,78764030,21984870,36220230,81689460,72216800,-20019530
2026-01-14 17:14:13.841,18168810,78720870,21976250,-10591930,91796870,921875,-19482420
2026-01-14 17:14:13.851,17824410,33387320,-23322780,-10211270,11162110,10214840,-18027340
2026-01-14 17:14:13.861,39613340,33367460,-23308110,36880550,12607420,10888670,-16738280
2026-01-14 17:14:13.871,51729620,33338980,-23284810,25126810,13515630,10732420,-14179690
2026-01-14 17:14:13.881,5154835,33301860,-23252870,2567062,13798830,10039060,-11142580
2026-01-14 17:14:13.891,16445930,50510060,49945370,-8689504,14111330,78027340,-81396480
2026-01-14 17:14:13.901,16092900,78392860,22010770,-8300216,13388670,4958496,-5234375
2026-01-14 17:14:13.911,40328050,7832380,2202802,37961240,11523440,30639650,-30810550
2026-01-14 17:14:13.921,50788770,33111100,-23081100,27863050,8925781,58166500,-22375490
2026-01-14 17:14:13.931,50590250,78168450,22062560,28406850,7060547,-21875,-19628910
2026-01-14 17:14:13.941,50391720,3301010,-2299222,28950640,6767578,-3984375,-31762700
2026-01-14 17:14:13.951,14324260,32964370,-22951620,-6357227,73095700,-49780270,-4099121
2026-01-14 17:14:13.961,49968760,7795264,2212296,30012330,81347660,-6357422,-47827150
2026-01-14 17:14:13.971,10008510,32872870,-22870480,-9205594,89990230,-6176758,-5551758
2026-01-14 17:14:13.981,4953718,7781455,2215751,3104814,82958980,-6308594,-56103520
2026-01-14 17:14:13.991,49304130,77754120,22183410,31557410,79833980,-8129883,-65625
2026-01-14 17:14:14.001,12549590,52739530,47198000,-4437542,9604492,-9394531,-8383789
2026-01-14 17:14:14.011,48786220,32602700,-22605500,32593200,12539060,-80615230,-10859380
2026-01-14 17:14:14.021,48484120,7751242,2256317,33119730,15380860,-6875,-10683590
2026-01-14 17:14:14.031,48147480,7742611,2277034,33646260,18662110,-72509770,-95214850
2026-01-14 17:14:14.041,109000800,77339810,23046570,-27034400,22792970,-7963867,-8730469
2026-01-14 17:14:14.051,10449510,77227590,23400470,-2239053,25898440,-8276367,-50683590
2026-01-14 17:14:14.061,47016730,31667020,-21573150,35243130,25019530,-7788086,-74401860
2026-01-14 17:14:14.071,95397260,31356280,-21227880,-13016570,17900390,-29858400,48876950
2026-01-14 17:14:14.081,9043406,76787380,24893750,-796700,1,93652340,10852050,103125
2026-01-14 17:14:14.091,4806030,7664064,2547207,-3981015,8203125,38110350,8120117
2026-01-14 17:14:14.101,4510049,30342060,-20084180,3736653,11523440,67333980,49536130
2026-01-14 17:14:14.111,37867160,76416220,26663240,-29632530,1328125,79296870,5703125
2026-01-14 17:14:14.121,70330890,76373060,27224300,11808140,10234380,89941410,12001950
2026-01-14 17:14:14.131,6597188,29470260,-19057010,1590819,50390620,6484375,19072270
2026-01-14 17:14:14.141,24795350,29154340,-18682400,-16636690,42163090,31689450,21171880
2026-01-14 17:14:14.151,5702084,7620905,2916643,2422048,2939453,17419430,19365230
2026-01-14 17:14:14.161,52489210,76148630,29951910,28320530,3713379,-85754390,121875
2026-01-14 17:14:14.171,11870280,7609685,3079782,-3839368,68115230,-22131350,63623050
2026-01-14 17:14:14.181,44554980,56079990,51643310,-36582760,4260254,-4255371,28915400
2026-01-14 17:14:14.191,11719220,27114680,-16250850,-3817789,-5810547,-11494140,-111328100
2026-01-14 17:14:14.201,-17665580,75915580,33723950,25492790,-32202150,-11728520,-13017580
2026-01-14 17:14:14.211,33447740,21002070,-19894800,43978380,-6323242,-18359380,-12666020
2026-01-14 17:14:14.221,3005548,25300300,-14111920,4645569,-72314460,-24003910,-21269530
2026-01-14 17:14:14.231,2657692,24544170,-13228040,4884666,9552002,-28984380,-32207030
2026-01-14 17:14:14.241,-9754653,75276830,39248230,17176170,10859380,-3125,-38183590
2026-01-14 17:14:14.251,21484240,22888610,-11292820,51349830,14150390,-25449220,-465625
2026-01-14 17:14:14.261,18834310,74802090,42640470,52497850,13554690,-20585940,-46875
2026-01-14 17:14:14.271,15882280,20890380,-8992479,53861650,17021480,-23945310,-43710940
2026-01-14 17:14:14.281,12619510,1969141,-763644,8,55432610,26367190,-18105470,-44101560
2026-01-14 17:14:14.291,9253158,73317450,48768960,57072630,42539060,-52001950,-42109380
2026-01-14 17:14:14.301,6068068,62884340,60703980,58376020,53671880,-8660889,-41445310
2026-01-14 17:14:14.311,2839824,15797690,-3295574,59636240,56601560,9399414,-36699220
2026-01-14 17:14:14.321,27181140,88146660,-75509890,33275110,55859380,48510740,-33125
2026-01-14 17:14:14.331,-2986560,13191790,-428994,6,61405730,51914060,9283447,-275
2026-01-14 17:14:14.341,24807430,60475240,-47593330,31522880,484375,13549810,-24921880
2026-01-14 17:14:14.351,-7336920,46633480,-33641090,61543840,50117190,86865230,-22421880
2026-01-14 17:14:14.361,-8942414,32614780,-19520530,60974140,4203125,14375,-21484380
2026-01-14 17:14:14.371,-10194010,77581490,54275970,60067820,30234380,14472660,-2109375
2026-01-14 17:14:14.381,-32485300,36986720,95682110,37258620,17841800,21074220,-15615230
2026-01-14 17:14:14.391,-11635490,49424970,83951660,57245260,64453120,42695310,-85058590
2026-01-14 17:14:14.401,-32003660,3625302,9771056,36359200,11767580,44492190,28564450
2026-01-14 17:14:14.411,-12861190,-36608660,50053350,54465860,-61340330,3390625,13867190
2026-01-14 17:14:14.421,16572820,1244687,12241440,23167410,-48168940,22421880,20800780
2026-01-14 17:14:14.431,-12964770,60965510,74206500,50909620,-12167970,12041020,18339840
2026-01-14 17:14:14.441,15088170,-936538,14479630,21164870,-19335940,12783200,13808590
2026-01-14 17:14:14.451,-11670020,-1963709,15524070,46334830,-225,17568360,10820310
2026-01-14 17:14:14.461,13836570,-2915780,16488220,19343580,-21035160,16103520,98828130
2026-01-14 17:14:14.471,-9969581,57366110,78444660,41820460,-21386720,12841800,87890620
2026-01-14 17:14:14.481,-22722880,56641050,79221510,25787130,-25625,81347660,6020508
2026-01-14 17:14:14.491,-7828930,-5178143,18766120,37401050,-29335940,18762210,36767580
2026-01-14 17:14:14.501,-6939861,55337660,80524900,35527980,-31289060,-48999020,-14611820
2026-01-14 17:14:14.511,-6421967,6788348,6791002,34146900,-23769530,-12480470,-28442380
2026-01-14 17:14:14.521,-5429318,53930700,81759220,32377410,-16494140,-13613280,-5488281
2026-01-14 17:14:14.531,-15693240,66339600,69246740,18315550,-11777340,-13330080,-8642578
2026-01-14 17:14:14.541,-1726334,-8304536,21854540,27276090,-10214840,-12265630,-13330080
2026-01-14 17:14:14.551,-10405480,52135320,83261140,12900040,-12138670,-13935550,-13808590
2026-01-14 17:14:14.561,3668463,66044390,69248470,20759180,-15585940,-15957030,-14042970
2026-01-14 17:14:14.571,-38928860,-9702868,23218340,62924900,-13085940,-15576170,-14775390
2026-01-14 17:14:14.581,4039625,-16199760,17550090,19576640,-14052730,-153125,-15898440
2026-01-14 17:14:14.591,54802500,-10484030,23973610,-31514240,-12607420,-10205080,-17617190
2026-01-14 17:14:14.601,11250530,-16839710,18187630,-8947595,-10800780,-93896480,-18554690
2026-01-14 17:14:14.611,17974600,-11021780,24488920,-15688930,-11992190,-10849610,-22988280
2026-01-14 17:14:14.621,11620820,4926097,8525505,11132270,-15458980,-11972660,-29121090
2026-01-14 17:14:14.631,14656590,48907060,85401780,8061985,-16230470,-10576170,-32773440
2026-01-14 17:14:14.641,54086070,-17844690,19185190,-31367500,-19501950,-32543940,-37324220
2026-01-14 17:14:14.651,16633240,6499996,6875646,5981751,-29414060,13798830,-446875
2026-01-14 17:14:14.661,7567392,64844590,68635620,-5311066,-32109380,23144530,-575
2026-01-14 17:14:14.671,19058740,64706480,68497510,3452674,-2875,2546875,-80
2026-01-14 17:14:14.681,2067289,64536440,68305020,171773,2,-60078120,34667970,-85390620
2026-01-14 17:14:14.691,22528670,-11981630,25220890,-120843,8,-86875,25,-82421870
2026-01-14 17:14:14.701,24677960,64034080,67702540,-2166547,-105,96972660,-74257810
2026-01-14 17:14:14.711,27060300,-11585430,24667600,-4255417,-114296900,51708980,-44414060
2026-01-14 17:14:14.721,29598010,63026760,66620990,-6119854,-95625,7167969,-2668457
2026-01-14 17:14:14.731,32291100,-11242760,24078060,-7863459,-51210940,7939453,38222660
2026-01-14 17:14:14.741,35087760,-10656660,23352130,-9779688,9638672,87353520,60742190
2026-01-14 17:14:14.751,26213530,-9700276,22254180,-23643020,57539060,15146480,43632810
2026-01-14 17:14:14.761,4026677,-14002130,15241980,-1514860,1709375,4875,53554690
2026-01-14 17:14:14.771,43218790,-6370174,18558100,-18929260,1178125,16875,1046875
2026-01-14 17:14:14.781,11650000,-3677957,15656990,10964990,156171900,15484380,30898440
2026-01-14 17:14:14.791,13702790,52213000,65108720,6219124,133984400,1640625,-21113280
2026-01-14 17:14:14.801,12279420,56937110,57536150,4207081,69375,16546880,-56210940
2026-01-14 17:14:14.811,49183280,12551320,-1431997,-36909040,-16865230,15671880,-66953120
2026-01-14 17:14:14.821,55989350,8431417,2302929,46900200,-95875,-5928125,-95625
2026-01-14 17:14:14.831,9243660,95828850,10202640,9499,371,-715625,-1345,910625
2026-01-14 17:14:14.841,74657940,69502240,41362980,66038350,111625,-421875,4546875
2026-01-14 17:14:14.851,53758060,861443,10269960,-28898850,65375,720625,-2403125
2026-01-14 17:14:14.861,17506770,49243700,63071640,9510381,655625,915,-3328125
2026-01-14 17:14:14.871,5312799,-45238610,56442520,-2852771,4046875,31703120,22953120
2026-01-14 17:14:14.881,50616140,-2199954,3341578,-29485800,-1203125,-18046880,378125
2026-01-14 17:14:14.891,47819480,-12457230,24141070,-29088740,-47558590,20429690,-15585940
2026-01-14 17:14:14.901,46283040,51815940,66317160,-29054210,-94453130,32929690,-121015600
2026-01-14 17:14:14.911,11663120,11651900,258086,3,4253690,-1434375,-112109400,19736330
2026-01-14 17:14:14.921,11148670,1982609,-779527,3922233,-15171880,-92578130,25917970
2026-01-14 17:14:14.931,10972580,23163960,-11017470,3942950,-12703130,-94296870,-5625
2026-01-14 17:14:14.941,41967200,22432000,-10195740,-26689140,-121953100,-113359400,-50546880
2026-01-14 17:14:14.951,41492460,17986680,-5664107,-25472070,-121796900,-67070310,-34199220
2026-01-14 17:14:14.961,41000460,6262281,6151793,-24047840,-91953130,-25371090,-41953120
2026-01-14 17:14:14.971,40508450,-6696453,19198570,-22554560,-50117190,-23496090,-50585940
2026-01-14 17:14:14.981,40059600,53749440,72048580,-21087180,-26171880,-221875,-46601560
2026-01-14 17:14:14.991,12978590,-11370500,24019360,7046898,-13886720,-99365230,-31269530
2026-01-14 17:14:15.001,39282760,37047140,90045620,-18204200,-2536621,61376950,-16132810
2026-01-14 17:14:15.011,38877060,-28403390,41167910,-16797240,1234375,23828120,-34106440
2026-01-14 17:14:15.021,38410950,-35627230,48445270,-15450700,2046875,34609380,75390620
2026-01-14 17:14:15.031,37884420,1661598,11208230,-14181840,23398440,34667970,1515625
2026-01-14 17:14:15.041,25256970,59429080,69804350,-25013900,21015620,2546875,20683590
2026-01-14 17:14:15.051,36641460,990917,11987670,-11816760,16445310,15087890,21210940
2026-01-14 17:14:15.061,14980270,64567520,65718980,10310540,8730469,82666020,17539060
2026-01-14 17:14:15.071,3538126,59394550,71358060,-962429,1,13647460,62939450,13574220
2026-01-14 17:14:15.081,15289290,59411820,71755110,10951010,-58251950,6386719,9165039
2026-01-14 17:14:15.091,34259120,59463600,72100380,-7518186,-8173828,48461910,5917969
2026-01-14 17:14:15.101,15621600,192486,13001890,11602700,-5185547,52441410,79345700
2026-01-14 17:14:15.111,15758850,176086,13054540,11897040,-14904790,79296870,11113280
2026-01-14 17:14:15.121,32558680,229603,13039010,-4505734,-31054690,70947260,11064450
2026-01-14 17:14:15.131,19202890,6020594,7282543,-16359610,-70458980,4182129,8852539
2026-01-14 17:14:15.141,31462460,60525300,72834060,-2649920,-9511719,14477540,5078125
2026-01-14 17:14:15.151,16253450,-52876770,66240330,12973400,-11035160,16711430,-2064209
2026-01-14 17:14:15.161,17304780,987464,12398540,-14338940,-85595700,-122924800,-60009770
2026-01-14 17:14:15.171,16818820,-47505290,60908550,-13806360,-10019530,-20776370,-4099121
2026-01-14 17:14:15.181,16367390,16167130,118020900,-13308320,-11591800,9802246,-10345460
2026-01-14 17:14:15.191,29882860,62476060,71884590,1191174,-10898440,46142580,60009770
2026-01-14 17:14:15.201,29623910,-35655720,49107320,1933492,-65722660,2010498,9580078
2026-01-14 17:14:15.211,29373590,-30037360,43504500,2632659,-5966797,3125,9995117
2026-01-14 17:14:15.221,29149160,3710757,9770191,3288668,-7661133,70251460,85791020
2026-01-14 17:14:15.231,17705290,-16042830,29532410,15198650,-9296875,-28881840,81396480
2026-01-14 17:14:15.241,28890220,53145220,81802380,4497104,-10507810,-22253420,3725586
2026-01-14 17:14:15.251,28890220,15675120,119255200,4997738,-15527340,-17858890,1784668
2026-01-14 17:14:15.261,28976530,49901440,-36415310,5498377,-21679690,-6166992,57910160
2026-01-14 17:14:15.271,13247890,8126722,5347322,-9729624,-1859375,-10371090,7138672
2026-01-14 17:14:15.281,29244110,24064590,-22719090,6784496,-11777340,-11689450,3095703
2026-01-14 17:14:15.291,12862930,70417200,63874390,-9165110,-83154300,-79052740,26016240
2026-01-14 17:14:15.301,29865600,67391800,66554520,8182829,-8227539,6248474,-85876460
2026-01-14 17:14:15.311,30323070,57775250,-44423780,8951049,-12490230,-9869385,-6435547
2026-01-14 17:14:15.321,30823710,72523330,60490780,9779689,-98046870,-43164060,-11845700
2026-01-14 17:14:15.331,12477090,73144810,59282340,-8273457,-5644531,-15759280,-17382810
2026-01-14 17:14:15.341,32049400,85482060,-72304940,11471500,-60253900,14416500,-23300780
2026-01-14 17:14:15.351,12484850,15485220,-2382343,-7989478,-10722660,39819340,-240625
2026-01-14 17:14:15.361,12511610,16490820,-3465618,-7876403,-11777340,-31201170,-20625
2026-01-14 17:14:15.371,33991540,17486050,-4541989,13776150,-5654297,-7114258,-18154300
2026-01-14 17:14:15.381,34725230,7623495,5227341,14630690,39794920,-103125,-16689450
2026-01-14 17:14:15.391,35458920,65058650,62482960,15554280,16662600,-11083980,-16992190
2026-01-14 17:14:15.401,36166720,64651240,61923630,16538290,10634770,-10390630,-15380860
2026-01-14 17:14:15.411,36900410,77098110,48475480,17548200,23417970,71240230,-33535160
2026-01-14 17:14:15.421,12407170,21261540,-8811214,-6789675,2984375,11425780,-4625
2026-01-14 17:14:15.431,12522830,21997820,-9663160,-6743064,26679690,51708980,-47148440
2026-01-14 17:14:15.441,39403600,77745490,44392700,19930540,14638670,-3684082,-38867190
2026-01-14 17:14:15.451,31354560,23527350,-11430930,29395170,67089840,-15205080,-33027340
2026-01-14 17:14:15.461,40905500,78056240,41751410,21328870,8671875,-23476560,-35839840
2026-01-14 17:14:15.471,12975130,77987180,40732870,-6601500,16152340,-115625,-45
2026-01-14 17:14:15.481,42372890,7779727,3988695,22899830,11220700,39916990,-36855470
2026-01-14 17:14:15.491,43028900,77495180,39308650,23693950,-1607666,16503910,-49101560
2026-01-14 17:14:15.501,34956550,25040490,-13439520,33043770,-17797850,153125,-57109380
2026-01-14 17:14:15.511,44142380,25149240,-13624240,24962800,-30737300,23327640,-57460940
2026-01-14 17:14:15.521,13259980,25415960,-13979000,-6247605,-11738280,-35253900,-46640620
2026-01-14 17:14:15.531,13510300,25737930,-14399360,-6394344,-35859380,-19130860,-11875
2026-01-14 17:14:15.541,46317560,26021910,-14788650,25998600,-48984380,-19033200,10117190
2026-01-14 17:14:15.551,13898720,26221300,-15089890,-6541082,-57539060,-9355469,39277340
2026-01-14 17:14:15.561,13890090,26242880,-15206420,-6394344,-65195310,-74121100,71679690
2026-01-14 17:14:15.571,48130220,75337260,34181430,28363680,-62109380,-11114500,88671870
2026-01-14 17:14:15.581,48527280,7462945,3409509,29606640,-53671880,17333980,88515620
2026-01-14 17:14:15.591,12873280,73895760,34051960,-4890704,-38769530,27773440,91328130
2026-01-14 17:14:15.601,12268200,24958490,-14246580,-4114719,-18886720,32753910,9140625
2026-01-14 17:14:15.611,49096960,72445640,33758480,34146900,-32836910,3171875,89296870
2026-01-14 17:14:15.621,72003700,7176377,3343908,-63513580,4753418,34179690,840625
2026-01-14 17:14:15.631,10417570,24274860,-13859880,-1770355,9916992,35703120,70703130
2026-01-14 17:14:15.641,9860826,70572570,32506890,-1066872,17197270,38242190,51015620
2026-01-14 17:14:15.651,49537180,24150560,-13949650,39748860,16494140,38828120,29609380
2026-01-14 17:14:15.661,8902708,24134160,-14035100,150191,8,10878910,35292970,98046870
2026-01-14 17:14:15.671,8477167,6908792,3093592,691397,1,12392580,33183590,-12705080
2026-01-14 17:14:15.681,39249950,68621810,30504340,-29976080,18271480,28964840,-30546880
2026-01-14 17:14:15.691,49925610,6818158,3009863,43779860,25234380,24609380,-4390625
2026-01-14 17:14:15.701,31660980,50644620,46841510,-22200660,23691410,16660160,-4921875
2026-01-14 17:14:15.711,70512140,23784580,-14108480,24936900,225,55029300,-49101560
2026-01-14 17:14:15.721,18607730,23597270,-13985040,-17645300,28535160,-35913090,-49023440
2026-01-14 17:14:15.731,61604260,23371980,-13813270,35363970,37539060,-12353520,-46796880
2026-01-14 17:14:15.741,56917260,6593735,2918367,40689710,42304690,-19882810,-41171880
2026-01-14 17:14:15.751,39433800,4918761,4555365,-29619590,4171875,-22851560,-33886720
2026-01-14 17:14:15.761,4928081,22710800,-13266020,4929291,46367190,-27148440,-28417970
2026-01-14 17:14:15.771,45557980,22569240,-13148630,53326480,46679690,-28320310,-21054690
2026-01-14 17:14:15.781,-1088452,48804350,45246370,10995890,4125,-26816410,-13232420
2026-01-14 17:14:15.791,42338360,64746180,29200950,56839580,32441410,-23515620,-47338870
2026-01-14 17:14:15.801,41820460,64746180,29200950,57357480,2515625,-18378910,7879639
2026-01-14 17:14:15.811,41526990,22482060,-13080440,57581900,2078125,-14208980,39501950
2026-01-14 17:14:15.821,-3165235,6486703,2928728,13062310,16982420,-12167970,5151367
2026-01-14 17:14:15.831,-3088412,64970610,29373590,12966500,13300780,-1125,49658200
2026-01-14 17:14:15.841,41501090,6509143,2951168,57038110,12763670,-9692383,20800780
2026-01-14 17:14:15.851,-2337458,22526940,-13035560,12163760,14453130,-828125,-22436520
2026-01-14 17:14:15.861,-1405238,18257550,-17304950,11197010,14570310,-70703130,-5439453
2026-01-14 17:14:15.871,43848900,6561797,3003821,53689020,13613280,-5625,-7597656
2026-01-14 17:14:15.881,-27081880,65842410,30245390,36792520,11689450,-4416504,-92626950
2026-01-14 17:14:15.891,36227140,66092730,30461180,60395830,9892578,-41015620,-10078130
2026-01-14 17:14:15.901,13437790,22659870,-12954420,-3825557,7368164,-3803711,-10507810
2026-01-14 17:14:15.911,35853390,50582470,47024500,-26294670,66845700,-34594730,-10888670
2026-01-14 17:14:15.921,54854640,66835060,31341610,-53904460,63183590,-23400880,-11494140
2026-01-14 17:14:15.931,12403720,22625350,-12747260,-2960664,61865230,-15771480,-11083980
2026-01-14 17:14:15.941,14616880,22570970,-12629000,-5235973,5991211,-15148930,-10078130
2026-01-14 17:14:15.951,58678120,22500180,-12492630,34509440,66064450,-15759280,-9526367
2026-01-14 17:14:15.961,18955160,67750020,32998890,-9701999,7080078,-7299805,-9946289
2026-01-14 17:14:15.971,47595060,67957170,33482260,44263230,71240230,23406980,-96435540
2026-01-14 17:14:15.981,23634390,68155700,33974270,-14517610,7739258,2848816,-8881836
2026-01-14 17:14:15.991,26275680,22110900,-11828850,-17227960,67578130,-23754880,-62939450
2026-01-14 17:14:16.001,6965761,22023720,-11674340,2011181,4260254,-39916990,-48657230
2026-01-14 17:14:16.011,7248882,68811700,35355340,1655559,28564450,-4794922,-47680660
2026-01-14 17:14:16.021,75397680,69027500,35795550,12904360,16296390,-42797850,-44335940
2026-01-14 17:14:16.031,78470550,21769940,-11220320,9071889,19946290,-20703120,-35058590
2026-01-14 17:14:16.041,42403960,69459080,36693250,-33727400,26220700,6750488,-27246090
2026-01-14 17:14:16.051,47137580,16822010,-15753930,38833900,35498050,-33111570,-6518555
2026-01-14 17:14:16.061,43030620,69933820,37495990,42129480,33203120,-16381840,1171875
2026-01-14 17:14:16.071,90857010,2156883,-1076546,-6508280,2421875,-2890625,-68969730
2026-01-14 17:14:16.081,47025360,21546380,-10684290,36511980,904541,-22839360,-18188480
2026-01-14 17:14:16.091,97900450,21548980,-10629910,-15174480,-7513428,-9552002,-34106440
2026-01-14 17:14:16.101,47016730,21567100,-10594520,34880600,-2602539,5303955,-44726560
2026-01-14 17:14:16.111,68790990,16640660,-15538230,-60684120,-36938480,16882320,-4975586
2026-01-14 17:14:16.121,10900080,71470260,39274120,-2876071,-8466797,5703125,-5107422
2026-01-14 17:14:16.131,76822770,16671480,-15559200,-68879900,-9819336,9941406,-75927740
2026-01-14 17:14:16.141,46947680,21734560,-10565170,31635090,-8642578,11025390,-7807617
2026-01-14 17:14:16.151,46930410,21807920,-10595380,30840970,-13203130,13671880,-6147461
2026-01-14 17:14:16.161,87921370,21888200,-10635950,-80223640,-18505860,1765625,-6142578
2026-01-14 17:14:16.171,12554770,72782280,40120020,-4932999,-19228520,13476560,-35253900
2026-01-14 17:14:16.181,4680957,22072050,-10745570,2866580,-20214840,93115230,-16555790
2026-01-14 17:14:16.191,13112380,73248380,40344440,-5635617,-22734380,58154300,46850580
2026-01-14 17:14:16.201,46740520,73412390,40473920,27440100,-26855470,5966797,7368164
2026-01-14 17:14:16.211,46688730,17022780,-15881160,26956720,-25703120,84350580,10478520
2026-01-14 17:14:16.221,37592670,22113480,-10669610,35586670,-22675780,-29174800,10488280
2026-01-14 17:14:16.231,46550620,22047880,-10579840,26231660,-21464840,-62158200,11074220
2026-01-14 17:14:16.241,46516090,1625046,-1613559,25972710,-20683590,-87646480,11386720
2026-01-14 17:14:16.251,13971230,21809650,-10300180,-6744791,-21074220,-6098633,8847656
2026-01-14 17:14:16.261,14021290,21688810,-10162070,-6815570,-20976560,-87158200,9692383
2026-01-14 17:14:16.271,46421140,7349870,4192402,25480700,-20351560,-10126950,93115230
2026-01-14 17:14:16.281,14095520,7341240,4213120,-6913971,-20390620,-10224610,88720700
2026-01-14 17:14:16.291,14118830,16072090,-14915620,-6942456,-20605470,-10644530,9746094
2026-01-14 17:14:16.301,14127460,21125160,-9551812,-6951086,-20820310,-99072260,10283200
2026-01-14 17:14:16.311,14113650,20963750,-9385219,-6930371,-20175780,-94873050,10185550
2026-01-14 17:14:16.321,46464300,59401460,56401090,25506600,-19658200,-94873050,10195310
2026-01-14 17:14:16.331,14026470,72721860,43080690,-6810389,-18896480,-10068360,95996100
2026-01-14 17:14:16.341,46541990,20410460,-8833658,25877760,-17216800,-8730469,8066406
2026-01-14 17:14:16.351,13857290,72264380,43434580,-6582513,-15771480,-89160160,7319336
2026-01-14 17:14:16.361,46662830,7199679,4361583,26464710,-14570310,-6948242,5439453
2026-01-14 17:14:16.371,13631140,19749270,-8200091,-6273501,-13115230,-6020508,3569336
2026-01-14 17:14:16.381,4683549,71409840,43926590,2724160,-12226560,-4482422,1772461
2026-01-14 17:14:16.391,13363560,14084300,-12932840,-5902339,-11435550,-17956540,-6652832
2026-01-14 17:14:16.401,47051260,70745200,44194170,28165160,-10332030,3378296,-16259770
2026-01-14 17:14:16.411,13045050,70399940,44297760,-5461258,-9609375,20605470,-27197270
2026-01-14 17:14:16.421,47292940,70037410,44384070,29200960,-8876953,22680660,-36376950
2026-01-14 17:14:16.431,3858449,69657620,44470390,3858273,-8535156,1763916,-40600580
2026-01-14 17:14:16.441,47569160,18051420,-6669696,30323070,-8588867,22790530,-46142580
2026-01-14 17:14:16.451,87831600,68863500,44608490,-79968140,-7573242,25170900,-43725580
2026-01-14 17:14:16.461,121102400,17540430,-6231211,-41690980,-64990230,6958008,-3605957
2026-01-14 17:14:16.471,82732870,17262490,-5991248,-74708870,-4650879,12451170,-37353520
2026-01-14 17:14:16.481,116329100,16956060,-5727985,-35243130,-28271480,2397461,-4169922
2026-01-14 17:14:16.491,11349790,16648770,-5465577,-3151424,-80322260,3149414,-4350586
2026-01-14 17:14:16.501,48354640,16331990,-5195407,34543960,9863281,38305660,-51904300
2026-01-14 17:14:16.511,69447860,65902840,44962390,-61063050,28955080,62060550,-6689453
2026-01-14 17:14:16.521,10370090,6533315,4497965,-1886884,31298830,78515620,-7314453
2026-01-14 17:14:16.531,61259860,10423350,-9325923,-52678250,40893560,77441410,-7319336
2026-01-14 17:14:16.541,9589790,15029470,-4115583,-906325,1,46606440,10019530,-7519531
2026-01-14 17:14:16.551,48682650,63546390,44988290,39153280,57128900,10244140,-6298828
2026-01-14 17:14:16.561,47082340,54846520,53049410,-38198610,8574219,10722660,-5371094
2026-01-14 17:14:16.571,41867070,92282960,-81558960,-32883220,12207030,97802740,-37280270
2026-01-14 17:14:16.581,77512430,137528500,-30961820,13292790,13583980,9838867,-22924800
2026-01-14 17:14:16.591,31345920,87122940,-76533600,-22170450,12861330,5131836,8404541
2026-01-14 17:14:16.601,67819070,60551190,44668910,24833330,11240230,58447260,20043940
2026-01-14 17:14:16.611,62907640,12935430,-2480746,30625180,103125,72216800,29638670
2026-01-14 17:14:16.621,15508530,59437710,44453120,-6070654,9765625,7763672,4194336
2026-01-14 17:14:16.631,59139050,78184850,-67863090,-49620040,8618164,76464850,56933590
2026-01-14 17:14:16.641,47986070,12249210,-1993056,47980890,8076172,8847656,6904297
2026-01-14 17:14:16.651,-43502780,57927160,43978380,53171980,75341800,91503900,8544922
2026-01-14 17:14:16.661,-4970119,11907390,-1782441,14710100,5546875,8027344,10263670
2026-01-14 17:14:16.671,34276380,72529370,-62470020,63796710,52685550,9609375,10673830
2026-01-14 17:14:16.681,47405160,11687290,-1691810,51306680,29882810,81591800,11298830
2026-01-14 17:14:16.691,25567030,11621680,-1688357,73731770,-48828120,65722660,11396480
2026-01-14 17:14:16.701,-23750920,11556950,-1684039,33736040,-6921387,60058590,109375
2026-01-14 17:14:16.711,46852730,11493940,-1677999,53533650,10656740,8276367,9291992
2026-01-14 17:14:16.721,12369190,11456820,-1697851,88500560,35961910,7753906,73828130
2026-01-14 17:14:16.731,8105140,11438690,-1733240,93213460,7524414,61621100,55322260
2026-01-14 17:14:16.741,416046,5,11438700,-1785030,9755518,88134770,55322260,28979490
2026-01-14 17:14:16.751,45989560,11467180,-1860127,56088620,9790039,40161130,-74401860
2026-01-14 17:14:16.761,-53522340,54543540,41095400,54546230,12236330,27416990,-41210940
2026-01-14 17:14:16.771,45601130,72779680,-63255500,57064000,13740230,1529541,-72216800
2026-01-14 17:14:16.781,45428500,11632910,-2143246,57461050,15068360,4272461,-10029300
2026-01-14 17:14:16.791,45255870,11714040,-2252006,57823590,16367190,-15075680,-12714840
2026-01-14 17:14:16.801,-1374166,75412350,-65974480,11694200,17587890,-39941410,-14423830
2026-01-14 17:14:16.811,-62421680,11856470,-2437582,72750340,18007810,-53271480,-15986330
2026-01-14 17:14:16.821,-1798839,54241440,39826540,12132680,18408200,-6982422,-16806640
2026-01-14 17:14:16.831,-1997370,11958320,-2560154,12331210,18339840,-87109380,-17275390
2026-01-14 17:14:16.841,-21717300,77722180,-68325750,125021200,17958980,-10087890,-17490230
2026-01-14 17:14:16.851,4410785,120282400,-26283450,5910976,17333980,-11142580,-17363280
2026-01-14 17:14:16.861,50774960,78246130,-68837600,52304500,16259770,-12294920,-16464840
2026-01-14 17:14:16.871,43684910,54491760,39748860,59221920,15341800,-13027340,-15966800
2026-01-14 17:14:16.881,-73500430,12110240,-2667184,83768670,14013670,-12958980,-15009770
2026-01-14 17:14:16.891,43270590,54742080,39947390,59152870,12070310,-12851560,-13789060
2026-01-14 17:14:16.901,43063430,54888820,40094130,59066550,1046875,-12070310,-12353520
2026-01-14 17:14:16.911,42856260,55070080,40275390,58928440,93115230,-10722660,-11572270
2026-01-14 17:14:16.921,-2990875,12166350,-2593818,13133090,8310547,-89990230,-11142580
2026-01-14 17:14:16.931,42450570,121534000,-25377130,58574550,7470703,-6948242,-10771480
2026-01-14 17:14:16.941,49482790,77942290,-68278270,51093470,66845700,-50390620,-10800780
2026-01-14 17:14:16.951,-3012453,55829670,41311200,13025200,6376953,-33935550,-10634770
2026-01-14 17:14:16.961,4184636,12091250,-2323647,5778044,59375,-18640140,-10439450
2026-01-14 17:14:16.971,-29416750,56261250,41984460,128542900,5180664,-9466553,-9873047
2026-01-14 17:14:16.981,41483820,120101100,-21285720,57107160,45947260,-57556150,-9741211
2026-01-14 17:14:16.991,-2814789,11962640,-2020675,12618650,42797850,-60699460,-9458008
2026-01-14 17:14:17.001,-75557700,11906530,-1904144,76532390,40820310,-770874,-92529300
2026-01-14 17:14:17.011,40974560,11859920,-1795390,55924620,3942871,-1451416,-9169922
2026-01-14 17:14:17.021,-68553620,118133100,-16866290,78184850,43603520,-19433590,-9091797
2026-01-14 17:14:17.031,4068108,7181725,-6162843,5504420,45507810,-26245120,-9536133
2026-01-14 17:14:17.041,-65332280,11737350,-1486371,74846110,51708980,-2902832,-93847660
2026-01-14 17:14:17.051,40456660,7075640,-6044504,54077440,5996094,-3371582,-98876950
2026-01-14 17:14:17.061,-1906739,70442230,-60068680,11299730,66503900,-27441410,-10361330
2026-01-14 17:14:17.071,-1703893,117166400,-12826670,11036460,7006836,-20092770,-10898440
2026-01-14 17:14:17.081,40240860,70243700,-59749320,52480580,7504883,-11608890,-11347660
2026-01-14 17:14:17.091,-1247280,70532000,-59978910,10457280,81640620,11932370,-11757810
2026-01-14 17:14:17.101,40189070,11865960,-1254184,51306670,78222660,12011720,-12216800
2026-01-14 17:14:17.111,-703479,5,59964240,46723250,9792637,77783200,31420900,-12412110
2026-01-14 17:14:17.121,40214970,12051540,-1327553,50072340,73339840,34545900,-12929690
2026-01-14 17:14:17.131,40249500,73232850,-62457070,49450870,7211914,43920900,-12744140
2026-01-14 17:14:17.141,-42022180,7446716,-6363959,42913490,6245117,39624020,-12421880
2026-01-14 17:14:17.151,40378980,124727700,-15968600,48164750,55566410,38110350,-11855470
2026-01-14 17:14:17.161,-30904840,55339390,53903080,39702250,51123050,3371582,-11357420
2026-01-14 17:14:17.171,-31154910,128301200,-18609890,32028960,52685550,34570310,-10751950
2026-01-14 17:14:17.181,40655190,13032960,-2020677,46196720,48168940,35961910,-10410160
2026-01-14 17:14:17.191,-19508450,5605064,5450386,28138400,42333980,41333010,-10185550
2026-01-14 17:14:17.201,-15480040,6344280,4750875,24053020,34472660,36791990,-10263670
2026-01-14 17:14:17.211,-11364460,63891660,47439680,19882200,1973877,3322754,-10322270
2026-01-14 17:14:17.221,-7076247,14086890,-2917506,15538740,57495120,3713379,-10351560
2026-01-14 17:14:17.231,35035970,14389000,-3185090,49019280,-8532715,42211910,-9741211
2026-01-14 17:14:17.241,1671958,65272720,47094420,6678330,-15881350,5493164,-9350586
2026-01-14 17:14:17.251,22273170,15042420,-3774632,-13979860,-18981930,6958008,-89501950
2026-01-14 17:14:17.261,47577790,66230840,46723260,34802910,-19580080,8232422,-8930664
2026-01-14 17:14:17.271,4102463,6672284,4649020,4080366,-2722168,9663086,-8598633
2026-01-14 17:14:17.281,56433890,6722347,4623123,24841960,-46069340,10742190,-8125
2026-01-14 17:14:17.291,24667600,57912490,55732130,-16591800,-6455078,11757810,-63623050
2026-01-14 17:14:17.301,29561760,17006130,-5626126,-21537750,-7265625,11845700,-45629880
2026-01-14 17:14:17.311,42925320,1744374,-605168,6,36831360,-7475586,10761720,-265625
2026-01-14 17:14:17.321,75035140,69208770,44798390,4255421,-90771490,7314453,-39031980
2026-01-14 17:14:17.331,79722140,69692140,44366800,-897691,4,-11289060,30615230,18371580
2026-01-14 17:14:17.341,49149620,18823960,-7416337,-41310330,-12246090,-54779050,38891600
2026-01-14 17:14:17.351,8905301,58387240,55671710,-1107441,-12783200,-3815918,53027340
2026-01-14 17:14:17.361,44280490,19727690,-8325252,33318260,-13144530,-6616211,5673828
2026-01-14 17:14:17.371,63420360,71444380,42511000,-55696740,-17294920,-9980469,5698242
2026-01-14 17:14:17.381,44858810,20564960,-9179788,32049410,-23886720,-12900390,5107422
2026-01-14 17:14:17.391,71850060,20913690,-9538867,-64185130,-30644530,-14628910,49536130
2026-01-14 17:14:17.401,10962230,72316170,41328460,-3314560,-3234375,-14824220,49853520
2026-01-14 17:14:17.411,1123242,72480170,41060880,-359678,8,-26054690,-11347660,33618160
2026-01-14 17:14:17.421,4579103,16432210,-15297830,3049571,-17626950,-7548828,18151860
2026-01-14 17:14:17.431,82533480,72678700,40620650,-74908260,-10214840,-2980957,-5496216
2026-01-14 17:14:17.441,11916890,21868350,-10552220,-4293394,-5859375,-3046875,-1270752
2026-01-14 17:14:17.451,12166340,22057380,-10760250,-4544576,-5786133,-3840332,-17956540
2026-01-14 17:14:17.461,12443420,22254180,-10977760,-4819926,-7885742,-56591800,-140625
2026-01-14 17:14:17.471,12730860,22440630,-11188380,-5102182,-91748050,-54296880,-59448240
2026-01-14 17:14:17.481,9583146,73127540,39136010,-8819583,-8442383,-3017578,13511660
2026-01-14 17:14:17.491,4770726,22751370,-11550910,2875212,-6591797,-13000490,15039060
2026-01-14 17:14:17.501,10119520,73162070,38583580,-9353538,-37402340,15220640,20910640
2026-01-14 17:14:17.511,13833120,17967440,-16852740,-6157836,-15991210,9613037,24230960
2026-01-14 17:14:17.521,4872580,23098360,-11980760,2819969,66589360,17138670,21606440
2026-01-14 17:14:17.531,10924770,55432630,55432600,-10153780,18798830,21166990,21411130
2026-01-14 17:14:17.541,14696290,73093020,37426940,-6969210,30200200,16564940,23010250
2026-01-14 17:14:17.551,49865180,73110280,37047140,27560940,34423830,10095220,24865720
2026-01-14 17:14:17.561,15375600,73144810,36615560,-7619176,29101560,13664250,31079100
2026-01-14 17:14:17.571,15762300,23998640,-13065770,-7992067,15649410,-109802200,3942871
2026-01-14 17:14:17.581,16164540,24277450,-13391180,-8383944,-24902340,-17590330,51171880
2026-01-14 17:14:17.591,16575400,7335197,3502733,-8784454,-13659670,-20336910,61279300
2026-01-14 17:14:17.601,17002670,7343829,3442311,-9203090,-101989700,-12841800,6352539
2026-01-14 17:14:17.611,52575530,73533230,33793010,25489340,-5407715,-22830960,6542969
2026-01-14 17:14:17.621,53050270,25597230,-14919850,25066380,-19332890,8660889,6748047
2026-01-14 17:14:17.631,40511900,55169340,51034780,37622020,-29846190,113708500,7553711
2026-01-14 17:14:17.641,53982490,7391302,3170412,24134160,-20828250,20581060,8334961
2026-01-14 17:14:17.651,54439970,74059770,30935930,23624900,36010740,23474120,92333980
2026-01-14 17:14:17.661,19807970,27246740,-16809320,-12008390,4849243,22460940,10996090
2026-01-14 17:14:17.671,55337660,7437050,2936493,22554570,11047360,2631836,11503910
2026-01-14 17:14:17.681,55743350,2812458,-1781321,22028030,-21447750,-77697750,15849610
2026-01-14 17:14:17.691,56140410,28525960,-18274980,21527400,-7607422,-37402340,225
2026-01-14 17:14:17.701,18100110,74741670,27215670,-17324280,-26586910,25097660,20429690
2026-01-14 17:14:17.711,21921860,53155580,48335650,-14175800,9741211,11621090,17958980
2026-01-14 17:14:17.721,40458380,29501340,-19388470,36795100,26757810,18828120,16748050
2026-01-14 17:14:17.731,22343950,29869050,-19780350,-14651400,4203125,20527340,14267580
2026-01-14 17:14:17.741,22450980,30249700,-20176540,-14803320,48945310,1828125,12978520
2026-01-14 17:14:17.751,5671872,30625180,-20560650,1927454,4421875,14042970,128125
2026-01-14 17:14:17.761,39609890,7626946,2434131,35848210,33027340,9355469,10146480
2026-01-14 17:14:17.771,56364830,7660610,2398740,18558100,22597660,64453120,14355470
2026-01-14 17:14:17.781,5620083,7694275,2361626,1811789,14101560,28149410,-7050781
2026-01-14 17:14:17.791,22915370,32041640,-21992640,-15547370,43115230,19873050,-9628906
2026-01-14 17:14:17.801,5595914,32392950,-22349130,1706484,-26611330,-5545044,-10576170
2026-01-14 17:14:17.811,5584692,32733900,-22698710,1653830,-71533200,-3786621,-11884770
2026-01-14 17:14:17.821,23441040,78185710,22097090,-16264660,-97802740,-65478520,-12050780
2026-01-14 17:14:17.831,5562253,52941510,47272230,1555430,-12158200,-9868164,-87646480
2026-01-14 17:14:17.841,55536190,33612600,-23598140,15139960,-12822270,-13271480,-48779300
2026-01-14 17:14:17.851,5544987,33825800,-23816520,1479470,-11367190,-14746090,-21252440
2026-01-14 17:14:17.861,23926140,79014340,21026760,-16936200,-95751950,-13945310,57922360
2026-01-14 17:14:17.871,35025180,34124460,-24122080,34615170,-6035156,-13447270,16088870
2026-01-14 17:14:17.881,36780430,79221510,20767810,32670030,-24450680,-12734380,14770510
2026-01-14 17:14:17.891,5524271,34294500,-24297300,1406964,-13175960,-11318360,81970220
2026-01-14 17:14:17.901,36674260,79316460,20621070,32551780,-23590090,-11230470,1628418
2026-01-14 17:14:17.911,55242720,7934235,2056063,13931520,11956790,-9472656,-1973877
2026-01-14 17:14:17.921,55277240,34434340,-24450950,13845210,4159546,-8925781,-11682130
2026-01-14 17:14:17.931,24248100,52799090,46896750,-17339310,-103271500,-84765620,-36590580
2026-01-14 17:14:17.941,55423980,34566400,-24612360,13646680,-15551760,-7758789,15881350
2026-01-14 17:14:17.951,55527560,52643720,46706850,13525840,-960083,-54541020,32470700
2026-01-14 17:14:17.961,24572650,34736450,-24822110,-17670760,3475952,-31103520,4375
2026-01-14 17:14:17.971,36617290,52457280,46478980,32367060,13415530,-2578125,58984380
2026-01-14 17:14:17.981,36603480,79368250,19343580,32329080,10864260,-36669920,93603520
2026-01-14 17:14:17.991,55950520,79376870,19110530,12947520,-10559080,-46875,146875
2026-01-14 17:14:18.001,56054090,35142140,-25314110,12826670,-83618160,-39379880,16416020
2026-01-14 17:14:18.011,36603480,5207747,4601286,32260020,14001470,-122680700,14794920
2026-01-14 17:14:18.021,56218100,35322540,-25530770,12593620,19628910,-3945923,15888670
2026-01-14 17:14:18.031,56278520,35426120,-25651610,12481400,14648440,-12365720,18759770
2026-01-14 17:14:18.041,56321680,7942866,1814376,12369190,1505127,-1763916,20957030
2026-01-14 17:14:18.051,56373460,79454560,17979770,12265610,9436035,-14428710,21445310
2026-01-14 17:14:18.061,34295860,79471820,17841670,34291440,1789856,-20214840,20800780
2026-01-14 17:14:18.071,25559250,30888990,-30879270,-18703970,-19067380,-29614260,21503910
2026-01-14 17:14:18.081,5639937,79514980,17677670,1215343,-421875,-5239258,23398440
2026-01-14 17:14:18.091,25510910,35761890,-26040900,-18648730,-4020996,-42138670,20976560
2026-01-14 17:14:18.101,56347570,35697150,-25967530,12360560,-19140620,-29492190,1640625
2026-01-14 17:14:18.111,56304420,79463190,17971140,12507300,42816160,-16540530,121875
2026-01-14 17:14:18.121,5623538,51867730,45739240,1267995,23657230,-25732420,10371090
2026-01-14 17:14:18.131,25099180,35402820,-25623130,-18197290,45336910,-6744385,6899414
2026-01-14 17:14:18.141,56071360,52048990,45972300,13051100,65625,42877200,4309082
2026-01-14 17:14:18.151,55967780,79385510,18860210,13206470,9003906,11299130,35742190
2026-01-14 17:14:18.161,36729500,79376870,19093260,32479270,10820310,21118160,37426760
2026-01-14 17:14:18.171,36726910,30523070,-29536120,32499120,11357420,-13427730,5024414
2026-01-14 17:14:18.181,24507050,7936825,1953347,-17580990,10634770,-1427002,6479492
2026-01-14 17:14:18.191,55587980,79350980,19757900,13689840,8701172,-17456060,6870117
2026-01-14 17:14:18.201,24319740,34632870,-24701260,-17388510,69873050,-27661130,7060547
2026-01-14 17:14:18.211,55423980,7930782,2023262,13940150,56152340,-24597170,7290039
2026-01-14 17:14:18.221,36769210,52821530,46943360,32646720,50146480,-23120120,671875
2026-01-14 17:14:18.231,20821750,34245310,-24242920,-20126900,58691410,-20812990,5756836
2026-01-14 17:14:18.241,55087340,7923877,2102673,14449420,6455078,-9161377,45898440
2026-01-14 17:14:18.251,54949240,7922150,2130295,14622060,5957031,-13244630,43823240
2026-01-14 17:14:18.261,54819760,33860330,-23781990,14803320,5131836,-10736080,47924800
2026-01-14 17:14:18.271,54681660,79195620,21846760,14993220,3413086,-16003420,66259770
2026-01-14 17:14:18.281,36839980,7916970,2213160,32903940,23693850,-20300290,76220700
2026-01-14 17:14:18.291,54405440,33433930,-23276170,15407540,24963380,-1932373,7944336
2026-01-14 17:14:18.301,36889190,53744260,48109500,33027380,2166748,-21618650,8022461
2026-01-14 17:14:18.311,22611540,79048880,23098360,-15609520,15551760,-30078120,8642578
2026-01-14 17:14:18.321,36968600,53997160,48443540,33189650,99243170,-34033200,9067383
2026-01-14 17:14:18.331,53818490,32689010,-22415600,16495130,19256590,-3828125,89941410
2026-01-14 17:14:18.341,53654490,32471500,-22167010,16814510,-15655520,-36645510,859375
2026-01-14 17:14:18.351,21693990,78755400,24600270,-14628100,8404541,-31689450,7890625
2026-01-14 17:14:18.361,53335120,32010560,-21643920,17530930,1430664,-17480470,6464844
2026-01-14 17:14:18.371,21179540,7855688,2540301,-14072220,993042,-119140600,54833980
2026-01-14 17:14:18.381,5299847,31547910,-21122570,1828190,3164673,-12030030,5498047
2026-01-14 17:14:18.391,20649560,78349710,26179870,-13497350,-39863580,-9454346,49780270
2026-01-14 17:14:18.401,20368160,31074030,-20595180,-13191790,-4815674,-2885437,38720700
2026-01-14 17:14:18.411,20079870,55082170,49965310,-12875870,-3326416,7470703,2861328
2026-01-14 17:14:18.421,19775170,55177120,50112050,-12541820,58258060,1484375,20776370
2026-01-14 17:14:18.431,19461840,30351560,-19798470,-12199140,27075200,27661130,39093020
2026-01-14 17:14:18.441,19140740,77693700,28061570,-11846970,4873047,30029300,-21020510
2026-01-14 17:14:18.451,51790040,29872500,-19276260,21458340,6582031,28979490,-35058590
2026-01-14 17:14:18.461,18525300,29655840,-19044060,-11167660,76464850,3803711,-4807129
2026-01-14 17:14:18.471,38397140,7728800,2896789,35490000,6201172,19689940,-36621100
2026-01-14 17:14:18.481,17934890,7716717,2919232,-10515110,55371100,-124939000,-15588380
2026-01-14 17:14:18.491,51159940,77046330,29399480,23348690,5571289,-29345700,-491333
2026-01-14 17:14:18.501,17337580,28986030,-18332810,-9852191,5649414,-4597168,87509150
2026-01-14 17:14:18.511,17035470,28807350,-18148960,-9515556,5205078,-4897461,-574,5888
2026-01-14 17:14:18.521,50745610,28638170,-17972870,24816070,57714840,-58984380,-29632570
2026-01-14 17:14:18.531,50607510,76468000,30219490,25316710,55371100,-68310540,-89660650
2026-01-14 17:14:18.541,16157630,55663940,51075340,-8528956,51464840,-67822260,-2097168
2026-01-14 17:14:18.551,15864160,55671710,51119370,-8200952,46679690,-69384770,-22546390
2026-01-14 17:14:18.561,15570680,27921740,-17239180,-7872949,4387207,-5004883,-29418940
2026-01-14 17:14:18.571,50072340,7582925,3104811,27232940,37182620,-32299800,-3491211
2026-01-14 17:14:18.581,14999260,7567389,3125529,-7235932,25170900,-24072270,-29614260
2026-01-14 17:14:18.591,49804760,7550125,3147970,28156520,39215090,-1595459,-19628910
2026-01-14 17:14:18.601,49675290,55688110,51327390,28614000,-13305660,6488037,-12695310
2026-01-14 17:14:18.611,14159400,26941180,-16234450,-6297668,-2783203,3395996,-20922850
2026-01-14 17:14:18.621,49390440,26719350,-16007440,29554850,-4790039,42163090,-16430660
2026-01-14 17:14:18.631,49243700,26481110,-15762300,30046860,-60839840,57177740,-2064209
2026-01-14 17:14:18.641,13251350,74499980,32757210,-5289487,-6738281,6098633,-17907720
2026-01-14 17:14:18.651,12931110,74275560,33033420,-4936452,-6611328,49438480,-4034424
2026-01-14 17:14:18.661,8981344,74051140,33326900,-8178422,-52783200,24597170,13464360
2026-01-14 17:14:18.671,48527280,73818080,33611740,32092570,-40844730,-66589360,31640620
2026-01-14 17:14:18.681,119030800,73576400,33905210,-38065680,-2854004,-30639650,44067380
2026-01-14 17:14:18.691,48147480,24935180,-14183570,33180160,-17626950,-46069340,4248047
2026-01-14 17:14:18.701,47940320,24661550,-13904770,33732580,-647583,-5410156,29492190
2026-01-14 17:14:18.711,67737070,72808180,34794270,-66917060,-724411,-45922850,21704100
2026-01-14 17:14:18.721,10486620,24128980,-13367010,-2253729,-6604004,-49121100,12426760
2026-01-14 17:14:18.731,47344730,23878660,-13116690,35312180,-26391600,-46362300,22644040
2026-01-14 17:14:18.741,60858480,7206587,3555384,-52561720,-4140625,-453125,43164060
2026-01-14 17:14:18.751,9497431,7181553,3582145,-1171318,-4958496,-30688480,40063480
2026-01-14 17:14:18.761,9175471,71556580,36097660,-820006,3,-47583010,-22680660,33911130
2026-01-14 17:14:18.771,8870773,71289000,36382510,-485960,3,-5263672,-23596190,2878418
2026-01-14 17:14:18.781,46429780,22553700,-11783100,37677260,-43945310,-17053220,15808110
2026-01-14 17:14:18.791,83088500,70762460,36960830,1260233,-48266600,-20996090,10675050
2026-01-14 17:14:18.801,80438580,22003860,-11228090,4134573,-42333980,-2734375,59906010
2026-01-14 17:14:18.811,7796131,55530150,52262200,683631,1,-33764650,-24084470,3286743
2026-01-14 17:14:18.821,45816930,21463520,-10680840,39170540,-46313480,-3474121,31738280
2026-01-14 17:14:18.831,35246580,21189040,-10402900,-26728840,-7451172,-52685550,-3112793
2026-01-14 17:14:18.841,32925520,20906780,-10115460,-24388800,-97314460,-6118164,-59448240
2026-01-14 17:14:18.851,69105180,69191500,38773480,16451980,-9008789,-5283203,-19213870
2026-01-14 17:14:18.861,28282550,68898020,39118740,-19709560,-6098633,-4560547,-33691410
2026-01-14 17:14:18.871,25959760,19983190,-9174608,-17371240,-40356440,-39453120,-3947754
2026-01-14 17:14:18.881,44971020,6835421,3980063,41069500,-32177730,-32666020,-5175781
2026-01-14 17:14:18.891,21744050,6809529,4012865,-13127910,-29418940,-19091800,-6826172
2026-01-14 17:14:18.901,19937440,14231220,-13148460,-11309220,-29003910,73165900,-7529297
2026-01-14 17:14:18.911,44573970,18830860,-7996386,41811830,-35742190,19812010,-73095700
2026-01-14 17:14:18.921,55423980,18557240,-7717583,31082660,-51904300,34960940,-63916020
2026-01-14 17:14:18.931,53922070,6707673,4137159,32688150,-6894531,47705080,-55810550
2026-01-14 17:14:18.941,94105100,1798500,-713325,7,-85433730,-8330078,6513672,-54785160
2026-01-14 17:14:18.951,11677790,17685440,-6828518,-2996054,-9580078,7890625,-5097656
2026-01-14 17:14:18.961,4907970,17385920,-6523820,3785853,-10371090,80078130,-4038086
2026-01-14 17:14:18.971,42332320,65963260,42692260,-33626410,-10361330,78466800,-31835940
2026-01-14 17:14:18.981,23348680,65661150,43046160,-14630690,-94384770,7631836,-24584960
2026-01-14 17:14:18.991,43659010,16416580,-5542401,43659010,-8857422,6870117,-11102300
2026-01-14 17:14:19.001,25592920,55443830,53315260,61845950,-9003906,65722660,68244940
2026-01-14 17:14:19.011,39912860,64694400,44081960,47681370,-8935547,5761719,10467530
2026-01-14 17:14:19.021,-1482057,64349130,44409960,10257020,-83203130,5566406,15612790
2026-01-14 17:14:19.031,-3631345,15070040,-4195857,12423570,-63623050,61865230,17651370
2026-01-14 17:14:19.041,-5694314,55284150,53423160,14503810,-43969730,6298828,22473140
2026-01-14 17:14:19.051,-7757284,63321960,45333560,16584040,-27661130,60009770,3034668
2026-01-14 17:14:19.061,-9819394,141395500,-32791730,18665140,-14953610,5888672,31176760
2026-01-14 17:14:19.071,28182410,84874040,-83788870,60464880,-20629880,61376950,3334961
2026-01-14 17:14:19.081,26542400,62407000,46024080,62277540,17211910,6088867,29638670
2026-01-14 17:14:19.091,42554150,6213941,4620534,46455670,26464840,5854492,3359375
2026-01-14 17:14:19.101,23616270,61897740,46343460,65566200,37231440,5888672,3400879
2026-01-14 17:14:19.111,42450570,81539110,-70723620,46887260,5205078,5913086,29248050
2026-01-14 17:14:19.121,-18658230,12886230,-2081096,27607550,45898440,5361328,24401860
2026-01-14 17:14:19.131,20905920,61345310,46602410,68725390,34326170,47216800,171875
2026-01-14 17:14:19.141,2037938,126859700,-19015580,6940735,25805660,50097660,8203125
2026-01-14 17:14:19.151,42450580,12611740,-1837685,47474210,28759770,5419922,-45814510
