Timestamp,Rotation X,Rotation Y,Rotation Z,Rotation W,Acceleration X,Acceleration Y,Acceleration Z
2026-01-14 17:14:05.511,13171930,37237040,-71936380,-56830940,46655270,50341800,8598633
2026-01-14 17:14:05.521,32783100,-16830470,-17920650,-37185250,47460940,44921880,9067383
2026-01-14 17:14:05.531,12757610,37021250,-71858690,-57158940,4892578,3491211,87841800
2026-01-14 17:14:05.541,12515930,-12034280,-22906740,-57331580,5385742,24536130,8076172
2026-01-14 17:14:05.551,12256970,36770940,-71815530,-57486950,57128900,11907960,75146480
2026-01-14 17:14:05.561,32537960,36632820,-71798260,-37102390,61816410,48797610,71435540
2026-01-14 17:14:05.571,32465450,-12237120,-23066430,-37071320,6772461,-3451538,68310540
2026-01-14 17:14:05.581,1148873,36356620,-71781010,-5794442,7265625,-9643555,6464844
2026-01-14 17:14:05.591,11238440,-12372640,-23172590,-58091180,79541020,-13415530,6557617
2026-01-14 17:14:05.601,11005380,36089040,-71755110,-58237900,8144531,-15942380,6333008
2026-01-14 17:14:05.611,10780960,3595958,-7172922,-58393280,83740230,-18554690,6591797
2026-01-14 17:14:05.621,32162480,-17390320,-18465660,-36959970,8623047,-18554690,63916020
2026-01-14 17:14:05.631,1038390,3570924,-7165153,-5870402,86035150,-22277830,6645508
2026-01-14 17:14:05.641,32102060,-12654900,-23373710,-36968600,8769531,-28808590,64941410
2026-01-14 17:14:05.651,-21050930,-12698920,-23398740,-27959720,87890620,-32373050,67822260
2026-01-14 17:14:05.661,9883266,-1274292,-2342378,-59239180,91259770,-34350580,69677740
2026-01-14 17:14:05.671,9736528,3517410,-7140985,-59437710,9316406,-36450200,6826172
2026-01-14 17:14:05.681,9589792,-12843070,-23479020,-59636240,9189453,-40454100,6748047
2026-01-14 17:14:05.691,9451682,3485473,-7126311,-59843400,9472656,-45532230,6933594
2026-01-14 17:14:05.701,930494,3,3466481,-7117679,-6007646,9667969,-5175781,6748047
2026-01-14 17:14:05.711,9149574,34457650,-71107740,-60300880,9736328,-5371094,68896480
2026-01-14 17:14:05.721,8985568,34241860,-71030050,-60533930,10117190,-45507810,7373047
2026-01-14 17:14:05.731,8812940,-13222860,-23720710,-60775620,10410160,-35083010,7890625
2026-01-14 17:14:05.741,32200460,-13324710,-23791490,-37439890,11220700,-14807130,8491211
2026-01-14 17:14:05.751,8415876,33508160,-70831520,-61258990,11972660,38330080,8930664
2026-01-14 17:14:05.761,32188370,33240580,-70771100,-37521020,12695310,17016600,8979492
2026-01-14 17:14:05.771,-26556300,32938470,-70710670,-27253560,13134770,23303220,87353520
2026-01-14 17:14:05.781,32156440,3262775,-7065891,-37587490,13359380,27514650,84814460
2026-01-14 17:14:05.791,32130540,49537180,-53369640,-37613380,13427730,25219730,8203125
2026-01-14 17:14:05.801,32086520,-14192200,-24443180,-37622880,13154300,18481440,75878900
2026-01-14 17:14:05.811,-24475120,31574670,-70555300,-31440870,12626950,12805180,6855469
2026-01-14 17:14:05.821,6568700,31194870,-70538040,-63019850,12207030,38848880,6113281
2026-01-14 17:14:05.831,6223440,3081511,-7053805,-63244280,11982420,-34362790,5727539
2026-01-14 17:14:05.841,31786140,30418020,-70555310,-37543470,12197270,-1541748,48754880
2026-01-14 17:14:05.851,549836,8,-15253900,-25314980,-6364134,12138670,-22912600,37768560
2026-01-14 17:14:05.861,5109948,49910500,-50320500,-63822600,11669920,-27416990,26391600
2026-01-14 17:14:05.871,4721528,-15730360,-25718940,-63986600,11708980,-28979490,22790530
2026-01-14 17:14:05.881,430717,8,28812530,-70710680,-6414196,11855470,-31396480,16174320
2026-01-14 17:14:05.891,3892880,28415470,-70762460,-64297340,11865230,-26538090,9643555
2026-01-14 17:14:05.901,3487194,47276550,-51556130,-64444080,11376950,-103027300,10108950
2026-01-14 17:14:05.911,3090134,27621360,-70866040,-64564920,10761720,51651,-9741211
2026-01-14 17:14:05.921,2718978,2724159,-7091784,-64694400,95947260,18310550,-1796875
2026-01-14 17:14:05.931,235641,8,26870400,-70960990,-6481523,92089840,3125,-2290039
2026-01-14 17:14:05.941,2019808,-17377280,-27127630,-64927460,8803711,35888670,-3083496
2026-01-14 17:14:05.951,171767,3,26145340,-71047310,-6503966,83251950,33129880,-4267578
2026-01-14 17:14:05.961,-28530270,2578283,-7108182,-35188750,72314460,22460940,-5097656
2026-01-14 17:14:05.971,3000196,-18002220,-27659340,-3641014,5678711,8459473,-6430664
2026-01-14 17:14:05.981,932218,25135440,-71142260,-65341770,34228520,-21343230,-7319336
2026-01-14 17:14:05.991,716428,-18357840,-27959720,-65419460,18237300,-11077880,-7685547
2026-01-14 17:14:06.001,-29189740,24591640,-71202680,-35789510,11633300,-18396000,-8066406
2026-01-14 17:14:06.011,-29316620,-18646140,-28206590,-35904320,8996582,-19677730,-7792969
2026-01-14 17:14:06.021,146736,-18758350,-28301540,-65592100,28656010,-116760300,-82714850
2026-01-14 17:14:06.031,29526370,-18851580,-28380950,-36091620,-32958980,32043460,-86572260
2026-01-14 17:14:06.041,-172636,-18925800,-28444820,-65669780,-12780760,17492680,-88623050
2026-01-14 17:14:06.051,29396890,23832060,-71271740,-35996670,-20178220,2607422,-87646480
2026-01-14 17:14:06.061,-422956,23788900,-71263100,-65712930,-24768070,33569340,-77490230
2026-01-14 17:14:06.071,-526534,45153150,-49898840,-65730200,-30322270,4567871,-64501950
2026-01-14 17:14:06.081,-630118,23823420,-71228580,-65747460,-3395996,60595700,-43701170
2026-01-14 17:14:06.091,-725062,-18905090,-28413750,-65756100,-3635254,76416020,-2836914
2026-01-14 17:14:06.101,-828642,-18842940,-28355050,-65773360,-42016600,88134770,-12561040
2026-01-14 17:14:06.111,-30119370,24047850,-71124990,-36603480,-47973630,10361330,-7055664
2026-01-14 17:14:06.121,-1053066,24168690,-71055940,-65790620,-4855957,15400390,-40771480
2026-01-14 17:14:06.131,-107897,3,-18532200,-28061570,-6585106,-88671870,21035160,-74316410
2026-01-14 17:14:06.141,-984014,-18294830,-27832830,-65963260,-14375,22402340,-9267578
2026-01-14 17:14:06.151,-776856,-17971140,-27517780,-66118620,-19726560,19101560,-88916020
2026-01-14 17:14:06.161,-30096060,25420290,-70149620,-36678570,-23535160,14443360,-7158203
2026-01-14 17:14:06.171,-112212,2590368,-6980435,-66489790,-25742190,95214850,-5161133
2026-01-14 17:14:06.181,25894,75,2639567,-6943319,-6667106,-26757810,49121100,-3527832
2026-01-14 17:14:06.191,638742,26887670,-69079290,-66843680,-26367190,21896360,-23400880
2026-01-14 17:14:06.201,30700280,2735379,-6875130,-37300050,-25195310,-33276370,-111694300
2026-01-14 17:14:06.211,1337912,2778539,-6844055,-67128540,-240625,-6357422,54779050
2026-01-14 17:14:06.221,1648648,-15173620,-24808300,-67232110,-23027340,-94384770,40112300
2026-01-14 17:14:06.231,-29263110,28493160,-67939910,-36182250,-2390625,-8989258,640625
2026-01-14 17:14:06.241,-29227720,28726210,-67775900,-36165850,-22851560,-10253910,75439460
2026-01-14 17:14:06.251,1976654,-14585800,-24239470,-67439270,-20058590,-11650390,83203130
2026-01-14 17:14:06.261,-29343380,-14560770,-24212710,-36274610,-17119140,-11289060,984375
2026-01-14 17:14:06.271,-29501340,28778010,-67655060,-36410120,-14072270,-11357420,10664060
2026-01-14 17:14:06.281,1225698,-14744620,-24374120,-67534220,-11259770,-11787110,9814453
2026-01-14 17:14:06.291,30832340,28294630,-67793170,-37513260,-90478510,-11679690,8642578
2026-01-14 17:14:06.301,-30296320,-15199510,-24782400,-37082540,-66796880,-10810550,74365230
2026-01-14 17:14:06.311,-34529,45723710,-49777140,-6768957,-46948240,-9477539,5864258
2026-01-14 17:14:06.321,-31030870,-15813230,-25325330,-37711780,-2854004,-79541020,4321289
2026-01-14 17:14:06.331,-34700720,2645610,-6821611,-34767000,-16235350,-6611328,20275880
2026-01-14 17:14:06.341,-2201078,-16481310,-25900200,-68008960,-4660034,-55371100,-40374760
2026-01-14 17:14:06.351,32333390,-16809320,-26176420,-33042910,4081726,-45947260,-234375
2026-01-14 17:14:06.361,-331459,5,24790170,-68328340,-6832833,16586300,-4033203,-40795900
2026-01-14 17:14:06.371,-3780672,-1740833,-2666497,-68518230,-23162840,-41308590,-57958980
2026-01-14 17:14:06.381,-33215550,2372849,-6826790,-39670320,-9039307,-45141600,-67578130
2026-01-14 17:14:06.391,-4479840,2325376,-6820749,-68923920,-12902830,-50146480,-71875
2026-01-14 17:14:06.401,-471290,8,-18110980,-27205310,-6913972,-18188480,-5307617,-7324219
2026-01-14 17:14:06.411,28529410,22425090,-68034860,-35949200,-23596190,-48950200,-72216800
2026-01-14 17:14:06.421,28584650,-18432940,-27435780,-36032060,-25048830,-4362793,-72216800
2026-01-14 17:14:06.431,28661470,42512720,-47118580,-36127870,-25854490,-4165039,-6948242
2026-01-14 17:14:06.441,-34150360,2151879,-6775000,-40651730,-18286130,-4038086,-61816410
2026-01-14 17:14:06.451,32270550,-18747130,-27639490,-33019440,-12988280,-3803711,-5024414
2026-01-14 17:14:06.461,29036090,41971520,-46623990,-36530110,-122558600,-35205080,-4243164
2026-01-14 17:14:06.471,-4566156,-18908540,-27737020,-70408570,-10308840,-30273440,-3466797
2026-01-14 17:14:06.481,-444532,5,-18984500,-27781910,-7056395,-6573486,-28027340,-27416990
2026-01-14 17:14:06.491,29444360,-19059600,-27827660,-36950470,-9613037,-28173830,-22924800
2026-01-14 17:14:06.501,-423818,20172220,-67197580,-7087467,-6549072,-3059082,-20092770
2026-01-14 17:14:06.511,29653250,-19237410,-27943320,-37173170,-9301758,-33984380,-19458010
2026-01-14 17:14:06.521,29733530,1970613,-6704223,-37265530,-1138916,-38671880,-17504880
2026-01-14 17:14:06.531,-4169104,40843360,-45594230,-71289000,-1204834,-46899420,-20544430
2026-01-14 17:14:06.541,-4220884,1922277,-6690411,-71409840,-15490720,-54052740,-22302250
2026-01-14 17:14:06.551,29811210,-19652590,-28235930,-37395000,-14685060,-55029300,-30444340
2026-01-14 17:14:06.561,29791360,-19780340,-28332610,-37397600,-13317870,-5004883,-42993160
2026-01-14 17:14:06.571,29744740,18437260,-66791900,-37375150,-10449220,-42797850,-56152340
2026-01-14 17:14:06.581,-473881,8,18169670,-66766000,-7178963,-48950200,-35424800,-6767578
2026-01-14 17:14:06.591,29643760,17893470,-66748740,-37320770,-32470700,-32739260,-7998047
2026-01-14 17:14:06.601,-5075426,17625890,-66722840,-71936380,-24719240,-29223630,-8701172
2026-01-14 17:14:06.611,29526370,-20473470,-28882450,-37248260,-28503420,-29907230,-9213867
2026-01-14 17:14:06.621,-5368904,17116620,-66696940,-72057220,-18051150,-31079100,-9248047
2026-01-14 17:14:06.631,29427970,-20715150,-29072350,-37191300,-17837520,-32714840,-9296875
2026-01-14 17:14:06.641,-5636486,16685030,-66662420,-72186690,-46813960,-2944336,-90185540
2026-01-14 17:14:06.651,29340790,1650378,-6663654,-37140370,-53497310,-25439450,-8618164
2026-01-14 17:14:06.661,-35772250,-20988780,-29282090,-42413460,-49346920,-19421390,-82714850
2026-01-14 17:14:06.671,-35862020,-21049200,-29325250,-42496320,-46875,-11505130,-76660160
2026-01-14 17:14:06.681,32735540,1604630,-6652433,-33521190,-4135132,-49743650,-7163086
2026-01-14 17:14:06.691,-6309758,-21161410,-29402940,-72462910,-7141113,-60157780,-62646480
2026-01-14 17:14:06.701,-6491022,15804600,-66438000,-72506060,-72509770,10345460,-55371100
2026-01-14 17:14:06.711,28967030,38499860,-43570100,-36892640,-44799800,5517578,-4345703
2026-01-14 17:14:06.721,32830910,38418720,-43495870,-32838870,-19042970,9460449,-34887700
2026-01-14 17:14:06.731,-7207450,3832985,-4341214,-72652810,-4764557,9399414,-2631836
2026-01-14 17:14:06.741,-750956,3,1535575,-6623084,-7269597,27771000,914917,-2199707
2026-01-14 17:14:06.751,28408560,38168400,-43262820,-36467100,15510560,7110596,-18701170
2026-01-14 17:14:06.761,-37263800,38079500,-43179090,-43718570,2229309,5420685,-19934080
2026-01-14 17:14:06.771,-8597146,1502778,-6607547,-72782280,4812622,-43762210,-19360350
2026-01-14 17:14:06.781,27812120,-21502360,-29597150,-35993220,29708860,-14331060,-17663570
2026-01-14 17:14:06.791,-941717,5,37846440,-42963300,-7280816,2670288,-23034670,-1665039
2026-01-14 17:14:06.801,-38179620,-21576600,-29643760,-44477290,-853,5385,-28027340,-17687990
2026-01-14 17:14:06.811,-10263060,-25224770,-26030110,-72808170,48599240,-32104490,-19226070
2026-01-14 17:14:06.821,-10668750,-21631830,-29674830,-72799540,29659270,-3708496,-14660650
2026-01-14 17:14:06.831,26665830,37596120,-42730240,-35050640,1422,167,-41381840,-14770510
2026-01-14 17:14:06.841,26441410,-21684490,-29708500,-34860740,2217102,-43481440,-1270752
2026-01-14 17:14:06.851,26225620,14371740,-65799250,-34679480,-16357420,-41479490,-103271500
2026-01-14 17:14:06.861,-1214478,37477870,-42624070,-7268731,-48950200,-4736328,-8856201
2026-01-14 17:14:06.871,-12455510,37440760,-42592130,-72652810,-8935547,-51953120,-48187260
2026-01-14 17:14:06.881,25666280,14207740,-65773360,-34203010,-13684080,-57958980,-4940796
2026-01-14 17:14:06.891,25499690,37382920,-42546380,-34058860,-1932373,-66503900,-55847170
2026-01-14 17:14:06.901,25352090,14069630,-65807890,-33930250,-27148440,-72802740,-5255127
2026-01-14 17:14:06.911,2521484,-21929630,-29912210,-3380855,-3713379,-8442383,-6427002
2026-01-14 17:14:06.921,-1364668,1389700,-6587694,-7242838,-45117190,-9199219,-70495610
2026-01-14 17:14:06.931,28839110,37244810,-42460070,-29700900,-5024414,-93603520,-55267340
2026-01-14 17:14:06.941,-1395742,1365531,-6599778,-7229028,-5390625,-8569336,-6048584
2026-01-14 17:14:06.951,24765130,-22294750,-30254890,-33395080,-59228520,-81347660,-9741211
2026-01-14 17:14:06.961,-14173210,-22419050,-30372270,-72160800,-6508789,-76708980,-112854000
2026-01-14 17:14:06.971,-40265040,-22561470,-30506060,-46051710,-64208980,-7441406,-14477540
2026-01-14 17:14:06.981,-1427680,-22703030,-30640720,-7202270,-6821289,-72802740,-17346190
2026-01-14 17:14:06.991,-1428544,-22854950,-30782280,-7196228,-74316410,-4663086,-14111330
2026-01-14 17:14:07.001,-14276790,1261091,-6652431,-71936370,-11816410,-14807130,-53497310
2026-01-14 17:14:07.011,24520000,1239510,-6658475,-33139590,-14794920,-13830570,-20202640
2026-01-14 17:14:07.021,24537260,1217931,-6661065,-33156850,-17314450,-9814453,-13598630
2026-01-14 17:14:07.031,24571790,36558600,-42024170,-33191380,-18955080,-85876460,-14794920
2026-01-14 17:14:07.041,24597680,-23521310,-31358870,-33217270,-19794920,-25317380,-19482420
2026-01-14 17:14:07.051,-14164580,-23643880,-31460730,-72048580,-19882810,-2993164,-16369630
2026-01-14 17:14:07.061,-40210660,36212460,-41748820,-46002510,-19628910,-30517580,-16503910
2026-01-14 17:14:07.071,-40210660,-23923550,-31698960,-46002510,-19013670,-39160160,-2286377
2026-01-14 17:14:07.081,-14164580,-2408752,-3184569,-72048580,-17695310,-43579100,-2685547
2026-01-14 17:14:07.091,28485210,-24260180,-32001070,-29347000,-16103520,-49804690,-3671875
2026-01-14 17:14:07.101,-1420775,-24441450,-32165070,-7195365,-14072270,-6333008,-48828120
2026-01-14 17:14:07.111,24524310,-28090400,-28861390,-33135270,-11953130,-75390620,-6064453
2026-01-14 17:14:07.121,-14242260,982287,8,-6715442,-71798260,-10371090,-84521490,-6933594
2026-01-14 17:14:07.131,28305160,-25002500,-32691600,-29164530,-9003906,-92333980,-7573242
2026-01-14 17:14:07.141,24400020,938264,3,-6742202,-32983350,-7788086,-10126950,-8642578
2026-01-14 17:14:07.151,-39972420,918412,3,-6756873,-45705580,-6582031,-10869140,-96484380
2026-01-14 17:14:07.161,-1412145,9002836,-67715490,-7140121,-6459961,-11591800,-10478520
2026-01-14 17:14:07.171,-39802380,883885,5,-6786221,-45530360,-62402340,-12011720,-11445310
2026-01-14 17:14:07.181,-1392289,868346,5,-6800033,-7120268,-64404300,-11523440,-12207030
2026-01-14 17:14:07.191,-1378480,-25962350,-33630730,-7111638,-6777344,-10195310,-12558590
2026-01-14 17:14:07.201,24457850,-26090960,-33761070,-32925520,-70751950,-78125,-12363280
2026-01-14 17:14:07.211,24513090,-26211800,-33881910,-32956600,-72753900,-3623047,-12324220
2026-01-14 17:14:07.221,-39209380,8191458,-68526860,-44966710,-7084961,25732420,-11767580
2026-01-14 17:14:07.231,24652060,8079252,-68656340,-33042050,-6972656,10849610,-11455080
2026-01-14 17:14:07.241,24743550,7949778,-68785820,-33105920,-6645508,1859375,-12226560
2026-01-14 17:14:07.251,-12671300,7820300,-68898020,-70676150,-5571289,22597660,-13037110
2026-01-14 17:14:07.261,24934320,7673558,-68992980,-33243170,-25634770,20449220,-12910160
2026-01-14 17:14:07.271,-1227426,-26942910,-34600930,-7060711,34210200,14755860,-11103520
2026-01-14 17:14:07.281,25097460,736283,5,-6911384,-33373510,28051760,7998047,-84228510
2026-01-14 17:14:07.291,-12092980,-27136260,-34770110,-70632990,32055660,17736820,-54052740
2026-01-14 17:14:07.301,-12127510,35000580,-41199840,-70650260,15185550,-26342770,-38110350
2026-01-14 17:14:07.311,25062930,-30633030,-31394180,-33356240,-113220200,-5571289,-31054690
2026-01-14 17:14:07.321,-1246415,-27184590,-34790820,-7067616,-36865230,-5878906,-33911130
2026-01-14 17:14:07.331,24780670,7095236,-69001610,-33120600,-5439453,-30004880,-47631840
2026-01-14 17:14:07.341,-1308563,-27074970,-34693290,-7058985,-48608400,7434082,-58984380
2026-01-14 17:14:07.351,28468430,7345554,-68975710,-28552400,-28198240,42285160,-6616211
2026-01-14 17:14:07.361,-13888370,-26911830,-34562950,-70391300,-99853520,7680664,-7089844
2026-01-14 17:14:07.371,-39489920,7699454,-69018860,-45083240,1595459,10820310,-7373047
2026-01-14 17:14:07.381,-39665140,-26734880,-34429160,-45201490,42407230,12822270,-7163086
2026-01-14 17:14:07.391,-15183120,-26655470,-34370460,-69976980,6074219,13408200,-64160160
2026-01-14 17:14:07.401,26684900,-30048580,-30821990,-27539270,7104492,12314450,-5908203
2026-01-14 17:14:07.411,22558010,8424516,-69122450,-31131000,7026367,98095700,-45898440
2026-01-14 17:14:07.421,-1641746,-26375810,-34149490,-6957131,6586914,67578130,-36401370
2026-01-14 17:14:07.431,-16805870,8812940,-69131080,-69459080,5449219,37719730,-2956543
2026-01-14 17:14:07.441,-17159770,9045998,-69139710,-69329610,41357420,17199710,-27563480
2026-01-14 17:14:07.451,21524800,-26003780,-33848250,-30196190,29858400,50933840,-2590332
2026-01-14 17:14:07.461,-1778990,-25851000,-33724820,-6907931,22253420,-28060910,-24682620
2026-01-14 17:14:07.471,21095810,9883268,-69182870,-29796540,14855960,-61065670,-26342770
2026-01-14 17:14:07.481,-18264620,-25531620,-33474500,-68811710,90026860,-6903076,-24389650
2026-01-14 17:14:07.491,-1842864,-25356410,-33338980,-6866498,7952881,-7888794,-19995120
2026-01-14 17:14:07.501,20635740,-25188090,-33213820,-29341650,11682130,3744507,-15783690
2026-01-14 17:14:07.511,-18609890,1130752,-6939865,-68362860,16235350,77400210,-7183838
2026-01-14 17:14:07.521,-18618530,-24822970,-32940200,-68233390,22631840,19729610,8929443
2026-01-14 17:14:07.531,-18583990,-24635660,-32799500,-68095280,23547360,7727051,27001950
2026-01-14 17:14:07.541,-18523580,-24430220,-32642400,-67965800,24694820,7867432,45043940
2026-01-14 17:14:07.551,-1843729,12947510,-69657610,-6786221,22338870,8709717,66064450
2026-01-14 17:14:07.561,20398370,13379100,-69692140,-29009330,21472170,12536620,8251953
2026-01-14 17:14:07.571,-40488600,13819310,-69718030,-45431090,16699220,21704100,10361330
2026-01-14 17:14:07.581,-1816969,-27700220,-27784190,-6759465,16442870,3737793,12890630
2026-01-14 17:14:07.591,-40341860,-23307250,-31745570,-45284350,22290040,45214840,15097660
2026-01-14 17:14:07.601,-18074730,15053640,-69692140,-67482430,3642578,4230957,17246090
2026-01-14 17:14:07.611,20392330,-22867890,-31373550,-28946320,46557620,30126950,18867190
2026-01-14 17:14:07.621,20337950,-22674540,-31204370,-28897120,5151367,18566900,2015625
2026-01-14 17:14:07.631,-1831643,-22493280,-31040360,-6739613,47143560,2709961,209375
2026-01-14 17:14:07.641,20132510,1616714,-6942456,-28722760,40356440,-5267334,20996090
2026-01-14 17:14:07.651,-18782530,4281912,-4282438,-67361580,3479004,-18457030,20957030
2026-01-14 17:14:07.661,19802780,16391550,-69234660,-28448270,34643560,-24243160,20566410
2026-01-14 17:14:07.671,-19455790,-22081540,-30640720,-67327060,42407230,-24768070,20078120
2026-01-14 17:14:07.681,-41199850,-22052200,-30601010,-45945540,50146480,-21533200,19863280
2026-01-14 17:14:07.691,19136420,1637430,-6899298,-27888940,6225586,-2590332,19667970
2026-01-14 17:14:07.701,18883510,-25900630,-26752580,-27675740,7373047,-28735350,18876950
2026-01-14 17:14:07.711,18629740,-22103990,-30601010,-27463400,8198242,-36694340,18046880
2026-01-14 17:14:07.721,-21579190,1596000,-6876854,-67188960,8779297,-4375,1734375
2026-01-14 17:14:07.731,-22010780,15770070,-68699500,-67171700,9057617,-4543457,16328130
2026-01-14 17:14:07.741,-42554160,15554280,-68621810,-47025360,8964844,-50146480,15527340
2026-01-14 17:14:07.751,-22848050,-22426810,-30813350,-67145790,8652344,-57910160,15078130
2026-01-14 17:14:07.761,17440300,15062270,-68475070,-26477660,84814460,-67822260,14482420
2026-01-14 17:14:07.771,-43190310,-26376580,-27208850,-47545850,87646480,-76220700,14072270
2026-01-14 17:14:07.781,-23918370,14570270,-68328340,-67163060,93066410,-80859380,13769530
2026-01-14 17:14:07.791,-24220480,-22844590,-31103370,-67171690,10019530,-82910160,13701170
2026-01-14 17:14:07.801,16760980,14069630,-68190220,-25931270,10380860,-80615230,13632810
2026-01-14 17:14:07.811,16634960,1381069,-6812118,-25832870,10908200,-78271490,13642580
2026-01-14 17:14:07.821,-2499736,13551730,-68052120,-6727526,11289060,-7260742,13945310
2026-01-14 17:14:07.831,-2521313,-23291710,-31415840,-6731844,1171875,-67089840,14472660
2026-01-14 17:14:07.841,-2542893,-23422050,-31509930,-6736160,12363280,-6899414,15039060
2026-01-14 17:14:07.851,16245670,37489960,-43009050,-25548890,13115230,-6958008,14794920
2026-01-14 17:14:07.861,-2580874,12300140,-67801800,-6744790,134375,-66748050,14423830
2026-01-14 17:14:07.871,-25998600,-23939950,-31906980,-67482430,13916020,-5078125,13925780
2026-01-14 17:14:07.881,-2617126,-24179050,-32099470,-6751697,13740230,-4658203,1328125
2026-01-14 17:14:07.891,-2636116,10979490,-67724120,-6753422,12724610,-46069340,12167970
2026-01-14 17:14:07.901,-4499263,10444330,-67741380,-4909265,115625,-49169920,11083980
2026-01-14 17:14:07.911,-45078920,-25069830,-32831430,-49161700,10859380,-5332031,9453125
2026-01-14 17:14:07.921,-2686179,-25434950,-33139590,-6751698,10185550,-45507810,83203130
2026-01-14 17:14:07.931,15516300,-25818200,-33464140,-24966260,9560547,-3330078,7285156
2026-01-14 17:14:07.941,-27137990,7906614,-67948540,-67447900,9189453,-1595459,5888672
2026-01-14 17:14:07.951,-27232930,720747,8,-6802621,-67404740,8564453,-11436460,42382810
2026-01-14 17:14:07.961,15292740,-27085330,-34544830,-24758230,80859380,13574220,27905270
2026-01-14 17:14:07.971,15249580,574870,5,-6820750,-24715070,81396480,29003910,1282959
2026-01-14 17:14:07.981,15234040,-27977850,-35309590,-24696090,77441410,43920900,-28896330
2026-01-14 17:14:07.991,15237490,-31686010,-32412800,-24692630,7446289,5541992,-11151120
2026-01-14 17:14:08.001,15266840,-28853100,-36057100,-24715080,7163086,63623050,-19226070
2026-01-14 17:14:08.011,-27172510,-29273460,-36413580,-67223480,7026367,69433590,-23657230
2026-01-14 17:14:08.021,-27068930,214931,5,-6861317,-67223480,6274414,765625,-31640620
2026-01-14 17:14:08.031,15428250,-30096920,-37109300,-24847140,5878906,8095703,-33666990
2026-01-14 17:14:08.041,15493850,31355420,-38146820,-24902380,56347660,7705078,-36376950
2026-01-14 17:14:08.051,-26749560,138108,-68742660,-67249380,47558590,71240230,-4555664
2026-01-14 17:14:08.061,-2667188,-49200,25,-6876855,-6725801,33520510,62646480,-5229492
2026-01-14 17:14:08.071,15625920,-110484,3,-6879445,-25012000,21582030,625,-61328120
2026-01-14 17:14:08.081,15645770,-31905260,-38615520,-25026680,11126710,56884770,-68066410
2026-01-14 17:14:08.091,-44845870,29711090,-36821860,-48911380,30349730,50097660,-78564460
2026-01-14 17:14:08.101,15624190,32631790,-33348730,-24996460,-8905029,54248050,-88427740
2026-01-14 17:14:08.111,15591390,29108600,-36336760,-24960210,-13757320,46435550,-97216800
2026-01-14 17:14:08.121,-44803570,-3953300,-68880750,-48850100,-23168940,3803711,-11044920
2026-01-14 17:14:08.131,-44782860,28553580,-35890500,-48819020,-3400879,33642580,-11738280
2026-01-14 17:14:08.141,15450690,31619460,-32358510,-24807430,-44482420,3305664,-12753910
2026-01-14 17:14:08.151,15392860,-5437954,-68967080,-24744420,-47827150,2944336,-13886720
2026-01-14 17:14:08.161,-26732290,-58951,41,-689928,6,-66748740,-5415039,30297850,-14902340
2026-01-14 17:14:08.171,-44711210,27582520,-35117960,-48700770,-6035156,29638670,-15800780
2026-01-14 17:14:08.181,-46660210,-672405,5,-6906201,-46699980,-6166992,3383789,-16728520
2026-01-14 17:14:08.191,-26801350,-35000570,-41199840,-66489780,-7036133,3881836,-17587890
2026-01-14 17:14:08.201,-2681000,-35225000,-41389740,-6641212,-74560540,42578120,-17978520
2026-01-14 17:14:08.211,-26801350,26818620,-34518060,-66334420,-75927740,36816410,-18466800
2026-01-14 17:14:08.221,1508814,-8174194,-69200140,-2439312,-8203125,24731440,-18769530
2026-01-14 17:14:08.231,-2677546,-851082,5,-6922603,-6620495,-9038086,10961910,-18964840
2026-01-14 17:14:08.241,-26749560,2630678,-3411495,-66144520,-99316410,-18447880,-18466800
2026-01-14 17:14:08.251,19625180,-914956,5,-6927783,-19717990,-11328130,-88378900,-18359380
2026-01-14 17:14:08.261,15000120,-9451686,-69303710,-24273990,-12167970,-24499510,-18232420
2026-01-14 17:14:08.271,-26732300,-9745156,-69320980,-65937360,-12851560,-3059082,-18144530
2026-01-14 17:14:08.281,14919850,-36731230,-42662920,-24181640,-13085940,-30810550,-18183590
2026-01-14 17:14:08.291,19036120,-10314850,-69372770,-19961780,-128125,-25341800,-18291020
2026-01-14 17:14:08.301,14803320,-1060832,-6939004,-24056480,-13037110,-28076170,-18125
2026-01-14 17:14:08.311,14725630,-10875910,-69398660,-23978790,-134375,-28076170,-18564450
2026-01-14 17:14:08.321,14630690,25095730,-33150810,-23883840,-15234380,-15966800,-19179690
2026-01-14 17:14:08.331,-2712938,-11428340,-69381400,-6545400,-16044920,-19921880,-19511720
2026-01-14 17:14:08.341,14418350,-37633240,-43400920,-23681860,-16982420,-14672850,-19628910
2026-01-14 17:14:08.351,14302680,-11920340,-69338240,-23573100,-17265620,-13903810,-19775390
2026-01-14 17:14:08.361,14177520,24497560,-32644130,-23456570,-175,-95581060,-20136720
2026-01-14 17:14:08.371,-44577420,24359450,-32523280,-48316660,-17900390,13557430,-20507810
2026-01-14 17:14:08.381,-2792348,24221340,-32402440,-6507418,-18066410,6652832,-20390620
2026-01-14 17:14:08.391,-28113370,24085830,-32279010,-65022400,-18583980,7659912,-20078120
2026-01-14 17:14:08.401,-28311890,-1296475,-6908792,-64979240,-19140620,4736328,-19599610
2026-01-14 17:14:08.411,13540510,-1312014,-6900162,-22885160,-19785160,-22155760,-18964840
2026-01-14 17:14:08.421,13418800,-1325824,-6891530,-22782440,-20664060,-19067380,-18085940
2026-01-14 17:14:08.431,13287600,23616260,-31833610,-22671950,-21386720,-3647461,-17519530
2026-01-14 17:14:08.441,-29175060,23522180,-31737800,-64892930,-21523440,-50146480,-16523440
2026-01-14 17:14:08.451,13031240,-13491310,-68595920,-22462210,-2140625,-5654297,-15419920
2026-01-14 17:14:08.461,-29667070,-38235720,-43730650,-64918820,-20234380,-5913086,-14404300
2026-01-14 17:14:08.471,-45689180,-1349129,-6831968,-49190190,-19521480,-57910160,-13671880
2026-01-14 17:14:08.481,12632450,-38065680,-43538160,-22153190,-19248050,-5332031,-13017580
2026-01-14 17:14:08.491,12502980,-1337909,-6798308,-22058240,-18964840,-41748050,-12353520
2026-01-14 17:14:08.501,12371780,-13292770,-67793170,-21965020,-18486330,-24047850,-11523440
2026-01-14 17:14:08.511,12238850,26794530,-27602280,-21873520,-17148440,57495120,-10478520
2026-01-14 17:14:08.521,12105920,23125120,-31168110,-21782030,-14013670,50878900,-921875
2026-01-14 17:14:08.531,11971270,-37315590,-42734560,-21692260,-11914060,13955080,-78564460
2026-01-14 17:14:08.541,-32101200,23050890,-31017920,-65557570,-1109375,24394530,-66845700
2026-01-14 17:14:08.551,-32437840,-12679920,-66610630,-65687040,-11308590,31738280,-6557617
2026-01-14 17:14:08.561,11592340,-12584980,-66343050,-21449710,-10458980,34863280,-75878900
2026-01-14 17:14:08.571,-3309384,2284718,-3070373,-6594599,-83691410,35019530,-75341800
2026-01-14 17:14:08.581,11356690,-12464140,-65773360,-21305560,-6166992,33652340,-60302740
2026-01-14 17:14:08.591,11221180,22629660,-30420610,-21216650,-44189450,30078120,-35229490
2026-01-14 17:14:08.601,-3411240,22508820,-30265240,-6632578,-44335940,23886720,-14331060
2026-01-14 17:14:08.611,10930290,-12334660,-64867030,-21024170,-5776367,15888670,579834
2026-01-14 17:14:08.621,10759380,22339640,-30020100,-20901600,-7241211,8198242,15515140
2026-01-14 17:14:08.631,-35277650,25746300,-26509850,-66627890,-8618164,19714360,22021480
2026-01-14 17:14:08.641,14990540,-11799500,-64055660,-16014430,-10527340,-2697754,23413090
2026-01-14 17:14:08.651,10188830,22422500,-29954500,-20470880,-11542970,-57421880,19873050
2026-01-14 17:14:08.661,-36451560,-1104851,-6366721,-66783260,-12060550,-7158203,13000490
2026-01-14 17:14:08.671,-36770940,-34380820,-39678940,-66826420,-11679690,-74316410,3466797
2026-01-14 17:14:08.681,9728756,-9943688,-63408280,-20119570,-10644530,-7128906,-24169920
2026-01-14 17:14:08.691,-37211150,-9287674,-63321960,-66955900,-9379883,-5576172,-79589840
2026-01-14 17:14:08.701,9645032,23744870,-30928150,-20082450,-7783203,-39990230,-12414550
2026-01-14 17:14:08.711,-3734063,-784619,-6320975,-6717170,-55371100,-27563480,-109558100
2026-01-14 17:14:08.721,9796946,-7095236,-63166600,-20258540,-35351560,-16394040,-86364740
2026-01-14 17:14:08.731,9958364,2490671,-3185520,-20425130,-12927250,-9661865,9437561
2026-01-14 17:14:08.741,10165520,-5653748,-63088910,-20632290,62927250,-5682373,11077880
2026-01-14 17:14:08.751,-36667350,-499771,-6303711,-67983070,27001950,-8319092,24780270
2026-01-14 17:14:08.761,1070411,-4402158,-62976700,-2116401,46850580,-19360350,4074707
2026-01-14 17:14:08.771,11016610,-386698,-6289039,-21473020,6669922,-38110350,57714840
2026-01-14 17:14:08.781,11329930,-3392250,-62795430,-21781170,85302740,-55615230,74560540
2026-01-14 17:14:08.791,11632910,-2995190,-62674590,-22082410,10185550,-7050781,9458008
2026-01-14 17:14:08.801,11926380,26675330,-33193970,-22375890,10849610,-8413086,10957030
2026-01-14 17:14:08.811,12193100,26747830,-33225040,-22644330,10966800,-9916992,121875
2026-01-14 17:14:08.821,-34647540,-29204400,-35205140,-69933820,10859380,-11503910,13369140
2026-01-14 17:14:08.831,-3450945,29666030,-30306850,-7015824,10341800,-12363280,13769530
2026-01-14 17:14:08.841,12723090,26762510,-33141320,-23201940,10009770,-12578130,14316410
2026-01-14 17:14:08.851,-50657570,-1873070,-61673310,-54269060,10068360,-11796880,14462890
2026-01-14 17:14:08.861,-34449020,-31371300,-31967920,-70650260,1015625,-10693360,14414060
2026-01-14 17:14:08.871,-50832800,-1829914,-61336680,-54456370,10498050,-95410160,1390625
2026-01-14 17:14:08.881,12826670,-1829916,-61181310,-23374570,11337890,-80810540,12675780
2026-01-14 17:14:08.891,-51037370,-1847176,-61025940,-54648860,11972660,-68652340,11210940
2026-01-14 17:14:08.901,-3494103,-28433600,-34335940,-7093511,13027340,-53271480,10410160
2026-01-14 17:14:08.911,17927930,-28390440,-34275520,-17928040,13779300,-3569336,97558590
2026-01-14 17:14:08.921,12554770,26219570,-32475810,-23180360,13828130,-17858890,9453125
2026-01-14 17:14:08.931,12494350,-28310170,-34165900,-23137200,13505860,-12463380,9482422
2026-01-14 17:14:08.941,-35510710,-1959388,-60413090,-71055940,13183590,-524292,9160156
2026-01-14 17:14:08.951,-35597030,26060760,-32289370,-71090470,12646480,23452760,92333980
2026-01-14 17:14:08.961,-51621730,-1942126,-60240460,-55169350,11923830,6964111,10195310
2026-01-14 17:14:08.971,12411480,-1907598,-60154140,-23099220,11337890,6304932,10957030
2026-01-14 17:14:08.981,12434790,-1864442,-60093720,-23127710,11210940,17974850,11601560
2026-01-14 17:14:08.991,-35666080,-1804016,-60050560,-71297630,11181640,-9967041,12275390
2026-01-14 17:14:09.001,12509890,-174359,-6000741,-23207980,109375,-17285160,12714840
2026-01-14 17:14:09.011,12552180,26066790,-32231530,-23252000,10039060,-26538090,13359380
2026-01-14 17:14:09.021,12603970,-27855280,-33688560,-23303800,92529300,-375,13408200
2026-01-14 17:14:09.031,12656620,26110820,-32256570,-23354720,8261719,-48388670,13730470
2026-01-14 17:14:09.041,12717040,-1476016,-59895190,-23415140,68847660,-6098633,13681640
2026-01-14 17:14:09.051,-51670070,26171240,-32299720,-55293640,5961914,-73583980,13974610
2026-01-14 17:14:09.061,12813720,-136379,5,-5986930,-23508370,56689450,-80859380,13691410
2026-01-14 17:14:09.071,-35243130,26210950,-32329070,-71668790,5517578,-8647461,13486330
2026-01-14 17:14:09.081,12920750,-1286120,-59860660,-23608490,46972660,-8618164,13369140
2026-01-14 17:14:09.091,-35113650,-1277486,-59852020,-71729210,4152832,-8276367,12910160
2026-01-14 17:14:09.101,17825530,-1294752,-59869290,-18893610,35864260,-77001950,12626950
2026-01-14 17:14:09.111,13073530,-1329280,-59869300,-23749190,33666990,-75,12158200
2026-01-14 17:14:09.121,-3488924,26171240,-32299730,-7181552,33935550,-70166020,11865230
2026-01-14 17:14:09.131,-3480293,-27792260,-33630730,-7185008,3330078,-67822260,11113280
2026-01-14 17:14:09.141,13253930,26044350,-32202190,-23914050,2709961,-67822260,10927730
2026-01-14 17:14:09.151,-3463031,-1847180,-59921080,-7190185,22583010,-6328125,10517580
2026-01-14 17:14:09.161,-3453536,-2062970,-59946980,-7192775,18188480,-5957031,103125
2026-01-14 17:14:09.171,-34423120,25715490,-31944100,-71953640,118896500,-51464840,9736328
2026-01-14 17:14:09.181,13511160,-28419790,-34159850,-24140210,4284668,-3972168,8984375
2026-01-14 17:14:09.191,-51212590,-290885,3,-6001601,-54991530,-20050050,-2998047,81152340
2026-01-14 17:14:09.201,13657900,-3254140,-60033300,-24269680,-115478500,-1809082,7314453
2026-01-14 17:14:09.211,-3395702,25042210,-31408940,-7203994,-20751950,-16210940,65478520
2026-01-14 17:14:09.221,-3381028,27732530,-28373350,-7206584,-25976560,-18603520,5551758
2026-01-14 17:14:09.231,-33663530,-436760,-6012823,-72091740,-33154300,-25878910,4724121
2026-01-14 17:14:09.241,-3349091,-29684330,-35225860,-7210902,-35961910,-32006840,4099121
2026-01-14 17:14:09.251,-33318260,-5118584,-60205930,-72126270,-33422850,-3684082,34545900
2026-01-14 17:14:09.261,-50685200,-5472480,-60266350,-54586710,-28344730,-38183590,2602539
2026-01-14 17:14:09.271,-32938470,-5809114,-60326770,-72160800,-25341800,-36035160,1940918
2026-01-14 17:14:09.281,14478770,-6111228,-60387190,-24967980,-21276860,-24389650,10064700
2026-01-14 17:14:09.291,-32515520,-6404700,-60456250,-72186700,-22961430,-21514890,62194820
2026-01-14 17:14:09.301,14730810,-30902260,-36286700,-25182050,-19702150,22009280,-59776300
2026-01-14 17:14:09.311,14862020,-6922604,-60577090,-25292530,-110839800,3864746,-6842041
2026-01-14 17:14:09.321,-31859520,-7155652,-60637510,-72255750,61569220,43774420,-13769530
2026-01-14 17:14:09.331,-31652350,-7388710,-60680660,-72290270,15246580,41381840,-21447750
2026-01-14 17:14:09.341,-3145382,-762176,8,-6070656,-7233343,2626953,3256836,-24682620
2026-01-14 17:14:09.351,-31281190,-31641990,-36928030,-72367950,30566410,23388670,-22961430
2026-01-14 17:14:09.361,15460190,-31757660,-37019530,-25816480,29296880,1270752,-19946290
2026-01-14 17:14:09.371,15540470,22731520,-29628220,-25891570,3244629,35064700,-20019530
2026-01-14 17:14:09.381,15592250,-8510832,-60594350,-25943360,3334961,-28972630,-16540530
2026-01-14 17:14:09.391,-30979080,-8709354,-60533930,-72566490,32641600,-8285522,-19274900
2026-01-14 17:14:09.401,1560431,-8899256,-60447620,-2596581,3137207,10238650,-22961430
2026-01-14 17:14:09.411,-31108550,22164420,-29107730,-72609640,29516600,-14419560,-33642580
2026-01-14 17:14:09.421,-3122078,-32209960,-37309550,-7261829,24780270,-7055664,-43017580
2026-01-14 17:14:09.431,-3137617,-9434422,-60154140,-7260102,18469240,-12200930,-49536130
2026-01-14 17:14:09.441,15301370,-9607052,-60067820,-25716350,14013670,-17749020,-5253906
2026-01-14 17:14:09.451,-5011467,-9762422,-59981500,-5419052,81726070,-27490230,-58691410
2026-01-14 17:14:09.461,-31988990,-9900528,-59895180,-72488800,62927250,-37548830,-6176758
2026-01-14 17:14:09.471,-32204780,-10030000,-59834760,-72428380,178833,-4243164,-6689453
2026-01-14 17:14:09.481,-32437830,21329740,-28319660,-72367960,28335570,-44091800,-7050781
2026-01-14 17:14:09.491,-3264502,-10202640,-59731180,-7229891,-10955810,-46533200,-76953130
2026-01-14 17:14:09.501,19172070,-1026306,-5968804,-20222890,-44677740,-48950200,-7832031
2026-01-14 17:14:09.511,14317360,-1028895,-5966214,-24835920,-9527588,-49169920,-828125
2026-01-14 17:14:09.521,-33180160,21171770,-28166880,-72109010,-16088870,-48950200,-84472660
2026-01-14 17:14:09.531,14110200,21171770,-28166880,-24646020,-25390620,-50927740,-86376950
2026-01-14 17:14:09.541,-50765470,-1028893,-5966211,-54627280,-31225590,-4663086,-82373050
2026-01-14 17:14:09.551,-33430480,-10245790,-59688020,-71962270,-38476560,-4272461,-7998047
2026-01-14 17:14:09.561,13963460,-10185370,-59748450,-24499280,-46240230,-4091797,-74853520
2026-01-14 17:14:09.571,-50722310,-32480990,-37452830,-54566860,-5083008,-38378900,-68896480
2026-01-14 17:14:09.581,13971230,-10012740,-59921080,-24491510,-5395508,-36621100,-60498050
2026-01-14 17:14:09.591,1399452,-32460270,-37473550,-2450275,-57910160,-37670900,-5371094
2026-01-14 17:14:09.601,-33180160,-9771050,-60162770,-71746480,-55908200,-36083980,-4465332
2026-01-14 17:14:09.611,-3307660,-9624316,-60309510,-7169469,-55078120,-33496090,-390625
2026-01-14 17:14:09.621,18820590,-32408480,-37508080,-19866580,-5209961,-24084470,-3149414
2026-01-14 17:14:09.631,14165440,-32373960,-37508080,-24608040,-5366211,-15429690,-2746582
2026-01-14 17:14:09.641,-3270543,-32338570,-37508940,-7154796,-55322260,-10845950,-23144530
2026-01-14 17:14:09.651,-32575940,-883880,5,-6093961,-71487530,-54541020,-77209470,-17016600
2026-01-14 17:14:09.661,-32446470,-8597140,-61094990,-71444370,-5571289,8673096,-1182251
2026-01-14 17:14:09.671,-49904890,-8329560,-61258990,-53813310,-52978520,21191410,-74157710
2026-01-14 17:14:09.681,-32178880,-8027454,-61422990,-71349420,-50439450,3881836,-21408080
2026-01-14 17:14:09.691,-32040780,-7716712,-61578360,-71314900,-48217770,57666020,48950200
2026-01-14 17:14:09.701,-31902670,-7388708,-61733730,-71280370,-4489746,76171870,7824707
2026-01-14 17:14:09.711,14608250,23977060,-30868590,-24907560,-36938480,81640620,14086910
2026-01-14 17:14:09.721,-3158330,-665501,8,-6201858,-7123721,-31762700,7944336,203125
2026-01-14 17:14:09.731,14772250,-6257962,-62156690,-25037040,-31396480,6845703,2824707
2026-01-14 17:14:09.741,-49248880,-5852274,-62286160,-53243620,-3413086,49780270,40112300
2026-01-14 17:14:09.751,14933660,25094010,-31875050,-25169100,-33691410,32910160,51123050
2026-01-14 17:14:09.761,15000120,-30857370,-36607800,-25223480,-23937990,2319336,64501950
2026-01-14 17:14:09.771,-30901400,25655930,-32366190,-71228580,-19213870,113220200,7871094
2026-01-14 17:14:09.781,-30840980,25926100,-32596650,-71237210,-17285160,-14190670,8652344
2026-01-14 17:14:09.791,15112330,-3659832,-62648690,-25318430,-13122560,-78186030,96728510
2026-01-14 17:14:09.801,-30840980,-3245508,-62665950,-71237210,-10797120,-9893799,10546880
2026-01-14 17:14:09.811,-30910030,-2839818,-62657320,-71237210,-124694800,-11462400,11289060
2026-01-14 17:14:09.821,15000120,-29541040,-35559050,-25223480,-16540530,-925293,11699220
2026-01-14 17:14:09.831,-3113448,-2097496,-62605530,-7120268,-15991210,-46966550,11669920
2026-01-14 17:14:09.841,-3128984,-29120680,-35202560,-7118544,-1743164,-7318115,11865230
2026-01-14 17:14:09.851,-31462460,-1441486,-62536480,-71150890,-14245610,-8709717,11855470
2026-01-14 17:14:09.861,14584940,-1148012,-62484690,-24861810,-97229010,-87402340,12197270
2026-01-14 17:14:09.871,14456330,27605820,-33938020,-24748730,-49743650,-7757568,12607420
2026-01-14 17:14:09.881,14318220,27706810,-34009660,-24627890,-22125240,-1003418,12792970
2026-01-14 17:14:09.891,14188750,-3134519,-3140708,-24515680,11207580,-7110596,13183590
2026-01-14 17:14:09.901,-3249828,-233058,-62243010,-7094373,48553470,-11993410,13779300
2026-01-14 17:14:09.911,1392114,-60424,-62173950,-2428263,1027832,7550049,14453130
2026-01-14 17:14:09.921,-3291259,28000290,-34199560,-7089193,1763916,12365720,14433590
2026-01-14 17:14:09.931,13678610,250316,-62018580,-24076330,20703120,11584470,14462890
2026-01-14 17:14:09.941,-5019667,371164,-61932260,-5395314,21130370,-2927,78,14492190
2026-01-14 17:14:09.951,13472320,457480,-61845950,-23902830,2401123,-13891600,14736330
2026-01-14 17:14:09.961,-33637640,-27493610,-33722220,-70840150,26708980,-3256836,15205080
2026-01-14 17:14:09.971,-33810270,28072800,-34178840,-70840150,28588870,-45996100,15947270
2026-01-14 17:14:09.981,17895790,28044310,-34138270,-18944190,29003910,-4819336,17060550
2026-01-14 17:14:09.991,13074400,28015820,-34097700,-23575690,3190918,-40942380,17792970
2026-01-14 17:14:10.001,12962190,27977850,-34049360,-23480740,31396480,-28637700,1796875
2026-01-14 17:14:10.011,-3456986,2792951,-3399412,-7080563,34448240,-18591310,17724610
2026-01-14 17:14:10.021,12729130,61286,-6120721,-23282220,40771480,-81970220,17539060
2026-01-14 17:14:10.031,12616920,543796,-61120890,-23187270,48876950,11802670,17207030
2026-01-14 17:14:10.041,-51150440,27724940,-33784370,-54708420,5439453,3237915,17070310
2026-01-14 17:14:10.051,12385590,30365110,-30971570,-22987010,6176758,-4901886,16943360
2026-01-14 17:14:10.061,-35493440,27529000,-33600520,-70658890,57128900,-16003420,17197270
2026-01-14 17:14:10.071,16947600,-27345140,-33439100,-18010680,48510740,-36328120,17275390
2026-01-14 17:14:10.081,-35847340,-60420,-60792880,-70598460,3959961,-54833980,17099610
2026-01-14 17:14:10.091,-3601999,-27425420,-33479680,-7056395,2770996,-6977539,17021480
2026-01-14 17:14:10.101,11833160,-302106,-60672040,-22503640,18396000,-74658200,16708980
2026-01-14 17:14:10.111,11732170,-405690,-60620250,-22414730,15637210,-7207031,16474610
2026-01-14 17:14:10.121,11640680,-517900,-60577090,-22333590,21618650,-6279297,16513670
2026-01-14 17:14:10.131,-36606930,-621480,-60542560,-70408570,31323240,-49121100,16328130
2026-01-14 17:14:10.141,11476670,-742324,-60508040,-22186860,39526370,-4091797,15976560
2026-01-14 17:14:10.151,11403300,-871800,-60464880,-22122120,4663086,-3400879,15800780
2026-01-14 17:14:10.161,11338570,-104442,3,-6041309,-22066010,56103520,-37329100,15507810
2026-01-14 17:14:10.171,-37047150,-1242962,-60369930,-70330880,6098633,-42529300,15390630
2026-01-14 17:14:10.181,-37159360,-1484644,-60300880,-70322250,640625,-45458980,15478520
2026-01-14 17:14:10.191,11133130,26135850,-32335120,-21891650,6689453,-41259770,15283200
2026-01-14 17:14:10.201,11058040,-28212630,-34021740,-21828640,66845700,-3479004,15019530
2026-01-14 17:14:10.211,10974310,25704260,-31955320,-21757000,62109380,-22705080,14375
2026-01-14 17:14:10.221,10882810,-2805294,-60016030,-21675860,6147461,-1303711,13623050
2026-01-14 17:14:10.231,1079129,-3228248,-59955610,-2159473,6010742,-89538580,12294920
2026-01-14 17:14:10.241,-52449510,-3685720,-59895190,-55670850,5654297,-89782710,11201170
2026-01-14 17:14:10.251,-3806572,-4160466,-59852030,-7010647,52783200,-90270990,10
2026-01-14 17:14:10.261,-3817793,-4669740,-59808870,-7004605,49780270,-70373540,9091797
2026-01-14 17:14:10.271,10443460,-5196268,-59782980,-21269310,46166990,-5050659,7949219
2026-01-14 17:14:10.281,-3834193,-5740062,-59774340,-6991657,4729004,-2835083,69873050
2026-01-14 17:14:10.291,10313990,-6283860,-59748450,-21139830,50146480,32287600,5839844
2026-01-14 17:14:10.301,-38445480,-6827652,-59722550,-69795720,5625,9454346,5366211
2026-01-14 17:14:10.311,-3847138,-735418,5,-5969666,-6975257,6738281,19152830,48046880
2026-01-14 17:14:10.321,10213000,-7880716,-59653500,-21033670,76953130,3479004,46069340
2026-01-14 17:14:10.331,-3848866,-8372720,-59593080,-6971804,87402340,59277340,453125
2026-01-14 17:14:10.341,10213000,21923590,-28761600,-21033660,92578130,7949219,41796880
2026-01-14 17:14:10.351,-3846276,-31873320,-36886600,-6974395,9033203,90722660,3605957
2026-01-14 17:14:10.361,-38471380,-9771050,-59334130,-69769820,85791020,94970700,3046875
2026-01-14 17:14:10.371,15125110,-10237170,-59213290,-16207870,7998047,9243164,27856440
2026-01-14 17:14:10.381,10250110,-32478400,-37317320,-21082870,78271490,7866211,26831060
2026-01-14 17:14:10.391,-38557700,-11178010,-58928440,-69856140,76220700,6230469,2824707
2026-01-14 17:14:10.401,15063480,-1166139,-5875582,-16148650,6948242,40307620,3479004
2026-01-14 17:14:10.411,-38790750,23210570,-23210580,-69864780,5776367,1217041,39233400
2026-01-14 17:14:10.421,9991162,19298700,-26397390,-20875700,53125,-18322750,45361330
2026-01-14 17:14:10.431,9832339,18905960,-26030540,-20741050,58251950,-42749020,44970700
2026-01-14 17:14:10.441,-3960214,18489050,-25636070,-6977845,65527340,-56396480,41796880
2026-01-14 17:14:10.451,-40007810,21263870,-21980820,-69700770,6166992,-70996100,33154300
2026-01-14 17:14:10.461,-40499820,-14803320,-57098520,-69605820,50634770,-7783203,15136720
2026-01-14 17:14:10.471,8698138,17025120,-24234290,-19751860,37841800,-71972660,25527950
2026-01-14 17:14:10.481,-41639200,-16063540,-56235350,-69346870,23510740,-6254883,-3717041
2026-01-14 17:14:10.491,-42260680,15890920,-23141520,-69191500,15026860,-53808590,-13842770
2026-01-14 17:14:10.501,7445681,-17435980,-55277240,-18639240,1352539,-41601560,-2619629
2026-01-14 17:14:10.511,-4358133,17934550,-18663750,-6882033,18579100,-27441410,-41259770
2026-01-14 17:14:10.521,6535903,13994530,-21309010,-17822680,21716310,-10369870,-57373050
2026-01-14 17:14:10.531,-44919240,13300550,-20639190,-68397390,2211914,9765625,-71875
2026-01-14 17:14:10.541,5611451,12589300,-19952120,-16986270,1673584,23205570,-7998047
2026-01-14 17:14:10.551,-4619674,-21397920,-52489220,-6794855,8734131,38452150,-87597660
2026-01-14 17:14:10.561,-46809580,-22278350,-51885000,-67715490,42388920,5019531,-9135742
2026-01-14 17:14:10.571,-47387890,10330390,-17774340,-67482430,72021490,5756836,-9638672
2026-01-14 17:14:10.581,3882526,9547495,-17020800,-15400630,12371830,56689450,-10136720
2026-01-14 17:14:10.591,-4849276,8748202,-16249130,-6698179,16357420,54833980,-9794922
2026-01-14 17:14:10.601,3059063,-25938180,-49347280,-14635870,20739750,45629880,-93408200
2026-01-14 17:14:10.611,78616420,-2686173,-4866542,-90219130,21765140,31347660,-85839840
2026-01-14 17:14:10.621,2203665,-27793990,-47957580,-13833990,20324710,24279780,-78027340
2026-01-14 17:14:10.631,69957140,-28691680,-47232530,-81615070,2232666,20092770,-6791992
2026-01-14 17:14:10.641,-51306680,80700980,-88307200,-65548930,28979490,17651370,-64501950
2026-01-14 17:14:10.651,789796,-30435280,-45713350,-12502980,34375,15637210,-66552740
2026-01-14 17:14:10.661,-52558260,3010731,-10627320,-64867030,39746100,10461430,-7636719
2026-01-14 17:14:10.671,-2321920,-32075290,-44073330,-115396900,39648440,40863040,-8310547
2026-01-14 17:14:10.681,45456990,1375892,-8982122,-57259940,38427740,-31799320,-90185540
2026-01-14 17:14:10.691,-1298206,39792880,-47387030,-10534090,36938480,-99365230,-97216800
2026-01-14 17:14:10.701,-5520821,31601420,-39178300,-6340827,30444340,-17712400,-9814453
2026-01-14 17:14:10.711,-2371986,-35061860,-40499820,-9519012,21679690,-32470700,-9355469
2026-01-14 17:14:10.721,-56528840,15310010,-22842000,-62657320,1739502,-41625980,-8984375
2026-01-14 17:14:10.731,19664680,-2656828,-4849276,-31607470,16247560,-4560547,-8847656
2026-01-14 17:14:10.741,-39110120,25608450,-33086930,-80542160,10736080,-48754880,-84033200
2026-01-14 17:14:10.751,9975626,-42174360,-32334250,-21961570,4446411,-5942383,-80126950
2026-01-14 17:14:10.761,5393070,-16487360,9062395,-17394550,-28823850,-6767578,-6972656
2026-01-14 17:14:10.771,984011,-24328370,16931030,-12999300,-10345460,-78564460,-5698242
2026-01-14 17:14:10.781,20746230,-31999340,24624440,-32770150,-12561040,-8701172,-4958496
2026-01-14 17:14:10.791,-74819350,-40361700,-33162890,-45471660,-1640625,-8803711,-44482420
2026-01-14 17:14:10.801,-656783,8,-80179620,6827656,-546302,2,-16503910,-8334961,-43408200
2026-01-14 17:14:10.811,-15593980,-54759340,47439680,3568332,-23254400,-7626953,-34057620
2026-01-14 17:14:10.821,-61448890,-9515555,2206259,-58721280,-35009770,-74609380,-15673830
2026-01-14 17:14:10.831,-77805920,-43115210,-29891490,-42243420,-4465332,-7714844,9384155
2026-01-14 17:14:10.841,-8194048,-11020060,3722842,-3791895,-50927740,-8051758,17541500
2026-01-14 17:14:10.851,-86325380,-84957250,77663490,-33326900,-52246100,-88720700,26538090
2026-01-14 17:14:10.861,-37216330,-9281122,8551918,25276990,-47802740,-93310540,23803710
2026-01-14 17:14:10.871,-42380660,-37414000,-35471870,30470670,-4309082,-9116211,17932130
2026-01-14 17:14:10.881,-47975710,-14171490,6889805,36096800,-4296875,-84277340,13793950
2026-01-14 17:14:10.891,-10713640,-47733160,-24980060,-1132478,-52978520,-73339840,10021970
2026-01-14 17:14:10.901,-113161300,-4852727,-2404780,-4920056,-6645508,-57128900,-491333
2026-01-14 17:14:10.911,-11944510,-16748040,9509517,174359,4,-8461914,-34472660,-22998050
2026-01-14 17:14:10.921,-59306510,-17634510,10418430,-57963420,-10927730,-38513180,-42993160
2026-01-14 17:14:10.931,-65773360,-18546010,11354110,-51030460,-13554690,27563480,-62109380
2026-01-14 17:14:10.941,-13833990,-51720990,-19939170,2203664,-16298830,6142578,-77001950
2026-01-14 17:14:10.951,-14437340,-52515100,-18868840,2860535,-18583980,8769531,-8041992
2026-01-14 17:14:10.961,-6683506,-5332649,-1779851,-4834601,-20058590,10605470,-78515620
2026-01-14 17:14:10.971,-15550830,-54120600,-16745450,4094865,-21894530,1109375,-67041020
2026-01-14 17:14:10.981,-16053190,-54906080,-15735540,4662829,-23398440,11083980,-5678711
2026-01-14 17:14:10.991,-16511530,-55674300,-14777430,5188497,-23476560,11533200,-41479490
2026-01-14 17:14:11.001,-67577380,-56416620,-13862470,-44962390,-240625,11611330,-29492190
2026-01-14 17:14:11.011,-17306510,-57133050,-13025200,6119855,-2328125,11230470,-2421875
2026-01-14 17:14:11.021,-17634510,-26282590,19275390,6516913,-22441410,11015630,-2783203
2026-01-14 17:14:11.031,-67655060,-37347520,-32655350,-42864900,-20957030,99316410,-39624020
2026-01-14 17:14:11.041,-67620540,-59075180,-10858640,-42243420,-20078120,7416992,-48168940
2026-01-14 17:14:11.051,-67560110,-59670760,-10211270,-41665090,-18867190,52246100,-6826172
2026-01-14 17:14:11.061,-67508330,-37430390,-32365320,-41078140,-17080080,14179690,-14296880
2026-01-14 17:14:11.071,-67456540,-60775620,-8933775,-40491180,-16503910,3234375,-24042970
2026-01-14 17:14:11.081,-19122610,-30014060,23053480,8395165,-17998050,47070310,-29003910
2026-01-14 17:14:11.091,-67335700,-61923630,-7578604,-39213700,-21523440,53554690,-28769530
2026-01-14 17:14:11.101,-19683670,-31308810,24365490,9111595,-25898440,53789060,-26308590
2026-01-14 17:14:11.111,-67188950,-32005380,25067250,-37616840,-27910160,4984375,-24882810
2026-01-14 17:14:11.121,-20415640,-32726990,25795760,10036910,-26660160,42421880,-22304690
2026-01-14 17:14:11.131,-20853260,-37604750,-31604010,10583290,-22441410,32539060,-17011720
2026-01-14 17:14:11.141,-67042220,-65264090,-3772039,-34569860,-16347660,20507810,-85302740
2026-01-14 17:14:11.151,-21790660,-65851050,-2960665,11734760,-97265620,93310540,14648440
2026-01-14 17:14:11.161,-22269720,-32426440,31741430,12308770,-40185550,9307861,10195310
2026-01-14 17:14:11.171,-6718031,-36052780,29237210,-3160058,-56549070,-6791992,17636720
2026-01-14 17:14:11.181,-6727527,-66990420,-785481,9,-3081511,-41778560,-12197270,22421880
2026-01-14 17:14:11.191,-50638580,-36852070,30112460,-46916600,-3305664,-159375,2390625
2026-01-14 17:14:11.201,-6748242,-37119650,30414570,-2969298,-66259770,-17724610,234375
2026-01-14 17:14:11.211,-23931320,-37320770,30645030,14237950,-91552740,-16855470,21367190
2026-01-14 17:14:11.221,-6756875,-6739611,88043,59,-2924412,-10556640,-13876950,16669920
2026-01-14 17:14:11.231,-6754286,-67404740,1078958,-2928731,-11171880,-99121100,10341800
2026-01-14 17:14:11.241,-23827740,-37636690,31019650,14134370,-11611330,-66308590,31640620
2026-01-14 17:14:11.251,-23586050,-67422020,1389701,13875410,-12333980,-38354490,-38989260
2026-01-14 17:14:11.261,-23260640,-67447900,1536441,13527560,-12363280,-21643070,-10146480
2026-01-14 17:14:11.271,-22867030,-6748244,170908,13109790,-11464840,-10687260,-14931640
2026-01-14 17:14:11.281,-6643800,-67542860,1907602,-3137617,-10019530,-116760300,-18232420
2026-01-14 17:14:11.291,-21958120,-67611900,2149287,12154260,-8305664,-24291990,-20605470
2026-01-14 17:14:11.301,-21501500,-67698220,2442765,11678650,-72753900,-40576170,-21601560
2026-01-14 17:14:11.311,-21061290,-67775900,2779399,11221170,-63183590,-65771480,-21425780
2026-01-14 17:14:11.321,-20678040,-67870860,3167827,10827570,-49926760,-95654300,-20195310
2026-01-14 17:14:11.331,-20353490,-35755850,-28601920,10496110,-37768560,-12880860,-17939450
2026-01-14 17:14:11.341,-20102310,-35594440,-28383530,10246660,-30004880,-16445310,-15859380
2026-01-14 17:14:11.351,-19952980,-35407990,-28138390,10102510,-21838380,-20957030,-14511720
2026-01-14 17:14:11.361,-64150600,-35198240,-27864770,-34215960,-18383790,-25878910,-13603520
2026-01-14 17:14:11.371,-50597150,-6825926,574871,6,-47596780,-21704100,-30585940,-13544920
2026-01-14 17:14:11.381,-64107450,-34689840,-27216530,-33844800,-23144530,-34238280,-13730470
2026-01-14 17:14:11.391,-64159240,-34398950,-26851410,-33499530,-2208252,-36132810,-1265625
2026-01-14 17:14:11.401,-20456210,-34100290,-26476800,10721400,-19104000,-36582030,-10419920
2026-01-14 17:14:11.411,-16375840,-33783510,-26085780,15405980,-18554690,-35957030,-8671875
2026-01-14 17:14:11.421,-64530400,-68449180,9270423,-32075300,-20495600,-34511720,-71777340
2026-01-14 17:14:11.431,-21408280,-68466440,9943689,11789140,-25732420,-32519530,-58251950
2026-01-14 17:14:11.441,-64858400,-42428990,36637140,-30884130,-29711910,-29980470,-47924800
2026-01-14 17:14:11.451,-65022400,-68526860,11160760,-30254020,-37426760,-27265620,-42016600
2026-01-14 17:14:11.461,-18255130,-32471500,-24445770,17307370,-4169922,-24824220,-42797850
2026-01-14 17:14:11.471,-65307250,-28672610,-27864860,-28933370,-54003900,-22539060,-4814453
2026-01-14 17:14:11.481,-23267540,-68768550,12490040,13900440,-6118164,-20878910,-52490230
2026-01-14 17:14:11.491,-48432320,-68906660,12818040,-44634390,-67285150,-20195310,-55322260
2026-01-14 17:14:11.501,-24007280,-6907930,1307700,14766200,-6381836,-19453120,-5371094
2026-01-14 17:14:11.511,-6566115,-69260560,13292780,-2605906,-5385742,-1875,-5073242
2026-01-14 17:14:11.521,-65712940,-32156440,-23863130,-25264910,-42016600,-18408200,-47070310
2026-01-14 17:14:11.531,-25174280,-69692140,13603520,16154180,-29248050,-17841800,-3935547
2026-01-14 17:14:11.541,-2560760,-32285920,-23923550,1667034,-21911620,-17285160,-32373050
2026-01-14 17:14:11.551,-46426320,-7013234,1378481,-42100130,-15026860,-16669920,-2434082
2026-01-14 17:14:11.561,-22604370,-32452510,-24033170,21727910,-12030030,-16396480,-11376950
2026-01-14 17:14:11.571,-45639120,-70538050,13914260,-41091950,-1381836,-16318360,16418460
2026-01-14 17:14:11.581,-27620490,-7071932,1395743,19042340,-17907720,-15625,13793950
2026-01-14 17:14:11.591,-28192780,-32685560,-24197170,19713020,-16369630,-14033200,22753910
2026-01-14 17:14:11.601,-28781450,-7103006,1404375,20401830,-17272950,-12138670,27514650
2026-01-14 17:14:11.611,-29396030,-71150900,14078260,21116520,-1743164,-88427740,37670900
2026-01-14 17:14:11.621,-26329720,-7126312,1410417,25512120,-17810060,-46899420,5073242
2026-01-14 17:14:11.631,-30630360,-7135807,1413007,22558020,-17822270,1638794,64160160
2026-01-14 17:14:11.641,-31242350,-32928110,-24368940,23275310,-25854490,4645996,76708980
2026-01-14 17:14:11.651,-67232110,-71513420,14164580,-11367920,-4050293,82128900,9086914
2026-01-14 17:14:11.661,-32463730,-71582480,14164580,24712480,-55566410,10595700,10449220
2026-01-14 17:14:11.671,-33055860,-42954050,42896590,25415100,-68652340,12480470,11738280
2026-01-14 17:14:11.681,-67508330,-33032560,-24437130,-7777138,-68652340,13925780,13164060
2026-01-14 17:14:11.691,-30849170,-71781010,14311320,30107710,-56933590,15039060,14794920
2026-01-14 17:14:11.701,-34714870,-71841420,14423530,27415920,-44140620,15341800,16220700
2026-01-14 17:14:11.711,-6756875,-7189322,1456164,-429857,7,-3486328,15097660,17861330
2026-01-14 17:14:11.721,-67551490,-71919110,14742900,-3193724,-2310791,14511720,19189450
2026-01-14 17:14:11.731,-38090720,-28910500,-28041290,-31549630,-7104492,13964840,20585940
2026-01-14 17:14:11.741,-67508330,-32688150,-23970160,-1078960,6298828,12597660,21972660
2026-01-14 17:14:11.751,-6748242,-71884580,15606070,-8634,662,1463623,10351560,23183590
2026-01-14 17:14:11.761,-36700150,-32297140,-23515270,-29867320,2232666,78125,24804690
2026-01-14 17:14:11.771,-37893050,-71729220,16451970,31332980,32202150,4284668,26425780
2026-01-14 17:14:11.781,-35846480,-31765420,-22907600,-28839290,42919920,112854000,27460940
2026-01-14 17:14:11.791,-6733569,-71487530,17505040,354758,6,41625980,-12719730,28632810
2026-01-14 17:14:11.801,-67283900,-31092150,-22148010,4376254,17468260,17358400,290625
2026-01-14 17:14:11.811,-34650990,-7117678,1873075,-27410740,-9391785,13955080,30546880
2026-01-14 17:14:11.821,-34263430,-71004150,19386740,-26952410,10974120,25957030,33984380
2026-01-14 17:14:11.831,-6707675,-29938100,-20850680,672406,6,33764650,32949220,38984380
2026-01-14 17:14:11.841,-6698180,-25445400,-24532000,749228,3,31030270,35761720,44140620
2026-01-14 17:14:11.851,-29333470,-70503520,21285710,-29258340,23986820,35292970,46757810
2026-01-14 17:14:11.861,-32618230,-48552300,43703030,-25041350,-29345700,31171880,45703120
2026-01-14 17:14:11.871,-32171980,-28529410,-19255540,-24538130,-3112793,253125,43125
2026-01-14 17:14:11.881,-66325790,-70158250,23081100,10530640,-42999270,19091800,3890625
2026-01-14 17:14:11.891,-31320900,-23627740,-22689820,-23593820,3774414,12617190,34238280
2026-01-14 17:14:11.901,-27465470,-27471160,-18035020,-26689650,8408203,5463867,28691410
2026-01-14 17:14:11.911,-30647620,-49721900,45261050,-22868760,13457030,-13293460,24121090
2026-01-14 17:14:11.921,-3895739,-69623090,25998600,3895207,17109380,-68359380,20527340
2026-01-14 17:14:11.931,-30248840,-69415930,26861780,-22456160,20019530,-9970703,18740230
2026-01-14 17:14:11.941,-6518641,-6916561,2776810,1267129,21191410,-11835940,18554690
2026-01-14 17:14:11.951,-41482100,-24956760,-15197790,36237500,21972660,-11992190,18837890
2026-01-14 17:14:11.961,-30116770,-51067580,47178140,-22363810,22167970,-10957030,18964840
2026-01-14 17:14:11.971,-30164250,-6824201,3062520,-22437170,22285160,-8613281,18662110
2026-01-14 17:14:11.981,-64892930,-23168280,-13222860,12067080,22539060,-48461910,18300780
2026-01-14 17:14:11.991,-30388670,-22608940,-12608290,-22730650,23046880,7067871,17470700
2026-01-14 17:14:12.001,-30547500,-22099670,-12047230,-22934360,23007810,6850586,16484380
2026-01-14 17:14:12.011,-40511040,-21656870,-11557810,35119690,22402340,12509770,15009770
2026-01-14 17:14:12.021,-30951460,-16717310,-15703260,-23445350,20410160,16933590,13955080
2026-01-14 17:14:12.031,-39973280,-66783260,35001440,34483540,17265620,19863280,12744140
2026-01-14 17:14:12.041,-64625340,-20754860,-10543590,9192734,13925780,22304690,11572270
2026-01-14 17:14:12.051,-31632500,-20614160,-10373540,-24318020,11542970,22832030,9580078
2026-01-14 17:14:12.061,-3905054,-66740110,35925030,3340369,99902340,22011720,6948242
2026-01-14 17:14:12.071,-32071850,-52982940,49906610,-24897200,10097660,21054690,3310547
2026-01-14 17:14:12.081,-32296270,-66955900,36106300,-25190680,99072260,19951170,-21514890
2026-01-14 17:14:12.091,-64185130,-20671140,-10351100,6163014,95703130,19169920,-32299800
2026-01-14 17:14:12.101,-64107450,-67283900,36019980,5515640,8417969,18359380,-5839844
2026-01-14 17:14:12.111,-64047020,-67456540,35899140,4833736,70214850,16044920,-7841797
2026-01-14 17:14:12.121,-37054920,-67629180,35743760,31066260,53808590,14296880,-9580078
2026-01-14 17:14:12.131,-63969340,-67801810,35553870,3357720,28149410,12705080,-11669920
2026-01-14 17:14:12.141,-36316910,-21480790,-11146940,30181510,-51605220,96240230,-12939450
2026-01-14 17:14:12.151,-63874390,-68147060,35156810,1743598,-34472660,50097660,-13867190
2026-01-14 17:14:12.161,-63805340,-68328330,34975540,897687,8,-58691410,28027340,-15166020
2026-01-14 17:14:12.171,-63719020,-22006450,-11674340,34527,77,-80859380,35083010,-16884770
2026-01-14 17:14:12.181,-6358953,-68673600,34682070,-83730,01,-9301758,47265620,-18955080
2026-01-14 17:14:12.191,-63442810,-68846230,34578490,-1709074,-10253910,5864258,-21152340
2026-01-14 17:14:12.201,-6327016,-69027500,34500800,-255500,5,-12695310,42626950,-22089840
2026-01-14 17:14:12.211,-63054380,-22551110,-12182740,-3374984,-14482420,93811030,-23046880
2026-01-14 17:14:12.221,-62804060,-6938140,3449220,-4160466,-16914060,-2788086,-24003910
2026-01-14 17:14:12.231,-62519220,-69554030,34561230,-4911425,-17617190,-69970700,-24023440
2026-01-14 17:14:12.241,-62208480,-22741870,-12302720,-5584690,-17314450,-10625,-23359380
2026-01-14 17:14:12.251,-61880470,-22749640,-12277690,-6188910,-17001950,-13388670,-23085940
2026-01-14 17:14:12.261,-61526580,-18013180,-16962360,-6732706,-16318360,-15664060,-22519530
2026-01-14 17:14:12.271,-61172680,-22701300,-12153390,-7172924,-15595700,-1625,-22421880
2026-01-14 17:14:12.281,-60818780,-22644340,-12054990,-7544086,-15751950,-14746090,-23125
2026-01-14 17:14:12.291,-60464880,-70408570,35916400,-7828931,-17294920,-13125,-23808590
2026-01-14 17:14:12.301,-36665630,-22472560,-11795180,-31455550,-19169920,-13300780,-23203120
2026-01-14 17:14:12.311,-59757080,-22365530,-11643260,-8087878,-21074220,-14384770,-22402340
2026-01-14 17:14:12.321,-36308280,-22242960,-11472360,-31174160,-22929690,-14902340,-21445310
2026-01-14 17:14:12.331,-36055370,-22121250,-11300590,-30943690,-24101560,-16357420,-20253910
2026-01-14 17:14:12.341,-28801310,-21991780,-11119320,22160100,-24023440,-18476560,-18974610
2026-01-14 17:14:12.351,-58324220,-16955110,-15862510,-7414608,-2359375,-20820310,-18125
2026-01-14 17:14:12.361,-57953060,-7115089,3864403,-7043446,-2296875,-22011720,-17373050
2026-01-14 17:14:12.371,-57564630,-56775700,53554360,-6603235,-221875,-22910160,-17392580
2026-01-14 17:14:12.381,-57193470,-71392580,39472650,-6111229,-21738280,-22949220,-16796880
2026-01-14 17:14:12.391,-28746930,-21383250,-10243210,22507950,-2171875,-21640620,-16269530
2026-01-14 17:14:12.401,-33293230,-71625630,40275390,-28147030,-22304690,-19785160,-15722660
2026-01-14 17:14:12.411,-56097250,-71737850,40646560,-4358999,-23535160,-17607420,-14667970
2026-01-14 17:14:12.421,-55734720,-71867320,40983190,-3668463,-24667970,-15341800,-13554690
2026-01-14 17:14:12.431,-29148300,-21011220,-9683011,23315010,-2609375,-13105470,-12607420
2026-01-14 17:14:12.441,-55061460,-15837830,-14701030,-2132022,-27753910,-10634770,-11542970
2026-01-14 17:14:12.451,-5472482,-20912820,-9505200,-127749,8,-28671880,-89697260,-10820310
2026-01-14 17:14:12.461,-27641120,-72367950,42053520,-27100960,-29746090,-82470700,-10234380
2026-01-14 17:14:12.471,-29991620,-72506060,42260680,24646880,-30820310,-80566410,-95703130
2026-01-14 17:14:12.481,-28797860,-20851540,-9342060,-23268410,-31328120,-87841800,-8803711
2026-01-14 17:14:12.491,-30516420,-20824780,-9282501,25451350,-32519530,-8798828,-85839840
2026-01-14 17:14:12.501,-52920790,-59375560,56375190,3754778,-34375,-8618164,-82421870
2026-01-14 17:14:12.511,-52497840,-20736740,-9128857,4885528,-36660160,-79296870,-73828130
2026-01-14 17:14:12.521,-31353690,-59703570,56737720,26754740,-38691410,-6723633,-6464844
2026-01-14 17:14:12.531,-25082780,-73093020,43710800,-19197710,-40390620,-49072260,-48217770
2026-01-14 17:14:12.541,-31921660,-20360390,-8642031,27671420,-4203125,-25634770,-25268560
2026-01-14 17:14:12.551,-50495300,-20146330,-8389987,9874636,-4375,24368290,-1499176
2026-01-14 17:14:12.561,-49899710,-72954910,45005550,11264330,-45898440,35498050,2956543
2026-01-14 17:14:12.571,-49278230,-14212480,-13029080,12731720,-4859375,78564460,6142578
2026-01-14 17:14:12.581,-48622220,-72575120,46144930,14268160,-50898440,12275390,10078130
2026-01-14 17:14:12.591,-47914430,-13327130,-12136310,15890910,-521875,16513670,14189450
2026-01-14 17:14:12.601,-18024660,-18159320,-6216531,-11547460,-51445310,1796875,18837890
2026-01-14 17:14:12.611,-16788610,-17553370,-5579514,-10211270,-48554690,17578120,22832030
2026-01-14 17:14:12.621,-33517480,-16868020,-4866537,33274410,-44414060,14316410,25839840
2026-01-14 17:14:12.631,-44660280,-7021005,5002921,23167410,-39433590,9550781,27578120
2026-01-14 17:14:12.641,-12755890,-15256480,-3215298,-5871266,-34785160,47729490,28183590
2026-01-14 17:14:12.651,-82039750,-14321670,-2268400,-75056730,-30625,5111,694,27421880
2026-01-14 17:14:12.661,-9925565,-78881420,-66821250,-2849319,-26640620,-2998047,26152340
2026-01-14 17:14:12.671,-8509970,-68179010,-56117100,-1347407,-22207030,-46850580,24804690
2026-01-14 17:14:12.681,-38492090,-111210500,9356732,-31251850,-17841800,-45825200,23808590
2026-01-14 17:14:12.691,-24456990,-45382760,-33338120,-17147680,-13359380,-42114260,2390625
2026-01-14 17:14:12.701,-10764560,-6289038,5736611,-3391386,-9160156,-26123050,25097660
2026-01-14 17:14:12.711,2240785,-75967370,44030170,9670925,-51953120,-25878910,26992190
2026-01-14 17:14:12.721,-18937890,-105574000,14078270,55881450,-12780760,24060060,28535160
2026-01-14 17:14:12.731,-34630280,2529080,121767000,40706980,31469730,51464840,29082030
2026-01-14 17:14:12.741,369436,8,10376140,22251590,7951499,78125,7529297,28105470
2026-01-14 17:14:12.751,1398333,19725970,31546180,9028733,11953130,9555664,2609375
2026-01-14 17:14:12.761,57962560,-24971440,92643750,65643020,15664060,11474610,23691410
2026-01-14 17:14:12.771,70220400,-17574100,99402360,70993790,184375,11542970,21855470
2026-01-14 17:14:12.781,39688440,-1119533,10510790,117580700,20703120,10449220,20664060
2026-01-14 17:14:12.791,4672326,-592133,10967410,12521970,22246090,8310547,19619140
2026-01-14 17:14:12.801,-30297180,-151056,11337710,48820750,23261720,50683590,1796875
2026-01-14 17:14:12.811,5885942,58642470,59784100,13863340,2328125,22473140,16152340
2026-01-14 17:14:12.821,-29787900,61408230,62542610,50659300,23085940,-16143800,13935550
2026-01-14 17:14:12.831,-39472650,5875752,7002707,41665100,22753910,-19274900,11230470
2026-01-14 17:14:12.841,7372314,6095257,7214785,15553410,22207030,-26611330,9223633
2026-01-14 17:14:12.851,-29304530,1311149,12430480,53179740,21542970,-24804690,73291020
2026-01-14 17:14:12.861,8238072,-54515930,55934980,16552100,22050780,-19787600,62353520
2026-01-14 17:14:12.871,-40595620,18514940,128223500,43166140,221875,-112976100,57714840
2026-01-14 17:14:12.881,-28855690,21656870,130605900,55493040,23007810,-8380127,64990230
2026-01-14 17:14:12.891,9556991,2522175,13342840,18047110,23984380,-8154297,7163086
2026-01-14 17:14:12.901,-28380940,-4543716,6200996,57003580,24453120,-96069340,77783200
2026-01-14 17:14:12.911,10572940,33499530,140169800,19154550,25253910,-9991455,8540039
2026-01-14 17:14:12.921,-27612720,-43840280,62070370,58531380,25644530,-7598877,89208980
2026-01-14 17:14:12.931,-2709480,-42994370,62173950,5930822,26464840,-7208252,89697260
2026-01-14 17:14:12.941,12470180,-42105310,62303420,21124300,27558590,-10498050,84765620
2026-01-14 17:14:12.951,-2575691,5450040,15818410,6081878,28378910,-15563970,7602539
2026-01-14 17:14:12.961,-24945540,-40275400,62683220,61561100,30351560,-2388916,67626950
2026-01-14 17:14:12.971,-24056470,-39334540,62933540,62277530,31875,-2915039,4958496
2026-01-14 17:14:12.981,-41025480,7333470,17491230,45015040,33261720,-38232420,22802730
2026-01-14 17:14:12.991,-2203664,-37418310,63503230,6360679,33964840,-46948240,-7281494
2026-01-14 17:14:13.001,-40416950,-36460200,63822600,44743140,34335940,-5546875,-36279300
2026-01-14 17:14:13.011,-19826960,9336878,19303010,64763450,34375,-609375,-61279300
2026-01-14 17:14:13.021,19082040,10004970,19912410,27477210,35058590,-6274414,-81689460
2026-01-14 17:14:13.031,-1755682,10662710,20514900,6570431,35136720,-6513672,-10195310
2026-01-14 17:14:13.041,-1642605,-32800360,65203660,6609272,34941410,-6850586,-12734380
2026-01-14 17:14:13.051,21462660,11904800,21655140,29636850,34863280,-69873050,-14980470
2026-01-14 17:14:13.061,-14250890,12479670,22185130,66714210,34140620,-74072260,-17080080
2026-01-14 17:14:13.071,-13232360,13000160,22665910,66938630,32910160,-77978510,-19121090
2026-01-14 17:14:13.081,-12274240,13484400,23113900,67137170,31875,-8256836,-20664060
2026-01-14 17:14:13.091,24015910,18233460,19193480,31882820,30800780,-8227539,-21914060
2026-01-14 17:14:13.101,-36139950,-45963660,49778860,41821320,29960940,-796875,-22421880
2026-01-14 17:14:13.111,24956760,-4582816,4970721,32685560,28710940,-7368164,-22636720
2026-01-14 17:14:13.121,-9149574,14893950,24431950,67516950,27695310,-6582031,-22617190
2026-01-14 17:14:13.131,-8536730,19419710,20372310,67542860,26445310,-55566410,-23242190
2026-01-14 17:14:13.141,-34803770,-27483250,67689590,40757900,24472660,-38891600,-23671880
2026-01-14 17:14:13.151,26241150,-2729337,6782769,33748980,22714840,-21582030,-23886720
2026-01-14 17:14:13.161,-34305720,-27146620,67957180,40340990,20488280,-16467290,-24199220
2026-01-14 17:14:13.171,-3410116,-2704304,6809528,4016577,18398440,-14697270,-23144530
2026-01-14 17:14:13.181,30057130,15860700,25381440,30796170,16611330,-15844730,-21328120
2026-01-14 17:14:13.191,-628385,15924580,25455670,6727528,15185550,-1541748,-19648440
2026-01-14 17:14:13.201,26886800,15977230,25523860,34208190,14033200,-1381836,-18261720
2026-01-14 17:14:13.211,26929960,16010890,25576510,34216820,12822270,-7696533,-16972660
2026-01-14 17:14:13.221,-567100,8,-2712073,6875992,6685232,11845700,3116,131,-15898440
2026-01-14 17:14:13.231,26999880,16030740,25642980,34215960,11044920,39642340,-15361330
2026-01-14 17:14:13.241,-5282588,-2735381,6904477,66498420,9741211,4232788,-14765630
2026-01-14 17:14:13.251,-5092684,-2750054,6919150,66291260,86328130,9056091,-14697270
2026-01-14 17:14:13.261,27032680,15986720,25687000,34131370,7597656,-10571290,-1390625
2026-01-14 17:14:13.271,-32230670,-46600680,50764600,38341890,65185550,-18115230,-13203130
2026-01-14 17:14:13.281,-4548890,-2808750,6965762,65592100,5859375,-22375490,-12099610
2026-01-14 17:14:13.291,-4367626,15833940,25649880,65324510,50390620,-18151860,-10859380
2026-01-14 17:14:13.301,-4194992,-28605370,69985620,65031030,46069340,-27923580,-95703130
2026-01-14 17:14:13.311,-4039622,-28907480,70149620,64737560,4165039,32177730,-8623047
2026-01-14 17:14:13.321,26837600,-2921824,7032224,33670440,39501950,65625,-80029300
2026-01-14 17:14:13.331,-30933330,-2954624,7047764,36963420,36669920,9921875,-69628900
2026-01-14 17:14:13.341,29683380,-4822432,5230017,30358550,37768560,12578130,-6542969
2026-01-14 17:14:13.351,26507010,-30236760,70788350,33224180,35009770,14277340,-60595700
2026-01-14 17:14:13.361,-375477,15087300,25239880,6312345,33740230,14833980,-5234375
2026-01-14 17:14:13.371,-3832464,-49009780,53016600,62786800,21521000,13476560,-43359380
2026-01-14 17:14:13.381,-395329,8,14752390,25005100,6245881,9576416,91845700,-3400879
2026-01-14 17:14:13.391,-410004,3,-3179909,7122858,6213943,592041,44311520,-19445800
2026-01-14 17:14:13.401,-30163380,-32239310,71306260,35920710,4180908,-27801510,-3326416
2026-01-14 17:14:13.411,-4419416,-3268818,7135806,61509310,-29006960,-48486330,14672850
2026-01-14 17:14:13.421,-4548894,-3314566,7140122,61207210,-8734131,-81640620,27001950
2026-01-14 17:14:13.431,-4661098,-33603110,71444370,60905090,-20202640,-9892578,30078120
2026-01-14 17:14:13.441,24655520,13436930,23990010,31191420,-2800293,-10214840,2849121
2026-01-14 17:14:13.451,24485470,13215090,23814790,30998930,-33422850,-9946289,28955080
2026-01-14 17:14:13.461,-488552,13001890,23648200,6000741,-3635254,-88134770,30078120
2026-01-14 17:14:13.471,24146250,-35303550,71608370,30613100,-3461914,-85595700,32861330
2026-01-14 17:14:13.481,-5023634,-3567474,7166880,59420450,-31835940,-84228510,34545900
2026-01-14 17:14:13.491,-31839740,12471900,23245960,32379910,-25854490,-8378906,36938480
2026-01-14 17:14:13.501,-520487,3,-52295000,55842620,5882484,-24121090,-7783203,44213870
2026-01-14 17:14:13.511,-5325742,12209500,23059520,58548650,-27783200,-72558590,49194340
2026-01-14 17:14:13.521,23200220,12096430,22982690,29573840,-30615230,-6791992,51708980
2026-01-14 17:14:13.531,-5662376,11993710,22912780,57970330,-3474121,-6538086,55371100
2026-01-14 17:14:13.541,-2919143,-37392420,72126270,3437217,-36328120,-6245117,54541020
2026-01-14 17:14:13.551,-6137118,11796910,22781580,57409260,-39575200,-63671880,54589840
2026-01-14 17:14:13.561,22181680,-3785854,7228163,28538040,-38208010,-63623050,5698242
2026-01-14 17:14:13.571,21876980,11612190,22655550,28238520,-375,-60498050,5991211
2026-01-14 17:14:13.581,-7103862,-38290120,72402490,56615150,-39575200,-62158200,57666020
2026-01-14 17:14:13.591,21234780,-3849728,7245426,27620490,-40942380,-5605469,54833980
2026-01-14 17:14:13.601,-29613550,11342020,22459620,34433480,-45996100,-45361330,4716797
2026-01-14 17:14:13.611,-8398614,-38859800,72523330,55890090,-4765625,-33984380,3876953
2026-01-14 17:14:13.621,-29953640,11175430,22332730,34628550,-4958496,-24902340,2734375
2026-01-14 17:14:13.631,-30164250,-39196430,72549220,34763200,-42138670,-18396000,18933100
2026-01-14 17:14:13.641,-32436370,11004520,22192900,32888150,-37329100,-13781740,14770510
2026-01-14 17:14:13.651,-10729170,10903530,22103990,55061450,-31420900,-17163090,1439209
2026-01-14 17:14:13.661,-11411070,10803400,22014220,54862920,-2980957,-20385740,12487790
2026-01-14 17:14:13.671,17936620,-39809280,72402490,24617530,-2915039,-22509770,748291
2026-01-14 17:14:13.681,-31607470,-3998194,7231619,35771390,-2685547,-25341800,7720947
2026-01-14 17:14:13.691,-31947550,-40171810,72195330,36018240,-27954100,-2836914,9234619
2026-01-14 17:14:13.701,-3407747,-40361700,72074480,3447523,-25585940,-2788086,107666000
2026-01-14 17:14:13.711,-1514858,10049860,21300380,5399113,-26879880,-24963380,925293
2026-01-14 17:14:13.721,1546885,-40793290,71763740,2244147,-3203125,-21472170,10559080
2026-01-14 17:14:13.731,14991500,-54774880,57833940,22021130,-35766600,-14001470,13464360
2026-01-14 17:14:13.741,-17358290,-41233510,71427100,53490480,-41625980,-3086853,17919920
2026-01-14 17:14:13.751,14083440,14334790,15461750,21220110,-46264650,58288580,1932373
2026-01-14 17:14:13.761,-18661680,-41656460,71073200,53188370,-5239258,1965332,22033690
2026-01-14 17:14:13.771,-19257260,-4183775,7090921,53058900,-55615230,37719730,26464840
2026-01-14 17:14:13.781,-3470795,8743024,20017720,3802253,-6196289,5917969,35107420
2026-01-14 17:14:13.791,12633320,8604916,19879610,19942620,-65185550,78271490,42285160
2026-01-14 17:14:13.801,-20655590,-42226150,70503510,52765420,-65625,9111328,52246100
2026-01-14 17:14:13.811,-20992230,8427102,19694890,52722270,-6459961,10185550,5883789
2026-01-14 17:14:13.821,12037730,8386535,19649140,19433350,-70166020,11552730,6508789
2026-01-14 17:14:13.831,15287130,-42260680,70279100,16028590,-75341800,12539060,6538086
2026-01-14 17:14:13.841,-35578040,842104,5,1966642,38706160,-73535150,12792970,6850586
2026-01-14 17:14:13.851,-21501500,8504786,19738050,52851740,-72509770,11796880,72802740
2026-01-14 17:14:13.861,15398130,-41854990,70339510,16142010,-66503900,10273440,6816406
2026-01-14 17:14:13.871,12198280,8795676,19999590,19635330,-58691410,87158200,6176758
2026-01-14 17:14:13.881,12400270,9010604,20198980,19830410,-5292969,71972660,42333980
2026-01-14 17:14:13.891,-20741910,9261784,20431170,53438700,-52246100,6098633,26391600
2026-01-14 17:14:13.901,12924210,-40637920,70866050,20325000,-53808590,5288086,12445070
2026-01-14 17:14:13.911,13246170,9851330,20981010,20624520,-46923830,36987300,21533200
2026-01-14 17:14:13.921,13605250,10190550,21297790,20955980,-4116211,21325680,25805660
2026-01-14 17:14:13.931,-3659811,10556540,21639610,3659848,-33935550,9222412,23535160
2026-01-14 17:14:13.941,14466690,10950140,22005590,21751820,-33447270,87890620,1730957
2026-01-14 17:14:13.951,14969910,11353240,22379340,22215340,-31225590,11791990,57006840
2026-01-14 17:14:13.961,-16900820,-37685900,72247120,55121870,-28393560,40985110,-10076900
2026-01-14 17:14:13.971,16084260,12216410,23173460,23241650,-30664060,12954710,-3137207
2026-01-14 17:14:13.981,-15303960,12649720,23568790,55786510,-46484380,24368290,-49829100
2026-01-14 17:14:13.991,17307370,-3588188,7292901,24366350,-62353520,-44647220,-72265620
2026-01-14 17:14:14.001,-13568990,-3526905,7312756,56468420,-6386719,-85632320,-8515625
2026-01-14 17:14:14.011,18634060,-34621650,73326070,25577380,-6767578,-3942871,-95410160
2026-01-14 17:14:14.021,-11566440,-33957010,73524600,57193470,-8076172,40374760,-14365230
2026-01-14 17:14:14.031,-31650620,14893950,25588600,36366970,-8886719,11999510,-18945310
2026-01-14 17:14:14.041,-9149572,-3242060,7393893,57970320,-87158200,4819336,-225
2026-01-14 17:14:14.051,-7733976,-31540140,74197870,58350120,-10419920,10820310,-26289060
2026-01-14 17:14:14.061,-6163010,-30590660,74456820,58695380,-14335940,16787110,-27207030
2026-01-14 17:14:14.071,-4410780,-29606650,74750300,58997490,-1515625,20117190,-28417970
2026-01-14 17:14:14.081,25315840,-28588110,75061040,31480580,-12236330,22460940,-31757810
2026-01-14 17:14:14.091,-233056,-2756959,7537179,59360020,-8652344,26464840,-35722660
2026-01-14 17:14:14.101,-25543710,19437670,29659300,31701550,-45239260,31855470,-39355470
2026-01-14 17:14:14.111,-24103950,-25601550,75889680,30517280,20800780,35449220,-4265625
2026-01-14 17:14:14.121,-22520030,-24695220,76053680,29200950,81396480,39726560,-428125
2026-01-14 17:14:14.131,10547910,21129470,31126680,59075180,15380860,428125,-4578125
2026-01-14 17:14:14.141,-18892140,-23046570,76062320,26147930,18359380,4640625,-49375
2026-01-14 17:14:14.151,-16850750,-46407340,51769330,24408650,18457030,48242190,-51640620
2026-01-14 17:14:14.161,37442480,22192900,31910440,41157550,15019530,50078120,-53671880
2026-01-14 17:14:14.171,24436270,-20810970,75276830,57167580,12998050,50078120,-51914060
2026-01-14 17:14:14.181,-9775369,22589090,32083930,18225780,21445310,72382820,-590625
2026-01-14 17:14:14.191,-7336920,-19369480,74163340,16072180,5698242,33476560,-4484375
2026-01-14 17:14:14.201,35847340,-1874802,7347280,54129230,14433590,528125,-48476560
2026-01-14 17:14:14.211,-1827322,-18195570,72661430,11068400,17685550,515625,-471875
2026-01-14 17:14:14.221,10547910,-17738090,71720580,84089780,17851560,60859380,-43789060
2026-01-14 17:14:14.231,39619380,22237780,31036910,57055370,14892580,65,-3890625
2026-01-14 17:14:14.241,24520000,21859720,30500020,-14667800,8276367,69804690,-38164060
2026-01-14 17:14:14.251,9788320,21416910,29889760,224424,3,12962340,69492190,-30410160
2026-01-14 17:14:14.261,81116160,-1646058,6659334,-70973940,-6171875,58164060,-23476560
2026-01-14 17:14:14.271,15543920,-1634839,6513461,-5310207,-8276367,42421880,-23691410
2026-01-14 17:14:14.281,64659880,19618930,27630850,38177900,-14833980,53632810,-12529300
2026-01-14 17:14:14.291,53133140,-1665915,6218256,49946320,-79589840,49609380,29296880
2026-01-14 17:14:14.301,7000289,17961650,25731880,3302479,-97998050,42617190,18369140
2026-01-14 17:14:14.311,26035720,17028570,24696950,-15758850,-17041020,40742190,23261720
2026-01-14 17:14:14.321,28281680,16027300,23609350,-18053150,-17558590,31816410,35976560
2026-01-14 17:14:14.331,7609687,-18799790,56295780,2549796,-10771480,23964840,44023440
2026-01-14 17:14:14.341,7766782,13918570,21367710,2311563,-6826172,16220700,46484380
2026-01-14 17:14:14.351,79031620,12819760,20222280,20785070,61920170,7680664,54804690
2026-01-14 17:14:14.361,80222780,11717500,19080310,18540830,-8105469,421875,58476560
2026-01-14 17:14:14.371,81241320,10601420,17934890,16417450,28051760,-39746100,59804690
2026-01-14 17:14:14.381,3866905,9481895,16792920,-2902055,8911133,-97265620,62265620
2026-01-14 17:14:14.391,51178920,-24462170,48492740,44149290,12490230,-14492190,59921880
2026-01-14 17:14:14.401,83416510,-25523860,47310200,10755060,21542970,-19267580,59375
2026-01-14 17:14:14.411,8393440,6151794,13424840,909778,6,27695310,-23828120,56757810
2026-01-14 17:14:14.421,43014230,83547700,90812120,-33824940,32597660,-29121090,5625
2026-01-14 17:14:14.431,49311030,4071559,11327340,41442400,38359380,-35039060,52460940
2026-01-14 17:14:14.441,44703450,63704350,70949780,-35743760,4140625,-38222660,46796880
2026-01-14 17:14:14.451,48317520,2209707,9443050,40105350,46679690,-38457030,41171880
2026-01-14 17:14:14.461,85453580,1377615,8600597,1743596,52695310,-37617190,33789060
2026-01-14 17:14:14.471,4692871,38430800,45641700,-3833498,525,-38242190,28574220
2026-01-14 17:14:14.481,46659380,-1225700,70796990,37982820,5609375,-38769530,2328125
2026-01-14 17:14:14.491,48257100,2445614,3164974,-39924080,50585940,-38183590,14335940
2026-01-14 17:14:14.501,85772950,-14371740,57530110,-3754782,52539060,-36367190,70751950
2026-01-14 17:14:14.511,44882980,12029100,19217560,35805910,56640620,-33085940,-10168460
2026-01-14 17:14:14.521,44268410,-26050390,45903240,35073940,575,-31738280,-7397461
2026-01-14 17:14:14.531,50407260,42145880,49349860,-42607670,58007810,-29726560,-10830080
2026-01-14 17:14:14.541,4301769,-36101110,36094210,3361432,62734380,-27617190,-16533200
2026-01-14 17:14:14.551,8509969,-40879610,31557400,-990054,3,73789060,-28847660,-15458980
2026-01-14 17:14:14.561,48351790,-4456531,2816513,-47615170,81015620,-26796880,-18134770
2026-01-14 17:14:14.571,40858900,-14527970,-7223851,31163800,88125,-25097660,-18037110
2026-01-14 17:14:14.581,8411568,-49131490,24272270,-1387112,9875,-19521480,-16933590
2026-01-14 17:14:14.591,39066090,-16467510,-9082249,29158660,100078100,-21308590,-12529300
2026-01-14 17:14:14.601,8309714,-48993380,25342590,-1709937,104609400,-15878910,-7651367
2026-01-14 17:14:14.611,82458380,-13499080,-6008511,-18929260,109296900,-13691410,-51483150
2026-01-14 17:14:14.621,5433380,-10420160,-2872622,-4824502,118515600,-11210940,9013672
2026-01-14 17:14:14.631,54786960,-2883754,-2122618,-48983030,13359380,-98046870,23183590
2026-01-14 17:14:14.641,7998976,-11600970,65117350,-2497144,154140600,-3930664,34707030
2026-01-14 17:14:14.651,7896256,5371490,13100290,-2720703,1675,69433590,56015620
2026-01-14 17:14:14.661,56102440,-21734550,56088620,-51275600,184375,11865230,75429690
2026-01-14 17:14:14.671,27663660,-12481400,65825150,16806730,1896875,19179690,896875
2026-01-14 17:14:14.681,25673190,-1950756,76873700,14705780,20265620,30605470,10984380
2026-01-14 17:14:14.691,73300180,969339,8905296,-37323360,20328120,35332030,131640600
2026-01-14 17:14:14.701,71289010,58230140,66238600,-39973280,19625,4125,15359380
2026-01-14 17:14:14.711,68932550,3488061,11600100,-42519620,19109380,38496100,1715625
2026-01-14 17:14:14.721,6615316,4748284,13015700,-4486744,185625,28867190,19546880
2026-01-14 17:14:14.731,62873120,-32316980,52618680,-46887250,16109380,6616211,2228125
2026-01-14 17:14:14.741,59066550,6888078,15692380,-48432320,113984400,-27558590,24734380
2026-01-14 17:14:14.751,26674470,-33818900,58212010,25633480,62304690,-67421870,25734380
2026-01-14 17:14:14.761,35087760,-47118580,49677010,-64435450,54052740,-122578100,2471875
2026-01-14 17:14:14.771,1657282,-3802252,6407292,-7716717,-61875,-1821875,230
2026-01-14 17:14:14.781,-1752227,-52515970,55086480,-10435700,-14953130,-2478125,1975
2026-01-14 17:14:14.791,-4771587,-43244690,68673600,-12802500,-640,-3084375,-17734380
2026-01-14 17:14:14.801,-55284140,-44349540,65359040,-63832960,-1100,-19609380,-138625
2026-01-14 17:14:14.811,11773610,-336631,5,10694640,-75475360,64023440,-28765620,5309375
2026-01-14 17:14:14.821,-9066708,45949850,56939700,-17864110,1139375,5734375,31328120
2026-01-14 17:14:14.831,-3270962,-778577,10169840,-3271847,175625,-69921870,86484380
2026-01-14 17:14:14.841,-4074152,-4879482,6001604,-92773240,-73359380,-11046880,-2003125
2026-01-14 17:14:14.851,-5940577,5478611,6571208,-6817037,-1375,69677740,-130
2026-01-14 17:14:14.861,-30003700,1104856,111624800,-115871600,-43789060,-865625,-1121875
2026-01-14 17:14:14.871,34966920,-10064540,101905600,-49312760,-40703120,-12275390,-144921900
2026-01-14 17:14:14.881,-2158779,-28424100,85047890,-10443460,-1153125,-6689453,-147578100
2026-01-14 17:14:14.891,-44001680,48637760,60121340,-52155160,-54296880,69970700,-7703125
2026-01-14 17:14:14.901,9037362,-22709070,-11127090,-71358060,-15615230,-20390620,-42617190
2026-01-14 17:14:14.911,-11217720,-92056800,24384480,-19165770,5,-26289060,-16259770
2026-01-14 17:14:14.921,-17636240,-48651570,-36974640,-25522140,26054690,-44882810,12231450
2026-01-14 17:14:14.931,11443010,-49089200,-37400180,3576100,24550780,-53554690,14775390
2026-01-14 17:14:14.941,54569450,-42954660,-31277740,-24358590,46166990,-42226560,2328125
2026-01-14 17:14:14.951,21842110,-8573843,3066833,21834160,-21484380,-40507810,24296880
2026-01-14 17:14:14.961,33198280,-23138930,-11560400,25151840,-36308590,-36640620,19755860
2026-01-14 17:14:14.971,41885200,-14379510,-2883844,33728260,-38574220,-33554690,22851560
2026-01-14 17:14:14.981,89553620,-57245260,56692840,6775858,-29648440,-3265625,39238280
2026-01-14 17:14:14.991,10224220,-56416620,56416620,1825597,-25742190,-31523440,4546875
2026-01-14 17:14:15.001,11643270,-55838300,55838300,3134159,-25761720,-30566410,4640625
2026-01-14 17:14:15.011,51876360,-21062150,-10011880,-34164170,-11357420,-29882810,41210940
2026-01-14 17:14:15.021,53758070,-9352418,1583910,-33093840,42114260,-33378910,39902340
2026-01-14 17:14:15.031,5553622,-54655760,53533640,-3204080,18779300,-33046880,38417970
2026-01-14 17:14:15.041,17456700,-59549920,47465580,8628220,28144530,-27265620,34570310
2026-01-14 17:14:15.051,18629740,-57083850,-46496240,9733938,33183590,-19404300,35898440
2026-01-14 17:14:15.061,59990140,-55743350,49010650,-29641170,40898440,-97558590,4515625
2026-01-14 17:14:15.071,20593450,-14678160,-4311523,11568170,36230470,-12529300,4515625
2026-01-14 17:14:15.081,17415440,-36624200,65971880,16507040,18486330,-14111330,37792970
2026-01-14 17:14:15.091,22423360,-1539891,8617863,13294500,11484380,-15253910,24628910
2026-01-14 17:14:15.101,23379750,-110486,5,9950594,14219820,10585940,-18583980,19765620
2026-01-14 17:14:15.111,6567846,4531628,104227500,-2607629,12480470,-21054690,18496090
2026-01-14 17:14:15.121,66722840,-4381437,5503553,-25014590,15380860,-24375,18154300
2026-01-14 17:14:15.131,6768962,-43365540,54759340,-2384071,2359375,-24609380,16484380
2026-01-14 17:14:15.141,27534180,907188,10659250,18420860,36210940,-18359380,18417970
2026-01-14 17:14:15.151,69286450,1189446,10894900,-21277080,4609375,-13466800,20332030
2026-01-14 17:14:15.161,69899300,-41725510,55018290,-19921910,49570310,-14824220,21679690
2026-01-14 17:14:15.171,7039131,2939085,12597930,-1851494,43476560,-19541020,1890625
2026-01-14 17:14:15.181,70762460,4320154,13978990,-17021660,33964840,-22929690,11474610
2026-01-14 17:14:15.191,28234730,5778905,15455010,27370520,27480470,-31347660,5498047
2026-01-14 17:14:15.201,32982490,7056393,16767030,24504460,23554690,-38554690,6279297
2026-01-14 17:14:15.211,33868100,8066299,17828720,25586870,20527340,-428125,8618164
2026-01-14 17:14:15.221,70995520,-3541576,6286446,-9503476,22480470,-42851560,12333980
2026-01-14 17:14:15.231,42100990,9288547,19195980,-35739450,2375,-37480470,19042970
2026-01-14 17:14:15.241,36611250,-35407130,64582190,29127580,26816410,-32832030,27519530
2026-01-14 17:14:15.251,69683500,9623454,19724240,-1804020,28574220,-33554690,28515620
2026-01-14 17:14:15.261,37394140,-36304820,65825150,-30399030,27929690,-37695310,240625
2026-01-14 17:14:15.271,3549087,9680423,20012540,-2829722,22148440,-4234375,19912110
2026-01-14 17:14:15.281,6663654,9790908,20247320,714703,18291020,-50351560,17666020
2026-01-14 17:14:15.291,31275150,-37280200,68526860,-23725880,16972660,-56523440,18486330
2026-01-14 17:14:15.301,63684500,-36675980,70339510,13344570,18808590,-55039060,20703120
2026-01-14 17:14:15.311,61949530,13236670,24052160,16460600,20234380,-503125,25722660
2026-01-14 17:14:15.321,60059200,-33723950,75501260,19576640,25078120,-45039060,28867190
2026-01-14 17:14:15.331,21669820,-31462460,78764030,-13599200,24023440,-40898440,29003910
2026-01-14 17:14:15.341,55700200,-28734850,82423860,25851870,20546880,-45078120,26171880
2026-01-14 17:14:15.351,53222910,-52946690,59075180,28967900,13154300,-49257810,25136720
2026-01-14 17:14:15.361,50555720,-21346130,91435330,31997620,78125,-4984375,27734380
2026-01-14 17:14:15.371,47681370,33687700,45033170,34975540,-993042,-33398440,32011720
2026-01-14 17:14:15.381,37786890,37887870,49292040,-29540180,-5800781,-33769530,33144530
2026-01-14 17:14:15.391,8240660,-788072,10662710,-45747,75,-12646480,-33789060,359375
2026-01-14 17:14:15.401,38108850,-1070328,113800000,43028900,-14960940,-22890620,41367190
2026-01-14 17:14:15.411,-13465410,-51159940,63883030,93567340,-13623050,-7133789,44804690
2026-01-14 17:14:15.421,31134450,-50383090,64659870,47690000,-12880860,-41259770,52421880
2026-01-14 17:14:15.431,27448730,-49459500,65410820,49856550,-13896480,8178711,58828120
2026-01-14 17:14:15.441,23633520,3147968,14598750,51876360,-22871090,30761720,62734380
2026-01-14 17:14:15.451,-13338530,-47146210,66791900,20687530,-27070310,6015625,6703125
2026-01-14 17:14:15.461,-16271570,5174688,16490820,23399610,-26660160,7890625,75507810
2026-01-14 17:14:15.471,34214490,6260552,17476550,34666270,-15947270,101171900,72773440
2026-01-14 17:14:15.481,7811666,7345553,18428630,58565910,-54138180,126953100,89609380
2026-01-14 17:14:15.491,3875620,8276049,19189940,60136880,15488280,135234400,96875
2026-01-14 17:14:15.501,-27684370,9033045,19744960,33876730,28886720,13671880,91796870
2026-01-14 17:14:15.511,-30303220,9569074,20054830,36316050,28203120,12625,71601560
2026-01-14 17:14:15.521,-634426,-49765920,52778380,6490154,12636720,1075,49921880
2026-01-14 17:14:15.531,24837640,10233710,20270620,32355830,-18603520,90703130,29316410
2026-01-14 17:14:15.541,27618170,-33793000,64694400,28401400,-1265625,78242190,765625
2026-01-14 17:14:15.551,-1280940,-3268816,6426282,6782770,-23007810,7203125,-8798828
2026-01-14 17:14:15.561,-40824110,1146544,2104145,41366700,-34414060,66757810,-22636720
2026-01-14 17:14:15.571,-14630680,-30616550,64314600,68388750,-4640625,60117190,-31054690
2026-01-14 17:14:15.581,-14863740,12817170,22261950,68328340,-44414060,50820310,-37675780
2026-01-14 17:14:15.591,22568380,-28795270,65445360,30844430,-37460940,50195310,-41054690
2026-01-14 17:14:15.601,22707350,-45192860,49030500,30895350,-26835940,4734375,-471875
2026-01-14 17:14:15.611,22957670,19640420,20583180,31024830,-11777340,403125,-52382810
2026-01-14 17:14:15.621,-1238644,20572650,21515400,6693865,7578125,39570310,-53984380
2026-01-14 17:14:15.631,23912330,-2523903,6884622,31710180,-1842041,66054690,-77148440
2026-01-14 17:14:15.641,-9745160,-24410380,69174240,66990420,-11972660,69023440,-103125
2026-01-14 17:14:15.651,-8346824,-23607640,69234660,67404750,-17871090,42929690,-113984400
2026-01-14 17:14:15.661,26641660,18559820,27757740,34142590,-21855470,18886720,-1165625
2026-01-14 17:14:15.671,27436640,18924940,28031360,34884050,-2453125,6976318,-114921900
2026-01-14 17:14:15.681,28097830,19296110,28316210,35500350,-24726560,-8847656,-114140600
2026-01-14 17:14:15.691,-454023,3,-20552020,68854860,6913970,-15478520,-12255860,-109765600
2026-01-14 17:14:15.701,28987760,20053970,28922150,36336760,-22363280,-72753900,-102265600
2026-01-14 17:14:15.711,29202690,-19222740,68785810,36553420,12089840,-23278810,-93203130
2026-01-14 17:14:15.721,29303670,-18722100,68699500,36676850,25449220,29510500,-8265625
2026-01-14 17:14:15.731,-406548,8,-18402730,68552750,7006329,36035160,43310550,-73789060
2026-01-14 17:14:15.741,29213040,-1831643,6832832,36681160,44726560,6220703,-67109380
2026-01-14 17:14:15.751,-34411900,-40778620,45728020,40977140,48867190,5595703,-64101560
2026-01-14 17:14:15.761,28825480,-18955160,67603270,36447250,47617190,6611328,-5890625
2026-01-14 17:14:15.771,-6197536,-19680220,67119900,70935100,4453125,62158200,-525
2026-01-14 17:14:15.781,28147030,-41325010,45923960,35951790,41484380,31640620,-46953120
2026-01-14 17:14:15.791,27741340,17782110,26567430,35632420,38242190,-24093630,-40703120
2026-01-14 17:14:15.801,-36689800,16889600,25750880,42946040,35839840,-21887210,-3421875
2026-01-14 17:14:15.811,-9244520,-2427230,6520367,70978260,33671880,-4033203,-28808590
2026-01-14 17:14:15.821,26422420,15115790,24158330,34482680,34179690,-3305664,-240625
2026-01-14 17:14:15.831,-1034938,-2686177,6454766,7047762,33457030,-15722660,-20605470
2026-01-14 17:14:15.841,-1076369,13468870,22715120,7013236,35136720,-29516600,-18867190
2026-01-14 17:14:15.851,-1111757,-29390850,64141970,6972666,35996100,-88378900,-13242190
2026-01-14 17:14:15.861,-1139380,11960910,21426400,6926056,36894530,-68115230,-11113280
2026-01-14 17:14:15.871,24551940,-31859510,63934810,32589750,38144530,11047360,-7529297
2026-01-14 17:14:15.881,24225660,10543590,20236960,32225490,38515620,20410160,-3930664
2026-01-14 17:14:15.891,2784056,-34285010,63788080,2792007,39375,30493160,-109375
2026-01-14 17:14:15.901,-11972130,-35493450,63736280,67076740,38632810,46728520,26342770
2026-01-14 17:14:15.911,23298620,8455588,18492500,31149990,39023440,58984380,4921875
2026-01-14 17:14:15.921,-12084340,-37927580,63580910,65859670,38847660,66845700,8041992
2026-01-14 17:14:15.931,-1213613,11666140,12692450,6522094,36210940,5800781,103125
2026-01-14 17:14:15.941,-1218790,-40335810,63382380,6458217,3515625,78515620,13544920
2026-01-14 17:14:15.951,-1223107,5645115,16123970,6393482,31601560,52001950,18291020
2026-01-14 17:14:15.961,-35205140,-42692270,63166600,40304740,28203120,61621100,19423830
2026-01-14 17:14:15.971,21401370,4262320,14951790,28886760,24941410,44506840,24375
2026-01-14 17:14:15.981,21100990,-4497967,6295079,28513870,20976560,4958496,24179690
2026-01-14 17:14:15.991,-1223104,78451560,89348180,6113819,20996090,4658203,27226560
2026-01-14 17:14:16.001,-12179290,-47189360,62812690,60361300,19306640,2512207,28417970
2026-01-14 17:14:16.011,23352740,-48276960,62760900,24069680,18310550,5839844,30820310
2026-01-14 17:14:16.021,19782070,-49347280,62726380,26863490,17070310,3876953,33945310
2026-01-14 17:14:16.031,19439400,-50383080,62691850,26429320,15625,44213870,3390625
2026-01-14 17:14:16.041,-11980760,50661020,62068640,57003580,11875,40966800,33984380
2026-01-14 17:14:16.051,-31818940,45604590,57112340,36233180,8886719,6123047,33164060
2026-01-14 17:14:16.061,18241320,-1168730,10439150,24951580,39990230,5727539,3546875
2026-01-14 17:14:16.071,-11989400,-1709937,9996342,54163760,7446289,5786133,3734375
2026-01-14 17:14:16.081,17301330,30695960,42500640,23819970,-12261960,42626950,40273440
2026-01-14 17:14:16.091,-12101600,-27742200,91271330,52118050,-34936520,34350580,43046880
2026-01-14 17:14:16.101,-29681730,-33042050,86903700,33571170,-5932617,2939453,43515620
2026-01-14 17:14:16.111,-29264830,-3823833,8260514,33038600,-75439460,38842770,43125
2026-01-14 17:14:16.121,-12429610,11436970,23607630,48958860,-99902340,4152832,41523440
2026-01-14 17:14:16.131,-12602240,6820748,19074280,47905790,-11982420,44140620,40078120
2026-01-14 17:14:16.141,-12835290,-53197010,70115090,46861360,-13730470,35498050,39277340
2026-01-14 17:14:16.151,-13120140,33503850,45907560,45816930,-15615230,16967770,38984380
2026-01-14 17:14:16.161,12744670,-62355740,62354700,18571050,-17958980,75645450,38789060
2026-01-14 17:14:16.171,-13879730,-67939910,57409260,43762580,-18955080,-31103520,37363280
2026-01-14 17:14:16.181,-14345840,-16395870,-3802252,42744050,-19550780,-65527340,36660160
2026-01-14 17:14:16.191,-26960170,-21429000,-8781865,29646350,-20761720,-93310540,365625
2026-01-14 17:14:16.201,-15424800,-26632170,-13936700,40732870,-21894530,-11054690,34902340
2026-01-14 17:14:16.211,-16029020,-89329200,38057050,39748860,-24375,-12226560,32050780
2026-01-14 17:14:16.221,-27713890,-95138320,32645000,27735980,-27519530,-14892580,29296880
2026-01-14 17:14:16.231,-17332400,-101094200,27034410,37806720,-28652340,-18701170,25800780
2026-01-14 17:14:16.241,6667104,-49321380,-36477460,12149940,-28847660,-21503910,23378910
2026-01-14 17:14:16.251,-18687570,-69234660,59480870,35830080,-29648440,-24375,21601560
2026-01-14 17:14:16.261,-27026120,-69925190,59032020,27180800,-29628910,-25859380,19443360
2026-01-14 17:14:16.271,-20068640,-70589830,58591800,33862060,-28828120,-27109380,17724610
2026-01-14 17:14:16.281,3384480,-129760000,-405683,9,8751649,-28125,-28808590,17011720
2026-01-14 17:14:16.291,-21466970,-71729220,57745900,31997610,-29375,-29726560,16796880
2026-01-14 17:14:16.301,-22174770,-13901310,-945167,3,31134450,-30195310,-31132810,16162110
2026-01-14 17:14:16.311,10694650,-14283700,-1322373,63883020,-29882810,-32011720,14970700
2026-01-14 17:14:16.321,-23564470,-81785900,-80489590,29572110,-3078125,-3109375,140625
2026-01-14 17:14:16.331,20561510,-9003614,-7707309,25876900,-31523440,-29804690,12910160
2026-01-14 17:14:16.341,-24954170,-73326070,56252620,28285990,-30644530,-29121090,95703130
2026-01-14 17:14:16.351,-16521030,-15133050,-2182085,36891780,-30136720,-2640625,48632810
2026-01-14 17:14:16.361,34435200,-151977900,-22554570,39797190,-29414060,-23476560,32592770
2026-01-14 17:14:16.371,-28590700,-7339512,5589011,-23199350,-28945310,-20839840,36499020
2026-01-14 17:14:16.381,-9420866,-65440180,63689670,-8878284,-2890625,-18105470,53759770
2026-01-14 17:14:16.391,-42873520,-73213860,55726100,11799500,-29355470,-15849610,7128906
2026-01-14 17:14:16.401,-49330020,-93787460,-80917630,5826376,-29335940,-13798830,7529297
2026-01-14 17:14:16.411,-30633810,-9385911,-8101861,25057750,-28847660,-12402340,61035160
2026-01-14 17:14:16.421,-61992680,-72816810,55259980,-5679641,-27363280,-11064450,45483400
2026-01-14 17:14:16.431,-68190230,-15215050,-2445350,-11221180,-25429690,-10292970,15686040
2026-01-14 17:14:16.441,-48459080,-15272020,-2543752,-42691400,-234375,-84716800,-13146970
2026-01-14 17:14:16.451,-80654360,-7242837,5440549,-22235190,-21640620,-72753900,-45288090
2026-01-14 17:14:16.461,-35338070,-72307540,54025650,23840680,-20019530,-5410156,-61621100
2026-01-14 17:14:16.471,-36356610,-72186700,53611330,23616260,-19492190,-3310547,-55371100
2026-01-14 17:14:16.481,-73213860,-72074480,53153860,-67137160,-19980470,26641850,-59033200
2026-01-14 17:14:16.491,-10752480,-15889190,-3428501,-4594642,-19423830,4946289,-72509770
2026-01-14 17:14:16.501,-11474950,-71867320,52083520,-5235977,-1859375,10048830,-83447260
2026-01-14 17:14:16.511,-12223310,-71789630,51470670,-5903205,-18544920,14462890,-92578130
2026-01-14 17:14:16.521,-32968680,-16596980,-4343457,31009290,-17939450,17734380,-99609380
2026-01-14 17:14:16.531,-13783920,-16920670,-4744831,-7311892,-15546880,209375,-12705080
2026-01-14 17:14:16.541,-44038800,-17294420,-5199720,21389290,-13173830,2296875,-16142580
2026-01-14 17:14:16.551,-15422210,-71772370,48346010,-8815533,-12597660,22832030,-18046880
2026-01-14 17:14:16.561,-46248510,-18176580,-6251055,20405280,-13144530,21679690,-20136720
2026-01-14 17:14:16.571,-17074310,-71936380,46438410,-10357150,-13808590,19121090,-22695310
2026-01-14 17:14:16.581,-48285580,-19169220,-7416333,19300420,-14052730,16523440,-26367190
2026-01-14 17:14:16.591,-4919192,-19663820,-7992067,1872209,-13076170,14238280,-30234380
2026-01-14 17:14:16.601,-35679890,-20134250,-8540179,32493080,-11474610,12236330,-31289060
2026-01-14 17:14:16.611,-34347160,-20557200,-9032183,34015700,-10839840,10029300,-30566410
2026-01-14 17:14:16.621,-2055030,-20922320,-9461180,-1370020,-10566410,83154300,-30214840
2026-01-14 17:14:16.631,-36078670,-21232190,-9824568,32560400,-10478520,6484375,-29277340
2026-01-14 17:14:16.641,-21390150,-58409680,55252220,-14517610,-97021490,45458980,-27109380
2026-01-14 17:14:16.651,-52566900,-21629250,-10290680,16193020,-45361330,7915039,-27890620
2026-01-14 17:14:16.661,-52653220,-72695960,40603390,16089440,2734375,12324220,-27480470
2026-01-14 17:14:16.671,-36171030,-21721610,-10388220,32519830,7861328,11728520,-26796880
2026-01-14 17:14:16.681,-52428790,-21661190,-10310530,16175760,10478520,90283200,-24023440
2026-01-14 17:14:16.691,-52187100,-58467510,55297960,16348390,12070310,6958008,-21269530
2026-01-14 17:14:16.701,-21074230,-21362530,-9953184,-14229320,1140625,5961914,-18330080
2026-01-14 17:14:16.711,-51522460,-21146740,-9702863,16874920,95410160,49487300,-15654300
2026-01-14 17:14:16.721,-51142670,-72583750,42234780,17220190,7182617,25878910,-12246090
2026-01-14 17:14:16.731,-34347160,-20649560,-9129721,34015700,49267580,18661500,-93115230
2026-01-14 17:14:16.741,-50357180,-7237660,4318429,18040200,29467770,-66223140,-68603520
2026-01-14 17:14:16.751,-49968760,-14864870,-13705980,18514940,16796880,-8135986,-5053711
2026-01-14 17:14:16.761,-35831810,-7208313,4411651,32772740,3945923,-22802730,-26586910
2026-01-14 17:14:16.771,-49252340,-19505000,-7857411,19524850,-13928220,-3996582,11459350
2026-01-14 17:14:16.781,-35919850,-19231370,-7561345,33029970,-24646000,-47021480,16296390
2026-01-14 17:14:16.791,-17492090,-71608370,45299030,-10578120,-3635254,-5595703,2890625
2026-01-14 17:14:16.801,-4829422,-7148753,4560977,2101812,-32495120,-6176758,37353520
2026-01-14 17:14:16.811,-13597040,-71383950,45868720,-12902200,-2578125,-59716800,41601560
2026-01-14 17:14:16.821,-16369970,-71297630,46075880,-9404213,-2006836,-5883789,4897461
2026-01-14 17:14:16.831,-4744832,-18363890,-6616179,2238192,-9698486,-64208980,5102539
2026-01-14 17:14:16.841,-47215260,-71176790,46369360,22787620,-13130190,-625,49853520
2026-01-14 17:14:16.851,-47016730,-18230960,-6472890,23158780,4522705,-6015625,49536130
2026-01-14 17:14:16.861,-46852730,-7111638,4646433,23495420,8654785,-6015625,53222660
2026-01-14 17:14:16.871,-36423070,-71090480,46455680,34132220,6750488,-5698242,5439453
2026-01-14 17:14:16.881,-14811090,-71081840,46412510,-7734848,20217900,-5004883,53808590
2026-01-14 17:14:16.891,-46602410,-18230960,-6490154,24367220,-106933600,-4416504,5834961
2026-01-14 17:14:16.901,-46585140,-18268940,-6538492,24608900,-2800293,-35668940,6113281
2026-01-14 17:14:16.911,-14455470,-18314690,-6596326,-7313619,-35913090,-23303220,6660156
2026-01-14 17:14:16.921,-14380370,-18369070,-6662790,-7216082,-34545900,-109191900,703125
2026-01-14 17:14:16.931,-36997940,-18431220,-6738748,34852110,-40771480,6390381,7421875
2026-01-14 17:14:16.941,-46714620,-18492500,-6815569,25359860,-47875980,17980960,83740230
2026-01-14 17:14:16.951,-46783680,-71038680,45592500,25515230,-48168940,2409668,9038086
2026-01-14 17:14:16.961,-14216370,-7103004,4544577,-6965762,-43798830,2685547,9199219
2026-01-14 17:14:16.971,-14201690,-71021420,45299020,-6928649,-39135740,28027340,92285150
2026-01-14 17:14:16.981,-10903880,-18730730,-7112500,-10174670,-3293457,2626953,8730469
2026-01-14 17:14:16.991,-14176660,-71004150,45040080,-6867364,-27929690,25927730,8022461
2026-01-14 17:14:17.001,-47137570,-71004160,44919240,26110810,-25439450,24365230,6826172
2026-01-14 17:14:17.011,-14181840,-18886100,-7302397,-6844919,-2775879,26635740,5673828
2026-01-14 17:14:17.021,-14202560,-71021420,44729340,-6858733,-35595700,23498540,5029297
2026-01-14 17:14:17.031,-47284310,-18966380,-7394753,26188500,-4621582,17956540,51660160
2026-01-14 17:14:17.041,-14245720,-18992270,-7420651,-6901889,-53466800,1928711,5263672
2026-01-14 17:14:17.051,-14259520,-71090470,44660280,-6922606,-5498047,23925780,4716797
2026-01-14 17:14:17.061,-47223890,-19006080,-7424102,26007240,-54345700,3034668,37182620
2026-01-14 17:14:17.071,-47154840,-18994870,-7400797,25903650,-5683594,39233400,25390620
2026-01-14 17:14:17.081,-14276790,-71202690,44893340,-6991660,-63916020,43408200,2006836
2026-01-14 17:14:17.091,-46921780,-71237210,45031440,25670600,-6621094,42114260,16210940
2026-01-14 17:14:17.101,-46766410,-71280370,45212710,25532490,-66259770,3972168,68359380
2026-01-14 17:14:17.111,-46585140,-71323530,45411240,25385750,-66796880,32470700,-107055700
2026-01-14 17:14:17.121,-46369360,-18711740,-7010644,25239020,-6689453,1932373,-21008300
2026-01-14 17:14:17.131,-46127660,-71409840,45911880,25066380,-7324219,51208500,-24475100
2026-01-14 17:14:17.141,-45860080,-71461640,46205360,24885120,-89160160,-5303955,-24536130
2026-01-14 17:14:17.151,-45557980,-18391510,-6588556,24703850,-10107420,-124939000,-26831060
2026-01-14 17:14:17.161,-45238600,-71556580,46869990,24505320,-10507810,-10852050,-30810550
2026-01-14 17:14:17.171,-44893340,-71599740,47223890,24332690,-10351560,-25497440,-40966800
2026-01-14 17:14:17.181,-13627690,-71634260,47603680,-6760332,-10732420,-12512210,-515625
2026-01-14 17:14:17.191,-44159650,-17834770,-5867811,23961530,-11113280,-116539,-56591800
2026-01-14 17:14:17.201,-43779850,-17682850,-5674461,23771630,-1171875,-49316410,-66552740
2026-01-14 17:14:17.211,-13258250,-7176374,4873444,-6560073,-12246090,-12200930,-7480469
2026-01-14 17:14:17.221,-43028900,-17395410,-5305889,23400470,-13144530,-22998050,-70654300
2026-01-14 17:14:17.231,-4264911,-11784480,-10571560,2322783,-15126950,-19616700,-65966800
2026-01-14 17:14:17.241,-42269300,-71850060,49822020,23072460,-16923830,-16137700,-61035160
2026-01-14 17:14:17.251,-4189815,-16952610,-4747421,2294299,-18271480,-871582,-59033200
2026-01-14 17:14:17.261,-41526980,-16805870,-4566155,22830780,-18916020,-4949951,-5864258
2026-01-14 17:14:17.271,-12396810,-71893220,50831930,-6005922,-19345700,-59021000,-5986328
2026-01-14 17:14:17.281,-40793290,-16535700,-4232110,22718570,-1953125,-20178220,-5834961
2026-01-14 17:14:17.291,-12013560,-71901850,51410260,-5698634,-19248050,-41503900,-5444336
2026-01-14 17:14:17.301,-40076860,-16286240,-3929137,22761720,-19267580,-71777340,-48339840
2026-01-14 17:14:17.311,-115621300,-16151590,-3770310,-53041640,-19384770,-10449220,-44482420
2026-01-14 17:14:17.321,-39369070,-16016070,-3612355,22986150,-20175780,-13632810,-43847660
2026-01-14 17:14:17.331,-11032140,-71789630,52454680,-4815615,-20722660,-15947270,-45092770
2026-01-14 17:14:17.341,-38644010,-15726050,-3280898,23365940,-21386720,-17578120,-42871100
2026-01-14 17:14:17.351,-104313800,-71642900,52998490,-42424680,-21582030,-18066410,-35205080
2026-01-14 17:14:17.361,-73180200,-71530680,53283330,-66998200,-21347660,-18037110,-28442380
2026-01-14 17:14:17.371,-37547780,-9532736,-8283040,24237740,-21464840,-17158200,-18786620
2026-01-14 17:14:17.381,-9374865,-93002840,-80493820,-3192861,-20859380,-15966800,-9851074
2026-01-14 17:14:17.391,-36848620,-90418510,-77899140,25057750,-20390620,-14804690,45837400
2026-01-14 17:14:17.401,-36520620,-87746150,-75219860,25558380,-20019530,-13603520,16955570
2026-01-14 17:14:17.411,-36201240,-141274600,-15994490,26119440,-2015625,-12929690,29223630
2026-01-14 17:14:17.421,-49052080,-82049250,-69522960,-42788940,-20742190,-12373050,44482420
2026-01-14 17:14:17.431,-35614290,-69890670,55337670,27379670,-21386720,-11953130,5488281
2026-01-14 17:14:17.441,-35338080,-13222860,-708658,6,28087470,-22382810,-11494140,6669922
2026-01-14 17:14:17.451,-63106180,-12889680,-385832,6,785481,8,-22949220,-10644530,7973633
2026-01-14 17:14:17.461,-58004850,-63072510,61810560,6387438,-23339840,-9375,8964844
2026-01-14 17:14:17.471,-52748170,-60182190,-58934910,12179290,-22734380,-8666992,10244140
2026-01-14 17:14:17.481,-47249780,-67844960,56675570,18247360,-22207030,-7192383,11015630
2026-01-14 17:14:17.491,-41682350,-67335700,56960420,24419010,-21269530,-56640620,12216800
2026-01-14 17:14:17.501,-35873240,-10974310,1427680,30866870,-20585940,-43530270,13642580
2026-01-14 17:14:17.511,3400880,-49517320,-37144680,70831520,-18984380,-27905270,14560550
2026-01-14 17:14:17.521,-23970160,-6555759,5782360,44168280,-18173830,-15856930,15292970
2026-01-14 17:14:17.531,-32765830,-34451170,-33221150,36097660,-16777340,-8868408,16103520
2026-01-14 17:14:17.541,19825230,-34959140,-22700440,26785810,-15478520,-2458191,16601560
2026-01-14 17:14:17.551,-514446,-84728510,37426940,6522090,-13583980,50994870,17197270
2026-01-14 17:14:17.561,33215550,-79135190,42536890,40326320,-11865230,770874,17626950
2026-01-14 17:14:17.571,39996590,-18919770,-6802624,47183320,-10107420,16149900,18007810
2026-01-14 17:14:17.581,-31263920,-67655070,52981220,41328450,-82421870,24194340,18251950
2026-01-14 17:14:17.591,2039667,-78177070,41924040,9371405,-6611328,2927246,18671880
2026-01-14 17:14:17.601,2660286,-22649520,96881920,10062810,-45532230,34960940,18759770
2026-01-14 17:14:17.611,32826260,-50150040,68794450,107524800,-23815920,3647461,1859375
2026-01-14 17:14:17.621,3888573,-44332280,74025240,11424020,-84106450,36938480,18291020
2026-01-14 17:14:17.631,-37159360,14396770,26172100,38816640,16479490,34399420,17617190
2026-01-14 17:14:17.641,5070249,-32852150,84296930,12728270,34301760,31396480,16894530
2026-01-14 17:14:17.651,-29071480,25247650,36900410,48061160,5288086,30981440,16523440
2026-01-14 17:14:17.661,-28769370,-57598300,58325090,48898430,7001953,32470700,15839840
2026-01-14 17:14:17.671,6717169,-1622756,9909162,14534010,8310547,34228520,15351560
2026-01-14 17:14:17.681,-28173780,-1091909,10379590,50478030,10117190,39868160,15029300
2026-01-14 17:14:17.691,7714995,-5878176,108249800,15625060,11728520,47875980,14980470
2026-01-14 17:14:17.701,-39635960,-91498,11260880,39879030,1328125,5986328,15195310
2026-01-14 17:14:17.711,-27336510,-50443510,62510590,52592790,1484375,7167969,15039060
2026-01-14 17:14:17.721,9052904,8381356,120748500,17083810,1671875,7573242,14267580
2026-01-14 17:14:17.731,-26844510,-49027910,62769540,53844380,18144530,7192383,13789060
2026-01-14 17:14:17.741,9852194,6703099,7815376,17959060,19667970,67871100,12871090
2026-01-14 17:14:17.751,-26421560,2105263,13172800,55009660,21308590,6347656,12226560
2026-01-14 17:14:17.761,10567760,2495417,13507710,18745410,22246090,5991211,11347660
2026-01-14 17:14:17.771,-2605902,2868305,13825350,5606273,23515620,56689450,10029300
2026-01-14 17:14:17.781,11206510,81296560,92200100,19453210,24746090,52001950,89160160
2026-01-14 17:14:17.791,11492210,3569197,14419210,19771710,26054690,48413090,74121100
2026-01-14 17:14:17.801,-25644700,3897199,14695430,57478320,2703125,48999020,6459961
2026-01-14 17:14:17.811,12011840,4207941,14954380,20356940,28125,39746100,5180664
2026-01-14 17:14:17.821,-25446180,4499690,15197790,58315590,29667970,32177730,40527340
2026-01-14 17:14:17.831,-2537710,-43149740,63347860,5869537,30742190,24658200,31958010
2026-01-14 17:14:17.841,-25299440,5029674,15634550,59049290,31621090,16125490,27148440
2026-01-14 17:14:17.851,12850840,5258415,15820130,21313330,32148440,11004640,24597170
2026-01-14 17:14:17.861,13038150,-51537140,53682970,21523080,31992190,11016850,26635740
2026-01-14 17:14:17.871,13226310,5667557,16153320,21731970,31621090,17028810,3173828
2026-01-14 17:14:17.881,-425954,7,5847096,16301780,425991,1,31230470,21716310,3720703
2026-01-14 17:14:17.891,-2476427,6017141,16442480,6053394,30859380,26293940,4272461
2026-01-14 17:14:17.901,13843480,-40629290,63382380,22375030,30703120,30615230,48217770
2026-01-14 17:14:17.911,-24289530,6350320,16730780,60991410,30429690,32983400,5566406
2026-01-14 17:14:17.921,-40719060,-40120020,63529120,44441030,29941410,28442380,57910160
2026-01-14 17:14:17.931,-2359037,6710264,17061370,6137985,2890625,22399900,57470700
2026-01-14 17:14:17.941,18773290,-39619380,63805340,19620400,28027340,13000490,55322260
2026-01-14 17:14:17.951,-22658140,-39377700,63995240,61690580,26894530,17623900,49926760
2026-01-14 17:14:17.961,15657860,-50421930,52933740,24047840,25957030,-1015625,46948240
2026-01-14 17:14:17.971,16019530,-38868430,64504500,24359450,25722660,-15466310,42211910
2026-01-14 17:14:17.981,16394140,-38618110,64806610,24675370,25839840,-20800780,35473630
2026-01-14 17:14:17.991,-2020672,-38393690,65134620,6196678,259375,-20532230,32836910
2026-01-14 17:14:18.001,17133880,-50458180,53190960,25282170,26152340,-17358400,2861328
2026-01-14 17:14:18.011,21123520,8759422,19138150,21931270,2625,-9625244,2467041
2026-01-14 17:14:18.021,-18195570,9027003,19422990,61837320,26054690,-447464,19958500
2026-01-14 17:14:18.031,21691920,9285090,19700070,22484990,2546875,57891850,20056150
2026-01-14 17:14:18.041,1840190,-37444200,66912740,2625840,24433590,109375,17089840
2026-01-14 17:14:18.051,-36666490,14435700,15481690,41173950,23476560,11578370,12573240
2026-01-14 17:14:18.061,-3630395,9914342,20400100,4084595,22539060,16357420,58441160
2026-01-14 17:14:18.071,19025070,10073160,20586540,26671010,21679690,16760250,-1133728
2026-01-14 17:14:18.081,19160590,10205230,20747960,26742650,20644530,18396000,-24108890
2026-01-14 17:14:18.091,-14587530,10311390,20883470,60628880,19169920,2421875,21255490
2026-01-14 17:14:18.101,-14276790,10389940,20994820,60369930,17607420,29541020,90026860
2026-01-14 17:14:18.111,-14009200,-37418310,68958450,60102340,15654300,3408203,12390140
2026-01-14 17:14:18.121,19340130,10485760,21157960,26701220,1375,30932620,13671880
2026-01-14 17:14:18.131,-13603520,10511650,21218380,59524020,11611330,23461910,7171631
2026-01-14 17:14:18.141,22510550,-37832630,69597180,23237330,94970700,16442870,-12878420
2026-01-14 17:14:18.151,-1337045,10500430,21281390,5889392,79589840,-17730710,-22277830
2026-01-14 17:14:18.161,19012990,-3822970,6997698,26199720,6542969,-19250490,-50341800
2026-01-14 17:14:18.171,-33510750,-3846276,7015827,37994040,57666020,-32250980,-8232422
2026-01-14 17:14:18.181,-33378680,-38721700,70330880,37815360,47680660,-19458010,-128125
2026-01-14 17:14:18.191,21526530,15179400,16274420,22236060,28173830,7122803,-20976560
2026-01-14 17:14:18.201,-13896990,10107690,21104440,56900000,30288700,36669920,-28261720
2026-01-14 17:14:18.211,17488640,9901392,20948210,24564880,-12902830,60546880,-32675780
2026-01-14 17:14:18.221,16933620,-40309920,70658890,24015040,20095820,76660160,-30820310
2026-01-14 17:14:18.231,16306100,-40879610,70624360,23399610,2052002,7753906,-24707030
2026-01-14 17:14:18.241,-1637428,8916520,20120430,5475072,3815918,5708008,-17412110
2026-01-14 17:14:18.251,14930210,8492704,19750130,22065150,47753900,6894531,-1125
2026-01-14 17:14:18.261,14218960,-55171080,57903860,21378070,21240230,77783200,-74121100
2026-01-14 17:14:18.271,-18817050,7501785,18859350,53033010,-4901123,49658200,-6245117
2026-01-14 17:14:18.281,12847390,-44375440,69683500,20056560,-32250980,8515625,-4675293
2026-01-14 17:14:18.291,12213820,6377081,17826130,19447160,-60595700,68603520,-24499510
2026-01-14 17:14:18.301,11641540,5787537,17276300,18897330,-7519531,5727539,-21862790
2026-01-14 17:14:18.311,-2159644,5234247,16759260,5113404,-70166020,34716800,-34228520
2026-01-14 17:14:18.321,-22114350,-4728434,6827656,50771510,-88183590,43554690,-37597660
2026-01-14 17:14:18.331,10297590,4247646,15829630,17599980,-11289060,41259770,-27856440
2026-01-14 17:14:18.341,9974764,3838505,15444650,17284060,-12675780,10614010,-34960940
2026-01-14 17:14:18.351,-23184670,-48820750,67447900,49942860,-11894530,-107543900,-3935547
2026-01-14 17:14:18.361,9525055,-49174650,67266640,16836080,-11005860,-11633300,-65722660
2026-01-14 17:14:18.371,-2349539,-49459500,67154420,4954579,-10498050,2055664,-8823242
2026-01-14 17:14:18.381,9248844,28441370,145227900,16542610,-9379883,19470220,-13876950
2026-01-14 17:14:18.391,-2361624,-49934240,67024950,4920053,-12412110,5576172,-15820310
2026-01-14 17:14:18.401,-23659410,25670600,142819700,49002020,-9790039,15014650,-15722660
2026-01-14 17:14:18.411,-23728470,2445352,14179250,48760330,-44384770,3852539,-10439450
2026-01-14 17:14:18.421,8724038,75865500,87618400,15962560,-22167970,73876950,-60791020
2026-01-14 17:14:18.431,8528094,2151876,13920300,15761440,36450200,3408203,8465576
2026-01-14 17:14:18.441,8311444,19999590,137787400,15546510,48291020,3100586,10087890
2026-01-14 17:14:18.451,-2454848,1797115,13584530,4792306,11142580,23071290,1109375
2026-01-14 17:14:18.461,-2486785,1544207,13336800,4777632,55126950,36938480,15039060
2026-01-14 17:14:18.471,7543223,-51850470,66110000,14830080,9682617,15258790,12763670
2026-01-14 17:14:18.481,-25644700,61687120,73484900,47482840,74853520,14233400,11416020
2026-01-14 17:14:18.491,-26093550,-5260145,6539358,47327470,7246094,-27252200,8046875
2026-01-14 17:14:18.501,-2655103,-5299848,6497924,4719800,17834470,-16491700,9501953
2026-01-14 17:14:18.511,6334788,-53447330,64513140,13742490,1439209,-3137207,87402340
2026-01-14 17:14:18.521,-2744009,-855399,5,10937190,4698220,-38269040,-34179690,10976560
2026-01-14 17:14:18.531,-27863040,39422580,51210000,46887260,18444820,-8647461,8876953
2026-01-14 17:14:18.541,5506148,34592300,46372810,13017430,-4937744,-9902344,11679690
2026-01-14 17:14:18.551,-36827900,-55242720,62476060,38630200,-770874,-1078125,13417970
2026-01-14 17:14:18.561,-29131900,-26525140,91090060,46671460,-13366700,-88427740,16103520
2026-01-14 17:14:18.571,4737067,-29917380,87576970,12353650,-19226070,-7055664,17890620
2026-01-14 17:14:18.581,4521273,19941760,31675660,12172390,-2364502,-4182129,16669920
2026-01-14 17:14:18.591,77724780,17188250,28904880,85413870,-32226560,-9222412,1328125
2026-01-14 17:14:18.601,4112132,14693700,26393070,11839210,-2998047,82458500,11025390
2026-01-14 17:14:18.611,-31022230,-40189080,76614740,46628300,-16430660,9686279,94628900
2026-01-14 17:14:18.621,72402500,-42165730,74448190,80205530,-3842163,-17807010,7792969
2026-01-14 17:14:18.631,-31755930,8680873,20321550,46654200,85876460,-2841797,7910156
2026-01-14 17:14:18.641,-38659540,-44988290,71228580,40113120,7409668,-5439453,97558590
2026-01-14 17:14:18.651,66738380,-46024090,70020140,74648450,-6311035,-7294922,96240230
2026-01-14 17:14:18.661,2901969,-4673189,6917424,10839660,-1586914,-9746094,57714840
2026-01-14 17:14:18.671,2719841,5084920,16666900,10676520,24267580,-6357422,-87768550
2026-01-14 17:14:18.681,-39189530,-4692180,6884625,40498090,49975580,-20678710,-3725586
2026-01-14 17:14:18.691,-39264620,5521681,17093310,40543840,5786133,-21789550,-23266600
2026-01-14 17:14:18.701,22468250,-46110410,69588550,102345800,5888672,-38989260,19885250
2026-01-14 17:14:18.711,2090592,6298533,17870160,10080070,5395508,-4182129,67626950
2026-01-14 17:14:18.721,19455790,6295075,17873610,99316050,34521480,-22692870,8666992
2026-01-14 17:14:18.731,1820423,-46024080,69847500,9797811,25756840,-21862790,79589840
2026-01-14 17:14:18.741,1750504,5939455,17538700,9712361,23876950,-15771480,61083980
2026-01-14 17:14:18.751,1733241,5933413,17544740,9677834,28271480,-14282230,44506840
2026-01-14 17:14:18.761,-33896580,6271773,17896920,45342180,46435550,-19555660,42944340
2026-01-14 17:14:18.771,1832508,-45419870,70969630,9733937,6586914,-17565920,37402340
2026-01-14 17:14:18.781,1938676,-56891370,59618980,9817663,7919922,-10424810,3125
2026-01-14 17:14:18.791,2071603,8668790,20333640,9926426,84033200,4562378,4633789
2026-01-14 17:14:18.801,-33016160,9353282,21030210,45290400,103125,52246100,36767580
2026-01-14 17:14:18.811,2378891,9778825,21467840,10188830,12255860,70251460,3152466
2026-01-14 17:14:18.821,-32515520,-42519630,74456820,45376710,13105470,87646480,-27685550
2026-01-14 17:14:18.831,2690494,-4213121,7493157,10464180,13964840,-44,6558,-45996100
2026-01-14 17:14:18.841,2808748,16246190,17417340,10570350,14931640,-15185550,-4807129
2026-01-14 17:14:18.851,63882160,-41224880,75924210,71635130,15810550,-6994629,-37817380
2026-01-14 17:14:18.861,-31919930,12009250,23725890,45557980,17226560,31402590,-34423830
2026-01-14 17:14:18.871,2937360,12353650,24072010,10683430,18476560,6713867,-19348140
2026-01-14 17:14:18.881,28674420,12526280,24244650,106152300,20585940,13903810,-3088379
2026-01-14 17:14:18.891,2726747,12267340,23985700,10479720,2171875,4555664,-27661130
2026-01-14 17:14:18.901,-32411940,11490480,23208850,45186820,22617190,74609380,-22021480
2026-01-14 17:14:18.911,2217478,10109420,21827780,9987711,2625,86816410,-18347170
2026-01-14 17:14:18.921,-33180160,-4495378,7222987,44643020,265625,11083980,-1328125
2026-01-14 17:14:18.931,-33698050,-48156120,69044770,44263220,27089840,12197270,-32104490
2026-01-14 17:14:18.941,842454,3,-52558270,64642610,8652388,27421880,11474610,7678223
2026-01-14 17:14:18.951,230468,5,-58596990,58603890,8055939,26074220,11757810,10357670
2026-01-14 17:14:18.961,-4505732,-12419260,-700891,8,73904400,22988280,9868164,-56915280
2026-01-14 17:14:18.971,-1199801,-73162070,43987010,6655018,17734380,72021490,-97473140
2026-01-14 17:14:18.981,-37392410,-81931860,35148180,41259400,12539060,49267580,-14416500
