Timestamp,Rotation X,Rotation Y,Rotation Z,Rotation W,Acceleration X,Acceleration Y,Acceleration Z
2026-01-14 17:14:05.471,24237740,-23561880,29661020,-34215960,35766600,-9770508,13867190
2026-01-14 17:14:05.481,24304200,378068,8,5715894,-34270340,32226560,-10146480,11517330
2026-01-14 17:14:05.491,-20413910,3702992,57219370,-79109300,31152340,-10117190,881958
2026-01-14 17:14:05.501,24438860,3633936,57288420,-34377370,32006840,-9785156,7965088
2026-01-14 17:14:05.511,-20154960,27788820,33168070,-79074770,34448240,-9160156,8758545
2026-01-14 17:14:05.521,-2002546,3556250,57452420,-7904887,38989260,-85791020,6781006
2026-01-14 17:14:05.531,24617540,30268780,30808950,-34509430,43408200,-80859380,28686520
2026-01-14 17:14:05.541,24677960,3513092,57633690,-34552590,5024414,-77783200,-27908320
2026-01-14 17:14:05.551,24739240,3504464,57745900,-34594890,5654297,-7480469,-8654785
2026-01-14 17:14:05.561,-19473060,27967490,33403720,-78893500,5932617,-6772461,-12237550
2026-01-14 17:14:05.571,-1930903,3487196,57987590,-7885034,60595700,-5917969,-14221190
2026-01-14 17:14:05.581,24925690,3478564,58117060,-34719180,64990230,-5,-18225100
2026-01-14 17:14:05.591,24998200,3461304,58255170,-34767520,6489258,-35131840,-17626950
2026-01-14 17:14:05.601,-1878250,3435404,58401910,-7866907,64208980,-24145510,-19506840
2026-01-14 17:14:05.611,-45595950,3409516,58548650,-51596700,671875,-14709470,-22265620
2026-01-14 17:14:05.621,25226070,3366352,58695380,-34919440,64697260,-10650640,-22302250
2026-01-14 17:14:05.631,-18195570,28297220,33850840,-78479180,65722660,-7836914,-21875
2026-01-14 17:14:05.641,25381440,3245512,58988860,-35023020,66503900,-55786130,-21203610
2026-01-14 17:14:05.651,-45051300,3167828,59135600,-51105560,7241211,-54901120,-16772460
2026-01-14 17:14:05.661,-47654350,3081508,59290980,-48260810,7939453,-8691406,-16015630
2026-01-14 17:14:05.671,25591190,30921160,31485840,-35158540,8564453,-13293460,-15734860
2026-01-14 17:14:05.681,-44683580,2839822,59584450,-50765460,9472656,-120788600,-13391110
2026-01-14 17:14:05.691,-171854,2701714,59722550,-780734,9,10556640,-13085940,-93811030
2026-01-14 17:14:05.701,-44479010,2554978,59852030,-50572980,11669920,-37231440,-80200190
2026-01-14 17:14:05.711,-44390110,2382344,59972880,-50489260,13515630,2524414,-7043457
2026-01-14 17:14:05.721,-16805870,-25836320,32064940,-77883600,15458980,54345700,-8709717
2026-01-14 17:14:05.731,-16633230,28189330,34010530,-77831810,16347660,8286133,-2796936
2026-01-14 17:14:05.741,25983930,176950,8,6032676,-35404540,16113280,96435540,9564209
2026-01-14 17:14:05.751,26119450,28033950,33924210,-35510710,13710940,8964844,14453130
2026-01-14 17:14:05.761,-43704760,-26541530,32723540,-49897120,11914060,8779297,19226070
2026-01-14 17:14:05.771,-1551972,1018538,60646140,-7773686,10458980,82128900,23205570
2026-01-14 17:14:05.781,26617500,27754290,33755020,-35910360,9272461,6513672,27612300
2026-01-14 17:14:05.791,-43160100,-27117270,33252670,-49440500,79833980,56591800,3540039
2026-01-14 17:14:05.801,26917020,27563530,33635050,-36146000,6582031,4645996,38305660
2026-01-14 17:14:05.811,-14389000,3,5,6106047,-77641910,5878906,38476560,4008789
2026-01-14 17:14:05.821,-1420771,-233056,61155410,-7759876,5024414,29516600,3918457
2026-01-14 17:14:05.831,27148350,-457476,61258990,-36311730,42797850,23474120,33203120
2026-01-14 17:14:05.841,-14009200,-664634,61345310,-77486540,32080080,2088623,24450680
2026-01-14 17:14:05.851,-13966050,27165610,33394220,-77426120,22021480,21533200,10736080
2026-01-14 17:14:05.861,-13957420,27100010,33356240,-77365700,109191900,29223630,28762820
2026-01-14 17:14:05.871,-42469560,-1242958,61578370,-48801760,-41542050,3552246,-11804200
2026-01-14 17:14:05.881,27055990,-1424224,61656050,-36179660,-60180660,5395508,-18591310
2026-01-14 17:14:05.891,-1401783,26889390,33221590,-7716716,-11834720,7631836,-18054200
2026-01-14 17:14:05.901,-14035100,26816890,33173250,-77115380,-16540530,88134770,-17211910
2026-01-14 17:14:05.911,-1404371,-1976656,61828680,-7707222,-22998050,83984380,-10723880
2026-01-14 17:14:05.921,26943770,-2175184,61871840,-36050190,-30786130,69677740,-6970215
2026-01-14 17:14:05.931,-1401783,26546720,32977310,-7699452,-36791990,4892578,15563970
2026-01-14 17:14:05.941,-14009200,-29316620,35248310,-76968640,-3996582,23254400,8001709
2026-01-14 17:14:05.951,-1401781,-2865714,61958160,-7694275,-39819340,-43304440,15771480
2026-01-14 17:14:05.961,26898030,-29616130,35501210,-35992360,-3557129,-23059080,18127440
2026-01-14 17:14:05.971,-14052360,-340084,5,6200996,-76873700,-32885740,-33764650,22497560
2026-01-14 17:14:05.981,-42316780,25898480,32468910,-48592010,-3413086,-46875,25146480
2026-01-14 17:14:05.991,-14130050,-3944674,62070370,-76778740,-37304690,-6230469,24133300
2026-01-14 17:14:06.001,26727980,-421224,3,6213078,-35817130,-43676760,-7426758,22680660
2026-01-14 17:14:06.011,-14207730,-4479838,62191220,-76649260,-49023440,-8388672,20617680
2026-01-14 17:14:06.021,-14242260,-4738784,62260270,-76562950,-5083008,-92285150,19262700
2026-01-14 17:14:06.031,-42257220,25315840,32050270,-48478940,-5151367,-9423828,13366700
2026-01-14 17:14:06.041,26543260,-30974760,36697560,-35604790,-50683590,-9038086,6488037
2026-01-14 17:14:06.051,-42125160,-5437954,62562380,-48334790,-50146480,-828125,-15670780
2026-01-14 17:14:06.061,-42030210,25111270,31944100,-48239840,-4794922,-7548828,-109191900
2026-01-14 17:14:06.071,26573480,-5809114,62829960,-35574580,-53027340,-63623050,-15893560
2026-01-14 17:14:06.081,26650300,25062070,31958770,-35618600,-6191406,-50097660,-19812010
2026-01-14 17:14:06.091,26755600,-31787000,37490810,-35685930,-6767578,-3347168,-2705078
2026-01-14 17:14:06.101,26916150,-6240698,63330600,-35801590,-74316410,-12609860,-27929690
2026-01-14 17:14:06.111,27114680,-6361544,63503230,-35948330,-84228510,61828610,-31469730
2026-01-14 17:14:06.121,-40717330,-6465120,63675860,-47066790,-90771490,17651370,-3112793
2026-01-14 17:14:06.131,27629990,-6568700,63831230,-36347980,-92871100,19445800,-3010254
2026-01-14 17:14:06.141,27929510,25124220,32190100,-36583620,-9580078,120788600,-2692871
2026-01-14 17:14:06.151,28246290,25130260,32218590,-36836530,-9658203,-3982544,-2541504
2026-01-14 17:14:06.161,-979693,8,25136300,32247070,-7544945,-98583980,-23901370,-21325680
2026-01-14 17:14:06.171,-9184098,-6957124,64375020,-75406300,-9458008,-4650879,-15661620
2026-01-14 17:14:06.181,33345330,25140620,32294540,-33429300,-9111328,-65234380,-15112310
2026-01-14 17:14:06.191,-8036088,25147520,32322170,-75328620,-8725586,-75,-17248540
2026-01-14 17:14:06.201,-752679,3,-7241970,64728930,-7526821,-7758789,-80371100,-27612300
2026-01-14 17:14:06.211,-7034812,2514324,3236101,-75207780,-70458980,-72216800,-45141600
2026-01-14 17:14:06.221,-657732,3,25150110,32388630,-7513008,-6855469,-5673828,-63623050
2026-01-14 17:14:06.231,30406800,-7500924,65091460,-38525750,-7495117,-3930664,-7836914
2026-01-14 17:14:06.241,30605330,-7569978,65212300,-38672490,-8408203,-21142580,-89501950
2026-01-14 17:14:06.251,-5265316,-7630398,65324510,-74905670,-97558590,70343020,-9838867
2026-01-14 17:14:06.261,-4851000,25208810,32519830,-74836620,-10810550,17321780,-10136720
2026-01-14 17:14:06.271,-36092480,-33736900,39511490,-43129020,-11601560,3449707,-10683590
2026-01-14 17:14:06.281,-35849940,-781164,3,6555759,-42922730,-12392580,5180664,-10742190
2026-01-14 17:14:06.291,-35623780,-7872084,65600720,-42734560,-12714840,64160160,-109375
2026-01-14 17:14:06.301,-325412,5,25169100,32525010,-7472439,-13173830,7114258,-11005860
2026-01-14 17:14:06.311,-290886,25148380,32511200,-7472439,-13134770,71191410,-10927730
2026-01-14 17:14:06.321,-2589500,-8044714,65652520,-74715780,-13261720,6254883,-11416020
2026-01-14 17:14:06.331,-34894410,-808786,6566117,-42134660,-13486330,51123050,-115625
2026-01-14 17:14:06.341,-207158,8,25087960,32468040,-7469850,-13037110,39697260,-11884770
2026-01-14 17:14:06.351,-34641500,-8165562,65704310,-41921450,-12412110,32080080,-12177730
2026-01-14 17:14:06.361,-37821920,-8208722,65730210,-38551130,-12392580,2010498,-12617190
2026-01-14 17:14:06.371,-161410,5,25068110,32470630,-7460355,-12285160,15490720,-13212890
2026-01-14 17:14:06.381,-34388590,28398640,29140100,-41690990,-12539060,18859860,-14101560
2026-01-14 17:14:06.391,32705420,-8372722,65911470,-40301290,-12910160,18005370,-15146480
2026-01-14 17:14:06.401,-143284,5,25038760,32482720,-7440502,-13349610,19604490,-16220700
2026-01-14 17:14:06.411,-140694,8,-34448150,40198570,-7431010,-13789060,18676760,-17119140
2026-01-14 17:14:06.421,-137240,8,-8700728,66170420,-7422377,-14238280,18115230,-1765625
2026-01-14 17:14:06.431,-1329280,28654120,28729250,-74111560,-14384770,10632320,-18144530
2026-01-14 17:14:06.441,-34005340,24860090,32402450,-41280120,-13935550,76416020,-18369140
2026-01-14 17:14:06.451,-1191172,24756510,32333390,-73904400,-13808590,-50315860,-18251950
2026-01-14 17:14:06.461,-110483,8,-35231040,40917590,-7380084,-13476560,-30727390,-18154300
2026-01-14 17:14:06.471,-98399,5,24465620,32123640,-7367996,-13349610,-342,6075,-17919920
2026-01-14 17:14:06.481,32635500,24278310,31982940,-40077720,-13007810,20019530,-16914060
2026-01-14 17:14:06.491,36011780,-35979400,41567550,-36753240,-13173830,5569458,-15947270
2026-01-14 17:14:06.501,-52653,2382947,3163768,-7332607,-13027340,12805180,-14746090
2026-01-14 17:14:06.511,-33128370,-1180812,6682644,-40413500,-13056640,23828120,-13291020
2026-01-14 17:14:06.521,-32970410,23307250,31227670,-40260720,-13066410,33422850,-12011720
2026-01-14 17:14:06.531,32830570,26618190,27416100,-40124340,-13203130,46362300,-10410160
2026-01-14 17:14:06.541,17264,5,22739280,30777100,-7279953,-13007810,5864258,-8823242
2026-01-14 17:14:06.551,31940,-13991940,66990420,-7267008,-13232420,7026367,-7089844
2026-01-14 17:14:06.561,-32388630,22153190,30310130,-39685850,-13183590,7548828,-5605469
2026-01-14 17:14:06.571,56106,5,-1512269,6705085,-7237659,-12597660,76904300,-4020996
2026-01-14 17:14:06.581,63014,-15692390,67085380,-7222123,-125,74121100,-26000980
2026-01-14 17:14:06.591,66464,-1625344,6712854,-7206585,-11953130,72216800,-12841800
2026-01-14 17:14:06.601,-31976900,-1681449,6717171,-39234410,-11542970,72216800,8239746
2026-01-14 17:14:06.611,32631180,20697890,29158660,-39736780,-10654300,67285150,13586430
2026-01-14 17:14:06.621,60424,5,-17945250,67283900,-7150481,-10546880,6303711,17419430
2026-01-14 17:14:06.631,53518,20133380,28721890,-7129762,-11035160,55371100,21484380
2026-01-14 17:14:06.641,47475,75,19859760,28512150,-7106457,-11455080,5058594,21118160
2026-01-14 17:14:06.651,32084800,-19645690,67551490,-39126520,-10849610,6064453,25
2026-01-14 17:14:06.661,-31568620,19317690,28104730,-38658680,-10166020,60058590,30078120
2026-01-14 17:14:06.671,310744,-20793700,67750020,-70296350,-9399414,5493164,32299800
2026-01-14 17:14:06.681,34808180,-21380650,67853590,-35505440,-8676758,5390625,3791504
2026-01-14 17:14:06.691,319376,-21976240,67948540,-69735300,-8305664,57128900,42822260
2026-01-14 17:14:06.701,-31035180,18194710,27259690,-38018210,-81591800,52197260,42211910
2026-01-14 17:14:06.711,31389090,-23236460,68155700,-38251260,-7558594,5341797,5288086
2026-01-14 17:14:06.721,31343340,17568910,26780630,-38158900,-7290039,4873047,5185547
2026-01-14 17:14:06.731,31326940,17229690,26515640,-38088990,-64697260,4699707,55029300
2026-01-14 17:14:06.741,1182544,-44646470,48955410,-68216130,-43896480,54785160,5292969
2026-01-14 17:14:06.751,1536440,16491680,25924370,-67914020,-23852540,48779300,5263672
2026-01-14 17:14:06.761,-29365820,-26671870,68380130,-36321220,-3310547,33789060,65234380
2026-01-14 17:14:06.771,2382340,20004170,20961760,-67327060,-25341800,2902832,7939453
2026-01-14 17:14:06.781,2874346,-2813923,6832834,-67042220,-19689940,21325680,85791020
2026-01-14 17:14:06.791,3400880,14830080,24547620,-66757370,-7757568,21899410,86328130
2026-01-14 17:14:06.801,32100340,-29658430,68190230,-38351400,9094238,27392580,7836914
2026-01-14 17:14:06.811,455753,3,13909080,23759550,-6620494,101623500,16259770,81152340
2026-01-14 17:14:06.821,32506890,-47722800,51403350,-38583590,7751465,14013670,9301758
2026-01-14 17:14:06.831,-29577380,12993260,22966300,-30291910,109191900,21948240,9838867
2026-01-14 17:14:06.841,643063,-32575940,67706860,-6540221,29083250,27001950,11240230
2026-01-14 17:14:06.851,-25425460,-33257840,67542860,-32648450,-48828120,16210940,121875
2026-01-14 17:14:06.861,7742614,-3393108,6737022,-64918820,-51574710,14807130,12568360
2026-01-14 17:14:06.871,8424518,-34578480,67154420,-64703040,16418460,122802700,13837890
2026-01-14 17:14:06.881,-24018500,-35217230,66930010,-31379590,41992190,2055664,14375
2026-01-14 17:14:06.891,9771058,-35821450,66671060,-64340500,48364260,30908200,13398440
2026-01-14 17:14:06.901,-23175180,-3639976,6640348,-30634670,46435550,3010254,11923830
2026-01-14 17:14:06.911,1101402,9453410,19756180,-6409880,41357420,3071289,10908200
2026-01-14 17:14:06.921,-22422500,-3738377,6581653,-29989030,39916990,36645510,10556640
2026-01-14 17:14:06.931,12274240,-37815360,65488510,-63995240,66845700,26123050,14287110
2026-01-14 17:14:06.941,1293889,8281230,18615070,-6398660,7597656,-20581060,15849610
2026-01-14 17:14:06.951,-24799320,7898845,18237860,-25575130,8613281,-53759770,19091800
2026-01-14 17:14:06.961,-20939580,7518189,17858940,-28761600,10976560,-5444336,19414060
2026-01-14 17:14:06.971,-2062538,7172922,17513670,-2850610,12978520,-7451172,20
2026-01-14 17:14:06.981,37243090,6870814,17211560,-42099260,9628906,-6064453,14199220
2026-01-14 17:14:06.991,15934070,6594603,16935350,-63926180,11103520,-57910160,15078130
2026-01-14 17:14:07.001,1645200,-40145920,63227020,-6390894,11494140,-5415039,15498050
2026-01-14 17:14:07.011,16926710,-4029263,6302848,-63883020,12626950,-5649414,16181640
2026-01-14 17:14:07.021,1734969,-40396240,62855860,-6387441,12695310,-4650879,15205080
2026-01-14 17:14:07.031,17738090,-4044800,6271774,-63865760,13076170,-19238280,13730470
2026-01-14 17:14:07.041,18083360,-40465290,62596900,-63883020,12324220,-12658690,12802730
2026-01-14 17:14:07.051,38879650,5885078,16177480,-43432000,11494140,9136963,12294920
2026-01-14 17:14:07.061,-18524430,5877309,16150730,-26791850,10410160,17102050,10722660
2026-01-14 17:14:07.071,18937890,5904932,16157630,-64081550,9370117,8843994,9814453
2026-01-14 17:14:07.081,19170950,5942911,16171440,-64193760,7871094,10809330,10537110
2026-01-14 17:14:07.091,-22049610,5999878,16200790,-22886880,7392578,92163090,10175780
2026-01-14 17:14:07.101,-18246500,6067205,16237040,-26655470,61816410,66345220,97314460
2026-01-14 17:14:07.111,19775170,-49571700,51815940,-64677140,52246100,20288090,78271490
2026-01-14 17:14:07.121,-18228370,-39222320,61802790,-26708130,46118160,16699220,66015620
2026-01-14 17:14:07.131,20068640,6344284,16408810,-65091460,38232420,826416,6489258
2026-01-14 17:14:07.141,-18295700,6450452,16475280,-26847960,35131840,13220220,63671880
2026-01-14 17:14:07.151,20275800,6556624,16541740,-65592090,19897460,13122560,6171875
2026-01-14 17:14:07.161,-22339460,6681780,16623740,-23201250,-37231440,18798830,7060547
2026-01-14 17:14:07.171,-18576230,6815572,16714380,-27223440,-1817627,33618160,8730469
2026-01-14 17:14:07.181,-18725550,-37383780,61155420,-27402120,-31689450,5410156,10361330
2026-01-14 17:14:07.191,20275810,-37012620,61060470,-66748740,-47631840,9067383,12001950
2026-01-14 17:14:07.201,-19054420,-36606930,61000040,-27781050,-6254883,14697270,14365230
2026-01-14 17:14:07.211,-19251220,7539768,17250400,-27998560,-7114258,19384770,14775390
2026-01-14 17:14:07.221,-19473920,-3567470,6091374,-28241970,-88134770,18310550,13730470
2026-01-14 17:14:07.231,-19725960,-35122280,60913730,-28507830,-11074220,12910160,13203130
2026-01-14 17:14:07.241,-20005630,-34552590,60948260,-28797860,-12792970,68359380,13681640
2026-01-14 17:14:07.251,-20324140,8786182,18282750,-29118090,-15595700,11584470,14189450
2026-01-14 17:14:07.261,1886885,-3332689,6112089,-6900161,-17539060,-49609380,12763670
2026-01-14 17:14:07.271,-21067330,9588928,18981920,-29842290,-19023440,-11162110,9008789
2026-01-14 17:14:07.281,17910730,-32040770,61388470,-69631710,-20371090,-15742190,41601560
2026-01-14 17:14:07.291,-21902010,-31410660,61552470,-30630360,-18808590,-16269530,-23046880
2026-01-14 17:14:07.301,16814510,-30832340,61716480,-70158250,-14951170,-10615230,-9135742
2026-01-14 17:14:07.311,-22754820,11170250,20387150,-31417570,-13320310,-72216800,-12695310
2026-01-14 17:14:07.321,-23188130,11507750,20688400,-31812900,-12910160,-51464840,-14707030
2026-01-14 17:14:07.331,-23611080,11820220,20962880,-32201330,-13710940,-27978520,-15996090
2026-01-14 17:14:07.341,14475320,12114560,21220970,-71081840,-14248050,-1628418,-16630860
2026-01-14 17:14:07.351,-24420730,-28415470,62268900,-32945380,-14179690,50201420,-16357420
2026-01-14 17:14:07.361,-2479793,12653170,21683630,-3329323,-13681640,10949710,-16572270
2026-01-14 17:14:07.371,-2515526,-27569570,62355220,-3362643,-115625,27685550,-16142580
2026-01-14 17:14:07.381,-25485010,-27163880,62363850,-33935430,-10234380,31591800,-16484380
2026-01-14 17:14:07.391,-25795760,-2678407,6236386,-34228900,-7807617,10839840,-16298830
2026-01-14 17:14:07.401,11799500,-26421550,62346590,-72376590,-62060550,-13183590,-16455080
2026-01-14 17:14:07.411,-26345600,-2610217,6233797,-34749400,-5571289,-41235350,-17011720
2026-01-14 17:14:07.421,11160760,-25800070,62329320,-72721860,-5175781,-50878900,-16992190
2026-01-14 17:14:07.431,-26800480,14000580,22787620,-35174940,-54833980,-55810550,-16767580
2026-01-14 17:14:07.441,10634230,-25316700,62346590,-72954910,-66308590,-53808590,-1671875
2026-01-14 17:14:07.451,-27134530,-2514405,6236386,-35479640,-83251950,-45996100,-16445310
2026-01-14 17:14:07.461,10228540,-25023220,62398380,-73067130,-9433594,-40478520,-15732420
2026-01-14 17:14:07.471,-27347730,14370010,23108720,-35663490,-10498050,-2849121,-14941410
2026-01-14 17:14:07.481,-27405560,-41835140,45586460,-35709240,-10927730,-22155760,-14404300
2026-01-14 17:14:07.491,-27437500,-24997330,62493320,-35729090,-11113280,-12976070,-13173830
2026-01-14 17:14:07.501,9822846,-25100910,62510590,-73006700,-11142580,-68481450,-11933590
2026-01-14 17:14:07.511,9779690,-42028480,45755640,-72946280,-11279300,-32348630,-10507810
2026-01-14 17:14:07.521,41012970,14133510,22930900,-41643940,-11142580,24795530,-94677740
2026-01-14 17:14:07.531,-27376220,-2570511,6251060,-35635000,-10537110,47302250,-8535156
2026-01-14 17:14:07.541,9814212,13824490,22670230,-72721860,-89160160,24780270,-5576172
2026-01-14 17:14:07.551,3811662,13632870,22499320,-4440219,-11138920,11074220,-44995120
2026-01-14 17:14:07.561,-31041310,-26551030,62268900,-31866330,7167969,12460940,-40307620
2026-01-14 17:14:07.571,-27409020,13196970,22089320,-35653990,15585940,16083980,-54785160
2026-01-14 17:14:07.581,9537998,12987220,21884750,-72842700,20878910,15253910,-60498050
2026-01-14 17:14:07.591,-27702490,-27267460,61742370,-35930210,22304690,12080080,-68310540
2026-01-14 17:14:07.601,908053,5,12612600,21517040,-7304122,22949220,9785156,-6948242
2026-01-14 17:14:07.611,881295,3,12446010,21355630,-7311891,22851560,9057617,-72265620
2026-01-14 17:14:07.621,8545364,-42908050,46257150,-73179340,20390620,58740230,-6669922
2026-01-14 17:14:07.631,-28389580,12153400,21078550,-36537880,16494140,29858400,-5854492
2026-01-14 17:14:07.641,8044720,12034280,20973240,-73213860,12783200,11773680,-43969730
2026-01-14 17:14:07.651,-32257170,-2838094,6118133,-33067340,94628900,55664060,-27172850
2026-01-14 17:14:07.661,37134330,-28579470,61172680,-43675410,70214850,4144287,-1772461
2026-01-14 17:14:07.671,-28681320,-28812530,61164050,-36746760,65478520,7501221,-119384800
2026-01-14 17:14:07.681,-32285480,11525880,20549430,-33090820,68603520,19787600,-11193850
2026-01-14 17:14:07.691,-28606230,-43668500,46843240,-36649220,4753418,-5227661,-10028080
2026-01-14 17:14:07.701,-28522500,-43832500,46972710,-36560320,27856440,-2758789,-5117798
2026-01-14 17:14:07.711,7733980,10963960,20075550,-72609650,34698490,-4567871,-22506710
2026-01-14 17:14:07.721,36933210,-3040937,6105181,-43393150,-15356450,-6464844,8125305
2026-01-14 17:14:07.731,8018828,-30771920,61017310,-72307540,-26123050,-7402344,44036860
2026-01-14 17:14:07.741,-27952810,-44575690,47558800,-35990630,-31079100,-80859380,38269040
2026-01-14 17:14:07.751,8433148,10085250,19331500,-72014060,-35229490,-8261719,5557251
2026-01-14 17:14:07.761,-31180630,9853056,19132110,-31985970,-3413086,-88671870,48828120
2026-01-14 17:14:07.771,895107,3,-32273830,60844670,-7170334,-36572260,-93896480,10015870
2026-01-14 17:14:07.781,-30747840,-32636360,60792880,-31555590,-3864746,-9248047,9741211
2026-01-14 17:14:07.791,-26872130,9193597,18565870,-34965180,-4165039,-9770508,12817380
2026-01-14 17:14:07.801,9857370,8980398,18382010,-71228580,-4362793,-8676758,19042970
2026-01-14 17:14:07.811,10176740,877758,1,1820506,-71081840,-42016600,-78564460,26782230
2026-01-14 17:14:07.821,37703160,-33957000,60577090,-43745330,-42163090,-74072260,31860350
2026-01-14 17:14:07.831,-25886390,-34250480,60508040,-34051960,-40625,-5996094,3684082
2026-01-14 17:14:07.841,11195290,-34543960,60438990,-70650260,-3413086,-4555664,36889650
2026-01-14 17:14:07.851,38086400,8024006,17543010,-43983560,-2824707,-33496090,37939450
2026-01-14 17:14:07.861,1188582,-3507050,6030952,-7039131,-2626953,-28393560,38867190
2026-01-14 17:14:07.871,-28598550,-3530354,6024910,-29423570,-2265625,-23156740,38354490
2026-01-14 17:14:07.881,12576350,7548403,17120930,-70132350,-18469240,-23693850,41186520
2026-01-14 17:14:07.891,1290436,7410293,17000080,-7001151,-16882320,-27001950,44213870
2026-01-14 17:14:07.901,-24173870,7290315,16895640,-32484440,-12164310,-2536621,44335940
2026-01-14 17:14:07.911,-23940810,7178101,16800690,-32268650,-7513428,-18273930,40673830
2026-01-14 17:14:07.921,13819310,7083155,16723010,-69597190,-34423830,-13439940,28881840
2026-01-14 17:14:07.931,-23486790,-3645155,6011963,-31842250,-19836430,-9613037,16088870
2026-01-14 17:14:07.941,1438903,-36606930,60136870,-6928647,-18234250,-7965088,234375
2026-01-14 17:14:07.951,-23034480,6849235,16542610,-31414110,-42907720,-9643555,-85632320
2026-01-14 17:14:07.961,-22795390,6770686,16483050,-31187100,-66711420,-13220220,-16540530
2026-01-14 17:14:07.971,1526946,-37098940,60214560,-6876857,-86242670,-22546390,-20715330
2026-01-14 17:14:07.981,-22291300,6604959,16355300,-30707180,-75927740,-23034670,-25561520
2026-01-14 17:14:07.991,-22024580,6509147,16278480,-30456000,-8583069,-2163086,-33447270
2026-01-14 17:14:08.001,-21757000,6405567,16192160,-30205680,88256830,-14196780,-45751950
2026-01-14 17:14:08.011,39776480,6284724,16088580,-44917510,22961430,-74035650,-5805664
2026-01-14 17:14:08.021,17030300,-38022520,60154140,-67888120,3076172,-29922480,-66015620
2026-01-14 17:14:08.031,1743599,6029225,15860700,-6774138,33129880,-33843990,-70410160
2026-01-14 17:14:08.041,-24440670,-3840231,6003331,-25295040,34692380,-17242430,-6694336
2026-01-14 17:14:08.051,-20288750,-38592220,59946980,-28860000,30566410,-1033783,-625
2026-01-14 17:14:08.061,18696210,-38764850,59877930,-67275270,34057620,29937740,-58447260
2026-01-14 17:14:08.071,1910190,5498377,15373010,-6712853,34326170,6793213,-4909668
2026-01-14 17:14:08.081,1947308,-39075590,59757080,-6698181,36938480,16516110,-44995120
2026-01-14 17:14:08.091,-19197710,5308481,15200380,-27862180,49975580,14282230,-36450200
2026-01-14 17:14:08.101,20060010,5261872,15160670,-66740110,5234375,10681150,-37670900
2026-01-14 17:14:08.111,-18840350,-39334540,59722560,-27529000,40454100,13623050,-421875
2026-01-14 17:14:08.121,2041392,5236838,15151180,-6652431,87646480,22668460,-54589840
2026-01-14 17:14:08.131,20552020,-39420850,59808870,-66403480,-17932130,2446289,-5966797
2026-01-14 17:14:08.141,2069876,5218711,15152040,-6629125,-44995120,27246090,-6616211
2026-01-14 17:14:08.151,2087139,9653665,10648030,-6617041,-6611328,28173830,-7026367
2026-01-14 17:14:08.161,2107856,5103909,15059680,-6603231,-77001950,36669920,-6879883
2026-01-14 17:14:08.171,-17916770,9479824,10476610,-26639940,-85839840,29589840,-66748050
2026-01-14 17:14:08.181,21630980,4858773,14838710,-65738830,-85498050,31152340,-66796880
2026-01-14 17:14:08.191,2197627,-40284020,59636240,-6558348,-7451172,16992190,-6020508
2026-01-14 17:14:08.201,41728970,-40525710,59515390,-46037900,-66015620,52520750,-5449219
2026-01-14 17:14:08.211,-16869740,-40793290,59368660,-25667150,-5932617,-24429320,-48461910
2026-01-14 17:14:08.221,4200003,-41060880,59221920,-4619847,-49780270,-1739502,-39770510
2026-01-14 17:14:08.231,-16295740,-41328460,59075180,-25136300,-36206060,-22558590,-35107420
2026-01-14 17:14:08.241,23849320,81635780,91688230,-64746180,-29614260,-31713870,-3161621
2026-01-14 17:14:08.251,24194590,3452673,13517200,-64573560,-23803710,-39038090,-3125
2026-01-14 17:14:08.261,-15511120,3282627,13359240,-24401740,-21252440,-44482420,-26245120
2026-01-14 17:14:08.271,-15297910,31307080,132176800,-24200620,-23022460,-44140620,-27124020
2026-01-14 17:14:08.281,24997330,3012458,13111510,-64116080,-28637700,-4074707,-26733400
2026-01-14 17:14:08.291,44388650,-42571420,58522760,-44776560,-3305664,-34179690,-28173830
2026-01-14 17:14:08.301,2535990,74007110,84125160,-6385710,-3959961,-22314450,-36254880
2026-01-14 17:14:08.311,25497970,27828520,129095300,-63736280,-47998050,-17224120,-41308590
2026-01-14 17:14:08.321,-14543510,-42864890,58470960,-23470390,-58203120,-24743650,-4411621
2026-01-14 17:14:08.331,2575692,7261483,8275532,-6354638,-62841800,-7092285,-46972660
2026-01-14 17:14:08.341,25869130,2669780,12815450,-63468700,-6767578,-25024410,-47802740
2026-01-14 17:14:08.351,-18257970,-43046160,58462330,-19151700,-6953125,-27856440,-50390620
2026-01-14 17:14:08.361,42842460,-43097950,58462340,-46564440,-6982422,-26123050,-54003900
2026-01-14 17:14:08.371,2618852,-43149740,58462330,-6323566,-7006836,-2775879,-57666020
2026-01-14 17:14:08.381,-13973810,76253180,76354830,-22917950,-69091800,-36108400,-68359380
2026-01-14 17:14:08.391,-13894400,70960130,81129970,-22841990,-69140620,-47558590,-77490230
2026-01-14 17:14:08.401,-13825350,70784910,80959940,-22772940,-6777344,-6333008,-8256836
2026-01-14 17:14:08.411,2651656,24798800,126600800,-6297669,-68115230,-8359375,-8574219
2026-01-14 17:14:08.421,-13687240,24686580,126540300,-22634840,-6953125,-10234380,-83691410
2026-01-14 17:14:08.431,-13628550,70517320,80709610,-22572690,-6958008,-109375,-8310547
2026-01-14 17:14:08.441,-13562080,70599330,80800240,-22501040,-66259770,-10390630,-88378900
2026-01-14 17:14:08.451,42871800,70680470,80891740,-46466030,-6699219,-8930664,-9765625
2026-01-14 17:14:08.461,-13438650,70761610,80983240,-22365530,-7294922,-7236328,-109375
2026-01-14 17:14:08.471,2677551,24798800,127118700,-6242426,-7680664,-5566406,-11474610
2026-01-14 17:14:08.481,-13272060,24738380,127179100,-22186850,-83203130,-38842770,-11210940
2026-01-14 17:14:08.491,-13171070,70830660,81086820,-22080680,-96728510,-11236570,-91748050
2026-01-14 17:14:08.501,-13035550,70651980,80920220,-21939990,-10048830,58251950,-6923828
2026-01-14 17:14:08.511,-12881050,2411691,12693740,-21783760,-88427740,16259770,-70214850
2026-01-14 17:14:08.521,-12707550,2336595,12630730,-21611990,-82470700,22714840,-90625
2026-01-14 17:14:08.531,-12515060,2245099,12549590,-21424680,-91064460,24179690,-1046875
2026-01-14 17:14:08.541,27819890,-44289120,58842130,-61362580,-10429690,22871090,-87158200
2026-01-14 17:14:08.551,-12099020,1978381,12298410,-21029350,-10751950,21386720,-5498047
2026-01-14 17:14:08.561,-11894450,1828189,12155120,-20836860,-9716797,2046875,-3647461
2026-01-14 17:14:08.571,28579470,1652105,11985940,-60948260,-83496100,18144530,-26953120
2026-01-14 17:14:08.581,-15580950,1476017,11816760,-16477090,-6645508,13505860,-19799800
2026-01-14 17:14:08.591,28924740,12800770,116329100,-60706560,-52441410,796875,-103271500
2026-01-14 17:14:08.601,29011060,1091047,11459410,-60568460,-42651370,33496090,79711910
2026-01-14 17:14:08.611,29036950,908918,11296270,-60421720,-33276370,61431880,2208252
2026-01-14 17:14:08.621,2898519,54179300,64592540,-6026632,-26464840,-49468990,28881840
2026-01-14 17:14:08.631,-11158170,569691,11014020,-20053970,-19689940,21942140,2692871
2026-01-14 17:14:08.641,-11177150,51385220,61862350,-20034980,-11187740,27246090,29833980
2026-01-14 17:14:08.651,-11215140,283982,5,10799090,-20031530,-86364740,44848630,37402340
2026-01-14 17:14:08.661,-11282460,169181,5,10723990,-20050520,-11437990,6113281,4807129
2026-01-14 17:14:08.671,-15273830,48477220,59073460,-16145460,-12878420,78808590,6430664
2026-01-14 17:14:08.681,27535050,-47871260,58505490,-59075180,-1348877,10048830,81933590
2026-01-14 17:14:08.691,2718115,4739912,5807995,-5887665,-91430660,11972660,95458980
2026-01-14 17:14:08.701,2680999,-113075,10609190,-5867813,-24261480,12548830,10917970
2026-01-14 17:14:08.711,40857170,-158820,5,10603150,-44061250,32104490,12646480,11279300
2026-01-14 17:14:08.721,2605905,-48794850,59221920,-5827246,18847660,11484380,11074220
2026-01-14 17:14:08.731,-12012700,-49010650,59403190,-20390610,25878910,91064460,109375
2026-01-14 17:14:08.741,25299440,-243410,5,10635950,-57892640,37109380,64990230,10761720
2026-01-14 17:14:08.751,-12260430,-49399070,59774340,-20522670,4650879,40356440,10458980
2026-01-14 17:14:08.761,-12376100,-299518,5,10657530,-20579640,5654297,17871090,10488280
2026-01-14 17:14:08.771,24168690,-49822020,60162770,-57262530,6040039,-2998352,10410160
2026-01-14 17:14:08.781,23788900,-50037820,60361300,-57020840,64990230,-17785640,10146480
2026-01-14 17:14:08.791,-12657480,-3961944,106851500,-20678040,7104492,-31933590,9814453
2026-01-14 17:14:08.801,23089740,45537260,56661760,-56494310,76953130,-3696289,92822260
2026-01-14 17:14:08.811,-12780050,-5084060,106592500,-20676310,84765620,-3996582,9008789
2026-01-14 17:14:08.821,2244238,-51013200,61077730,-5593327,9296875,-37817380,86572260
2026-01-14 17:14:08.831,2214888,-5128078,6122447,-5563977,10185550,-4765625,8979492
2026-01-14 17:14:08.841,21898560,-51548360,61353940,-55354930,10683590,-53027340,91259770
2026-01-14 17:14:08.851,21648240,42586960,53915160,-55070080,11074220,-6699219,9638672
2026-01-14 17:14:08.861,-12864650,-52074890,61569730,-20488140,11826170,-7944336,97021490
2026-01-14 17:14:08.871,-12852560,-5233384,6163880,-20431170,12910160,-8857422,9824219
2026-01-14 17:14:08.881,-16230480,-11480120,102803200,-16984200,1421875,-92578130,10244140
2026-01-14 17:14:08.891,37330270,-52808580,61768260,-37661720,15068360,-10224610,10263670
2026-01-14 17:14:08.901,20785080,-53015740,61802790,-53861650,15498050,-10458980,11123050
2026-01-14 17:14:08.911,20672870,-14276790,100766200,-53680390,1640625,-10039060,12480470
2026-01-14 17:14:08.921,20586540,-14975960,100256900,-53525010,17548830,-8852539,13359380
2026-01-14 17:14:08.931,-16082450,-15571540,99816690,-16821490,17666020,-85839840,13798830
2026-01-14 17:14:08.941,-12747260,-5355954,6193228,-20122160,17958980,-79248050,14306640
2026-01-14 17:14:08.951,20405280,-53619960,61958160,-53240170,18193360,-7324219,14384770
2026-01-14 17:14:08.961,20379380,-1611532,9949730,-53214270,17988280,-66552740,14599610
2026-01-14 17:14:08.971,-12729990,-5361996,6199270,-20087630,18007810,-6044922,14550780
2026-01-14 17:14:08.981,20388020,36342800,47902340,-53205640,17666020,-55810550,14833980
2026-01-14 17:14:08.991,-1271703,36603480,48159560,-2008330,17861330,-47021480,15175780
2026-01-14 17:14:09.001,35243130,37038510,48587700,-38523160,17910160,-38427740,15625
2026-01-14 17:14:09.011,-16022020,-14544370,100861100,-16761070,18125,-25854490,15625
2026-01-14 17:14:09.021,20638340,37824860,49355050,-53421430,18085940,-11352540,16132810
2026-01-14 17:14:09.031,20724650,-1365529,10152570,-53507750,18212890,-4257202,16523440
2026-01-14 17:14:09.041,-12669570,-53084800,61958160,-20113530,17636720,-16448980,16777340
2026-01-14 17:14:09.051,35683340,-1255907,10232850,-38963380,17353520,-50872800,17158200
2026-01-14 17:14:09.061,21018130,39666860,51138360,-53853020,17021480,-11816410,171875
2026-01-14 17:14:09.071,-12687700,-1126433,10327800,-20198980,1671875,-1427002,17177730
2026-01-14 17:14:09.081,-12710140,-52497840,61854580,-20245590,16367190,-20507810,17070310
2026-01-14 17:14:09.091,-12741210,4202504,5344129,-20300840,16240230,-27612300,16464840
2026-01-14 17:14:09.101,3626169,-56480500,57457600,-3957626,15087890,-36889650,15732420
2026-01-14 17:14:09.111,21397920,-671542,5,10701550,-54681660,14091800,-36816410,15068360
2026-01-14 17:14:09.121,36488680,-51574250,61915000,-39832590,13603520,-29541020,15117190
2026-01-14 17:14:09.131,-12968230,47854860,59177900,-20626250,12568360,-2199707,14970700
2026-01-14 17:14:09.141,36730370,-50926880,62027220,-40108810,11660160,-16113280,14765630
2026-01-14 17:14:09.151,-13139990,-50564350,62096270,-20851540,1046875,-10083010,13828130
2026-01-14 17:14:09.161,-13228900,381520,5,11616510,-20969790,9243164,-92041020,12958980
2026-01-14 17:14:09.171,37138650,6396068,118417900,-40580960,7861328,-7098389,12021480
2026-01-14 17:14:09.181,-13421390,59413540,70579470,-21226150,63964840,-4272461,10712890
2026-01-14 17:14:09.191,-13507700,62021170,73150850,-21346990,5444336,-46203610,9448242
2026-01-14 17:14:09.201,21872670,64630520,75720500,-56900000,40722660,-8239746,82910160
2026-01-14 17:14:09.211,2200214,1751367,12801640,-5718484,26098630,-6530762,6660156
2026-01-14 17:14:09.221,-13670850,2014634,13021750,-21632700,10192870,-9509277,58251950
2026-01-14 17:14:09.231,-13682070,2268405,13234080,-21690540,-3515625,-7457733,48876950
2026-01-14 17:14:09.241,22589100,-53815900,55409310,-57978960,-13146970,12109380,3942871
2026-01-14 17:14:09.251,22856670,76043330,86922690,-58229270,-15930180,28125,33740230
2026-01-14 17:14:09.261,-13569850,-45868720,62493320,-21733690,-18115230,46435550,28295900
2026-01-14 17:14:09.271,23486790,79107570,89900610,-58704020,-25927730,54785160,28710940
2026-01-14 17:14:09.281,-17125840,-45178180,62320690,-17953280,-30664060,6796875,32104490
2026-01-14 17:14:09.291,-13304860,33119730,140204300,-21636150,-30859380,8066406,4020996
2026-01-14 17:14:09.301,-13208190,-44573960,62096270,-21594730,-28833010,8925781,3701172
2026-01-14 17:14:09.311,24867850,-5312705,5312883,-59532660,-32641600,8330078,34057620
2026-01-14 17:14:09.321,25195860,-52036920,53821950,-59722560,-31860350,72216800,29296880
2026-01-14 17:14:09.331,25489330,-4373667,6175962,-59895180,-32739260,59277340,24511720
2026-01-14 17:14:09.341,-12860330,3848865,14363970,-21441940,-33325200,5136719,13562010
2026-01-14 17:14:09.351,-16685720,8685795,9734199,-17547510,-37036130,49145510,-18463140
2026-01-14 17:14:09.361,26153970,4094870,14549550,-60352660,-42895510,5180664,-10681150
2026-01-14 17:14:09.371,26309340,4229524,14656580,-60473510,-5419922,5522461,-20385740
2026-01-14 17:14:09.381,26430190,4371083,14773970,-60594360,-6298828,61279300,-31103520
2026-01-14 17:14:09.391,-12720500,4503145,14883600,-21443670,-7441406,6489258,-43774420
2026-01-14 17:14:09.401,26611450,4643844,15001850,-60810140,-8671875,62402340,-5541992
2026-01-14 17:14:09.411,26680500,4765550,15104570,-60913730,-9897461,56689450,-58691410
2026-01-14 17:14:09.421,-12746390,4878623,15198650,-21521350,-10527340,50878900,-63378900
2026-01-14 17:14:09.431,26792720,4982206,15284970,-61112260,-109375,43652340,-67089840
2026-01-14 17:14:09.441,-12784370,5059889,15345390,-21586950,-11123050,3100586,-7241211
2026-01-14 17:14:09.451,-1280420,-50332160,52384770,-2161892,-11210940,24328610,-75341800
2026-01-14 17:14:09.461,26887670,-40991820,61604260,-61362580,-11083980,22753910,-7607422
2026-01-14 17:14:09.471,2689633,-40905500,61587000,-6144028,-1078125,23986820,-7675781
2026-01-14 17:14:09.481,-12886230,5237702,15478320,-21726790,-10224610,18396000,-77246100
2026-01-14 17:14:09.491,-12918160,-40784660,61535210,-21763910,-9536133,9692383,-78808590
2026-01-14 17:14:09.501,-12968230,-40732870,61517940,-21817420,-91796870,23788450,-7651367
2026-01-14 17:14:09.511,-13028650,-40698340,61500680,-21877840,-9316406,-5987549,-72558590
2026-01-14 17:14:09.521,42484240,-4067243,6149203,-45990420,-9448242,-8227539,-6586914
2026-01-14 17:14:09.531,26602820,-40646550,61500680,-61820060,-9580078,-10418700,-66259770
2026-01-14 17:14:09.541,-13293640,-40620660,61509320,-22130750,-95410160,-8502197,-6582031
2026-01-14 17:14:09.551,42368580,5356819,15566360,-45933460,-9785156,-15686040,-6591797
2026-01-14 17:14:09.561,-13534460,-40568870,61509310,-22356040,-9770508,-17089840,-6645508
2026-01-14 17:14:09.571,-13669120,-40551610,61526580,-22480330,-9511719,-23242190,-5932617
2026-01-14 17:14:09.581,-13821900,-4053434,6152659,-22621030,-94970700,-2536621,-56689450
2026-01-14 17:14:09.591,2554978,-40534340,61543840,-6230344,-9814453,-26635740,-46166990
2026-01-14 17:14:09.601,-14147310,-40534340,61543840,-22917100,-10351560,-23815920,-32421880
2026-01-14 17:14:09.611,41901600,5399115,15610380,-45640840,-10712890,-16796880,-18322750
2026-01-14 17:14:09.621,-14492580,-40568870,61578370,-23227840,-10712890,-11694340,-55267340
2026-01-14 17:14:09.631,-18588400,5395661,15613840,-19460020,-10517580,-37109380,20706180
2026-01-14 17:14:09.641,24280900,-4062063,6161288,-62674590,-10595700,6274414,111206100
2026-01-14 17:14:09.651,41429450,5372356,15602610,-45301620,-103125,21435550,20422360
2026-01-14 17:14:09.661,23719840,-40706970,61664680,-62786800,-99902340,35668940,2878418
2026-01-14 17:14:09.671,41161000,-40741500,61699200,-45103960,-90283200,5698242,3486328
2026-01-14 17:14:09.681,23115620,5344736,15595710,-62907640,-79052740,71533200,45581060
2026-01-14 17:14:09.691,-15789060,5332649,15590530,-24365490,-7963867,66845700,5161133
2026-01-14 17:14:09.701,-15984130,-40870980,61794160,-24532950,-78759770,51953120,6074219
2026-01-14 17:14:09.711,22157510,5332652,15607790,-63054380,-7993164,25708010,6489258
2026-01-14 17:14:09.721,-16384640,5336103,15621610,-24874760,-7910156,29968260,6582031
2026-01-14 17:14:09.731,21484240,-4099179,6198404,-63088910,-75927740,-19433590,65478520
2026-01-14 17:14:09.741,21138970,5367178,15676850,-63088910,-74609380,-36279300,6333008
2026-01-14 17:14:09.751,20810970,-41078140,62173960,-63071640,-734375,-42163090,6152344
2026-01-14 17:14:09.761,-17101070,-41138560,62286160,-25453080,-69970700,-43798830,5473633
2026-01-14 17:14:09.771,2018088,-41198980,62398370,-6297672,-640625,-32006840,4465332
2026-01-14 17:14:09.781,-17370380,5418967,15797690,-25649880,-66503900,-28564450,40161130
2026-01-14 17:14:09.791,3907301,5418102,15815820,-4339402,-67578130,-23803710,34936520
2026-01-14 17:14:09.801,-17557690,-41475190,62691850,-25773320,-7241211,-18579100,4033203
2026-01-14 17:14:09.811,19240010,-51111590,53228080,-62657330,-7246094,-10180660,41992190
2026-01-14 17:14:09.821,-17641420,5313659,15764890,-25810430,-70996100,41503900,47705080
2026-01-14 17:14:09.831,-21318340,5245470,15712240,-22133510,-65527340,3942871,5180664
2026-01-14 17:14:09.841,-17638830,-51361920,53443880,-25778500,-6040039,5239868,5917969
2026-01-14 17:14:09.851,18981060,-51430960,53495660,-62346590,-5463867,51727300,70947260
2026-01-14 17:14:09.861,38474830,4985657,15488680,-42801020,-46191410,9613037,796875
2026-01-14 17:14:09.871,38480870,-42416050,62700490,-42794980,-3642578,24926760,8666992
2026-01-14 17:14:09.881,19136420,4795761,15316040,-62139420,-26049800,41674800,8847656
2026-01-14 17:14:09.891,-17349660,-42666370,62605540,-25480700,-14245610,61083980,88427740
2026-01-14 17:14:09.901,1934361,-42778580,62562380,-6201860,-390625,6953125,8803711
2026-01-14 17:14:09.911,-17171850,4543715,15084720,-25313250,-13076780,6118164,81152340
2026-01-14 17:14:09.921,-17074310,-42994370,62467420,-25220890,-19744870,41796880,72998050
2026-01-14 17:14:09.931,-20636430,4390934,14944020,-21451610,-24642940,23364260,64746100
2026-01-14 17:14:09.941,-16861980,4317565,14879280,-25018910,-5343628,11450200,6123047
2026-01-14 17:14:09.951,1997370,4244194,14814540,-6161289,-58685300,105651900,59375
2026-01-14 17:14:09.961,38740680,-43460480,62346580,-42880440,-4815674,13330080,55908200
2026-01-14 17:14:09.971,-16487360,-43607220,62320690,-24651200,-53375240,15161130,4975586
2026-01-14 17:14:09.981,20405280,3959353,14564220,-61267620,-9729004,11566160,49902340
2026-01-14 17:14:09.991,-16216320,-52160340,53991980,-24387070,-125,52124020,5175781
2026-01-14 17:14:10.001,-16085130,3741832,14367420,-24259320,-10803220,9313965,5024414
2026-01-14 17:14:10.011,-15952200,3616673,14250900,-24133300,-50689700,10870360,47851560
2026-01-14 17:14:10.021,21026760,3501010,14142130,-60870570,-38726810,4486084,4050293
2026-01-14 17:14:10.031,-15693240,81770440,92416740,-23891610,-546875,-6713867,30859380
2026-01-14 17:14:10.041,21372030,3262776,13914260,-60715200,-7507324,-15979000,26416020
2026-01-14 17:14:10.051,2156195,-44798390,61751000,-6064617,-12854000,-28125,23901370
2026-01-14 17:14:10.061,-15295330,3025403,13685520,-23529940,-18457030,-40625,23962400
2026-01-14 17:14:10.071,-15159810,2894202,13557770,-23406510,-24365230,-42895510,24768070
2026-01-14 17:14:10.081,22148870,2763865,13429160,-60456250,-2548828,-41381840,28051760
2026-01-14 17:14:10.091,39461430,-52547040,54140450,-43264540,-25830080,-33520510,3395996
2026-01-14 17:14:10.101,-14742900,2492828,13165030,-23029310,-25976560,-23522950,38476560
2026-01-14 17:14:10.111,22735840,-45687450,61051830,-60266360,-2376709,-15454100,37304690
2026-01-14 17:14:10.121,-14487400,2206257,12881910,-22801430,-27172850,-140625,3449707
2026-01-14 17:14:10.131,2311563,-4597230,6080152,-6016277,-24621580,-13500980,29833980
2026-01-14 17:14:10.141,23288260,1937814,12615190,-60128240,-2607422,-2298584,2763672
2026-01-14 17:14:10.151,-14130050,1816968,12494350,-22485510,-29003910,-29370120,31298830
2026-01-14 17:14:10.161,-14029060,17038920,123830000,-22396600,-3161621,-31103520,35742190
2026-01-14 17:14:10.171,-13920300,-46455670,60335410,-22298210,-3618164,-28344730,41015620
2026-01-14 17:14:10.181,40139020,-46541990,60249090,-43743600,-41210940,-21179200,36328120
2026-01-14 17:14:10.191,24073740,14276790,121067900,-59929720,-48168940,-1394043,29223630
2026-01-14 17:14:10.201,24220480,-46705990,60085090,-59886560,-56347660,-9667969,23486330
2026-01-14 17:14:10.211,24384480,1281807,11959180,-59843400,-6459961,-15063480,17163090
2026-01-14 17:14:10.221,-13407580,1213615,11889270,-21844180,-7421875,-27783200,12792970
2026-01-14 17:14:10.231,-13288460,11454240,118193500,-21738870,-83447260,-40063480,11291500
2026-01-14 17:14:10.241,24936910,1077236,11749430,-59705290,-90771490,-5180664,59021000
2026-01-14 17:14:10.251,-13006210,999548,5,11671750,-21485960,-98095700,-6230469,-37078860
2026-01-14 17:14:10.261,25377120,57070900,67743100,-59558550,-10302730,-765625,-11505130
2026-01-14 17:14:10.271,-12663530,-47232520,59506760,-21172630,-109375,-8901367,-10040280
2026-01-14 17:14:10.281,25886390,677588,5,11354970,-59342760,-11591800,-94873050,-48919680
2026-01-14 17:14:10.291,-12244890,-47534620,59308230,-20779900,-12373050,-9086914,74523930
2026-01-14 17:14:10.301,26456080,393607,11086520,-58997500,-12412110,-7446289,17785640
2026-01-14 17:14:10.311,26784090,-47948950,59083810,-58790340,-12636720,-49243160,21899410
2026-01-14 17:14:10.321,27137990,48503970,59219330,-58557280,-12763670,-2265625,22143560
2026-01-14 17:14:10.331,-11108100,-176085,5,10551360,-19689710,-12548830,-34729000,22802730
2026-01-14 17:14:10.341,-10773190,-406551,10332980,-19368610,-12470700,6311035,22045900
2026-01-14 17:14:10.351,-10420160,-4901927,5849687,-19031120,-12255860,13900760,2619629
2026-01-14 17:14:10.361,42988840,-883881,5,9878086,-43276110,-11728520,-11004640,38134770
2026-01-14 17:14:10.371,-13568470,-11221180,96502120,-14432680,-11103520,-26391600,48168940
2026-01-14 17:14:10.381,-9300628,34918580,45701260,-17958200,-10957030,-40942380,515625
2026-01-14 17:14:10.391,4333503,32669160,43462210,-4336151,-10566410,-51660160,5185547
2026-01-14 17:14:10.401,3053024,-1811788,8993342,-5628715,-10107420,-53222660,4819336
2026-01-14 17:14:10.411,-8151751,28341240,39158460,-16845570,-9946289,-44995120,44458010
2026-01-14 17:14:10.421,-7749517,26263590,37092890,-16453700,-103125,-2944336,42749020
2026-01-14 17:14:10.431,31859510,-24513960,83899880,-55268610,-10859380,-1307373,37719730
2026-01-14 17:14:10.441,-6928643,-51496570,57038110,-15651820,-11855470,76049810,38598630
2026-01-14 17:14:10.451,-6491017,20291340,31153440,-15226270,-12451170,34472660,34375
2026-01-14 17:14:10.461,33344160,-30702870,78004450,-54146500,-12607420,6352539,31274410
2026-01-14 17:14:10.471,33896590,-32895310,75881050,-53766700,-13115230,90625,2475586
2026-01-14 17:14:10.481,34474910,-3524311,7356775,-53361010,-13144530,10644530,16601560
2026-01-14 17:14:10.491,-4531629,-3767725,7116816,-13335940,-13154300,12236330,6341553
2026-01-14 17:14:10.501,-79659130,8713680,19598220,-88485880,-13105470,1265625,-15640260
2026-01-14 17:14:10.511,-74209090,-43020260,65807890,-83060010,-12919920,12246090,-16833500
2026-01-14 17:14:10.521,-68587290,3018500,13899590,-77460650,-12929690,11230470,-22180180
2026-01-14 17:14:10.531,-2276170,48076700,58956060,-11171970,-13330080,10908200,-3017578
2026-01-14 17:14:10.541,38454120,-33663530,75095570,-50711090,-13652340,10722660,-38720700
2026-01-14 17:14:10.551,39161900,-6817294,4055159,-50193180,-14287110,10839840,-48364260
2026-01-14 17:14:10.561,-416912,-56361380,-45492380,-9371411,-15195310,10976560,-59033200
2026-01-14 17:14:10.571,-38068280,-14495170,-3631343,-47040040,-15957030,10996090,-7363281
2026-01-14 17:14:10.581,886475,3,-67586010,41000450,-8102556,-17158200,109375,-8671875
2026-01-14 17:14:10.591,15588810,-23206250,-12356240,-74456820,-18203120,10078130,-9941406
2026-01-14 17:14:10.601,-18191250,-76821900,31591930,-27211360,-19501950,84814460,-10332030
2026-01-14 17:14:10.611,29373590,-5690861,5138435,-60965520,-20410160,68408200,-10351560
2026-01-14 17:14:10.621,36425670,-8713673,2101811,-54034280,-21132810,5258789,-10341800
2026-01-14 17:14:10.631,-12734310,-9275596,1524354,-21792390,-22128910,41333010,-10507810
2026-01-14 17:14:10.641,98858570,-9870320,910637,8174192,-228125,29785160,-10732420
2026-01-14 17:14:10.651,58065270,-56653130,-45891160,-32688150,-23300780,1842041,-10693360
2026-01-14 17:14:10.661,24564880,-11170250,-430721,7,15486090,-24023440,52764890,-10517580
2026-01-14 17:14:10.671,48156110,-70527690,-59810600,-42649110,-23867190,-7562256,-95166020
2026-01-14 17:14:10.681,39496820,-60715200,46196720,30419740,-23867190,-1829834,-8354492
2026-01-14 17:14:10.691,46916600,-13360110,-2694811,37846440,-22558590,-29516600,-67529300
2026-01-14 17:14:10.701,5026226,-62009950,44366810,-4031858,-21347660,-3515625,-546875
2026-01-14 17:14:10.711,61403140,-14937120,-4328787,52362330,-20214840,-38305660,-41577150
2026-01-14 17:14:10.721,51487940,-15742450,-5163470,-38730320,-18798830,-4399414,-31079100
2026-01-14 17:14:10.731,115336400,-16546920,-5999019,25359860,-17597660,-5361328,-2064209
2026-01-14 17:14:10.741,5250647,-17343620,-6825065,-3721115,-16640630,-5595703,-84472660
2026-01-14 17:14:10.751,12688560,-53725260,51149570,3746145,-15292970,-625,1360321
2026-01-14 17:14:10.761,1320905,-18874880,-8418472,429597,6,-14179690,-61816410,1739502
2026-01-14 17:14:10.771,53645860,-19610300,-9184967,-35174070,-13046880,-54589840,32739260
2026-01-14 17:14:10.781,14110200,-20312060,-9916068,5259279,-12919920,-41674800,5493164
2026-01-14 17:14:10.791,45099640,-20987910,-10621280,-43081550,-12900390,-22875980,75634770
2026-01-14 17:14:10.801,14855110,-68155700,35217230,6068063,-12890630,-5810547,95947260
2026-01-14 17:14:10.811,15167580,-68656340,34423120,6411605,-12861330,110839800,11679690
2026-01-14 17:14:10.821,15453290,-69139710,33646260,6730114,-12099610,20031740,13603520
2026-01-14 17:14:10.831,54811130,-23485920,-13233220,-32092570,-10654300,17712400,16054690
2026-01-14 17:14:10.841,15921130,-70080570,32187510,7263552,-9355469,14611820,17861330
2026-01-14 17:14:10.851,54914710,-24619260,-14413170,-31298450,-8432617,-13132100,19130860
2026-01-14 17:14:10.861,16289690,-7099553,3087549,7706358,-7783203,-18933100,19628910
2026-01-14 17:14:10.871,16441610,-7144437,3027127,7899709,-7133789,-29736330,19785160
2026-01-14 17:14:10.881,5481116,-52913890,48698180,-3015910,-62841800,-36108400,19560550
2026-01-14 17:14:10.891,5471619,-7231617,2922685,-2977065,-515625,-31835940,19619140
2026-01-14 17:14:10.901,12652860,-27069790,-16917220,12568890,-37939450,-19262700,20253910
2026-01-14 17:14:10.911,16912040,-27476350,-17322040,8568662,-3425293,-7293701,21386720
2026-01-14 17:14:10.921,5429323,-27867360,-17707880,-2858812,-2644043,-7545471,23007810
2026-01-14 17:14:10.931,17072590,-28233340,-18066960,8839696,-22729490,19088740,24003910
2026-01-14 17:14:10.941,53947970,-53216000,48516910,-27845780,-25341800,-8508301,24667970
2026-01-14 17:14:10.951,53758070,-5329108,4852811,-27500510,-36816410,-25219730,24960940
2026-01-14 17:14:10.961,17244360,-24634970,-23616090,9168564,-40551760,-45336910,25292970
2026-01-14 17:14:10.971,17288380,-53429200,48545400,9262648,-33447270,-56591800,25722660
2026-01-14 17:14:10.981,53231540,-29797400,-19593040,-26525140,-23925780,-72753900,26464840
2026-01-14 17:14:10.991,17385920,-53562130,48567840,9458587,-9307861,-91015620,27304690
2026-01-14 17:14:11.001,5288628,-76329900,25869130,-2590369,-31414030,-10244140,28300780
2026-01-14 17:14:11.011,13934720,-30603600,-20375070,13151480,11352540,-11054690,29453120
2026-01-14 17:14:11.021,17487770,-76908220,25463440,9701999,26220700,-12158200,30644530
2026-01-14 17:14:11.031,40076860,-7716715,2529079,-37349260,81103520,-10527340,34414060
2026-01-14 17:14:11.041,17533520,-31230260,-20974110,9828887,15957030,15612790,38554690
2026-01-14 17:14:11.051,17550780,-77572860,25092280,9880674,20605470,16113280,41601560
2026-01-14 17:14:11.061,17536110,-7772823,2504048,9895351,22148440,24882810,44648440
2026-01-14 17:14:11.071,51781420,-31581570,-21296070,-24419010,21679690,28671880,47148440
2026-01-14 17:14:11.081,17415260,-31645440,-21353040,9809033,20839840,27285160,49375
2026-01-14 17:14:11.091,17334990,-31673930,-21376340,9733938,20625,21132810,51914060
2026-01-14 17:14:11.101,51436150,-78038970,25023220,-24539850,20605470,15341800,521875
2026-01-14 17:14:11.111,5138435,-31605740,-21289160,-2457439,19912110,10849610,50507810
2026-01-14 17:14:11.121,17216740,-54286320,49017550,9627768,18847660,91845700,45390620
2026-01-14 17:14:11.131,51375730,-31389940,-21038840,-24358590,19072270,8911133,41367190
2026-01-14 17:14:11.141,51427520,-31245800,-20872250,-24082370,18203120,8774414,38085940
2026-01-14 17:14:11.151,51487940,-77918120,26093550,-23676690,16035160,61376950,35351560
2026-01-14 17:14:11.161,17960790,-30989440,-20558920,10489210,13945310,3239746,35898440
2026-01-14 17:14:11.171,18345760,-26184960,-25138970,10932880,13808590,10992430,37382810
2026-01-14 17:14:11.181,18829130,-30811620,-20322420,11485310,15478520,1348877,39238280
2026-01-14 17:14:11.191,19410910,-78073500,27043040,12146490,17197270,33032230,40039060
2026-01-14 17:14:11.201,20083320,-78159820,27129350,12906940,17832030,6040039,39707030
2026-01-14 17:14:11.211,5270500,-7826339,2709483,-1810926,17753910,85791020,38242190
2026-01-14 17:14:11.221,21667230,-30987710,-20457070,14689380,17216800,10214840,36835940
2026-01-14 17:14:11.231,53481860,-31187100,-20672000,-15209010,1703125,11513670,35136720
2026-01-14 17:14:11.241,2352217,-31457270,-20971520,1677047,18886720,12333980,32910160
2026-01-14 17:14:11.251,21241170,-78789920,25670600,21174870,22382810,13525390,30195310
2026-01-14 17:14:11.261,34728680,-7894528,2498005,-30267830,27285160,14306640,26777340
2026-01-14 17:14:11.271,26607140,-54396810,48907060,20245590,32988280,15078130,23046880
2026-01-14 17:14:11.281,33521970,-7925602,2332277,-28608820,38027340,16386720,18710940
2026-01-14 17:14:11.291,55976410,-53752890,48049080,-4600686,42539060,17441410,14228520
2026-01-14 17:14:11.301,56269880,-34138270,-24039220,-2667188,46015620,17324220,91796870
2026-01-14 17:14:11.311,30733080,-7973079,2041390,25010280,48046880,16289060,3959961
2026-01-14 17:14:11.321,30614820,-79868880,19412630,-24835060,484375,13662110,-14013670
2026-01-14 17:14:11.331,29816390,-7998108,1845450,-23838100,47539060,10390630,-65527340
2026-01-14 17:14:11.341,56744620,-36145140,-26382720,4920054,46445310,6977539,-11640630
2026-01-14 17:14:11.351,28172060,-36545640,-26862630,-21822600,44960940,38671880,-16210940
2026-01-14 17:14:11.361,56710100,-36880560,-27270050,8545356,43046880,13134770,-20683590
2026-01-14 17:14:11.371,56649680,-37140370,-27597190,10314850,41796880,-7336426,-24238280
2026-01-14 17:14:11.381,56580630,-79981100,14829210,12023920,40664060,-21704100,-27929690
2026-01-14 17:14:11.391,56520200,-33168160,-32225410,13689840,3984375,-31298830,-30234380
2026-01-14 17:14:11.401,24165230,-37421760,-28040860,-16990590,39492190,-39697260,-32460940
2026-01-14 17:14:11.411,56399360,-79402780,14009210,16831760,39238280,-42407230,-33828120
2026-01-14 17:14:11.421,22757410,-33049820,-32119320,-15291010,38417970,-52001950,-35097660
2026-01-14 17:14:11.431,5633893,-37048870,-27775000,1970610,37851560,-58203120,-36503900
2026-01-14 17:14:11.441,56330300,-78436030,14043730,21044020,36328120,-6347656,-37539060
2026-01-14 17:14:11.451,56347570,-7803898,1418182,22304250,34941410,-7109375,-38339840
2026-01-14 17:14:11.461,20429450,-7763328,1436310,-12439970,33867190,-82470700,-39511720
2026-01-14 17:14:11.471,56433880,-7719308,1456161,24652060,32832030,-94091800,-40390620
2026-01-14 17:14:11.481,56502940,-35555600,-26402570,25756920,32148440,-11054690,-41367190
2026-01-14 17:14:11.491,19067370,-35198240,-26069380,-10729170,31152340,-1203125,-4234375
2026-01-14 17:14:11.501,56692840,-75803370,15226270,27776730,29824220,-12695310,-42929690
2026-01-14 17:14:11.511,5680506,-75328620,15424800,2871755,27226560,-14238280,-42382810
2026-01-14 17:14:11.521,56934530,-48183730,42258950,29623910,24394530,-16005860,-41210940
2026-01-14 17:14:11.531,17671630,-33824940,-24818650,-8913932,20273440,-17646480,-38984380
2026-01-14 17:14:11.541,57253900,-47720210,41911090,31341610,16679690,-20214840,-36035160
2026-01-14 17:14:11.551,57443790,-33258710,-24349090,32187510,13320310,-22207030,-33789060
2026-01-14 17:14:11.561,5763368,-33021330,-24172140,3303340,10166020,-23027340,-32636720
2026-01-14 17:14:11.571,16558140,-32814170,-24034030,-7386124,7368164,-23105470,-32519530
2026-01-14 17:14:11.581,58013480,-32655350,-23951170,34759750,48999020,-23066410,-32910160
2026-01-14 17:14:11.591,15947880,-713235,148550,4,-6563526,27563480,-225,-32851560
2026-01-14 17:14:11.601,15612110,-32479260,-23954620,-6122448,5026245,-21699220,-32910160
2026-01-14 17:14:11.611,15249580,-32463730,-24039210,-5656338,-18041990,-20976560,-32792970
2026-01-14 17:14:11.621,5849686,-69925200,13249620,3843682,-26123050,-20957030,-31835940
2026-01-14 17:14:11.631,58540010,-32586300,-24382760,39360430,-40527340,-21015620,-32050780
2026-01-14 17:14:11.641,58557280,-32716640,-24632210,40275390,-43945310,-209375,-32363280
2026-01-14 17:14:11.651,136768900,-32905670,-24943820,-37073040,-5385742,-21308590,-32089840
2026-01-14 17:14:11.661,13276380,-39471360,38886990,-3227385,-65722660,-21445310,-32207030
2026-01-14 17:14:11.671,51389540,-41497640,35583220,49825480,-88134770,-21074220,-32285160
2026-01-14 17:14:11.681,5835011,-33748980,-26172100,4352089,-10976560,-20273440,-32128910
2026-01-14 17:14:11.691,121654800,-34114100,-26670150,-19214110,-13291020,-19716800,-32519530
2026-01-14 17:14:11.701,11853010,-34513750,-27202720,-1560608,-14794920,-19228520,-32675780
2026-01-14 17:14:11.711,11588890,-67249380,4531632,-1255048,-16523440,-17900390,-33125
2026-01-14 17:14:11.721,113800000,-67111260,3340455,-10150850,-18789060,-16035160,-32714840
2026-01-14 17:14:11.731,57970320,-67016320,2140654,45920510,-21855470,-13603520,-31132810
2026-01-14 17:14:11.741,64328420,-66955900,923585,4,-53925520,-24921880,-12070310,-28789060
2026-01-14 17:14:11.751,6381396,-36934940,-30271280,-5340419,-27167970,-9790039,-26640620
2026-01-14 17:14:11.761,11073570,-37469230,-30928150,-665503,6,-28535160,-7919922,-25234380
2026-01-14 17:14:11.771,111391800,-66912740,-2675825,-7380086,-29335940,-5600586,-25898440
2026-01-14 17:14:11.781,52553090,-35079130,28001150,51337750,-29921880,4586792,-29902340
2026-01-14 17:14:11.791,11468040,-39076450,-32877180,-1099677,-31191410,12919920,-3453125
2026-01-14 17:14:11.801,11721810,-67050840,-6076701,-1381071,-31738280,23671880,-36738280
2026-01-14 17:14:11.811,58401910,-33736040,26305890,44608490,-29882810,29511720,-36640620
2026-01-14 17:14:11.821,78322090,-6734430,-814833,7,-68071110,-26796880,31601560,-35214840
2026-01-14 17:14:11.831,58781700,-33061040,25392660,43123840,-25039060,32089840,-32851560
2026-01-14 17:14:11.841,89132390,-67836330,-10004110,-79012620,-25292970,3265625,-29550780
2026-01-14 17:14:11.851,59247820,-6814709,-1081551,41138560,-26542970,30097660,-23730470
2026-01-14 17:14:11.861,59515400,-32475810,24475970,40007810,-28105470,24746090,-1609375
2026-01-14 17:14:11.871,5980024,-6881171,-1211887,3880801,-29335940,19121090,-8852539
2026-01-14 17:14:11.881,60110980,-43688360,-38036340,37599580,-29941410,13759770,-2758789
2026-01-14 17:14:11.891,16865430,-32336840,24097040,-7182419,-28769530,9370117,17297360
2026-01-14 17:14:11.901,60758360,-69692140,-13258260,35208600,-25136720,56152340,6147461
2026-01-14 17:14:11.911,6105183,-6995973,-1343952,3406922,-19345700,15588380,9663086
2026-01-14 17:14:11.921,61328050,-32518970,24139340,32964360,-13349610,-75805660,11650390
2026-01-14 17:14:11.931,61552470,-44905420,-39218880,31928560,-8383789,44555660,15087890
2026-01-14 17:14:11.941,61725100,-45081510,-39370800,30944550,-35791020,19372560,17685550
2026-01-14 17:14:11.951,16375930,-32922930,24443180,-15457690,9338379,40429690,20566410
2026-01-14 17:14:11.961,20922320,-29255760,28403820,-11826260,46020510,7807617,22734380
2026-01-14 17:14:11.971,21283120,-71789630,-13836570,-12276830,77197260,11455080,23554690
2026-01-14 17:14:11.981,17579530,-33429610,24816930,-16688220,9663086,15078130,23671880
2026-01-14 17:14:11.991,61543840,-33593620,24929140,26637350,11064450,17861330,24335940
2026-01-14 17:14:12.001,61371210,-33758480,25040480,25877760,12822270,19501950,24765620
2026-01-14 17:14:12.011,44960670,-33912990,25144930,41356080,14921880,22578120,25292970
2026-01-14 17:14:12.021,18709070,-47056440,-41124750,-17854710,16826170,24628910,25566410
2026-01-14 17:14:12.031,22742740,-7410292,-1456164,-14287150,18125,25371090,27324220
2026-01-14 17:14:12.041,19158000,-74439560,-14673850,-18320730,18652340,23847660,28945310
2026-01-14 17:14:12.051,60421720,-74750300,-14777430,22528670,19072270,2046875,31035160
2026-01-14 17:14:12.061,43034080,-34575900,25586870,39208520,18896480,17568360,32402340
2026-01-14 17:14:12.071,60093710,-48124170,-42094080,21527400,19326170,12871090,33789060
2026-01-14 17:14:12.081,23460030,-48276950,-42234780,-15347980,19501950,77783200,34746100
2026-01-14 17:14:12.091,23509230,-75622100,-15131330,-15436890,20390620,26782230,35898440
2026-01-14 17:14:12.101,59713930,-34802050,25705990,20733280,21894530,-17993160,36582030
2026-01-14 17:14:12.111,23471250,-48598920,-42551560,-15440340,23710940,-55322260,37011720
2026-01-14 17:14:12.121,42073370,-34767520,25636930,38201200,25429690,-8598633,37460940
2026-01-14 17:14:12.131,59377290,-7585517,-1560609,20966340,26953120,-10810550,37773440
2026-01-14 17:14:12.141,59256450,-34611290,25447900,21242550,28261720,-1203125,37792970
2026-01-14 17:14:12.151,22783300,-3448267,2530029,-14712690,28945310,-12822270,37558590
2026-01-14 17:14:12.161,58945700,-34329900,25125080,22036660,29707030,-12978520,36679690
2026-01-14 17:14:12.171,58747180,-75682530,-16624610,22528660,30488280,-1265625,35410160
2026-01-14 17:14:12.181,42584360,-7559623,-1698716,39036750,31074220,-12333980,34023440
2026-01-14 17:14:12.191,21431590,-7550125,-1741009,-13233220,31796880,-12421880,32675780
2026-01-14 17:14:12.201,21026760,-49494880,-43744460,-12792140,32578120,-12509770,31367190
2026-01-14 17:14:12.211,16891580,-49644210,-43957670,-16064150,33847660,-12861330,29960940
2026-01-14 17:14:12.221,57599160,-32795190,23397020,25523860,34804690,-12792970,28203120
2026-01-14 17:14:12.231,57357480,-32443010,23006860,26179870,35703120,-12099610,26152340
2026-01-14 17:14:12.241,15164680,-32081340,22608950,-15080710,36816410,-11425780,24023440
2026-01-14 17:14:12.251,18877470,-31693780,22185130,-10435700,37929690,-10263670,21738280
2026-01-14 17:14:12.261,18418270,-31279460,21736280,-9928151,39609380,-90234380,19648440
2026-01-14 17:14:12.271,17952160,-73938920,-21803610,-9410255,40390620,-7788086,18017580
2026-01-14 17:14:12.281,17462740,-30402480,20800610,-8863868,4125,-6401367,16347660
2026-01-14 17:14:12.291,5591598,-73248390,-23029310,3067694,421875,-57177740,14931640
2026-01-14 17:14:12.301,55674300,-72842700,-23659420,31574660,42851560,-51953120,13691410
2026-01-14 17:14:12.311,45123800,-7240251,-2430682,42832960,43085940,-4489746,11875
2026-01-14 17:14:12.321,55190930,-28313620,18625420,33525420,42539060,-44726560,10136720
2026-01-14 17:14:12.331,5493199,-27715440,18015170,3457848,41992190,-40771480,7675781
2026-01-14 17:14:12.341,9946623,-70779730,-26309340,-9043063,40898440,-3149414,54345700
2026-01-14 17:14:12.351,13349750,-26434500,16723870,-4224343,39277340,-21496580,29956060
2026-01-14 17:14:12.361,46898480,-69424560,-27647260,45287800,37597660,-171875,3326416
2026-01-14 17:14:12.371,119531400,-50502200,-46466040,-26343870,35996100,-17871090,-25170900
2026-01-14 17:14:12.381,69879450,-67853590,-28942010,-60458840,34023440,-20825200,-5029297
2026-01-14 17:14:12.391,53361010,-23531670,13878000,41915410,32558590,-19677730,-7338867
2026-01-14 17:14:12.401,9729624,-6604957,-3017633,-93222,08,30820310,-95581060,-96484380
2026-01-14 17:14:12.411,45786720,-65074200,-30789190,-36041560,29003910,4776001,-1171875
2026-01-14 17:14:12.421,52541000,-21102720,11559540,45998200,2765625,2553711,-13300780
2026-01-14 17:14:12.431,5224751,-62993960,-31988990,4736197,26367190,47192380,-14472660
2026-01-14 17:14:12.441,21173500,-19380700,9932467,-11108970,24902340,60546880,-15195310
2026-01-14 17:14:12.451,7905648,-18492500,9094332,-7804001,23769530,65478520,-15722660
2026-01-14 17:14:12.461,51303220,-17585310,8240659,51310120,22714840,61279300,-16855470
2026-01-14 17:14:12.471,-3456122,-5847097,-3445764,13807230,21230470,6357422,-18466800
2026-01-14 17:14:12.481,35165440,-15703610,6462533,69174240,19394530,69970700,-2046875
2026-01-14 17:14:12.491,5003782,-14727360,5539809,5509597,17216800,84375,-225
2026-01-14 17:14:12.501,-28457770,-9640805,8727400,39041930,14902340,10634770,-24394530
2026-01-14 17:14:12.511,11039910,-53619970,-37185260,95457690,12402340,13730470,-26523440
2026-01-14 17:14:12.521,-45485470,-11754620,2729337,56195660,9321289,17617190,-284375
2026-01-14 17:14:12.531,-54177570,-51116780,-38583580,64939540,6328125,21113280,-30585940
2026-01-14 17:14:12.541,-1431132,-974775,5,83468,33,12241440,30493160,24121090,-32617190
2026-01-14 17:14:12.551,-2300340,-47759050,38902960,13150350,-28564450,27285160,-34414060
2026-01-14 17:14:12.561,-3180772,-38407500,29610100,14065310,-37597660,296875,-35234380
2026-01-14 17:14:12.571,45040080,-46179460,-41190350,64081550,-58496100,30585940,-35644530
2026-01-14 17:14:12.581,-4951991,-20565830,11889270,15884870,-8046875,29277340,-35390620
2026-01-14 17:14:12.591,-10759990,-12249210,3633073,11855000,-10117190,25507810,-34921880
2026-01-14 17:14:12.601,-6706811,-4278722,-4275268,17669040,-12207030,19492190,-33945310
2026-01-14 17:14:12.611,-7547536,2746598,-11236710,18520120,-14423830,11835940,-32949220
2026-01-14 17:14:12.621,41052240,-40741510,-43486380,68759920,-16826170,4975586,-31777340
2026-01-14 17:14:12.631,40327180,15677710,-24028000,69605820,-19345700,-12188720,-30234380
2026-01-14 17:14:12.641,-9869460,-15804600,-66904110,20876570,-21503910,-6557617,-27929690
2026-01-14 17:14:12.651,-10533230,-3785854,-4402154,21559330,-21835940,-10185550,-26054690
2026-01-14 17:14:12.661,-11152990,-476469,3,-7623495,22199800,-21582030,-12441410,-24824220
2026-01-14 17:14:12.671,-16692450,36392000,-44400470,17799720,-20957030,-13486330,-25195310
2026-01-14 17:14:12.681,37720420,-35113650,-44056070,73265650,-20527340,-13857420,-25351560
2026-01-14 17:14:12.691,37383780,44769900,-52595380,73878500,-20488280,-13369140,-265625
2026-01-14 17:14:12.701,-13102880,-33447740,-43926590,24255000,-20683590,-13037110,-27246090
2026-01-14 17:14:12.711,3680546,1749640,-9402483,7495746,-2109375,-12119140,-28242190
2026-01-14 17:14:12.721,3654649,-31988990,-43762590,7544082,-22050780,-11416020,-29316410
2026-01-14 17:14:12.731,-14174940,-3135025,-4367627,25392660,-23222660,-12011720,-30390620
2026-01-14 17:14:12.741,-14469280,2686176,-10123230,25702540,-24804690,-12871090,-31542970
2026-01-14 17:14:12.751,-14747220,2931316,-10309670,25994290,-26640620,-13720700,-32050780
2026-01-14 17:14:12.761,-15009620,-29813800,-43434580,26267050,-27949220,-14990230,-32226560
2026-01-14 17:14:12.771,3545890,-29408120,-43356900,7721895,-2875,-15849610,-32597660
2026-01-14 17:14:12.781,-15457600,3504459,-10737800,26734020,-29160160,-16005860,-32382810
2026-01-14 17:14:12.791,54288050,6882290,-7601659,58545190,-29238280,-16591800,-32714840
2026-01-14 17:14:12.801,35001440,69962300,-77121420,77900860,-29863280,-16962890,-32773440
2026-01-14 17:14:12.811,34880600,3893745,-11021790,78073500,-3078125,-16796880,-33632810
2026-01-14 17:14:12.821,34802910,-27958000,-43063430,78220230,-31855470,-16347660,-34023440
2026-01-14 17:14:12.831,34751120,4100042,-11178020,78323820,-32929690,-15761720,-3484375
2026-01-14 17:14:12.841,34716590,4195854,-11254840,78410130,-33828120,-15791020,-35058590
2026-01-14 17:14:12.851,54402850,-34435210,-35999260,58775660,-33945310,-15742190,-35410160
2026-01-14 17:14:12.861,3475111,-27241570,-43072060,7847918,-33691410,-15761720,-346875
2026-01-14 17:14:12.871,-16165400,-27086200,-43141110,27493610,-32480470,-15839840,-34140620
2026-01-14 17:14:12.881,-16093760,46395250,-116570800,27427150,-30820310,-16171880,-32734380
2026-01-14 17:14:12.891,35010070,-26784090,-43374170,78358340,-29238280,-16152340,-31367190
2026-01-14 17:14:12.901,-15891780,-26611450,-43546800,27232070,-27753910,-1578125,-30429690
2026-01-14 17:14:12.911,54566850,83152370,-90171650,58853350,-26171880,-14912110,-29765620
2026-01-14 17:14:12.921,3541574,-26223030,-44038800,7798717,-24941410,-14228520,-29472660
2026-01-14 17:14:12.931,54570310,5665828,-12702370,58798100,-23496090,-1359375,-30
2026-01-14 17:14:12.941,56439750,5979158,-13027790,56859600,-22167970,-11748050,-30019530
2026-01-14 17:14:12.951,35726500,-25446180,-45178190,77452020,-20917970,-9736328,-29960940
2026-01-14 17:14:12.961,35735130,6741334,-13819310,77270750,-19101560,-77685540,-29296880
2026-01-14 17:14:12.971,3570060,7191048,-14284560,7709812,-17382810,-49853520,-28339840
2026-01-14 17:14:12.981,-15055370,7693410,-14800730,26307620,-16083980,-15405270,-2703125
2026-01-14 17:14:12.991,-15107160,-23788890,-47405160,26324880,-16005860,1394043,-25566410
2026-01-14 17:14:13.001,35096390,8839694,-15967740,76701060,-16445310,26049800,-24863280
2026-01-14 17:14:13.011,34751120,-22614990,-48717170,76632010,-17246090,42919920,-24121090
2026-01-14 17:14:13.021,-15585350,-2195036,-4939907,26675330,-17421880,5805664,-22832030
2026-01-14 17:14:13.031,-15835670,10867280,-17997040,26873860,-17236330,71728510,-20664060
2026-01-14 17:14:13.041,3329235,-20431170,-50780140,7655431,-165625,79833980,-18232420
2026-01-14 17:14:13.051,-21386790,-1959391,-5146204,22479380,-1578125,92529300,-15703130
2026-01-14 17:14:13.061,-16827450,-18713470,-52135310,27694730,-1484375,9824219,-12734380
2026-01-14 17:14:13.071,-17203790,-1778989,-5279995,28008920,-1421875,10068360,-9550781
2026-01-14 17:14:13.081,30754650,-16831770,-53430070,76675160,-13857420,10234380,-66503900
2026-01-14 17:14:13.091,-22771480,15615560,-22605490,23839560,-134375,10654300,-3635254
2026-01-14 17:14:13.101,29451270,-14829220,-54638500,76752850,-12666020,11162110,-7110596
2026-01-14 17:14:13.111,-18690170,-1381069,-5520818,29250160,-11386720,11474610,20117190
2026-01-14 17:14:13.121,-19020760,-34044270,-34473960,29523780,-99560540,11474610,44921880
2026-01-14 17:14:13.131,27681780,-31775790,-36224550,76778740,-8833008,11572270,6401367
2026-01-14 17:14:13.141,-19593900,-31441740,-36040700,29986430,-75634770,11914060,8286133
2026-01-14 17:14:13.151,-19844220,-31100790,-35846480,30184960,-6459961,12441410,9638672
2026-01-14 17:14:13.161,48924320,-8752518,-57642320,53965220,-5185547,12822270,10615230
2026-01-14 17:14:13.171,-2026633,-7785772,-58073900,3050520,-4116211,13388670,11650390
2026-01-14 17:14:13.181,25403020,2255194,-2908271,76502530,-26708980,13828130,12333980
2026-01-14 17:14:13.191,-20642650,-5904070,-58850760,30784870,-19885250,14228520,13144530
2026-01-14 17:14:13.201,-20812690,23901970,-30322210,30908300,-1274414,13789060,13779300
2026-01-14 17:14:13.211,-20982740,-4091416,-59541290,31031730,-4675293,12832030,14306640
2026-01-14 17:14:13.221,23857940,-28699460,-34363560,76183160,-14717100,11025390,14550780
2026-01-14 17:14:13.231,23478150,-2347820,-60128250,76114100,8123779,90283200,15068360
2026-01-14 17:14:13.241,-21516180,29439550,-29445730,31430520,22436520,71533200,15820310
2026-01-14 17:14:13.251,2273580,-656008,-60594360,7599326,3395996,5961914,16425780
2026-01-14 17:14:13.261,-21885610,172630,-60784250,31717090,40576170,546875,17490230
2026-01-14 17:14:13.271,-22078100,98399,5,-6093961,31869870,3605957,5073242,18193360
2026-01-14 17:14:13.281,21630980,28453450,-34385140,75906940,20031740,5678711,19013670
2026-01-14 17:14:13.291,21285700,2520444,-61181310,75906940,34118650,7158203,20585940
2026-01-14 17:14:13.301,45676230,3245508,-61267630,51171160,-95336910,8652344,21855470
2026-01-14 17:14:13.311,-22811790,3901516,-61319420,32465450,-17578120,10644530,23046880
2026-01-14 17:14:13.321,45350820,450571,3,-6137122,50909620,-14880370,12998050,24179690
2026-01-14 17:14:13.331,20042750,30405930,-36040700,75941470,-6378174,14599610,25078120
2026-01-14 17:14:13.341,-23309840,5532900,-61431620,32882370,3994751,15009770,25351560
2026-01-14 17:14:13.351,4490971,5955856,-61457520,5055659,18481440,12929690,25039060
2026-01-14 17:14:13.361,-23601590,-24187680,-30968720,33125780,23791500,88134770,24277340
2026-01-14 17:14:13.371,1905010,-24023680,-30839240,7598462,2578125,40698240,23574220
2026-01-14 17:14:13.381,-23819970,6922604,-61543840,33304450,25219730,-10046390,22421880
2026-01-14 17:14:13.391,18713470,7181550,-61561100,75976000,30126950,-5605469,21503910
2026-01-14 17:14:13.401,18618520,7423238,-61578370,75967370,38330080,-8666992,203125
2026-01-14 17:14:13.411,-23983970,7656290,-61587000,33433930,46411130,-103125,19716800
2026-01-14 17:14:13.421,4692799,-26497080,-27191930,4750251,53466800,-98583980,19296880
2026-01-14 17:14:13.431,18463150,8139664,-61569740,75932840,5576172,-8984375,18710940
2026-01-14 17:14:13.441,-24024540,8372720,-61543840,33462420,609375,-82714850,18125
2026-01-14 17:14:13.451,-24042670,860576,3,-6151793,33478810,5385742,-7705078,17861330
2026-01-14 17:14:13.461,18376830,8812938,-61466160,75967370,46289060,-74609380,17783200
2026-01-14 17:14:13.471,1832505,901146,3,-6140574,7600189,2878418,-7348633,17822270
2026-01-14 17:14:13.481,-24173870,-22569240,-29617860,33606560,14440920,-7114258,18408200
2026-01-14 17:14:13.491,1820418,9253158,-61250360,7612275,670166,-6489258,19160160
2026-01-14 17:14:13.501,18135150,9296312,-61155420,76209060,30914310,-65771480,19794920
2026-01-14 17:14:13.511,18083360,9287676,-61060460,76312630,4046631,-62890620,20507810
2026-01-14 17:14:13.521,1803154,9218628,-60939620,7641622,19210820,-6074219,20957030
2026-01-14 17:14:13.531,18005670,32370500,-37546060,76528420,-5923462,-60498050,21230470
2026-01-14 17:14:13.541,-24580420,-22432000,-29392580,34045910,-15466310,-5839844,21425780
2026-01-14 17:14:13.551,-24608040,32022650,-37220640,34087340,-30615230,-5078125,21445310
2026-01-14 17:14:13.561,1811786,8329564,-60499400,7684780,-44458010,-44555660,21210940
2026-01-14 17:14:13.571,44649920,7967036,-60395830,50522920,-5961914,-25708010,21035160
2026-01-14 17:14:13.581,18350940,31285500,-36559460,77046320,-66845700,-390625,20839840
2026-01-14 17:14:13.591,44889020,30992030,-36300510,50749930,-76416020,16149900,20332030
2026-01-14 17:14:13.601,1869618,6629126,-60093720,7720170,-828125,35083010,19550780
2026-01-14 17:14:13.611,45159190,6111224,-59990140,50997660,-86572260,4633789,18671880
2026-01-14 17:14:13.621,19093270,558466,3,-5989520,77339810,-95703130,45996100,17490230
2026-01-14 17:14:13.631,1930903,5032264,-59791610,7740023,-10048830,38867190,16054690
2026-01-14 17:14:13.641,19516220,31807720,-32360150,77452020,-10097660,22595220,15097660
2026-01-14 17:14:13.651,-24019360,-24688320,-31037770,33743800,-9980469,49926760,1375
2026-01-14 17:14:13.661,45864400,3314558,-59524030,51621730,-9121094,-12927250,12607420
2026-01-14 17:14:13.671,20172220,-25246790,-31463320,77555590,-7675781,-26586910,11425780
2026-01-14 17:14:13.681,20370750,-25529050,-31681700,77581490,-6699219,-39331060,10224610
2026-01-14 17:14:13.691,-23602450,-28559880,-29168760,33418390,-55810550,-46240230,89160160
2026-01-14 17:14:13.701,-23507500,27219980,-33046360,33340710,-47338870,-5083008,74902340
2026-01-14 17:14:13.711,46400420,422950,-59221920,52069710,-42504880,-5229492,6044922
2026-01-14 17:14:13.721,-23348680,26551890,-32488760,33206050,-35595700,-47631840,47607420
2026-01-14 17:14:13.731,49039040,-776854,-59196020,49603730,-32910160,-38256840,4038086
2026-01-14 17:14:13.741,46510050,-139835,5,-5919605,52149990,-20983890,-19140620,34936520
2026-01-14 17:14:13.751,21138970,-2062978,-59187390,77521070,-6939697,-6976318,3046875
2026-01-14 17:14:13.761,-23259770,-2753508,-59187390,33122320,9313965,19665530,29101560
2026-01-14 17:14:13.771,21087180,-3487200,-59161500,77503800,28637700,38745120,27001950
2026-01-14 17:14:13.781,-23299480,-4264048,-59144230,33151670,41015620,5708008,22192380
2026-01-14 17:14:13.791,-23329690,-5084056,-59135600,33173250,5336914,81591800,16064450
2026-01-14 17:14:13.801,20871390,-5947226,-59135600,77426110,58935550,9785156,11035160
2026-01-14 17:14:13.811,20759180,-6853554,-59161500,77365700,6699219,10878910,-21347050
2026-01-14 17:14:13.821,2063832,-30929020,-36070040,7727937,6845703,11347660,-19067380
2026-01-14 17:14:13.831,20491590,21854530,-28658020,77167170,7207031,11640630,-32714840
2026-01-14 17:14:13.841,-23470390,-9727894,-59377290,33205190,7373047,11064450,-6689453
2026-01-14 17:14:13.851,-27852860,-10677380,-59498130,28822720,81103520,11455080,-88427740
2026-01-14 17:14:13.861,45468200,20442390,-27566980,51137490,8745117,11191410,-10595700
2026-01-14 17:14:13.871,19740640,20002180,-27230340,76468000,96191410,10087890,-11474610
2026-01-14 17:14:13.881,45059060,19581820,-26908380,50735260,98828130,9013672,-12402340
2026-01-14 17:14:13.891,19300420,19163180,-26584690,76096840,10351560,75439460,-13388670
2026-01-14 17:14:13.901,-23672370,18757490,-26265320,33175840,10957030,5332031,-14443360
2026-01-14 17:14:13.911,-23705170,21769510,-22528240,33177570,11484380,3647461,-14921880
2026-01-14 17:14:13.921,18791150,-16521030,-60093720,75673890,128125,25976560,-15097660
2026-01-14 17:14:13.931,-23728480,17550780,-25279580,33154260,15976560,25341800,-14824220
2026-01-14 17:14:13.941,18644420,17139910,-24930870,75475370,20507810,2310791,-13183590
2026-01-14 17:14:13.951,18670310,16715230,-24561430,75397670,240625,2006836,-10771480
2026-01-14 17:14:13.961,-23572240,-19283160,-59713930,32982490,28046880,22509770,-765625
2026-01-14 17:14:13.971,18981050,15783880,-23731930,75259570,32070310,17004400,-45996100
2026-01-14 17:14:13.981,-23233880,15268570,-23263220,32682110,36269530,6866455,-3095703
2026-01-14 17:14:13.991,19688850,-21458350,-58937080,75121460,38808590,1394043,-41430660
2026-01-14 17:14:14.001,-22634840,14119690,-22202390,32159030,42382810,20935060,-48510740
2026-01-14 17:14:14.011,47635700,-23107000,-58151590,48175880,434375,35205080,-69970700
2026-01-14 17:14:14.021,-26051350,-24004690,-57668220,27016190,47070310,67333980,-9482422
2026-01-14 17:14:14.031,22684040,11990260,-20188620,74629460,50429690,11777340,-12998050
2026-01-14 17:14:14.041,23806160,11202180,-19422990,74491340,5296875,19599610,-14794920
2026-01-14 17:14:14.051,2511815,-26654610,-55605250,7437050,55703120,27128910,-16943360
2026-01-14 17:14:14.061,-23318900,-27440090,-54647130,24327940,578125,31054690,-20273440
2026-01-14 17:14:14.071,-17826130,8615274,-16779110,28077110,63554690,38710940,-19384770
2026-01-14 17:14:14.081,49968760,-28674430,-52238900,54370920,6390625,38476560,-20175780
2026-01-14 17:14:14.091,32204780,-38842540,-41017720,74171980,63164060,38828120,-21894530
2026-01-14 17:14:14.101,-14421800,6064613,-13909080,25283900,63085940,40507810,-21816410
2026-01-14 17:14:14.111,-13048500,5263595,-12931970,24154010,59960940,40742190,-22832030
2026-01-14 17:14:14.121,39602120,-29062850,-45566610,73990710,55703120,41289060,-25410160
2026-01-14 17:14:14.151,4870852,-27517780,-39101490,7284269,478125,50351560,-3734375
2026-01-14 17:14:14.161,-3893750,-26654610,-36719140,16304370,4796875,53398440,-42304690
2026-01-14 17:14:14.171,-1717705,40339260,-46322740,14371740,45703120,5859375,-43242190
2026-01-14 17:14:14.181,-52944970,9279050,-65298620,65826880,4375,6328125,-45234380
2026-01-14 17:14:14.191,61638780,6188906,-58030750,69286450,40390620,71601560,-3828125
2026-01-14 17:14:14.201,49243700,369431,8,-5103048,83597760,36464840,75273440,-28085940
2026-01-14 17:14:14.211,38663000,-328002,-42277940,-25211400,39013670,89375,-15449220
2026-01-14 17:14:14.221,91271320,-17479140,-20241280,44660280,221875,75351560,-38256840
2026-01-14 17:14:14.231,49665790,-10064530,-22666780,-35960420,-32226560,71796870,11651610
2026-01-14 17:14:14.241,13065770,-25066380,-2624029,722470,5,-8100586,60117190,10019530
2026-01-14 17:14:14.251,77193060,-19343580,-3288671,61224470,-18466800,5109375,20996090
2026-01-14 17:14:14.261,16653090,-23219200,5610588,-2785442,-20761720,35585940,29492190
2026-01-14 17:14:14.271,18328500,-8243250,-4341734,-4459123,-11748050,25078120,384375
2026-01-14 17:14:14.281,82216700,-40223610,-35735140,56269890,-14335940,25585940,36894530
2026-01-14 17:14:14.291,83476930,-37461470,10703270,54595340,-27792970,23046880,26679690
2026-01-14 17:14:14.301,84547260,8200089,13206460,52938060,-39121100,12646480,21386720
2026-01-14 17:14:14.311,85453580,8890618,60162770,51237620,-46523440,-20385740,17011720
2026-01-14 17:14:14.321,25145800,-19939170,31505610,-11573350,-46796880,-8046875,18398440
2026-01-14 17:14:14.331,86869180,-1715116,3325780,47715900,-48867190,-18720700,11767580
2026-01-14 17:14:14.341,27431460,-13758890,34233220,-14104160,-57695310,-2984375,6660156
2026-01-14 17:14:14.351,28532860,-1022853,3482880,-15350570,-62578120,-3453125,3390503
2026-01-14 17:14:14.361,29610960,-6387438,34871960,-16585760,-5859375,-33515620,-5292969
2026-01-14 17:14:14.371,30608780,-1795387,33939740,-17745860,-578125,-38007810,-47192380
2026-01-14 17:14:14.381,66001240,3107402,32455090,60970700,-6015625,-47617190,-2993164
2026-01-14 17:14:14.391,88690460,7811664,30944550,36658720,-53398440,-52539060,19140620
2026-01-14 17:14:14.401,32904810,12429610,29347690,-20525260,-446875,-50039060,-47302250
2026-01-14 17:14:14.411,33367470,-3034896,7495745,-21132930,-47265620,-53203120,-50927740
2026-01-14 17:14:14.421,88146660,21130340,26136710,32834890,-44765620,-54648440,-11845700
2026-01-14 17:14:14.431,33968230,2485923,2485921,-21999550,-38515620,-58984380,-18632810
2026-01-14 17:14:14.441,34223720,5102184,95810,02,-22382790,-29179690,-60078120,-26523440
2026-01-14 17:14:14.451,8720579,54494350,-49085740,2992604,-17099610,-57148440,-34394530
2026-01-14 17:14:14.461,8693824,28855690,27181140,2889886,-8779297,-58398440,-38945310
2026-01-14 17:14:14.471,8669654,40741500,17090720,2779401,-1574707,-54140620,-4109375
2026-01-14 17:14:14.481,59555100,18684120,-12735170,53571620,44458010,-48828120,-4328125
2026-01-14 17:14:14.491,35988900,50624780,10401170,-24812610,4611206,-50,-45703120
2026-01-14 17:14:14.501,36404950,33689430,28752110,-25363310,5786133,-44335940,-490625
2026-01-14 17:14:14.511,8589378,32620820,-26247200,2321059,4584961,-41914060,-52578120
2026-01-14 17:14:14.521,57100250,37771340,-31282050,50743890,47558590,-37070310,-5671875
2026-01-14 17:14:14.531,56530560,72670060,-6741342,50087880,5522461,-34980470,-6171875
2026-01-14 17:14:14.541,85375890,48656740,-41975830,20085910,7836914,-30039060,-68632820
2026-01-14 17:14:14.551,38292700,38937480,28614000,-27860450,10654300,-275,-78632820
2026-01-14 17:14:14.561,38726000,9268693,-2453124,-28411150,1328125,-25566410,-89609380
2026-01-14 17:14:14.571,39217150,40957300,27647250,-29024870,11298830,-18583980,-96015620
2026-01-14 17:14:14.581,85065150,41993090,26887660,15562910,77197260,-14833980,-100859400
2026-01-14 17:14:14.591,40421270,11985080,-5088374,-30496570,37768560,-5385742,-10234380
2026-01-14 17:14:14.601,8510831,4408196,2483332,1270583,-5449219,25805660,-1109375
2026-01-14 17:14:14.611,8513422,45135020,23573100,1116078,-20800780,6113281,-12078130
2026-01-14 17:14:14.621,8516011,46144930,22166140,951212,8,-35429690,13164060,-134296900
2026-01-14 17:14:14.631,8518601,33880650,33878000,772536,3,-53125,17685550,-156484400
2026-01-14 17:14:14.641,85220520,48087060,18877470,5705537,-74179690,15732420,-18171880
2026-01-14 17:14:14.651,8525506,48976120,16883560,342679,4,-10046880,19091800,-19859380
2026-01-14 17:14:14.661,8527232,49804760,14535740,85456,27,-1284375,28515620,-2159375
2026-01-14 17:14:14.671,47729700,33119740,29235480,-39398410,-15796880,33046880,-224375
2026-01-14 17:14:14.681,44658560,24432820,-18449340,35685070,-19015620,346875,-21828120
2026-01-14 17:14:14.691,8469399,52126680,4652474,-725058,7,-22609380,23203120,-20375
2026-01-14 17:14:14.701,50479760,29216490,23954620,-43001270,-255625,4562378,-17734380
2026-01-14 17:14:14.711,8332155,53697650,-4652474,-1076368,-28125,-24785160,-132890600
2026-01-14 17:14:14.721,82199440,54569450,-10064530,-11333390,-290,-53320310,-78476560
2026-01-14 17:14:14.731,49254060,35798180,-35758410,-42293480,-29546880,-90703130,-7060547
2026-01-14 17:14:14.741,38700980,57055360,-22010770,29903580,-29375,-140390600,9578125
2026-01-14 17:14:14.751,37971600,19573180,10879360,29683460,-2584375,-1990625,19390620
2026-01-14 17:14:14.761,41512310,60508040,-34250480,-34860740,-15609380,-24625,3346875
2026-01-14 17:14:14.771,36533560,14846480,5437955,28514740,145125,-4434375,710625
2026-01-14 17:14:14.781,74897040,13934110,4986516,-13111510,874375,-13171880,7075
2026-01-14 17:14:14.791,75613460,15486950,6748240,-13499940,-14804690,-4221875,48875
2026-01-14 17:14:14.801,37258620,10468410,9643391,28065890,-729375,22125,-983125
2026-01-14 17:14:14.811,36890910,14991490,6622219,27794850,30,2484375,-137265600
2026-01-14 17:14:14.821,76985900,16769620,8279499,-10901810,4090625,-18421880,4103125
2026-01-14 17:14:14.831,39351800,18487320,9979941,31030870,-66210940,-203125,141796900
2026-01-14 17:14:14.841,7618315,58755810,-26576930,-157093,9,-151953100,98671870,-6234375
2026-01-14 17:14:14.851,42562790,22236920,13670840,35329440,-54016110,-28613280,-16005860
2026-01-14 17:14:14.861,38154590,6189775,-2345227,-30087430,16552730,-48632810,-8334961
2026-01-14 17:14:14.871,36897820,62484700,-22623620,-28651110,-24707030,-2453125,-14589840
2026-01-14 17:14:14.881,7396481,62484690,-22278350,958981,6,-7104492,-31796880,1328125
2026-01-14 17:14:14.891,7434462,24198040,15783880,991780,9,10712890,60595700,15078130
2026-01-14 17:14:14.901,3685467,20208560,19376300,-2838353,24804690,-14953610,31464840
2026-01-14 17:14:14.911,37525340,42911510,-38985820,-29007600,13466800,9238281,36640620
2026-01-14 17:14:14.921,38247810,42074230,-38148540,-29683460,-16821290,11367190,34277340
2026-01-14 17:14:14.931,35069800,58945710,-19360850,-34208010,-6816406,13439940,35039060
2026-01-14 17:14:14.941,39558960,58229280,-17971150,-30875500,-73535150,-7011719,2609375
2026-01-14 17:14:14.951,7947184,24276580,16879240,810515,2,-13466800,-16181640,12734380
2026-01-14 17:14:14.961,40457520,56925900,-14734270,-31616960,-209375,-17509770,27001950
2026-01-14 17:14:14.971,40762220,56295780,-13068360,-31830160,-28886720,-16279300,-36010740
2026-01-14 17:14:14.981,48787080,35789510,-31364920,41500230,-28945310,-16416020,-60009770
2026-01-14 17:14:14.991,8213901,55095980,-9935058,916686,2,-27324220,-16308590,-63183590
2026-01-14 17:14:15.001,41060880,33805090,-29206140,-31824980,-28242190,-17216800,-61328120
2026-01-14 17:14:15.011,8307124,53887540,-7207448,1037530,-29824220,-17509770,-10830080
2026-01-14 17:14:15.021,8347692,53266060,-5999012,1102267,-28007810,-16142580,-16611330
2026-01-14 17:14:15.031,8388261,52610060,-4911424,1165278,-24980470,-18154300,-16826170
2026-01-14 17:14:15.041,8426240,51928150,-3936042,1225700,-21757810,-16386720,-16806640
2026-01-14 17:14:15.051,8463356,29547950,-24728020,1286983,-21191410,-1609375,-17060550
2026-01-14 17:14:15.061,40643960,26814300,21540340,-30791770,-24667970,-14082030,-15244140
2026-01-14 17:14:15.071,5335238,49839290,-1381070,4625716,-25839840,-16582030,-12246090
2026-01-14 17:14:15.081,40195980,26749560,21777710,-30117640,-26875,-16044920,-8300781
2026-01-14 17:14:15.091,85772950,4838053,18122,73,16305230,-22636720,-21542970,-10654300
2026-01-14 17:14:15.101,5514604,47603680,940854,4829596,-20175780,-20722660,-16064450
2026-01-14 17:14:15.111,38958200,26494060,21981420,-28472440,-1921875,-19287110,-22148440
2026-01-14 17:14:15.121,33668540,26331790,21971060,-32605460,-18193360,-22714840,-24941410
2026-01-14 17:14:15.131,37888740,4506599,296064,6,-27107770,-18740230,-2390625,-25078120
2026-01-14 17:14:15.141,8647212,44142380,3521722,2290849,-22714840,-19892580,-2671875
2026-01-14 17:14:15.151,86463480,25584280,21665500,24574370,-23261720,-23867190,-27050780
2026-01-14 17:14:15.161,35667810,4224343,445393,1,-24391390,-234375,-2859375,-25410160
2026-01-14 17:14:15.171,34720910,41216250,4790577,-23266680,-2328125,-32207030,-17197270
2026-01-14 17:14:15.181,86040530,40154550,5058157,30400760,-21777340,-36699220,-11591800
2026-01-14 17:14:15.191,32427470,39041070,5239425,-20588270,-22128910,-3984375,-12558590
2026-01-14 17:14:15.201,8525505,37858520,5334375,3512230,-26757810,-34511720,-17216800
2026-01-14 17:14:15.211,29606640,22564930,19436800,-17366930,-31289060,-32636720,-23984380
2026-01-14 17:14:15.221,28014100,35363970,5273952,-15575860,-35429690,-31816410,-28964840
2026-01-14 17:14:15.231,26341280,34043320,5075424,-13709690,-34863280,-30175780,-34179690
2026-01-14 17:14:15.241,24585600,32679520,4816473,-11771010,-33867190,-32109380,-31953120
2026-01-14 17:14:15.251,81224060,31298450,4453942,48665380,-26972660,-453125,-35507810
2026-01-14 17:14:15.261,80058780,29874220,3892881,51453420,-24726560,-5046875,-29023440
2026-01-14 17:14:15.271,7879856,28432740,3245508,5419830,-20234380,-57851560,-28144530
2026-01-14 17:14:15.281,16996630,13742490,-10805990,-3564018,-19013670,-57695310,-28964840
2026-01-14 17:14:15.291,76001900,25506600,1458749,59463610,-21679690,-55507810,-29492190
2026-01-14 17:14:15.301,13096840,24065110,345266,7,546386,-25996090,-52265620,-28769530
2026-01-14 17:14:15.311,50106010,12010110,9655389,-36383370,-29121090,-51015620,-26855470
2026-01-14 17:14:15.321,93006290,21121710,-2408242,44841550,-32539060,-51367190,-23261720
2026-01-14 17:14:15.331,12180160,19602530,-4048256,1649514,-3390625,-53632810,-19589840
2026-01-14 17:14:15.341,-6018867,18057460,-5835013,19876160,-3359375,-6140625,-15429690
2026-01-14 17:14:15.351,66256730,55717460,31462450,72402480,-32714840,-66640620,-13339840
2026-01-14 17:14:15.361,2137204,26615770,24138480,11718360,-34199220,-68125,-11669920
2026-01-14 17:14:15.371,4566156,7744332,5203173,133696000,-3546875,-621875,-3786621
2026-01-14 17:14:15.381,-1182541,319372,-25869130,14958690,-36601560,-47578120,33398440
2026-01-14 17:14:15.391,-2745738,-18989680,-46093140,16451110,-35585940,-28652340,10751950
2026-01-14 17:14:15.401,57012210,-3878215,-6686961,79143820,-36757810,-11484380,19287110
2026-01-14 17:14:15.411,-11866660,-58954330,-88129390,13216990,-40390620,45928960,25898440
2026-01-14 17:14:15.421,5286037,-7954088,-10983810,8082699,-46640620,32861330,29589840
2026-01-14 17:14:15.431,50650660,4082779,-27371040,81448480,-5296875,96533200,290625
2026-01-14 17:14:15.441,48285580,2485919,-30176340,81949110,-590625,21621090,34492190
2026-01-14 17:14:15.451,-11894450,871797,-33016150,24703850,-64492190,41796880,415625
2026-01-14 17:14:15.461,-13466280,-716428,-35881870,26032270,-63789060,61132810,43945310
2026-01-14 17:14:15.471,40284030,16194740,-20299970,82665550,-65351560,82421870,42382810
2026-01-14 17:14:15.481,37375150,-3849730,-41656460,82570600,-68554690,10578130,37480470
2026-01-14 17:14:15.491,3438857,-5463852,-44444490,8231165,-7484375,123984400,30371090
2026-01-14 17:14:15.501,31358870,-25125940,-29115500,81940480,-76640620,133984400,21386720
2026-01-14 17:14:15.511,28346420,-895971,6,-4942498,81465740,-71210940,1334375,11943360
2026-01-14 17:14:15.521,-22369850,-10806860,-51496570,33010970,-59726560,125078100,68652340
2026-01-14 17:14:15.531,22994780,-30914350,-34979860,80240050,-440625,114375,5336914
2026-01-14 17:14:15.541,20862760,16769610,-23678410,79523620,-28320310,1015625,6303711
2026-01-14 17:14:15.551,-29298060,16509800,-23696530,30277760,-10673830,92265620,11591800
2026-01-14 17:14:15.561,-25223480,-1717705,-5712441,34818450,11464840,834375,14980470
2026-01-14 17:14:15.571,1714249,16032470,-23673230,7721897,2875,73867180,18349610
2026-01-14 17:14:15.581,1671955,15845170,-23670640,7643349,39570310,63867190,1828125
2026-01-14 17:14:15.591,16676390,-20241280,-59636240,75630740,4265625,58046880,14394530
2026-01-14 17:14:15.601,-28448360,-2102677,-6028360,29366600,44882810,59570310,10292970
2026-01-14 17:14:15.611,-23599860,-39380290,-43276620,32764970,4796875,59492190,5732422
2026-01-14 17:14:15.621,-22731520,-40044930,-43889470,31906980,50976560,57109380,-16015630
2026-01-14 17:14:15.631,-21758720,14575450,-23093180,30963540,515625,5125,-10585940
2026-01-14 17:14:15.641,20854120,-24911020,-61526580,71573840,5328125,46992190,-18232420
2026-01-14 17:14:15.651,2204529,13258250,-22028030,7077974,56328120,40,-24414060
2026-01-14 17:14:15.661,23176050,-27595460,-61345310,70011510,603125,30449220,-29472660
2026-01-14 17:14:15.671,-17873610,11519830,-20538210,27218260,64960940,20136720,-32714840
2026-01-14 17:14:15.681,25031860,-30538870,-60853310,68570020,69726560,8955078,-34433590
2026-01-14 17:14:15.691,25731020,9668336,-18919770,67922640,75390620,-17285160,-34492190
2026-01-14 17:14:15.701,26248920,8795674,-18152410,67335700,82421870,-95703130,-32734380
2026-01-14 17:14:15.711,-15438610,7998972,-17447200,24784990,8828125,-16484380,-3171875
2026-01-14 17:14:15.721,2682722,-35562500,-59713920,6642935,9203125,-21171880,-30703120
2026-01-14 17:14:15.731,-14950920,6752559,-16345800,24254140,94375,-228125,-29765620
2026-01-14 17:14:15.741,-14893960,6331332,-15972910,24173000,95234380,-22832030,-2890625
2026-01-14 17:14:15.751,26723660,-47273100,-49453460,65825140,9421875,-22871090,-29277340
2026-01-14 17:14:15.761,2649924,5954993,-15641460,6585968,9078125,-21601560,-29960940
2026-01-14 17:14:15.771,4591153,-3759958,-5923055,4630928,84765620,-19541020,-29921880
2026-01-14 17:14:15.781,-15556000,6115540,-15774380,24771180,77578130,-16435550,-29824220
2026-01-14 17:14:15.791,25601550,6359814,-15978960,66584740,69414060,-12978520,-28828120
2026-01-14 17:14:15.801,25325330,-46665420,-48956270,66999060,61523440,-8520508,-27109380
2026-01-14 17:14:15.811,-20727930,7010645,-16502040,21653590,54140620,-41381840,-25292970
2026-01-14 17:14:15.821,2494554,-3498418,-5911834,6798307,47382810,-7116699,-23671880
2026-01-14 17:14:15.831,-17151140,7690821,-17013030,26490610,42382810,27514650,-2234375
2026-01-14 17:14:15.841,-17380740,-33534050,-58721280,26778910,37441410,49487300,-209375
2026-01-14 17:14:15.851,-17553370,8221668,-17345350,27020590,33847660,8208008,-19697270
2026-01-14 17:14:15.861,2529080,8421062,-17439430,7017552,30175780,10107420,-17226560
2026-01-14 17:14:15.871,-17728600,8562621,-17470510,27363270,26855470,9472656,-16328130
2026-01-14 17:14:15.881,-17731190,8663610,-17455840,27464260,23945310,890625,-16025390
2026-01-14 17:14:15.891,-17660410,8730936,-17405770,27500510,21757810,10419920,-16074220
2026-01-14 17:14:15.901,27250200,8766326,-17318590,72273010,18730470,12294920,-15654300
2026-01-14 17:14:15.911,-17363480,-29140540,-55139140,27434910,15654300,11855470,-16113280
2026-01-14 17:14:15.921,-17138190,-28570840,-54431340,27332190,11787110,10439450,-17324220
2026-01-14 17:14:15.931,-16868020,8776684,-16945700,27188050,9707031,11064450,-18007810
2026-01-14 17:14:15.941,30452540,8765461,-16801560,74025240,78515620,11591800,-18056640
2026-01-14 17:14:15.951,-16238770,8763738,-16665170,26816020,67822260,11015630,-16669920
2026-01-14 17:14:15.961,32256570,8764598,-16526200,74776190,56591800,10615230,-15654300
2026-01-14 17:14:15.971,33180160,8801715,-16420040,75130100,3671875,11142580,-14052730
2026-01-14 17:14:15.981,52698100,-24747020,-49951500,56837850,-9712219,10048830,-14521480
2026-01-14 17:14:15.991,34949650,8985569,-16305230,75794740,-24560550,10605470,-15712890
2026-01-14 17:14:16.001,-14578040,-23106990,-48553170,25766410,-47607420,8046875,-15712890
2026-01-14 17:14:16.011,-14290600,-22200670,-47888530,25587730,-7895508,8364258,-15634770
2026-01-14 17:14:16.021,55029510,-21259820,-47258420,58977640,-10703130,90478510,-14960940
2026-01-14 17:14:16.031,-13836570,9842698,-16535700,25333970,-13535160,9350586,-12919920
2026-01-14 17:14:16.041,38471370,-31321760,-34002760,77400220,-16289060,8930664,-10996090
2026-01-14 17:14:16.051,-13551730,-18204200,-45514820,25221750,-18789060,8886719,-9243164
2026-01-14 17:14:16.061,56785190,-17133880,-44996920,60657360,-21542970,8623047,-7290039
2026-01-14 17:14:16.071,-13463690,11197870,-17252130,25275270,-24394530,8125,-59033200
2026-01-14 17:14:16.081,57417900,-1495009,-4402157,61302150,-27460940,8540039,-37036130
2026-01-14 17:14:16.091,4012002,14826380,-14883840,7913520,-30839840,8745117,-18396000
2026-01-14 17:14:16.101,57889180,-12809410,-43175640,61814870,-3375,8022461,-3125
2026-01-14 17:14:16.111,58073040,-11790870,-42778580,62028080,-3640625,71875,122924800
2026-01-14 17:14:16.121,-13917710,-10824120,-42416050,25960620,-38320310,66503900,37719730
2026-01-14 17:14:16.131,-14093800,-9917792,-42079410,26164330,-39492190,48461910,5419922
2026-01-14 17:14:16.141,58432120,16094270,-16602510,62497640,-40429690,1352539,6479492
2026-01-14 17:14:16.151,58498580,-8286410,-41466570,62603800,-41367190,-25830080,7553711
2026-01-14 17:14:16.161,-14661760,-7569978,-41198980,26787540,-42070310,-6298828,86621100
2026-01-14 17:14:16.171,58598710,-6905340,-40931400,62779900,-42695310,-10078130,10400390
2026-01-14 17:14:16.181,-14985450,-6292490,-40681080,27137120,-428125,-13710940,12207030
2026-01-14 17:14:16.191,-15108880,-5731432,-40430760,27272640,-42539060,-17578120,13134770
2026-01-14 17:14:16.201,39619380,-5222166,-40180450,82173540,-41835940,-19570310,14931640
2026-01-14 17:14:16.211,-15231450,-476469,5,-3994738,27426280,-40898440,-21132810,16835940
2026-01-14 17:14:16.221,58935340,-4359000,-39697070,63202840,-39238280,-225,18310550
2026-01-14 17:14:16.231,39861070,-4005098,-39464020,82467020,-37871100,-2390625,19082030
2026-01-14 17:14:16.241,40059600,1561553,-1991243,82492910,-3703125,-2546875,18994140
2026-01-14 17:14:16.251,40301290,-19480830,-23038800,82475650,-36679690,-25996090,18916020
2026-01-14 17:14:16.261,4061201,-3305930,-38868430,8242386,-3671875,-25996090,18642580
2026-01-14 17:14:16.271,-14516750,-3202352,-38713060,26846230,-37597660,-26894530,17666020
2026-01-14 17:14:16.281,4136296,-3159194,-38583580,8219080,-38144530,-27265620,17080080
2026-01-14 17:14:16.291,-13921170,15552550,-19716470,26302440,-38320310,-27910160,16503910
2026-01-14 17:14:16.301,-13579350,15466240,-19630160,25988250,-3828125,-28515620,15791020
2026-01-14 17:14:16.311,42744050,-3435410,-38290110,81603860,-37539060,-2828125,16201170
2026-01-14 17:14:16.321,-12828400,-3659830,-38221060,25289080,-3625,-28300780,16494140
2026-01-14 17:14:16.331,4375394,-3953306,-38186530,8109458,-34414060,-28476560,16210940
2026-01-14 17:14:16.341,44254600,-4298576,-38186530,80801100,-33125,-27949220,15634770
2026-01-14 17:14:16.351,-11605290,-471290,5,-3820379,24129850,-32265620,-26855470,15302730
2026-01-14 17:14:16.361,-11182330,-5187636,-38264210,23724150,-31289060,-25351560,15019530
2026-01-14 17:14:16.371,45713350,-5748697,-38359160,79808460,-30761720,-23300780,14384770
2026-01-14 17:14:16.381,-10362330,13819310,-18307780,22921410,-303125,-20664060,13935550
2026-01-14 17:14:16.391,4655061,-7095237,-38687170,7905751,-29882810,-18515620,13193360
2026-01-14 17:14:16.401,61199430,-7889352,-38911590,64374160,-29648440,-16992190,11796880
2026-01-14 17:14:16.411,47215260,-8769785,-39170540,78254760,-29824220,-15371090,10595700
2026-01-14 17:14:16.421,-8918247,12412350,-17332400,21447980,-2984375,-14199220,9584961
2026-01-14 17:14:16.431,-8609232,-23819970,-26727120,21118250,-30332030,-13222660,8613281
2026-01-14 17:14:16.441,-8321799,11574210,-16772200,20801470,-30507810,-11904300,8066406
2026-01-14 17:14:16.451,47966210,-12947510,-40534340,76502530,-30507810,-9482422,81591800
2026-01-14 17:14:16.461,4806115,-14130050,-40922770,7602779,-30234380,-6352539,90625
2026-01-14 17:14:16.471,-7516465,-15373010,-41337090,19880470,-29160160,-24377440,9765625
2026-01-14 17:14:16.481,48147480,12249640,-12834010,74991980,-28066410,15588380,10039060
2026-01-14 17:14:16.491,-7008059,-18022940,-42191620,19266760,-26328120,5605469,10048830
2026-01-14 17:14:16.501,59697520,-1944719,-4264913,62268030,-24433590,90478510,8286133
2026-01-14 17:14:16.511,-6504831,7898844,-14301820,18630610,-22265620,12421880,6274414
2026-01-14 17:14:16.521,-6240703,-22442360,-43589960,18290520,-20175780,15761720,40405270
2026-01-14 17:14:16.531,47862630,-24030590,-44073340,71789630,-16484380,18330080,26611330
2026-01-14 17:14:16.541,-5707266,-25653340,-44556700,17580990,-12109380,20664060,118896500
2026-01-14 17:14:16.551,-5427599,-27276090,-45040080,17204650,-75683590,234375,-4437256
2026-01-14 17:14:16.561,-5150522,4591187,-12033420,16825720,-3737793,27089840,-10797120
2026-01-14 17:14:16.571,47180730,-3748221,-3902900,68500970,72509770,30917970,-17932130
2026-01-14 17:14:16.581,46947670,-32101200,-46429780,67629170,5576172,32988280,-27001950
2026-01-14 17:14:16.591,4669734,-33646270,-46852730,6675736,10234380,34433590,-31982420
2026-01-14 17:14:16.601,46421140,1939534,-10179340,65894200,15068360,34882810,-42163090
2026-01-14 17:14:16.611,-3901517,1331867,-9751202,15019110,20097660,34316410,-50878900
2026-01-14 17:14:16.621,4581691,-37893050,-47974840,6425417,24433590,32929690,-5625
2026-01-14 17:14:16.631,4548026,1950760,-89372360,6350323,28417970,30957030,-60791020
2026-01-14 17:14:16.641,53973770,-316785,-8568666,53973950,31855470,27871090,-6464844
2026-01-14 17:14:16.651,-81658230,32781370,-41796290,92356330,34628900,24414060,-7363281
2026-01-14 17:14:16.661,-3284352,-1206709,-7922151,13892680,36523440,21621090,-8364258
2026-01-14 17:14:16.671,44133750,-43132480,-49174660,61138150,38457030,19140620,-90527340
2026-01-14 17:14:16.681,-79190430,-43874810,-49312750,89645120,39960940,16884770,-94189460
2026-01-14 17:14:16.691,-78790780,-46729300,-47217840,89181590,4203125,14658200,-9316406
2026-01-14 17:14:16.701,50840560,-25454810,-69131090,52515100,43710940,12226560,-93066410
2026-01-14 17:14:16.711,43089320,-2805297,-6706813,59800240,45507810,97802740,-921875
2026-01-14 17:14:16.721,42908050,-30521610,-65048300,59584440,46640620,76660160,-9428711
2026-01-14 17:14:16.731,42752680,10307940,-19902920,59394550,47304690,5722656,-10292970
2026-01-14 17:14:16.741,-3218754,-35096390,-61164040,13405850,48125,38452150,-11191410
2026-01-14 17:14:16.751,-8261480,-3729747,-5922191,8363126,48828120,18908690,-11894530
2026-01-14 17:14:16.761,-3239470,-39472650,-57253900,13385140,49296880,2128601,-12695310
2026-01-14 17:14:16.771,42338360,2061242,-11749440,58980230,50,-16455080,-13115230
2026-01-14 17:14:16.781,-3278311,69916,-9770192,13398090,50039060,-36328120,-13466800
2026-01-14 17:14:16.791,-3308525,-19188210,-77883600,13419660,50351560,-5395508,-13789060
2026-01-14 17:14:16.801,-79019520,6364994,-16077350,89125490,50195310,-6948242,-13681640
2026-01-14 17:14:16.811,-34069220,-4856790,-4855575,135111600,50,-82910160,-14101560
2026-01-14 17:14:16.821,-3456987,-70978260,-26093550,13564670,49414060,-9199219,-14736330
2026-01-14 17:14:16.831,41993090,-86463490,-10504750,59152860,48789060,-9790039,-15664060
2026-01-14 17:14:16.841,-3593368,-53663120,-43132480,13721770,47734380,-9399414,-16679690
2026-01-14 17:14:16.851,-3671051,-11303180,1644334,13816720,46679690,-8955078,-17792970
2026-01-14 17:14:16.861,5084834,-80773490,71143980,5085005,4515625,-7890625,-18681640
2026-01-14 17:14:16.871,4207078,-13428300,3835053,5992108,4359375,-6269531,-19599610
2026-01-14 17:14:16.881,-3902382,-57253900,-38264220,14137820,4203125,-43676760,-20234380
2026-01-14 17:14:16.891,-3976612,-15023430,5519956,14253480,39980470,-17993160,-20917970
2026-01-14 17:14:16.901,42424680,-15600030,6151793,60810140,3828125,77819820,-21171880
2026-01-14 17:14:16.911,42614580,-16086850,6700767,61155420,36035160,2614746,-21699220
2026-01-14 17:14:16.921,42839000,-58419180,-34768390,61517940,33574220,43017580,-21933590
2026-01-14 17:14:16.931,-4150972,-16793790,7547537,14648810,31328120,5253906,-22304690
2026-01-14 17:14:16.941,-4169100,-58177490,-33490900,14734270,28945310,56103520,-22597660
2026-01-14 17:14:16.951,43693540,-57918540,-32886680,62683220,26386720,57421880,-22402340
2026-01-14 17:14:16.961,44047430,-17011310,8020550,63088900,23886720,5756836,-22421880
2026-01-14 17:14:16.971,-4150974,-56813680,-32127090,14942290,21367190,58496100,-2203125
2026-01-14 17:14:16.981,-4118173,-16481320,7687370,14992360,19130860,5551758,-21992190
2026-01-14 17:14:16.991,53837480,-15997080,7308436,55750260,16816410,5253906,-21816410
2026-01-14 17:14:17.001,45652920,-4300131,-4278033,64797980,14453130,48706060,-21347660
2026-01-14 17:14:17.011,-4006823,-14504670,6038720,15138230,1234375,5214844,-21347660
2026-01-14 17:14:17.021,-3972297,-13411030,5060751,15190020,10205080,5527344,-21289060
2026-01-14 17:14:17.031,-3936907,-12143900,3911012,15242670,77978510,5839844,-21152340
2026-01-14 17:14:17.041,-3911877,-47128940,-34008800,15302230,5361328,65722660,-21035160
2026-01-14 17:14:17.051,47741790,-8917386,922724,2,67007690,31518560,68408200,-21015620
2026-01-14 17:14:17.061,-3889434,-42398780,-36356620,15445520,84350580,7446289,-20761720
2026-01-14 17:14:17.071,48449590,-13373060,5616629,67888120,-11883550,7314453,-20078120
2026-01-14 17:14:17.081,57560320,9127130,-16767890,59519710,-31103520,6953125,-19433590
2026-01-14 17:14:17.091,-3994742,345268,-75613470,15771800,-4650879,6201172,-18730470
2026-01-14 17:14:17.101,-4073290,-30435290,-43728060,15917670,-63183590,47314450,-17910160
2026-01-14 17:14:17.111,-4172552,5926507,-13235810,16077360,-75683590,37036130,-17255860
2026-01-14 17:14:17.121,-4299438,9172880,-16376880,16261210,-87402340,24438480,-16533200
2026-01-14 17:14:17.131,-4446177,12674750,-19780350,16459740,-98779300,12060550,-16064450
2026-01-14 17:14:17.141,4965800,-15191750,-54897450,7094373,-11123050,22323610,-15029300
2026-01-14 17:14:17.151,49658020,-10850020,-58324230,71375310,-12382810,-57128900,-14560550
2026-01-14 17:14:17.161,49597600,-31376140,-36934940,71798260,-13632810,-12420650,-13935550
2026-01-14 17:14:17.171,4949400,-1622756,-65842410,7222986,-14707030,-1463623,-13496090
2026-01-14 17:14:17.181,-5561391,3167826,-69856140,17761400,-16269530,-16894530,-13632810
2026-01-14 17:14:17.191,-5860909,-28847060,-37081670,18083360,-17744140,-16540530,-13710940
2026-01-14 17:14:17.201,-6196683,13310040,-78530980,18438120,-18984380,-1595459,-13505860
2026-01-14 17:14:17.211,-6561801,47613180,-54067950,18815330,-20214840,-97229010,-13212890
2026-01-14 17:14:17.221,4822516,2397879,-8788771,7439640,-21953120,11863710,-13095700
2026-01-14 17:14:17.231,-7367997,2945127,-9277323,19631880,-234375,11413570,-12558590
2026-01-14 17:14:17.241,-7809079,-24747010,-38022530,20071230,-24375,13391110,-12246090
2026-01-14 17:14:17.251,-8270872,-30416290,-31852600,20524390,-2515625,13024900,-11943360
2026-01-14 17:14:17.261,-8751658,-23158780,-38644010,20993100,-25644530,72631840,-11308590
2026-01-14 17:14:17.271,-9253158,-22381930,-39006540,21475600,-25195310,-26306150,-10019530
2026-01-14 17:14:17.281,4512639,5849685,-11948830,7687370,-24394530,-19018560,-88916020
2026-01-14 17:14:17.291,44479020,-20810970,-39800660,77262120,-23964840,-41796880,-7915039
2026-01-14 17:14:17.301,43814380,-20008220,-40223600,77633280,-23613280,-6738281,-73583980
2026-01-14 17:14:17.311,-11380000,-28853100,-30998930,23491960,-23496090,-8129883,-5961914
2026-01-14 17:14:17.321,-11923800,-18368200,-41086770,24001230,-23144530,-82470700,-3696289
2026-01-14 17:14:17.331,-12477090,-17530930,-41509720,24518270,-22382810,-69091800,-5606079
2026-01-14 17:14:17.341,40991820,-16676400,-41898150,79057500,-22304690,-5786133,19873050
2026-01-14 17:14:17.351,-13566400,-15847750,-42260680,25535080,-24375,-640625,16833500
2026-01-14 17:14:17.361,57675990,-15036380,-42571420,61682810,-27910160,-921875,53741460
2026-01-14 17:14:17.371,-14521930,-14276790,-42847630,26426730,-31953120,-12392580,-42633060
2026-01-14 17:14:17.381,38523160,-13568990,-43089320,80248680,-33828120,-14707030,-36987300
2026-01-14 17:14:17.391,38074320,14893350,-15455620,80455840,-33671880,-15400390,16662600
2026-01-14 17:14:17.401,-15524930,-12395080,-43469110,27357230,-31074220,-16220700,44921880
2026-01-14 17:14:17.411,-15713960,-1194625,-4364174,27530720,-2796875,-16757810,69140620
2026-01-14 17:14:17.421,3730608,-11583710,-43814380,8074068,-25898440,-16542970,88378900
2026-01-14 17:14:17.431,-15846030,13592300,-19121750,27640350,-24804690,-16123050,9458008
2026-01-14 17:14:17.441,-21119380,-27472890,-27804350,22297950,-24003910,-15185550,89941410
2026-01-14 17:14:17.451,5672477,14003170,-19539520,6104580,-22714840,-13916020,78515620
2026-01-14 17:14:17.461,-15581900,-1081550,-4472070,27352050,-21308590,-12226560,62841800
2026-01-14 17:14:17.471,56670390,-10789590,-45022820,60927540,-20371090,-10791020,46655270
2026-01-14 17:14:17.481,3765999,14480500,-20097990,7981710,-18916020,-9082031,36645510
2026-01-14 17:14:17.491,-15006170,-10832750,-45773770,26736610,-17939450,-7680664,22888180
2026-01-14 17:14:17.501,-14826630,-10875910,-46213980,26536360,-16494140,-65185550,10687260
2026-01-14 17:14:17.511,-14667810,-10901800,-46688730,26349910,-14648440,-48095700,34606940
2026-01-14 17:14:17.521,37875780,-10893170,-47215260,78617300,-1296875,-30419920,-34210200
2026-01-14 17:14:17.531,3776357,-1084139,-4776769,7834971,-11630860,-14074710,-14538570
2026-01-14 17:14:17.541,3756504,15863290,-21770810,7809940,-10507810,2822876,-21740720
2026-01-14 17:14:17.551,37262940,16239630,-22188590,77900860,-9873047,2088623,-2878418
2026-01-14 17:14:17.561,55244440,16671210,-22654690,59332400,-96972660,35717770,-36889650
2026-01-14 17:14:17.571,36330720,-9883270,-50227720,77607380,-91552740,55371100,-39697260
2026-01-14 17:14:17.581,-15261660,-9434422,-50883720,26584690,-81884770,72802740,-34814450
2026-01-14 17:14:17.591,34949640,-28094380,-32361880,77486540,-7470703,79541020,-28979490
2026-01-14 17:14:17.601,-16094620,-28055530,-32452510,27253650,-6982422,82470700,-1607666
2026-01-14 17:14:17.611,-16615110,19669000,-25716350,27682640,-5131836,97021490,-37670900
2026-01-14 17:14:17.621,321613,9,-6680914,-53533650,775814,6,13146970,22753910,-3774414
2026-01-14 17:14:17.631,52143080,-5688276,-53939340,56805920,15576170,38359380,7470703
2026-01-14 17:14:17.641,30262650,-26881630,-31831030,78099390,33574220,35644530,11337890
2026-01-14 17:14:17.651,-19109670,-3444038,-54284600,29883720,53046880,26132810,19033200
2026-01-14 17:14:17.661,-19719920,-25752600,-30974760,30430100,70898440,32402340,26386720
2026-01-14 17:14:17.671,-20329320,-1035804,-54569450,30977350,74296870,32890620,33925780
2026-01-14 17:14:17.681,-20955120,-24468210,-29945860,31542730,68164060,3015625,29511720
2026-01-14 17:14:17.691,-21607670,1441490,-54578080,32133130,55976560,23007810,23828120
2026-01-14 17:14:17.701,-26968890,2710344,-54534920,28014880,41054690,13632810,18193360
2026-01-14 17:14:17.711,23823420,3953302,-54500400,80067410,271875,71484380,14658200
2026-01-14 17:14:17.721,5128697,5118582,-54474500,5186152,16074220,47387700,14326170
2026-01-14 17:14:17.731,2189854,6171650,-54457230,8050764,93359380,10119630,15605470
2026-01-14 17:14:17.741,20992240,709520,-5443135,80688900,5341797,-42016600,17304690
2026-01-14 17:14:17.751,-25290810,-20156690,-26385300,35389860,41210940,-84814460,1875
2026-01-14 17:14:17.761,19438530,29176780,-33765390,80947840,31298830,-11044920,19140620
2026-01-14 17:14:17.771,18834310,-19520540,-25864810,81034160,14147950,-13964840,19130860
2026-01-14 17:14:17.781,-26394800,29669650,-34170210,36340220,-5618286,-15957030,18945310
2026-01-14 17:14:17.791,-26608860,9667474,-54431340,36523200,-2680664,-17285160,1765625
2026-01-14 17:14:17.801,-26767690,9814210,-54457230,36657860,-51464840,-17753910,16738280
2026-01-14 17:14:17.811,-26861770,9840108,-54483130,36736410,-7583008,-18984380,14833980
2026-01-14 17:14:17.821,1750501,9736526,-54534920,8117227,-11025390,-21523440,12773440
2026-01-14 17:14:17.831,17513670,9546628,-54603980,81146370,-13789060,-20800780,11357420
2026-01-14 17:14:17.841,46181180,9244522,-54698920,52530640,-15537110,-203125,11367190
2026-01-14 17:14:17.851,46244190,29528090,-34121880,52571210,-16054690,-19482420,10009770
2026-01-14 17:14:17.861,17997040,-20087640,-26419830,80956480,-15683590,-17363280,8515625
2026-01-14 17:14:17.871,18247360,7923874,-55035560,80861530,-13232420,-13671880,78271490
2026-01-14 17:14:17.881,18523570,28903160,-33676480,80757940,-10771480,-10644530,6098633
2026-01-14 17:14:17.891,-25954580,-21075100,-27296810,35900000,-92041020,-8305664,43237300
2026-01-14 17:14:17.901,-25756920,6430594,-55423980,35717870,-9169922,-59033200,24719240
2026-01-14 17:14:17.911,-25579100,30523930,-31019900,35550410,-9145508,-37890620,41534420
2026-01-14 17:14:17.921,-25437550,5541534,-55708830,35415760,-79052740,-15222170,-9753418
2026-01-14 17:14:17.931,-25342600,5170372,-55855570,35320810,-5864258,8416748,-24243160
2026-01-14 17:14:17.941,-25294260,4859630,-55993670,35265570,-39379880,25976560,-38549800
2026-01-14 17:14:17.951,46769000,-22709940,-28786640,52823260,-36450200,35302740,-44702150
2026-01-14 17:14:17.961,19386740,4471202,-56261260,80015620,-28442380,47827150,-36816410
2026-01-14 17:14:17.971,1917094,-22960250,-29036950,7998972,-1373291,62353520,-25585940
2026-01-14 17:14:17.981,-25595500,-2300602,-2909478,35482220,-54718020,6855469,-115600600
2026-01-14 17:14:17.991,18558100,-23006010,-29112050,79981100,43060300,81640620,6286621
2026-01-14 17:14:18.001,-25981340,30373570,-30894060,35804180,19726560,8535156,2130127
2026-01-14 17:14:18.011,1787617,4799210,-56692840,8004152,47070310,85546870,39526370
2026-01-14 17:14:18.021,-26380130,5032262,-56684210,36147730,91552740,9658203,625
2026-01-14 17:14:18.031,-26544130,5265322,-56641050,36294460,11660160,9980469,80859380
2026-01-14 17:14:18.041,17185660,-22438900,-28643350,80248670,12070310,8496094,8413086
2026-01-14 17:14:18.051,1712523,28518190,-33595340,8032638,12451170,75341800,98876950
2026-01-14 17:14:18.061,45614080,580909,-5628717,51941100,13251950,671875,10566410
2026-01-14 17:14:18.071,1723743,5895432,-56114520,8050764,13007810,4855957,10908200
2026-01-14 17:14:18.081,17392820,28426690,-33427880,80611200,12978520,3544922,11611330
2026-01-14 17:14:18.091,48833260,30565880,-31064280,49464240,11748050,26586910,12529300
2026-01-14 17:14:18.101,17850300,581771,3,-5553621,80792470,10507810,23583980,13164060
2026-01-14 17:14:18.111,46365040,5696904,-55329040,52640270,8540039,13513180,14082030
2026-01-14 17:14:18.121,18437260,55239,19,-551219,5,80965110,6660156,38970950,14228520
2026-01-14 17:14:18.131,-26134120,5325742,-54906080,36117510,5864258,-7408142,140625
2026-01-14 17:14:18.141,19162320,5118578,-54681660,81120480,5883789,-12741090,14267580
2026-01-14 17:14:18.151,47292080,-21824330,-27756010,53456820,55810550,-86364740,13896480
2026-01-14 17:14:18.161,-25588600,4617946,-54198280,35713550,53759770,-13464360,13671880
2026-01-14 17:14:18.171,-25390940,28901170,-29397150,35565950,46240230,-19348140,13007810
2026-01-14 17:14:18.181,48104320,-21920140,-27694730,54163760,3371582,-23352050,1265625
2026-01-14 17:14:18.191,21285710,3772036,-53421440,81500270,19848630,-2524414,1171875
2026-01-14 17:14:18.201,48660200,3461300,-53162490,54643680,12390140,-2709961,11679690
2026-01-14 17:14:18.211,-24537260,25529900,-30506930,34917710,10028080,-21801760,11357420
2026-01-14 17:14:18.221,2261496,2788032,-52644580,8169017,44281010,-21887210,11201170
2026-01-14 17:14:18.231,4946034,2442762,-52402900,5532817,-26184080,-24377440,10917970
2026-01-14 17:14:18.241,-23895070,2080228,-52161210,34420530,-10101320,-28320310,10849610
2026-01-14 17:14:18.251,-23682730,1709070,-51928160,34253070,-19812010,-2553711,10673830
2026-01-14 17:14:18.261,2428089,-25186960,-25187490,8185416,-30126950,-296875,10205080
2026-01-14 17:14:18.271,24677950,949482,-51462040,81888700,-4091797,-36743160,10117190
2026-01-14 17:14:18.281,50638580,-25074930,-25593000,56325130,-44677740,-38842770,10322270
2026-01-14 17:14:18.291,25437540,172628,-51013200,81940490,-56396480,-41015620,10029300
2026-01-14 17:14:18.301,25808710,22741000,-27840600,81966380,-69873050,-43896480,9848633
2026-01-14 17:14:18.311,-22488960,-61286,5,-5055571,33306180,-79541020,-45776370,93652340
2026-01-14 17:14:18.321,-22288710,-1018540,-50339930,33143900,-8120117,-39990230,97802740
2026-01-14 17:14:18.331,2693082,-23349540,-28216080,8200090,-75634770,-35180660,10087890
2026-01-14 17:14:18.341,-21888200,-1890340,-49899710,32819350,-7192383,-31103520,10537110
2026-01-14 17:14:18.351,-21680180,-2330552,-49683920,32647580,-6533203,-33203120,10283200
2026-01-14 17:14:18.361,-21472150,20717740,-25945080,32475810,-6508789,-30151370,96728510
2026-01-14 17:14:18.371,-21264990,-3280040,-49252340,32303180,-8256836,-33422850,91064460
2026-01-14 17:14:18.381,-21058700,-3780676,-49062440,32129680,-10605470,-32202150,9086914
2026-01-14 17:14:18.391,2909736,19637920,-24953310,8190597,-12138670,-38964840,9794922
2026-01-14 17:14:18.401,2942538,-479921,5,-4869991,8187143,-12568360,-5107422,99560540
2026-01-14 17:14:18.411,5319268,-5334374,-48527270,5839760,-10625,-72265620,8808594
2026-01-14 17:14:18.421,-20205890,20971260,-21513840,31394260,-8642578,-81640620,7651367
2026-01-14 17:14:18.431,-19959020,-6447862,-48225160,31175020,-6982422,-7939453,64160160
2026-01-14 17:14:18.441,-19695760,-25516960,-29622180,30937650,-6254883,-7832031,53515620
2026-01-14 17:14:18.451,31272550,17372100,-22937810,81388060,-58251950,-8588867,30737300
2026-01-14 17:14:18.461,5396263,19502660,-20064930,5892241,-5283203,-8569336,19555660
2026-01-14 17:14:18.471,-18878340,-898558,5,-4782810,30184100,-42333980,-9199219,7232666
2026-01-14 17:14:18.481,3232561,19021380,-19078830,8088743,-3935547,-8803711,-25009160
2026-01-14 17:14:18.491,-18363890,-10375270,-47733160,29697280,-29467770,-76904300,-22979740
2026-01-14 17:14:18.501,-23230340,-27550580,-31213860,24364710,-20581060,-7788086,-16479490
2026-01-14 17:14:18.511,-17897780,-11747710,-47672740,29248430,-14990230,-68359380,-24450680
2026-01-14 17:14:18.521,54433060,14622060,-20629710,59107980,-15686040,-42651370,-3203125
2026-01-14 17:14:18.531,33577220,-13076990,-47655480,79963830,-12512210,-16833500,-3876953
2026-01-14 17:14:18.541,-17371250,-13724360,-47664100,28721890,-10253910,5050659,-5
2026-01-14 17:14:18.551,-22358540,13565540,-19769980,23492920,-14074710,31030270,-57373050
2026-01-14 17:14:18.561,3384478,-14993220,-47707260,7948909,-18688960,53564450,-6616211
2026-01-14 17:14:18.571,33853420,-15614700,-47741790,79342350,-1829834,78125,-703125
2026-01-14 17:14:18.581,33827530,12559950,-18962930,79195620,-22387700,10576170,-6875
2026-01-14 17:14:18.591,33784370,-16900820,-47802210,79066140,-24194340,11240230,-69091800
2026-01-14 17:14:18.601,-16963830,-17565460,-47828110,28231620,-21264650,10449220,-68847660
2026-01-14 17:14:18.611,33698060,11499980,-18106670,78789930,-15856930,8569336,-7290039
2026-01-14 17:14:18.621,33672160,-18912000,-47828110,78643180,-83862300,54785160,-78222660
2026-01-14 17:14:18.631,-16798960,10734350,-17473960,28016690,-25680540,25048830,-75634770
2026-01-14 17:14:18.641,3371531,10348510,-17152000,7832382,-61035160,2588272,-69189460
2026-01-14 17:14:18.651,-21606380,-20931810,-47707260,22725900,-3161621,-21606440,-6796875
2026-01-14 17:14:18.661,33957000,9574250,-16493410,77961280,5458832,-27026370,-6723633
2026-01-14 17:14:18.671,34164160,-22183410,-47526000,77754120,4534912,-21118160,-69384770
2026-01-14 17:14:18.681,-15953930,-22778990,-47396520,27152660,11071780,-7952881,-78027340
2026-01-14 17:14:18.691,53916890,8416744,-15475730,58174040,18457030,82336420,-9013672
2026-01-14 17:14:18.701,5401529,11220310,-11929840,5821375,23596190,19519040,-10859380
2026-01-14 17:14:18.711,3553659,-24427640,-46835460,7688232,24902340,2553711,-12509770
2026-01-14 17:14:18.721,-14713550,7247153,-14401090,25976160,2746582,33447270,-13945310
2026-01-14 17:14:18.731,3643429,6864771,-14041150,7643348,31445310,33081060,-14755860
2026-01-14 17:14:18.741,3691765,-25895020,-46058610,7622631,37158200,24743650,-15566410
2026-01-14 17:14:18.751,37409680,6123307,-13332490,76010530,37109380,16455080,-16162110
2026-01-14 17:14:18.761,-13261710,578234,8,-1300016,24631350,3864746,117370600,-16035160
2026-01-14 17:14:18.771,3838505,-35216370,-37030740,7560483,5097656,10015870,-15429690
2026-01-14 17:14:18.781,38859800,5165191,-12391630,75423570,6616211,1239624,-13925780
2026-01-14 17:14:18.791,39334540,-27621360,-44625760,75259570,69628900,43670660,-13652340
2026-01-14 17:14:18.801,39783380,-27854420,-44340910,75086940,5449219,-38360600,-13535160
2026-01-14 17:14:18.811,55846070,-28070210,-44073340,59317730,37426760,-13220220,-13671880
2026-01-14 17:14:18.821,-11310080,4182908,-11388630,22854080,18200680,-19995120,-13554690
2026-01-14 17:14:18.831,4106083,39722970,-111676600,7467264,24780270,-15551760,-12958980
2026-01-14 17:14:18.841,-10737800,3788441,-10971720,22338770,-91552740,-12890630,-12578130
2026-01-14 17:14:18.851,-10456410,3604586,-10775780,22085000,-24475100,-58288580,-121875
2026-01-14 17:14:18.861,42277940,3421592,-10578980,74284190,-35961910,87768550,-11435550
2026-01-14 17:14:18.871,-9894491,-28890210,-42545520,21576600,-4650879,29516600,-10839840
2026-01-14 17:14:18.881,43063420,-29011060,-42303840,74016610,-5546875,5073242,-9682617
2026-01-14 17:14:18.891,43443220,29131900,-100343200,73878500,-6699219,6723633,-86572260
2026-01-14 17:14:18.901,43814380,2727606,-9840111,73731770,-7915039,8046875,-7236328
2026-01-14 17:14:18.911,-8811214,-29416750,-41621940,20588270,-90722660,8544922,-6411133
2026-01-14 17:14:18.921,-8541910,23642160,-94611780,20339680,-10146480,81591800,-5961914
2026-01-14 17:14:18.931,-8264829,-29744750,-41173090,20081590,-10976560,703125,-61328120
2026-01-14 17:14:18.941,57797690,1962841,-9051176,60577090,-11835940,60839840,-5932617
2026-01-14 17:14:18.951,-7683916,1758271,-8841423,19540380,-12324220,5620117,-5644531
2026-01-14 17:14:18.961,-7389580,15442070,-86239060,19265030,-12490230,51171880,-45458980
2026-01-14 17:14:18.971,58169720,13223720,-83968930,60774760,-12617190,4621582,-4020996
2026-01-14 17:14:18.981,-6765507,4643837,-4643845,18680670,-12548830,4008789,-3564453
2026-01-14 17:14:18.991,-12344060,-35337630,-35338510,12463380,-12529300,3413086,-33276370
2026-01-14 17:14:19.001,-6117272,6715440,-77357060,18068690,-11748050,296875,-2319336
2026-01-14 17:14:19.011,-5797899,4661104,-75268200,17766580,-10878910,21789550,-19628910
