Timestamp,Rotation X,Rotation Y,Rotation Z,Rotation W,Acceleration X,Acceleration Y,Acceleration Z
2026-01-14 17:05:53.001,47465580,43785040,42255490,-62398370,-36224360,16601560,21713260
2026-01-14 17:05:53.011,-1974064,5067657,3538123,-12958730,-16815190,-1698494,4119873
2026-01-14 17:05:53.021,-1966296,5068520,3538987,-12949240,-4034424,14877320,19332890
2026-01-14 17:05:53.031,47456950,11944510,-3333555,-62355220,-33966060,-8514404,41275020
2026-01-14 17:05:53.041,-1959390,11945380,-3332689,-12938880,-3793335,-22262570,-14091490
2026-01-14 17:05:53.051,-1959392,119376100,-33231950,-12938880,-3616333,-9132385,-3564453
2026-01-14 17:05:53.061,-1960257,80612080,-71995940,-12938010,-42663580,43296820,-31097410
2026-01-14 17:05:53.071,-1960257,80612080,-71995940,-12938010,-30654910,-16540530,-38726810
2026-01-14 17:05:53.081,47431040,76648580,-75786790,-62329320,-14205930,11398320,-340271
2026-01-14 17:05:53.091,-6900423,80527490,-71907890,-7997847,-5519867,-26763920,-28503420
2026-01-14 17:05:53.101,-6900423,80527490,-71907890,-7997847,-4524231,-26107790,-43060300
2026-01-14 17:05:53.111,-6900423,80441170,-71821570,-7997847,-5924225,-17913820,-29632570
2026-01-14 17:05:53.121,-6900421,119238000,-33024790,-7997845,-23605350,-68473820,-24841310
2026-01-14 17:05:53.131,-6900421,119238000,-33024790,-7997845,-29220580,-15487670,-2078247
2026-01-14 17:05:53.141,-6900421,119151600,-32938470,-7997845,-26687620,12130740,-3326416
2026-01-14 17:05:53.151,-6900421,119151600,-32938470,-7997845,-33477780,-17059330,-31158450
2026-01-14 17:05:53.161,-6891790,119151600,-32938470,-7989214,-60577390,-15960690,-27999880
2026-01-14 17:05:53.171,-6891790,119065300,-32852160,-7989214,-8276367,19866940,-12962340
2026-01-14 17:05:53.181,-6891790,119065300,-32852160,-7989214,-40527340,-2658844,-19241330
2026-01-14 17:05:53.191,-6891791,80268530,-71648940,-7989216,-34454340,-1033783,-12084960
2026-01-14 17:05:53.201,47439680,80268540,-71648940,-62320680,-58013920,11795040,-3062439
2026-01-14 17:05:53.211,47439680,80268540,-71648940,-62320680,-5947876,14625550,-28579710
2026-01-14 17:05:53.221,47439680,80182220,-71562620,-62320680,-7659912,1966858,-4928589
2026-01-14 17:05:53.231,-1960257,76303320,-75441530,-12938010,-574646,-22262570,-574646
2026-01-14 17:05:53.241,-1960257,80180500,-71564350,-12938010,-8190918,-19348140,-3793335
2026-01-14 17:05:53.251,-1959393,80094180,-71478030,-12938880,-8013916,-8834839,-30441280
2026-01-14 17:05:53.261,-1959392,118858200,-32714050,-12938880,-53710940,-30197140,-21453860
2026-01-14 17:05:53.271,47456950,118771800,-32627730,-62355210,-6097412,-37017820,-28915400
2026-01-14 17:05:53.281,47456940,80006130,-71393440,-62355220,-3414917,-13343810,-36132810
2026-01-14 17:05:53.291,-1957667,80006130,-71393440,-12940600,-43762210,-48095700,-20309450
2026-01-14 17:05:53.301,-1957667,79918940,-71307980,-12940600,-46051020,-1374054,-41931150
2026-01-14 17:05:53.311,-1957667,79918940,-71307980,-12940600,-29922480,-30197140,-37902830
2026-01-14 17:05:53.321,-1956799,50598880,35493440,-12941470,-3265381,-1524353,-43426510
2026-01-14 17:05:53.331,-1956799,50590240,35502080,-12941470,-5657959,-140686000,-43701170
2026-01-14 17:05:53.341,-1956799,50590240,35502080,-12941470,-4510498,-8468628,-35217280
2026-01-14 17:05:53.351,47482840,50581620,35510700,-62381110,-15014650,4383087,-4321289
2026-01-14 17:05:53.361,47482840,11830580,-3223069,-62381110,-27191160,2796173,-1689148
2026-01-14 17:05:53.371,47482840,11830580,-3223069,-62381110,-14984130,-73509220,-45051580
2026-01-14 17:05:53.381,47482840,11830580,-3223069,-62381110,-23468020,-28762820,-19134520
2026-01-14 17:05:53.391,47491470,11821940,-3214438,-62389740,-9384155,8895874,-26931760
2026-01-14 17:05:53.401,47491470,11821080,-3215301,-62389740,26073460,-19042970,-1096344
2026-01-14 17:05:53.411,47500100,11821080,-3215301,-62381110,-17990110,-3668213,-14602660
2026-01-14 17:05:53.421,47500100,11821080,-3215301,-62381110,-21759030,-32165530,-8115,769
2026-01-14 17:05:53.431,47500100,11821080,-3215301,-62381110,10879520,-2822876,16031270
2026-01-14 17:05:53.441,47500100,11821080,-3215301,-62381110,24383540,9613037,-67367550
2026-01-14 17:05:53.451,47500100,11821080,-3215301,-62381110,15838620,-16311650,12382510
2026-01-14 17:05:53.461,47500100,11821080,-3215301,-62381110,96588140,-14312740,17181400
2026-01-14 17:05:53.471,47508740,11821080,-3215301,-62372480,-16098020,-25234220,24765020
2026-01-14 17:05:53.481,47508740,11821080,-3215301,-62372480,-28591160,16067510,-4623413
2026-01-14 17:05:53.491,47500100,11821940,-3214438,-62381110,25863650,33779140,-33779140
2026-01-14 17:05:53.501,47500100,11821940,-3214438,-62381110,2331543,-10986330,-11207580
2026-01-14 17:05:53.511,47491470,11821940,-3214438,-62372480,29632570,568,3899,-14848710
2026-01-14 17:05:53.521,47491470,11830580,-3223069,-62372480,29312130,-14205930,11680600
2026-01-14 17:05:53.531,47491470,50572980,35519340,-62372480,36499020,-21209720,52490230
2026-01-14 17:05:53.541,-1956799,50581610,35510710,-12941470,6500244,-37323000,8354187
2026-01-14 17:05:53.551,-1956799,50581610,35510710,-12941470,51940920,-32562260,-24917600
2026-01-14 17:05:53.561,-1965432,11840930,-3229972,-12950100,35949710,-5771637,-17913820
2026-01-14 17:05:53.571,-1965432,11840930,-3229972,-12950100,29449460,-24810790,-10871890
2026-01-14 17:05:53.581,-1974928,11849560,-3238604,-12957870,27450560,6515503,-20462040
2026-01-14 17:05:53.591,-1974928,11849560,-3238604,-12957870,30334470,29022220,-16586300
2026-01-14 17:05:53.601,-1983559,11858190,-3247236,-12966500,4638672,-13008120,-19104000
2026-01-14 17:05:53.611,-1983559,11858190,-3247236,-12966500,2923584,-6046295,-37994380
2026-01-14 17:05:53.621,-1992191,11858190,-3247236,-12975130,18371580,-793457,-25482180
2026-01-14 17:05:53.631,-2000823,11858190,-3247236,-12983760,5382538,-2709961,-4156494
2026-01-14 17:05:53.641,-2000824,118659600,-32567300,-12983760,11528020,11806490,-1737976
2026-01-14 17:05:53.651,4741377,118659600,-32567300,-6241558,712204,-17166140,43525700
2026-01-14 17:05:53.661,4741377,118659600,-32567300,-6241558,-41122440,-58631900,34332280
2026-01-14 17:05:53.671,-2018087,118745900,-32653620,-13001020,9971619,-21896360,1458168
2026-01-14 17:05:53.681,-2018089,80003540,-71396030,-13001030,-14629360,-5832672,9567261
2026-01-14 17:05:53.691,-2026721,80089860,-71482350,-13009660,-11260990,1469,85,-15731810
2026-01-14 17:05:53.701,-2035352,80089860,-71482350,-13018290,-70724490,4108429,-27751920
2026-01-14 17:05:53.711,-2043984,80175310,-71569540,-13026920,10154720,65078740,-30334470
2026-01-14 17:05:53.721,-2052615,80175310,-71569540,-13035550,36132810,-25604250,-3265381
2026-01-14 17:05:53.731,-2060384,80261620,-71655850,-13045050,57861330,-5050659,-12329100
2026-01-14 17:05:53.741,-2060382,118979000,-32938470,-13045050,35308840,-4953003,12481690
2026-01-14 17:05:53.751,-70121130,119065300,-33024780,-81105800,3164673,1004219,10437010
2026-01-14 17:05:53.761,-70121130,119056700,-33033410,-81105800,-72517390,-43754580,16525270
2026-01-14 17:05:53.771,-20767810,119056700,-33033410,-130631800,11169430,51612860,-6980896
2026-01-14 17:05:53.781,-20767810,80431670,-71831060,-130631800,16662600,-34484860,-10620120
2026-01-14 17:05:53.791,-20854130,80431670,-71831060,-130718100,-20656590,199,0795,-21011350
2026-01-14 17:05:53.801,-20845500,80430810,-71831930,-130726700,-72784420,-10795590,-25138860
2026-01-14 17:05:53.811,-20845500,80430810,-71831930,-130726700,-13933180,-25730130,16937260
2026-01-14 17:05:53.821,-20931820,119203400,-33231950,-130813000,23468020,67253110,21194460
2026-01-14 17:05:53.831,-70377500,119203400,-33231940,-81367340,15716550,37574770,46966550
2026-01-14 17:05:53.841,-70377500,80601720,-72006300,-81367340,30685420,-27580260,40405270
2026-01-14 17:05:53.851,-70463820,80601720,-72006300,-81453660,50598140,-15274050,21240230
2026-01-14 17:05:53.861,-70463810,11936750,-3341318,-81453660,39154050,-33569340,28900150
2026-01-14 17:05:53.871,-70550130,1194455,-335078,6,-81539970,3616333,-22277830,26855470
2026-01-14 17:05:53.881,-70550130,1194455,-335078,6,-81539970,22903440,-26809690,-3100586
2026-01-14 17:05:53.891,-70636450,8085984,-7226608,-81626290,48858640,-284729,-29510500
2026-01-14 17:05:53.901,-70722770,8085984,-7226608,-81712610,41137700,-34698490,-22323610
2026-01-14 17:05:53.911,-70809090,8094616,-7235239,-81798930,32836910,-25238040,-14831540
2026-01-14 17:05:53.921,-70809090,8094616,-7235239,-81798930,2168274,-3704071,-13595580
2026-01-14 17:05:53.931,-2144107,50633400,35286280,-13133950,16296390,3917,217,23269650
2026-01-14 17:05:53.941,-2144107,50633400,35286280,-13133950,21957400,-14160160,11795040
2026-01-14 17:05:53.951,4730159,50642040,35277650,-6259688,41107180,-5180359,24612430
2026-01-14 17:05:53.961,54175840,50650670,35269020,-55705370,6341553,-1928711,5606079
2026-01-14 17:05:53.971,47284310,50659300,35260390,-62596900,7244873,-41625980,43914800
2026-01-14 17:05:53.981,47284310,50667930,35251760,-62596900,8331299,-27908320,309906
2026-01-14 17:05:53.991,47275680,50676560,35243120,-62605530,68481450,-20263670,39489740
2026-01-14 17:05:54.001,47275680,50676560,35243120,-62605530,49957280,-21102900,23162840
2026-01-14 17:05:54.011,47258420,50685200,35234490,-62605530,44158940,59432980,9681702
2026-01-14 17:05:54.021,47249780,43037190,42882500,-62614160,3427124,894928,38928980
2026-01-14 17:05:54.031,47249780,43037190,42882500,-62614160,21575930,6427765,-13587950
2026-01-14 17:05:54.041,-2198488,8172298,-7312927,-13183160,18478390,-7217407,-17929080
2026-01-14 17:05:54.051,-2207120,8172298,-7312927,-13191790,439,5843,51956180,-32714840
2026-01-14 17:05:54.061,-2215752,8180929,-7321559,-13200420,35064700,11260990,1020813
2026-01-14 17:05:54.071,-2225247,8189561,-7330190,-13208190,6616211,10658260,9857178
2026-01-14 17:05:54.081,-2225246,12066220,-3470796,-13208190,6048584,-184021,16983030
2026-01-14 17:05:54.091,47180740,12066220,-3470798,-62631430,28076170,-32043460,-13267520
2026-01-14 17:05:54.101,54828740,12074850,-3479430,-54983420,73165900,-35934450,-66566470
2026-01-14 17:05:54.111,47163470,50762880,35208600,-62648700,-32104490,-21820070,-19241330
2026-01-14 17:05:54.121,-2261497,50771510,35199970,-13240990,-20950320,-33691410,-2128601
2026-01-14 17:05:54.131,-2270129,50771510,35199970,-13249620,12390140,-17578120,-7080078
2026-01-14 17:05:54.141,-2279624,50780140,35191340,-13257390,-14732360,-14602660,-2935791
2026-01-14 17:05:54.151,-2279626,12093840,-3494965,-13257390,4348755,-35003660,-12123110
2026-01-14 17:05:54.161,47103040,12093840,-3494967,-62657320,-77171330,-2470398,-27954100
2026-01-14 17:05:54.171,47094420,12102470,-3503599,-62665950,46081540,-6665039,-11550900
2026-01-14 17:05:54.181,47094420,12103340,-3502736,-62665950,3736496,-44433590,-3817749
2026-01-14 17:05:54.191,-7245687,12103330,-3502733,-8343117,75912480,-20812990,-30960080
2026-01-14 17:05:54.201,-7254317,50814660,35208600,-8351747,15853880,-22750850,-4135132
2026-01-14 17:05:54.211,-2316740,50814660,35208600,-13289320,20355220,-16433720,-24154660
2026-01-14 17:05:54.221,-2316740,50823300,35217230,-13289320,-12168880,-29312130,-66223140
2026-01-14 17:05:54.231,47042620,12105930,-3500146,-62665950,818634,-1689148,-16281130
2026-01-14 17:05:54.241,47042620,12105930,-3500146,-62665950,-14129640,-17211910,-12084960
2026-01-14 17:05:54.251,47034000,12106790,-3499283,-62657320,-13031010,-3378296,-16067510
2026-01-14 17:05:54.261,47034000,12106790,-3499283,-62657320,-26054380,-51727300,-48309330
2026-01-14 17:05:54.271,4701675,50849190,35243130,-6265731,9666443,-19012450,-48828120
2026-01-14 17:05:54.281,4701675,50849190,35243130,-6265731,-8117676,-26367190,-44403080
2026-01-14 17:05:54.291,4701674,12099880,-3488923,-6265732,-19317630,-16967770,-44006350
2026-01-14 17:05:54.301,4700810,12099880,-3488923,-6264869,-74882500,-41503900,-25268560
2026-01-14 17:05:54.311,4700810,12100740,-3488060,-6264869,8331299,-3152466,7411957
2026-01-14 17:05:54.321,-2328826,12100750,-3488059,-13294500,-17303470,-5026245,392,6754
2026-01-14 17:05:54.331,47008100,50866460,35277650,-62631430,5542755,-21972660,-9674072
2026-01-14 17:05:54.341,47008100,50866460,35277650,-62631430,-15625,39043430,-18901820
2026-01-14 17:05:54.351,-2330552,12102470,-3486333,-13292780,2532959,-5340576,10528560
2026-01-14 17:05:54.361,-2321921,8225296,-7363509,-13284150,-15525820,-10955810,52337650
2026-01-14 17:05:54.371,-2322784,8225296,-7363509,-13283280,-14259340,5622864,5149,841
2026-01-14 17:05:54.381,-2322784,12095570,-3475974,-13283280,-24673460,29937740,-2281189
2026-01-14 17:05:54.391,46990840,50892350,35320800,-62596900,-107803300,5683899,-18615720
2026-01-14 17:05:54.401,46990840,50892350,35320800,-62596900,-184021,18051150,-29830930
2026-01-14 17:05:54.411,-2333141,12097290,-3474248,-13290190,-30914310,-37498470,-51879880
2026-01-14 17:05:54.421,-2333141,12097290,-3474248,-13290190,52757260,-5126953,-33416750
2026-01-14 17:05:54.431,-2334005,12106790,-3482017,-13289330,8598328,-13946530,-12298580
2026-01-14 17:05:54.441,-2334005,12098160,-3473385,-13289330,-4310608,-18997190,-32104490
2026-01-14 17:05:54.451,46956310,50918250,35346700,-62579640,-19317630,-16113280,-15731810
2026-01-14 17:05:54.461,46956310,12099880,-3471662,-62579640,-13092040,-22109980,-35980220
2026-01-14 17:05:54.471,46947680,12099880,-3471662,-62571010,-23078920,-18676760,-2458191
2026-01-14 17:05:54.481,46947680,12100750,-3470798,-62571010,-8926392,-15419010,-32592770
2026-01-14 17:05:54.491,-234521,50944140,35372600,-1329535,4322052,-31036380,-57373050
2026-01-14 17:05:54.501,-234521,50935510,35381230,-1329535,-211792,-39886480,-6561279
2026-01-14 17:05:54.511,-234521,50944140,35389860,-1329535,-38085940,4131317,-37628180
2026-01-14 17:05:54.521,4692180,50944140,35389860,-6256236,-1725769,-730896,-3237915
2026-01-14 17:05:54.531,4692180,50935510,35398500,-6256236,-12756350,16431810,-19332890
2026-01-14 17:05:54.541,4692179,12086070,-3450944,-6256237,1512146,-19180300,-46539310
2026-01-14 17:05:54.551,4692179,12086070,-3450944,-6256237,-18676760,-10856630,-3250122
2026-01-14 17:05:54.561,4692179,12077440,-3442312,-6256237,-31757360,-970459,-39520260
2026-01-14 17:05:54.571,53951420,12078300,-3441451,-55515480,-19044880,-16756060,-3640747
2026-01-14 17:05:54.581,46904520,12078310,-3441450,-62562380,-27389530,-1499939,-51330570
2026-01-14 17:05:54.591,46904520,12069670,-3432819,-62562380,-12794500,-5382538,-43762210
2026-01-14 17:05:54.601,53951420,12069670,-3432819,-55515480,-11222840,-17028810,-28076170
2026-01-14 17:05:54.611,46904520,12069670,-3432819,-62562380,37059780,-27191160,-35705570
2026-01-14 17:05:54.621,53951420,12069670,-3432819,-55515480,24154660,-13824460,-12464520
2026-01-14 17:05:54.631,53951420,12061040,-3424188,-55515480,-4497528,-24642940,-73280340
2026-01-14 17:05:54.641,53951420,12061040,-3424188,-55515480,22144320,-9262085,-21331790
2026-01-14 17:05:54.651,53951420,12061040,-3424188,-55515480,-5847931,20313260,-3378296
2026-01-14 17:05:54.661,53951420,43270240,43115560,-55515480,9567261,73776250,-27160640
2026-01-14 17:05:54.671,53951420,43270240,43115560,-55515480,68588260,-25344850,-30227660
2026-01-14 17:05:54.681,46904520,4395770,4241085,-62562380,14030460,-1637268,-34820560
2026-01-14 17:05:54.691,53951420,12043780,-3406924,-55515480,-93307500,-21835330,-30319210
2026-01-14 17:05:54.701,4692179,12043780,-3406922,-6256237,9635925,-28030400,-74768060
2026-01-14 17:05:54.711,4692179,12043780,-3406922,-6256237,-9597778,-23773190,-5176544
2026-01-14 17:05:54.721,4692179,12043780,-3406922,-6256237,16155240,-10040280,53367620
2026-01-14 17:05:54.731,-2337457,12035140,-3398290,-13285870,-21266940,-1991272,1852417
2026-01-14 17:05:54.741,-2337457,12034280,-3399153,-13285870,59432980,-2029419,-11405950
2026-01-14 17:05:54.751,-7264158,12034280,-3399153,-8359172,15625,-27542110,-6500244
2026-01-14 17:05:54.761,-7264158,12034280,-3399153,-8359172,-2166748,-2305603,-3818512
2026-01-14 17:05:54.771,-7264158,12034280,-3399153,-8359172,1890564,-16448980,-10940550
2026-01-14 17:05:54.781,-7264158,12025650,-3390522,-8359172,11253360,-16998290,-10643010
2026-01-14 17:05:54.791,-7264158,12025650,-3390522,-8359172,16922000,-63972470,-14831540
2026-01-14 17:05:54.801,-7255525,50875090,35458920,-8350538,-11940000,-3567505,7411957
2026-01-14 17:05:54.811,46956310,50875090,35458920,-62562380,4801,75,-2557373,-17730710
2026-01-14 17:05:54.821,46956310,50875090,35458920,-62562380,-17028810,-231781,50315860
2026-01-14 17:05:54.831,46956310,50866460,35467550,-62562380,-20645140,-34820560,-10604860
2026-01-14 17:05:54.841,46956310,50866460,35467550,-62562380,7045746,-31677250,-22384640
2026-01-14 17:05:54.851,46964940,50857830,35458920,-62571010,-12794500,-21865840,-16525270
2026-01-14 17:05:54.861,46973580,50849200,35467550,-62562380,36716460,-14152530,-15335080
2026-01-14 17:05:54.871,46973580,50849200,35467550,-62562380,-11886600,-15388490,-2909851
2026-01-14 17:05:54.881,-2316742,12005800,-3375848,-13272060,-19622800,-2607727,-76828000
2026-01-14 17:05:54.891,-2316742,11997170,-3367216,-13272060,-28640750,-3921509,-6340027
2026-01-14 17:05:54.901,-2316742,11997170,-3367216,-13272060,-26950840,-1966858,-2422,333
2026-01-14 17:05:54.911,-2307246,11988530,-3358584,-13264290,-12111660,-31051640,-20580290
2026-01-14 17:05:54.921,-2307246,11987670,-3359448,-13264290,-9979248,-23544310,71868900
2026-01-14 17:05:54.931,-2307246,11987670,-3359448,-13264290,-35572050,-37323000,40802000
2026-01-14 17:05:54.941,47016730,11979040,-3350819,-62571010,-4020691,-30727390,35705570
2026-01-14 17:05:54.951,47016730,50797410,35467540,-62571000,12809750,30612950,1701355
2026-01-14 17:05:54.961,47025360,50797410,35467540,-62562370,82092290,-29937740,2822876
2026-01-14 17:05:54.971,-2288256,50788770,35476180,-13248760,-28579710,-79193110,25375370
2026-01-14 17:05:54.981,-2279625,11968680,-3343911,-13240130,-23864750,-12428280,4425049
2026-01-14 17:05:54.991,-2270994,11968680,-3343911,-13231490,-37475580,-919342,39978030
2026-01-14 17:05:55.001,-2270130,5077152,3547618,-13232360,-34851070,-711,9179,45532230
2026-01-14 17:05:55.011,-2270130,5077152,3547618,-13232360,-25039670,-15159610,44555660
2026-01-14 17:05:55.021,-2261499,5077152,3547618,-13223730,-9742737,27893070,42877200
2026-01-14 17:05:55.031,-2261499,5077152,3547618,-13223730,7003784,32920840,33721920
2026-01-14 17:05:55.041,5403774,5077151,3547618,-5558453,-20965580,5126,27374270
2026-01-14 17:05:55.051,5403774,5077151,3547618,-5558453,-13496400,12483600,24585720
2026-01-14 17:05:55.061,5403774,5077151,3547618,-5558453,-1737976,31829830,4699707
2026-01-14 17:05:55.071,5403774,5077151,3547618,-5558453,-38848880,15625,-20080570
2026-01-14 17:05:55.081,5403774,5077151,3547618,-5558453,-46081540,9246826,-14007570
2026-01-14 17:05:55.091,5403774,5077151,3547618,-5558453,-4144287,7610321,1581192
2026-01-14 17:05:55.101,5403774,5077151,3547618,-5558453,-21514890,-4660034,62294010
2026-01-14 17:05:55.111,-2244235,5077152,3547618,-13206460,-17028810,-32562260,63705440
2026-01-14 17:05:55.121,-2244235,5077152,3547618,-13206460,-18814090,-48431400,-1474762
2026-01-14 17:05:55.131,-2244235,5077152,3547618,-13206460,-11528020,-55755620,-6893158
2026-01-14 17:05:55.141,-2244235,5077152,3547618,-13206460,-14350890,-50323490,-25344850
2026-01-14 17:05:55.151,47094420,5077154,3547616,-62545110,-23590090,-20599360,-25909420
2026-01-14 17:05:55.161,47094420,11950560,-3327513,-62545110,-28274540,-34484860,-20355220
2026-01-14 17:05:55.171,47103050,11950560,-3327513,-62536480,-26672360,-8850098,-8720398
2026-01-14 17:05:55.181,47103050,11950560,-3327513,-62536480,-90408330,-77667230,18722530
2026-01-14 17:05:55.191,47103040,80615540,-71992490,-62536480,-26626590,-8735657,20980840
2026-01-14 17:05:55.201,-2225249,80615530,-71992490,-13190920,13551710,-2922058,32348630
2026-01-14 17:05:55.211,-2225248,119410600,-33197430,-13190920,-46844480,11207580,4146576
2026-01-14 17:05:55.221,-2225248,119410600,-33197430,-13190920,22064210,390625,-54473880
2026-01-14 17:05:55.231,-2216616,119324300,-33111110,-13182290,16052250,-19119260,26340480
2026-01-14 17:05:55.241,-2215752,119324300,-33111110,-13183150,41015620,-33203120,-155181900
2026-01-14 17:05:55.251,-2215752,119324300,-33111110,-13183150,36346440,-5078125,4360199
2026-01-14 17:05:55.261,-2207122,80441170,-71821570,-13174520,24307250,-38146970,223732
2026-01-14 17:05:55.271,-2207122,80441170,-71821570,-13174520,5230713,-7476807,8155823
2026-01-14 17:05:55.281,47163460,80441170,-71821570,-62527850,3717041,-32196040,9643555
2026-01-14 17:05:55.291,47172100,80441170,-71821570,-62519220,50354000,-1890564,19256590
2026-01-14 17:05:55.301,47180730,80441170,-71821570,-62510580,46905520,-18203740,15083310
2026-01-14 17:05:55.311,47189360,80354850,-71735250,-62501950,4458618,-48675540,28381350
2026-01-14 17:05:55.321,54089520,80268540,-71648940,-55619050,38166050,-58807370,38848880
2026-01-14 17:05:55.331,-21449720,80182220,-71562620,-131158300,-29693600,-47058100,55786130
2026-01-14 17:05:55.341,-21277080,80095900,-71476300,-130985700,-31341550,-26611330,592041
2026-01-14 17:05:55.351,-70472450,79923260,-71303660,-81445020,-770874,-29159550,61767580
2026-01-14 17:05:55.361,-70299810,50659300,35553870,-81272400,-7320404,-29815670,3878784
2026-01-14 17:05:55.371,-70127170,50642040,35571130,-81099760,-12768560,-1340332,4156494
2026-01-14 17:05:55.381,-2049160,11821080,-3198035,-13021740,-14672850,-10412600,42663580
2026-01-14 17:05:55.391,-2023263,50616140,35648820,-12995850,-6915283,-947876,-12390140
2026-01-14 17:05:55.401,47370630,11771880,-3143658,-62337950,19569400,-9112549,-76171870
2026-01-14 17:05:55.411,47396520,11746850,-3116900,-62312060,10876470,-10357670,-117004400
2026-01-14 17:05:55.421,-1945578,50564350,35752400,-12918160,22338870,-8428955,-12854000
2026-01-14 17:05:55.431,-1911052,50538460,35795550,-12883640,13183590,-21411130,-1270752
2026-01-14 17:05:55.441,-72993150,116449900,-30115910,-74090580,-15271000,-4034424,-72021490
2026-01-14 17:05:55.451,-18316420,116018400,-29684330,-128076800,-9881592,14611820,-9887695
2026-01-14 17:05:55.461,-67362460,50426250,35907770,-78340220,-25436400,19702150,-13183590
2026-01-14 17:05:55.471,47646850,50383090,35933660,-62165320,206604,20910640,-9240723
2026-01-14 17:05:55.481,-1733241,11513790,-2883842,-12716180,35125730,17504880,-7867432
2026-01-14 17:05:55.491,47741790,11487040,-2858813,-62122160,50628660,1182251,-27359010
2026-01-14 17:05:55.501,-1669365,50279500,35985450,-12659210,6439209,4333496,-19760130
2026-01-14 17:05:55.511,-1642608,11442150,-2817378,-12634180,13928220,-21865840,14968870
2026-01-14 17:05:55.521,47854000,11424890,-2800118,-62079000,18164060,-6262207,6896973
2026-01-14 17:05:55.531,-1589092,11415390,-2792347,-12584120,15148930,-6347656,44799800
2026-01-14 17:05:55.541,-65195040,11398130,-2775081,-76191790,1381836,-56518560,6488037
2026-01-14 17:05:55.551,-64936090,75091260,-66468200,-75932840,10534670,-61157230,7244873
2026-01-14 17:05:55.561,-64763460,75005800,-66381030,-75760210,7342529,-7824707,6933594
2026-01-14 17:05:55.571,-64590820,113739600,-27474620,-75587580,7147217,-56671140,53527830
2026-01-14 17:05:55.581,-1485514,74834900,-66206670,-12480540,46661380,-11230470,53253180
2026-01-14 17:05:55.591,48000740,113592800,-27276090,-61932260,-41236880,-80566410,8508301
2026-01-14 17:05:55.601,48026640,113428800,-27094830,-61906360,-50994870,-28411860,8630371
2026-01-14 17:05:55.611,-1419048,113368400,-26982610,-12408890,-59265140,-24337770,8947754
2026-01-14 17:05:55.621,48043900,70521300,-69657100,-61837310,-38146970,-30578610,11529540
2026-01-14 17:05:55.631,-1387110,11323890,-2676681,-12371780,4208374,-42022700,48431400
2026-01-14 17:05:55.641,54219860,11317850,-2665464,-55592300,7470703,-83618160,16326900
2026-01-14 17:05:55.651,-1356037,11311810,-2654240,-12333800,13000490,-10266110,-43823240
2026-01-14 17:05:55.661,-6270308,11288500,-2625755,-7367738,9315491,-12023930,-35980220
2026-01-14 17:05:55.671,-62444990,50262240,36399770,-73417570,-446167,-12367250,-8276367
2026-01-14 17:05:55.681,-12818040,11240170,-2570512,-122526600,-51605220,21698000,-11022950
2026-01-14 17:05:55.691,-12645410,50236350,36494720,-122354000,-12054440,8959961,-11437990
2026-01-14 17:05:55.701,48121580,11182340,-2507504,-61569740,-10308840,14001470,-13183590
2026-01-14 17:05:55.711,54174120,11165940,-2489378,-55517200,-11340330,17797850,-12097170
2026-01-14 17:05:55.721,48147480,111409000,-24626170,-61543830,-1307373,17773440,-8312988
2026-01-14 17:05:55.731,48173370,111236400,-24453540,-61535200,-14331060,17370600,-10559080
2026-01-14 17:05:55.741,48182000,111063800,-24280910,-61526560,-18322750,12927250,-8782959
2026-01-14 17:05:55.751,-1177364,71837980,-63161420,-12149940,-2084961,6524658,-75805660
2026-01-14 17:05:55.761,-6106308,71750790,-63075960,-7203734,-20617680,51757810,-8251953
2026-01-14 17:05:55.771,48225160,50089610,36641450,-61535200,-12176510,-29968260,-61920170
2026-01-14 17:05:55.781,-1157508,11042500,-2371121,-12135270,-791626,-9552002,-4824829
2026-01-14 17:05:55.791,48268330,11024380,-2354723,-61543840,-5178833,-15783690,-47576900
2026-01-14 17:05:55.801,-1129022,50011920,36667350,-12111960,-173,3303,-18066410,-23483280
2026-01-14 17:05:55.811,-1119527,49986020,36675980,-12104200,4156494,-19140620,-18615720
2026-01-14 17:05:55.821,48337380,10969130,-2306386,-61543840,9442139,-15905760,983429
2026-01-14 17:05:55.831,-1091042,49925610,36684620,-12080890,114990200,-115600600,-7858276
2026-01-14 17:05:55.841,48397800,10932880,-2273585,-61535210,8050537,-36315920,45013430
2026-01-14 17:05:55.851,-1053928,10914750,-2257183,-12048950,-345459,61401370,6286621
2026-01-14 17:05:55.861,-1035800,49847920,36710510,-12032550,2897644,13720700,16159060
2026-01-14 17:05:55.871,-10081800,4981345,3672778,-120083900,23101810,124816900,5343628
2026-01-14 17:05:55.881,-59322910,69495340,-60842940,-70324840,-7598877,11401370,33233640
2026-01-14 17:05:55.891,-59063100,69236380,-60583990,-70066750,-4534912,13977050,44311520
2026-01-14 17:05:55.901,-937402,69063750,-60411360,-11941060,211792,947876,3047943
2026-01-14 17:05:55.911,48604960,68891120,-60238730,-61448880,84472660,11192320,-54626460
2026-01-14 17:05:55.921,48622220,10765430,-2113036,-61431630,11254880,-34210200,-117614700
2026-01-14 17:05:55.931,-883882,49675280,36831360,-11890990,52703860,-49926760,-14807130
2026-01-14 17:05:55.941,-865755,49658020,36848620,-11874590,-13870240,-6451416,-10687260
2026-01-14 17:05:55.951,48699910,49632130,36857240,-61405730,-49102780,-6945801,-7733154
2026-01-14 17:05:55.961,-829502,5,49623500,36865880,-11841790,-8544922,-6738281,-3314209
2026-01-14 17:05:55.971,-812241,10685150,-2037938,-11824530,-56274420,-690918,15220640
2026-01-14 17:05:55.981,-785482,5,10676520,-2029306,-11799500,-8288574,-24139400,4034424
2026-01-14 17:05:55.991,48803480,10658390,-2012908,-61353940,-17303470,-4647827,39093020
2026-01-14 17:05:56.001,48829380,10649760,-2004277,-61345310,868988,-7269287,6652832
2026-01-14 17:05:56.011,-7319660,4953723,3691767,-117494400,52703860,-8618164,29144290
2026-01-14 17:05:56.021,-7147028,10615240,-1969748,-117321700,1373291,-116882300,1864624
2026-01-14 17:05:56.031,-56552140,10598840,-1951619,-67571340,18383790,-11303710,-5290985
2026-01-14 17:05:56.041,-56379510,10581570,-1934356,-67398700,22094730,-99121100,3252,029
2026-01-14 17:05:56.051,48915700,105651700,-19162320,-61258980,23022460,-10479740,56640620
2026-01-14 17:05:56.061,48941590,105487700,-18981050,-61233090,2277832,-32470700,7525635
2026-01-14 17:05:56.071,48967480,66388800,-57734680,-61207200,15966800,14472960,11437990
2026-01-14 17:05:56.081,48984750,105082000,-18523570,-61172670,103393600,16922000,10498050
2026-01-14 17:05:56.091,-552427,4945950,3713347,-11566440,7470703,3289795,11871340
2026-01-14 17:05:56.101,-536027,10477130,-1814378,-11548320,11291500,6323242,8190918
2026-01-14 17:05:56.111,-510132,10460730,-1796251,-11522420,13574220,-4232788,725708
2026-01-14 17:05:56.121,49071070,49442230,37237040,-61034570,6317139,-13439940,33416750
2026-01-14 17:05:56.131,-4333100,4942502,3727157,-114438700,56518560,-37323000,-617218
2026-01-14 17:05:56.141,49157390,10377870,-1706484,-60948250,15234380,-13069150,-28137210
2026-01-14 17:05:56.151,-346128,5,49364540,37366520,-11358420,21264650,-7977295,-48065180
2026-01-14 17:05:56.161,-294342,5,63982280,-55307450,-11306630,19274900,-12213140,-57769780
2026-01-14 17:05:56.171,4931274,63550700,-54875870,-6082739,115356400,-97839350,-36193850
2026-01-14 17:05:56.181,49373180,10215590,-1540756,-60784250,869751,-9210205,11413570
2026-01-14 17:05:56.191,-1363808,10172430,-1497595,-111538500,7019043,-4321289,36895750
2026-01-14 17:05:56.201,-75095,10129270,-1454437,-11094290,5392456,-61340330,55389400
2026-01-14 17:05:56.211,49597600,10078350,-1401786,-60628880,-2670288,26435850,13049320
2026-01-14 17:05:56.221,49666650,61307340,-52630780,-60559830,-6702423,6842041,14501950
2026-01-14 17:05:56.231,-53310430,99928900,-13146040,-54412860,-18981930,31799320,18444820
2026-01-14 17:05:56.241,-4765893,4901928,3779810,-5868330,-76141360,16677860,18908690
2026-01-14 17:05:56.251,49856560,48993390,37858520,-60369930,20645140,-48828120,10687260
2026-01-14 17:05:56.261,49916980,4398704,4288214,-60309510,53955080,-18295290,-667572
2026-01-14 17:05:56.271,-50893560,9816806,-1128158,-51996000,52825930,-501709,-115600600
2026-01-14 17:05:56.281,-45413830,97572450,-10668750,-56439930,2313614,17333980,-21350100
2026-01-14 17:05:56.291,50098230,58033340,-49344700,-60180020,-11444090,4473877,-29345700
2026-01-14 17:05:56.301,517900,5,9670065,-981421,3,-10513380,-25976560,7763672,-2866211
2026-01-14 17:05:56.311,50210450,9626046,-939128,4,-60119610,-28393560,9692383,-26635740
2026-01-14 17:05:56.321,598176,5,48674020,38177900,-10438280,-18225100,36956790,-23449710
2026-01-14 17:05:56.331,50322660,4861362,3820377,-60076460,-27938840,-7293701,-21826170
2026-01-14 17:05:56.341,-42815690,48561800,38238320,-53859060,5053711,-9490967,-62561040
2026-01-14 17:05:56.351,741460,5,94490940,-7708088,-10305350,4458618,-13891600,10595700
2026-01-14 17:05:56.361,793253,43897240,42885610,-10253560,-8758545,-56762700,24536130
2026-01-14 17:05:56.371,827777,5,9364504,-682765,8,-10219040,-15148930,21826170,2614746
2026-01-14 17:05:56.381,50547080,9339474,-656009,4,-59903820,-21618650,43164060,18481440
2026-01-14 17:05:56.391,843314,5,9341198,-654281,3,-10200050,-19030760,56640620,13696290
2026-01-14 17:05:56.401,50512560,48449590,38454100,-59886560,-24133300,46142580,22485350
2026-01-14 17:05:56.411,813967,9361914,-668091,3,-10222490,-2854004,43969730,20397950
2026-01-14 17:05:56.421,50434880,48518650,38454110,-59895190,-20092770,21972660,8477783
2026-01-14 17:05:56.431,750956,9390398,-691397,3,-10280320,27001950,-15625,-9515381
2026-01-14 17:05:56.441,741460,5,9382630,-681902,3,-10288090,6694336,-5932617,-4165039
2026-01-14 17:05:56.451,759587,5,9339472,-638744,3,-10271690,90283200,-828125,-5371094
2026-01-14 17:05:56.461,50434880,9304948,-604219,4,-59895190,-5229492,-26635740,-4348755
2026-01-14 17:05:56.471,759587,5,4847549,3853179,-10271690,-14296880,6040039,5986328
2026-01-14 17:05:56.481,-42910640,9392990,-688805,8,-53936750,-13398440,13027340,7861328
2026-01-14 17:05:56.491,50124130,55799460,-47090100,-60050550,-62158200,9916992,8535156
2026-01-14 17:05:56.501,49986030,48803500,38341900,-60119610,-99609380,-17608640,5810547
2026-01-14 17:05:56.511,348721,48881170,38316000,-10654940,1105957,-16345220,10131840
2026-01-14 17:05:56.521,49770230,48941600,38307370,-60214560,28027340,-20080570,-40405270
2026-01-14 17:05:56.531,240824,9706317,-979695,3,-10754200,4794922,-46044920,-7739258
2026-01-14 17:05:56.541,49692550,57879690,-49153070,-60240450,6665039,-6948242,-8984375
2026-01-14 17:05:56.551,223558,5,58052330,-49325700,-10771460,56933590,-61376950,-7519531
2026-01-14 17:05:56.561,215790,58309550,-49586380,-10780960,34692380,-30493160,-61035160
2026-01-14 17:05:56.571,54471900,58565920,-49847930,-55530140,17053220,-6561279,-4753418
2026-01-14 17:05:56.581,193350,9802130,-1091044,-10810310,83496100,6549072,-2993164
2026-01-14 17:05:56.591,49727080,48984760,38039790,-60378560,8691406,19799800,-1439209
2026-01-14 17:05:56.601,1570964,9836662,-1142833,-108603700,2204895,20776370,-16799930
2026-01-14 17:05:56.611,1337908,9857378,-1173907,-108888600,-3616333,18762210,8911133
2026-01-14 17:05:56.621,-48433190,9870322,-1195485,-59462740,-5871582,12432860,19360350
2026-01-14 17:05:56.631,1053064,48881180,37780840,-109294300,-6542969,-11276250,22546390
2026-01-14 17:05:56.641,992640,9905714,-1246413,-109406500,-23880000,-95947260,15246580
2026-01-14 17:05:56.651,75095,9920384,-1266267,-10968270,44708250,-7720947,8453369
2026-01-14 17:05:56.661,33661,60602120,-51954910,-11013150,7574463,-66345220,-12683110
2026-01-14 17:05:56.671,55204730,60943940,-52303640,-55315220,59906010,14099120,-19177250
2026-01-14 17:05:56.681,-48337,5,100127400,-13810680,-11103780,-1676941,15466310,-20703120
2026-01-14 17:05:56.691,-50748200,10060220,-1437172,-61808830,-113220200,21081540,-10284420
2026-01-14 17:05:56.701,-51263510,10106830,-1494140,-62329320,-19396970,2467041,21457670
2026-01-14 17:05:56.711,-195938,48872540,37167990,-11266920,-1619873,12890630,74523930
2026-01-14 17:05:56.721,-245142,5,63338370,-54742940,-11321300,-19689940,12802120,13806150
2026-01-14 17:05:56.731,49563080,102492500,-16624610,-61233090,-22595220,-45654300,1538086
2026-01-14 17:05:56.741,-336633,5,48898430,36900410,-11419700,-21887210,-6237793,1496582
2026-01-14 17:05:56.751,-53670880,10321760,-1745322,-64755680,-16821290,-12597660,1574707
2026-01-14 17:05:56.761,-4212256,4894165,3678820,-115077500,-14794920,-19946290,12231450
2026-01-14 17:05:56.771,49424970,48958860,36736400,-61440260,-118774400,-18664550,8312988
2026-01-14 17:05:56.781,49381810,48984760,36693240,-61483420,-94055180,-18774410,3704834
2026-01-14 17:05:56.791,54824940,10454690,-1888612,-56040280,-14941410,-12890630,74646000
2026-01-14 17:05:56.801,-568829,5,66431090,-57865020,-11653620,-18334960,38909910,111328100
2026-01-14 17:05:56.811,49269600,105332300,-19654320,-61543840,-19763180,54870600,1307373
2026-01-14 17:05:56.821,4922644,10578120,-2006865,-6155247,-14892580,45074460,13623050
2026-01-14 17:05:56.831,-6516916,49217820,36529250,-117261300,-10845950,72265620,123291000
2026-01-14 17:05:56.841,-6801756,10676520,-2098360,-117494400,-9503174,5618286,5886841
2026-01-14 17:05:56.851,-7172920,10722270,-2138929,-117813700,-6048584,45166020,-1687622
2026-01-14 17:05:56.861,-745779,5,68945500,-60356980,-11804680,-38970950,23956300,-10235600
2026-01-14 17:05:56.871,-774264,5,65426190,-64566820,-11827980,-1966858,6839752,-17700200
2026-01-14 17:05:56.881,-6280405,49519920,36451560,-6390889,26107790,-6000519,-24694820
2026-01-14 17:05:56.891,48872540,10860380,-2259775,-61578360,40161130,-8166504,-33007810
2026-01-14 17:05:56.901,-849355,49597600,36425660,-11890990,4269409,-15856930,-33032230
2026-01-14 17:05:56.911,48820750,10906120,-2300344,-61578370,20179750,-2084961,-31152340
2026-01-14 17:05:56.921,-869209,5,10924250,-2316741,-11905670,1537323,-25854490,-2376709
2026-01-14 17:05:56.931,54534060,43052790,43039530,-55813270,4046631,-31811520,-19873050
2026-01-14 17:05:56.941,54534060,4312111,4298848,-55813270,52734380,-296875,-14172360
2026-01-14 17:05:56.951,48777590,4312111,4298848,-61552470,10876470,-2322998,-13122560
2026-01-14 17:05:56.961,48794860,4312111,4298848,-61552470,52490230,-19348140,-9680176
2026-01-14 17:05:56.971,48812120,10917340,-2306386,-61535210,47683720,-121276900,-859375
2026-01-14 17:05:56.981,-817419,5,10891450,-2280488,-11853880,-7556152,-10736080,-55633540
2026-01-14 17:05:56.991,4888119,49614860,36477460,-6150066,-93811030,-7080078,-11367800
2026-01-14 17:05:57.001,-773396,5,49597600,36494720,-11811580,-6726074,-3189087,23483280
2026-01-14 17:05:57.011,48932960,10839660,-2228701,-61466160,-37212370,40618900,61035160
2026-01-14 17:05:57.021,48941590,69560940,-60949980,-61457520,7104492,11407470,99975580
2026-01-14 17:05:57.031,-56887910,69475490,-60862800,-67926100,13830570,15600590,14245610
2026-01-14 17:05:57.041,-56887910,108241200,-22097080,-67926100,12963870,24853520,15710450
2026-01-14 17:05:57.051,-56888780,69477220,-60861070,-67925230,107910200,35961910,11871340
2026-01-14 17:05:57.061,48907060,65686350,-64824570,-61422990,7409668,41137700,28579710
2026-01-14 17:05:57.071,-768219,4964077,3655515,-11799500,881958,49121100,-59539800
2026-01-14 17:05:57.081,-812239,5,49675280,36537880,-11841790,111328100,4494629,-12780760
2026-01-14 17:05:57.091,-857123,5,49718440,36494720,-11883220,22155760,37426760,-16442870
2026-01-14 17:05:57.101,-5879379,10964820,-2345225,-6981815,20605470,29418940,-18078610
2026-01-14 17:05:57.111,-64272660,7137707,-6275915,-65375100,16308590,2277832,-13134770
2026-01-14 17:05:57.121,54458960,71894080,-63277940,-55767520,16003420,28564450,-11798100
2026-01-14 17:05:57.131,48501380,11134000,-2521314,-61725110,20227050,24060060,-13378910
2026-01-14 17:05:57.141,48432330,11191830,-2584325,-61794160,26757810,13452150,-1772461
2026-01-14 17:05:57.151,-67034790,49968760,36054510,-68137220,36621100,9265137,-25317380
2026-01-14 17:05:57.161,-1314607,74559540,-65964120,-12340700,48754880,18844600,-3479004
2026-01-14 17:05:57.171,48242420,11380870,-2792349,-62035840,5708008,-103637700,-41918940
2026-01-14 17:05:57.181,48207900,11436110,-2857950,-62122160,61376950,-14013670,-4584961
2026-01-14 17:05:57.191,-64656420,50046450,35631560,-75694610,63720700,-11816410,-47387700
2026-01-14 17:05:57.201,-65171730,50046460,35527980,-76215100,64697260,-11816410,-45214840
2026-01-14 17:05:57.211,-1595998,115837100,-30383490,-12646260,6166992,-11846920,-40014650
2026-01-14 17:05:57.221,54567720,11628590,-3097048,-56004030,6245117,-13122560,-35083010
2026-01-14 17:05:57.231,-1691808,11664850,-3147109,-12757620,5361328,-20568850,-2199707
2026-01-14 17:05:57.241,54645400,49968770,35070490,-56098980,43920900,-17089840,-8746338
2026-01-14 17:05:57.251,-67568740,11728720,-3238601,-78651820,21386720,-16467290,-13122560
2026-01-14 17:05:57.261,-67910570,11757210,-3279170,-79000540,14782720,-70129390,15525820
2026-01-14 17:05:57.271,48104320,11777920,-3310249,-62864490,8703613,-10107420,46783450
2026-01-14 17:05:57.281,48121580,117900000,-33326890,-62916270,-12161260,-5630493,11401370
2026-01-14 17:05:57.291,54803360,79924130,-71475440,-56286280,-29342650,-44921880,14941410
2026-01-14 17:05:57.301,-1874803,80093310,-71651540,-12988940,-6362915,-16992190,17333980
2026-01-14 17:05:57.311,-1890339,118133100,-33784370,-13007930,473938,-21435550,18884280
2026-01-14 17:05:57.321,48130220,118193500,-33896580,-63080270,2708435,-21533200,17285160
2026-01-14 17:05:57.331,48138850,118245300,-34017430,-63123430,43945310,-17871090,18652340
2026-01-14 17:05:57.341,4814747,118305700,-34129640,-6314928,-32714840,-12646480,1616211
2026-01-14 17:05:57.351,48147480,118366200,-34241860,-63183850,-33233640,-31982420,11151120
2026-01-14 17:05:57.361,-1968022,11842660,-3435406,-13102880,-3302002,4016876,113220200
2026-01-14 17:05:57.371,48147480,4965806,3436268,-63235650,-18339160,11169430,12695310
2026-01-14 17:05:57.381,-1981833,11855610,-3456985,-13123600,72021490,11253360,1652832
2026-01-14 17:05:57.391,48164740,49632130,34302270,-63270170,-38146970,27999880,2286377
2026-01-14 17:05:57.401,-6995368,11859920,-3469933,-8110062,-17730710,-27160640,21679690
2026-01-14 17:05:57.411,-1978378,49614860,34267740,-13127050,-10978700,-5960083,19445800
2026-01-14 17:05:57.421,48207900,11865970,-3481157,-63296070,-28335570,-9906006,17114260
2026-01-14 17:05:57.431,-1968020,49588970,34241850,-13120140,-4269409,-11254880,1574707
2026-01-14 17:05:57.441,48251060,49571710,34241850,-63304700,-4272461,-7940674,11376950
2026-01-14 17:05:57.451,-1939538,11853880,-3475976,-13096840,-57739260,-541687,9765625
2026-01-14 17:05:57.461,4829424,49537180,34224590,-6329605,-5718994,-54779050,7312012
2026-01-14 17:05:57.471,48328750,1183405,-346132,3,-63296070,-7788086,-6933594,524292
2026-01-14 17:05:57.481,-1874803,80488650,-72119370,-13040730,-1451416,-38848880,25268560
2026-01-14 17:05:57.491,-1855812,118046800,-34388600,-13025190,-17419430,-28366090,4173279
2026-01-14 17:05:57.501,55131360,80225370,-71864730,-56614280,-13122560,-64331060,-16036990
2026-01-14 17:05:57.511,48510010,80136470,-71781010,-63287430,-20214840,-4711914,-10292050
2026-01-14 17:05:57.521,48561790,79961250,-71610960,-63287430,-18664550,-29449460,12123110
2026-01-14 17:05:57.531,-17505040,79786020,-71440910,-129406100,-18713380,-944519,-19927980
2026-01-14 17:05:57.541,-72636830,11713190,-3374981,-73756370,-23339840,-27008060,70762630
2026-01-14 17:05:57.551,-67337420,11693330,-3360308,-78537880,-15979000,-14465330,2558899
2026-01-14 17:05:57.561,48760330,11672620,-3346502,-63313330,-12780760,38337710,4234314
2026-01-14 17:05:57.571,-1652964,49079700,34112380,-12865510,-98083500,-12687680,11528020
2026-01-14 17:05:57.581,-1633111,49027910,34095110,-12850830,-8959961,-24093630,10818480
2026-01-14 17:05:57.591,-1612395,48976120,34095110,-12837020,-103027300,-7354736,920105
2026-01-14 17:05:57.601,-1592542,48924330,34077850,-12822350,-15478520,-7086182,23635860
2026-01-14 17:05:57.611,48984750,11544000,-3250691,-63382380,-15197750,-30792240,23376460
2026-01-14 17:05:57.621,4902791,11523290,-3236879,-6339101,-16540530,-4966736,23406980
2026-01-14 17:05:57.631,49071070,77681620,-69402110,-63416910,-18481440,28060910,27938840
2026-01-14 17:05:57.641,49105600,114732200,-32006250,-63434170,-1739502,52764890,26245120
2026-01-14 17:05:57.651,49148750,114438700,-31781830,-63460060,-23083500,836792,4058838
2026-01-14 17:05:57.661,49183280,77066180,-68809120,-63477330,-25732420,11663820,647583
2026-01-14 17:05:57.671,-1511409,73263850,-72438820,-12782640,-28344730,11419680,78063970
2026-01-14 17:05:57.681,-1517447,48492750,33939750,-12793870,-2836914,13647460,7867432
2026-01-14 17:05:57.691,49260960,41908510,40454920,-63572280,-3083496,1348877,64453120
2026-01-14 17:05:57.701,-1528670,4840644,3387069,-12817170,-27392580,14416500,41900640
2026-01-14 17:05:57.711,-6625501,4837191,3383617,-7754869,-26293940,11035160,52375790
2026-01-14 17:05:57.721,-1558017,4832875,3379301,-12856880,-25512700,70495610,22220610
2026-01-14 17:05:57.731,-1572691,11378270,-3174730,-12876730,-2154541,56488040,15983580
2026-01-14 17:05:57.741,-1586505,76948790,-68753880,-12897450,-19494630,13877870,5340576
2026-01-14 17:05:57.751,4931274,113946700,-32101200,-6384845,-18261720,-19348140,86364740
2026-01-14 17:05:57.761,-67190690,73605400,-72787800,-78511980,-14611820,-57495120,11975100
2026-01-14 17:05:57.771,-67360730,77367430,-69198410,-78687210,-1607666,-8728027,18676760
2026-01-14 17:05:57.781,-16633240,114257500,-32653630,-129932600,-19470220,-47698980,23608400
2026-01-14 17:05:57.791,-67874300,11439560,-3286076,-79209420,-23303220,3237915,27172850
2026-01-14 17:05:57.801,-1710799,11454230,-3305932,-13049370,-23291020,58624270,29833980
2026-01-14 17:05:57.811,4928686,11476680,-3335280,-6411607,-22875980,7446289,3137207
2026-01-14 17:05:57.821,49269600,11499980,-3363766,-64150600,-22229000,11871340,3215332
2026-01-14 17:05:57.831,-6916475,11531920,-3400880,-8050849,-25195310,120788600,30419920
2026-01-14 17:05:57.841,-1854082,41388020,39887830,-13199550,-27539060,16699220,2775879
2026-01-14 17:05:57.851,-18963790,11596660,-3474248,-132435800,-29589840,14331060,24975590
2026-01-14 17:05:57.861,-19395380,79758400,-71641170,-132867400,-25683590,12731930,21203610
2026-01-14 17:05:57.871,49071070,116700200,-35562500,-64418180,-21777340,113342300,1763916
2026-01-14 17:05:57.881,49019280,48207900,32878040,-64469980,-19372560,7623291,16601560
2026-01-14 17:05:57.891,-2101813,8113171,-7303001,-13452460,-1772461,8712769,15686040
2026-01-14 17:05:57.901,-72699410,48242430,32722680,-84051790,-18835450,-3894043,15759280
2026-01-14 17:05:57.911,-73217310,48268330,32645000,-84569700,-23242190,-81848140,16003420
2026-01-14 17:05:57.921,48829380,118979000,-38117480,-64711660,-23937990,-14343260,1739502
2026-01-14 17:05:57.931,-2323648,119376100,-38583590,-13679470,-24719240,-13574220,15075680
2026-01-14 17:05:57.941,-2384067,48320110,32420570,-13739900,-20751950,-115722700,12054440
2026-01-14 17:05:57.951,-75545280,48337380,32351520,-86902830,-113586400,-31463620,72021490
2026-01-14 17:05:57.961,-2512681,12067940,-4004234,-13870240,-4751587,-6274414,55877690
2026-01-14 17:05:57.971,48544540,12108520,-4049984,-65048300,49934390,-44189450,65956120
2026-01-14 17:05:57.981,48484110,81713040,-80907700,-65108720,36254880,-61401370,5344391
2026-01-14 17:05:57.991,55959140,85766040,-77717860,-57633680,4748535,-6335449,-1250267
2026-01-14 17:05:58.001,-78564640,12238860,-4195853,-89925650,7299805,-10986330,29083250
2026-01-14 17:05:58.011,-2795800,12279420,-4241605,-14156810,37139890,-1003418,26611330
2026-01-14 17:05:58.021,-2856220,48466850,31876770,-14217230,54130550,-23986820,52375790
2026-01-14 17:05:58.031,-2916643,12345020,-4314110,-14277650,154418900,8178711,-35095220
2026-01-14 17:05:58.041,-29865590,48501390,31773200,-143458400,37872310,16638180,-121276900
2026-01-14 17:05:58.051,48052530,87998200,-79974190,-65540300,37139890,16479490,-22033690
2026-01-14 17:05:58.061,-3134165,88255420,-80234860,-14491710,-19256590,20117190,-23205570
2026-01-14 17:05:58.071,-3203218,88599820,-80580990,-14560770,-7635498,26586910,-19824220
2026-01-14 17:05:58.081,-3273129,48570430,31583300,-14628960,-892334,2376709,-15209960
2026-01-14 17:05:58.091,-3352543,12543550,-4529902,-14704920,-7147217,14685060,-14076230
2026-01-14 17:05:58.101,-3431091,12585850,-4573924,-14781740,-44830320,-37719730,7336426
2026-01-14 17:05:58.111,47551900,12629010,-4617085,-65920100,-56396480,-20239260,14379880
2026-01-14 17:05:58.121,-8685970,126713000,-46611040,-9820336,-10827640,-21826170,125
2026-01-14 17:05:58.131,-3652064,127058200,-46956310,-14992350,-1776123,-19580080,9765625
2026-01-14 17:05:58.141,55745080,91272190,-83260270,-57623330,-28979490,-5810547,15209960
2026-01-14 17:05:58.151,-3784989,4882076,3131572,-15118380,-32202150,-7183075,19128420
2026-01-14 17:05:58.161,-3856631,48863910,31289820,-15184840,-27246090,11756900,13977050
2026-01-14 17:05:58.171,-3919642,48898440,31272560,-15242670,-22021480,-637207,24475100
2026-01-14 17:05:58.181,46956310,12857750,-4837192,-66239470,-1508789,-11022950,-1399231
2026-01-14 17:05:58.191,-4036171,12885360,-4861358,-15350570,-1637268,-17663570,-50445560
2026-01-14 17:05:58.201,46792310,49036550,31238030,-66282620,51361080,-23876950,-9710693
2026-01-14 17:05:58.211,55531880,49096970,31229390,-57491260,13220220,-33276370,-6008911
2026-01-14 17:05:58.221,46645570,12969960,-4932141,-66308520,16931150,-1850586,-13305660
2026-01-14 17:05:58.231,46576520,12998440,-4955446,-66325790,15527340,-37994380,-17919920
2026-01-14 17:05:58.241,46516090,13018300,-4970121,-66334420,15039060,7891846,-20605470
2026-01-14 17:05:58.251,-4312384,49286860,31229400,-15592260,20153810,5392456,-3449707
2026-01-14 17:05:58.261,-4340870,13082170,-5027087,-15615560,2902832,-3881836,-44433590
2026-01-14 17:05:58.271,-4368491,4936455,3122077,-15639730,2788086,-52215580,-5698242
2026-01-14 17:05:58.281,-439525,1,13127910,-5067656,-1566476,25976560,-15271000,-6176758
2026-01-14 17:05:58.291,-4413376,13153810,-5093551,-15681160,30151370,-22912600,-7207031
2026-01-14 17:05:58.301,46274410,13178840,-5120312,-66386210,2836914,-2055664,-79052740
2026-01-14 17:05:58.311,-4430637,49450860,31117190,-15698420,2529297,-2211914,-7675781
2026-01-14 17:05:58.321,-9501057,9586769,-8781433,-10628010,27734380,-23461910,-76464850
2026-01-14 17:05:58.331,46300300,13225460,-5177281,-66429360,30664060,-26416020,-7397461
2026-01-14 17:05:58.341,-4426322,13230630,-5189362,-15702740,31225590,-25708010,-6303711
2026-01-14 17:05:58.351,-4423733,4939908,3096182,-15705330,34545900,-2788086,-49902340
2026-01-14 17:05:58.361,46369350,13242720,-5211807,-66481150,36010740,-28173830,-3413086
2026-01-14 17:05:58.371,46403880,4933868,3090138,-66498420,34838870,-21521000,-3046875
2026-01-14 17:05:58.381,-9473953,13219410,-5200583,-10603320,36499020,-22473140,-32202150
2026-01-14 17:05:58.391,-4371942,49278230,30875500,-15670800,42089840,-1875,-39135740
2026-01-14 17:05:58.401,46516090,49235070,30866870,-66507050,47070310,-12194820,-45141600
2026-01-14 17:05:58.411,46567880,49191920,30858240,-66507050,5727539,-45806880,-42797850
2026-01-14 17:05:58.421,46628300,13150360,-5148796,-66498420,56689450,20771030,-46606440
2026-01-14 17:05:58.431,-4233835,49122860,30858240,-15549960,56152340,57006840,-40356440
2026-01-14 17:05:58.441,-4188089,13103750,-5109088,-15509390,52685550,-8560181,-40527340
2026-01-14 17:05:58.451,-4142342,13075260,-5085783,-15468820,4777832,-60577390,-42700200
2026-01-14 17:05:58.461,-4095728,48976120,30884130,-15429120,47802740,-236969,-40771480
2026-01-14 17:05:58.471,4698222,48924330,30884130,-6640345,4609375,-32470700,-42285160
2026-01-14 17:05:58.481,-9100288,4887255,3090140,-10234660,36254880,-12188720,-37231440
2026-01-14 17:05:58.491,47128940,12937160,-4964941,-66360310,17895510,-12054440,-27368160
2026-01-14 17:05:58.501,-3894610,48760330,30927290,-15250440,19454960,7873535,-16882320
2026-01-14 17:05:58.511,-3840231,48699910,30935920,-15201240,-97839350,18884280,-7977295
2026-01-14 17:05:58.521,55883190,12827530,-4867404,-57778700,-6137085,28930660,-23605350
2026-01-14 17:05:58.531,47422420,12808550,-4851866,-66291260,44555660,2866211,-33691410
2026-01-14 17:05:58.541,55943610,12780920,-4827699,-57821860,14770510,17077640,-30883790
2026-01-14 17:05:58.551,-3658104,12753300,-4803526,-15038100,15991210,86242670,-699234
2026-01-14 17:05:58.561,-3595092,40606850,38856340,-14980270,2319336,-62438960,-26794430
2026-01-14 17:05:58.571,47707260,91238530,-83293940,-66179040,32958980,-2052002,-793457
2026-01-14 17:05:58.581,-8605869,90893260,-82948660,-9745070,46435550,-3557129,-1472168
2026-01-14 17:05:58.591,47871270,12621240,-4676644,-66084100,5517578,-4111328,-9008789
2026-01-14 17:05:58.601,-3329236,40592170,38871020,-14728230,64697260,-41479490,-7507324
2026-01-14 17:05:58.611,48061160,12528020,-4579969,-65945990,6401367,-31079100,-61798100
2026-01-14 17:05:58.621,-3154014,12468460,-4518681,-14558180,62402340,-2166748,-54534910
2026-01-14 17:05:58.631,-3056479,124002600,-44487650,-14465820,43579100,-15625,-20866390
2026-01-14 17:05:58.641,48406440,48112960,31402030,-65721570,16809080,-6329346,121521000
2026-01-14 17:05:58.651,48527280,40586140,38928850,-65652520,10353090,37506100,10064700
2026-01-14 17:05:58.661,48648120,47966220,31548770,-65583460,-18591310,6274414,1796875
2026-01-14 17:05:58.671,56304410,121067900,-41552880,-57978950,-21264650,-10253910,17944340
2026-01-14 17:05:58.681,-2561017,40562830,38952160,-13994530,-41015620,-23666380,21728520
2026-01-14 17:05:58.691,-76022610,4773320,3179912,-87461300,-42626950,42877200,22302250
2026-01-14 17:05:58.701,49140120,82783800,-74830570,-65281350,-3317871,29663090,18029780
2026-01-14 17:05:58.711,4926097,11772740,-3816063,-6519504,-23864750,-12992860,1640625
2026-01-14 17:05:58.721,-72822850,47500110,32083940,-84273630,-17785640,-17712400,10687260
2026-01-14 17:05:58.731,-2015499,80197750,-72237620,-13469730,-12097170,-18603520,10925290
2026-01-14 17:05:58.741,-18920640,11515520,-3555386,-133514700,-120910600,-17333980,56396480
2026-01-14 17:05:58.751,49804760,11429200,-3469072,-64841140,-7458496,-17443850,-7167816
2026-01-14 17:05:58.761,-1670228,47154840,32429200,-13141720,-108947800,-17773440,-28244020
2026-01-14 17:05:58.771,-67284770,72855320,-72847350,-78763170,-21325680,64208980,-284729
2026-01-14 17:05:58.781,-1464794,46964940,32550040,-12950100,-2709961,17211910,74401860
2026-01-14 17:05:58.791,-1383656,46878620,32584570,-12875870,-28857420,4025879,14575200
2026-01-14 17:05:58.801,-13197840,40415240,38996180,-128189000,-3173828,48950200,20153810
2026-01-14 17:05:58.811,-12559090,110192000,-30849610,-127619300,-35058590,5488281,29174800
2026-01-14 17:05:58.821,-1200669,74052860,-66125540,-12713590,-3935547,50341800,3659668
2026-01-14 17:05:58.831,-1145423,10925970,-3005549,-12665260,-43798830,3623047,46533200
2026-01-14 17:05:58.841,5076288,10888860,-2973612,-6448724,-39379880,29760740,50341800
2026-01-14 17:05:58.851,-1053928,10851740,-2941675,-12584120,-32299800,93322750,49121100
2026-01-14 17:05:58.861,-61990950,40219290,38846850,-73526330,-34301760,-34389500,4765625
2026-01-14 17:05:58.871,-9805580,10779240,-2876074,-125193800,-3479004,-45196530,45385740
2026-01-14 17:05:58.881,5099592,107516100,-28519050,-6442677,-35009770,-16247560,3996582
2026-01-14 17:05:58.891,-917549,5,71793950,-63895970,-12461550,-3383789,-13500980,33569340
2026-01-14 17:05:58.901,-889928,5,71534140,-63637880,-12437380,-31176760,-12188720,3088379
2026-01-14 17:05:58.911,-863168,106886000,-27940730,-12412340,-37158200,-50598140,27954100
2026-01-14 17:05:58.921,51142670,46196720,32748570,-64366400,-37670900,13694760,2322998
2026-01-14 17:05:58.931,51159940,46170830,32757200,-64349140,-35668940,26809690,21716310
2026-01-14 17:05:58.941,51185830,46162200,32765830,-64340500,-29077150,-19302370,22399900
2026-01-14 17:05:58.951,-782893,10626460,-2735378,-12337250,-28735350,11360170,14770510
2026-01-14 17:05:58.961,-773398,10608330,-2718978,-12329480,-29370120,7922363,15661620
2026-01-14 17:05:58.971,57134780,46093150,32783100,-58443340,-25219730,85754390,13806150
2026-01-14 17:05:58.981,-754409,10589340,-2703441,-12313950,-16662600,107040400,993042
2026-01-14 17:05:58.991,51280780,46049980,32774460,-64349130,-11413570,-4522705,7635498
2026-01-14 17:05:59.001,-64677220,10577260,-2698259,-65833690,-6774902,-4510498,74035650
2026-01-14 17:05:59.011,-7328296,46015460,32739940,-123010000,-19454960,-9661865,61676020
2026-01-14 17:05:59.021,-7233344,45989570,32714050,-122932300,11360170,-13134770,7366943
2026-01-14 17:05:59.031,-59209830,10579850,-2712933,-70783180,2708435,-11303710,8105469
2026-01-14 17:05:59.041,-59121790,10577260,-2715523,-70698590,27236940,-68847660,9295654
2026-01-14 17:05:59.051,-7008916,7047854,-6262193,-122811500,16784670,7286072,12536620
2026-01-14 17:05:59.061,-59032020,10589340,-2737964,-70615730,20339970,52490230,13269040
2026-01-14 17:05:59.071,-6888080,10595390,-2749188,-122759700,27267460,7757568,16760250
2026-01-14 17:05:59.081,-64244430,10602290,-2759544,-65403320,8093262,7470703,16381840
2026-01-14 17:05:59.091,-6862180,10616960,-2779399,-122785600,7220459,62072750,1743164
2026-01-14 17:05:59.101,-59026840,10623870,-2789755,-70620910,29266360,869751,13366700
2026-01-14 17:05:59.111,-6836288,39816200,38473100,-122811500,-12321470,77697750,113098100
2026-01-14 17:05:59.121,-59024260,71239810,-63414320,-70623500,-26046750,7385254,70739740
2026-01-14 17:05:59.131,-59022530,71323530,-63503220,-70625220,-27755740,49926760,74523930
2026-01-14 17:05:59.141,-6801764,71494430,-63677590,-122846000,-6939697,41870120,84472660
2026-01-14 17:05:59.151,-59019940,106739300,-28605360,-70627820,-99731450,87524420,103149400
2026-01-14 17:05:59.161,-6775868,68235380,-67454540,-122871900,-1394043,91796870,14990230
2026-01-14 17:05:59.171,-59104520,107050000,-28985160,-70715860,-16577150,8227539,19238280
2026-01-14 17:05:59.181,-64415860,10711910,-2908872,-65577160,-17626950,6964111,19140620
2026-01-14 17:05:59.191,-6922604,10727450,-2927864,-123070400,-1270752,32196040,19189450
2026-01-14 17:05:59.201,-7000288,10743850,-2945991,-123165400,-101501500,5331421,14123540
2026-01-14 17:05:59.211,-59360020,45825560,32118460,-70978260,-8538818,-23635860,1027832
2026-01-14 17:05:59.221,-59445480,39632340,38259900,-71065440,-4751587,-85998540,12817380
2026-01-14 17:05:59.231,51574260,10763700,-2977930,-64642610,-7861328,-9069824,8514404
2026-01-14 17:05:59.241,-721608,5,10761110,-2980517,-12346750,-6213379,-12927250,7788086
2026-01-14 17:05:59.251,5160015,10758520,-2983107,-6468576,-59295660,-97229010,49713140
2026-01-14 17:05:59.261,51608780,10764560,-2994330,-64711660,-51239020,-10949710,46875
2026-01-14 17:05:59.271,-5978212,10761110,-2997780,-7141933,23021700,-8343506,36987300
2026-01-14 17:05:59.281,-756998,10757660,-3001233,-12397670,-25634770,-2607727,2670288
2026-01-14 17:05:59.291,-763038,5,45618400,31859510,-12408890,-6313324,19607540,-48217770
2026-01-14 17:05:59.301,51643310,10757660,-3018499,-64867040,6555176,-46936040,64697260
2026-01-14 17:05:59.311,58274440,45540720,31764560,-58287690,44433590,-57128900,8605957
2026-01-14 17:05:59.321,51660570,10757660,-3035762,-64953350,50933840,-60157780,37200930
2026-01-14 17:05:59.331,-830365,45471660,31660980,-12496940,41229250,-18600460,8660889
2026-01-14 17:05:59.341,-845039,5,45428500,31600560,-12516790,5496216,-30181880,7696533
2026-01-14 17:05:59.351,-868346,5,10778370,-3084097,-12545280,113220200,-35095220,11895750
2026-01-14 17:05:59.361,-61486010,39123070,37733370,-73168120,16003420,-6756592,11578370
2026-01-14 17:05:59.371,-67001640,10795640,-3118621,-68170380,18762210,-625,15820310
2026-01-14 17:05:59.381,-61912410,10808590,-3140201,-73604870,20117190,7286072,16711430
2026-01-14 17:05:59.391,-9529364,7366018,-6600037,-126505800,19030760,57640080,1529541
2026-01-14 17:05:59.401,-977105,5,10808580,-3157467,-12678200,17248540,-10299680,16149900
2026-01-14 17:05:59.411,-991778,45204080,31238030,-12698060,16564940,-28213500,14477540
2026-01-14 17:05:59.421,-1015947,45178180,31194870,-12725680,18151860,-6112671,12573240
2026-01-14 17:05:59.431,-1031485,10806860,-3176456,-12744670,18591310,-1026001,8380127
2026-01-14 17:05:59.441,-1055654,10803400,-3179909,-12772290,21411130,-62683100,3869629
2026-01-14 17:05:59.451,51660580,10800820,-3182500,-65540300,25610350,-5581665,-289917
2026-01-14 17:05:59.461,-1103992,7363596,-6602454,-12827530,28149410,-9680176,-7550049
2026-01-14 17:05:59.471,51651940,10777510,-3171280,-65617990,2668457,-10461430,-13195800
2026-01-14 17:05:59.481,-64223980,10757660,-3156601,-75954420,25195310,-12609860,-16833500
2026-01-14 17:05:59.491,-69675050,10736940,-3142790,-70848620,22644040,-13891600,-22302250
2026-01-14 17:05:59.501,-64564930,7293337,-6534607,-76304000,17700200,-15710450,-19824220
2026-01-14 17:05:59.511,-11799500,10679110,-3097044,-129242100,15673830,-13977050,-18261720
2026-01-14 17:05:59.521,-11859920,44729340,31022240,-129354300,12658690,-103637700,-20776370
2026-01-14 17:05:59.531,-64816970,44660290,31022240,-76569860,92163090,-3866577,-21508790
2026-01-14 17:05:59.541,-1207573,105651700,-30038230,-12965630,89660650,1007843,-21435550
2026-01-14 17:05:59.551,5172098,105194200,-29632540,-6591142,8526611,5441284,-26342770
2026-01-14 17:05:59.561,-1228288,10472810,-2923548,-12996710,79711910,9033203,-31079100
2026-01-14 17:05:59.571,51738260,44366810,31074030,-65980520,9777832,8001709,-37939450
2026-01-14 17:05:59.581,-1249865,44289120,31099920,-13026920,9100342,96191410,-46118160
2026-01-14 17:05:59.591,-1265404,4420281,3111719,-13045910,13452150,82092290,-5551758
2026-01-14 17:05:59.601,-6575007,102544300,-27276090,-7753570,105773900,-16784670,-62890620
2026-01-14 17:05:59.611,58236180,10199190,-2679274,-59672490,104003900,-12565610,-6772461
2026-01-14 17:05:59.621,-1301657,10144810,-2630071,-13095980,7489014,-42633060,-6645508
2026-01-14 17:05:59.631,-1316330,10098200,-2590365,-13115830,60913090,-55358890,-6503906
2026-01-14 17:05:59.641,-1331004,10042950,-2542029,-13135680,2709961,45166020,-62402340
2026-01-14 17:05:59.651,-6660116,66240330,-58746310,-7841097,11505130,-30670170,-61279300
2026-01-14 17:05:59.661,-1368986,65804430,-58319040,-13184020,14331060,-11517330,-5522461
2026-01-14 17:05:59.671,-66941230,4355547,3122943,-78761440,1385498,-18579100,-49536130
2026-01-14 17:05:59.681,-13897000,9847020,-2375436,-132150900,62408450,-1427002,-46264650
2026-01-14 17:05:59.691,-13957420,43374170,31272560,-132263100,3451538,-44067380,-40893560
2026-01-14 17:05:59.701,-14017840,37887880,36689800,-132375400,-16952520,-3591919,-38012700
2026-01-14 17:05:59.711,-13983320,96553920,-22045290,-132409900,9422302,1322937,-3034668
2026-01-14 17:05:59.721,-13957420,9582028,-2139792,-132435800,-3668213,7788086,-21228030
2026-01-14 17:05:59.731,-14017840,42977120,31376140,-132548000,-38360600,11425780,-15307620
2026-01-14 17:05:59.741,-72690010,9446508,-2016356,-73875830,-38726810,14294430,-16247560
2026-01-14 17:05:59.751,-67438410,60422590,-52997610,-79300060,-5734253,12512210,-15490720
2026-01-14 17:05:59.761,-67522140,4270956,3148838,-79388970,-12817380,10534670,-15673830
2026-01-14 17:05:59.771,51988570,5929532,-5188070,-66714210,-1932373,14697270,-20678710
2026-01-14 17:05:59.781,-1443215,42562780,31548770,-13316950,-20593260,14416500,-30322270
2026-01-14 17:05:59.791,-1468248,9176334,-1768630,-13343710,-20202640,1574707,-38208010
2026-01-14 17:05:59.801,-1483785,9130586,-1728062,-13362700,-24768070,12164310,-3557129
2026-01-14 17:05:59.811,-1517449,91029640,-17038930,-13398080,-28515620,20825200,-39746100
2026-01-14 17:05:59.821,51919520,57559460,-50163840,-66904100,-2841797,20129400,-3894043
2026-01-14 17:05:59.831,51876360,90658480,-16719560,-66947260,-3137207,19299320,-39282230
2026-01-14 17:05:59.841,-16365660,53972230,-53233180,-135206500,-33398440,17272950,-39135740
2026-01-14 17:05:59.851,-16797240,90459950,-16572810,-135638100,-36328120,8416748,-3852539
2026-01-14 17:05:59.861,51755510,57209010,-49823750,-67085370,-37353520,-28747560,-41503900
2026-01-14 17:05:59.871,-1756548,57208150,-49824610,-13642360,-34936520,-8050537,-4111328
2026-01-14 17:05:59.881,5865566,57206420,-49826340,-6020245,-3605957,-10131840,-35766600
2026-01-14 17:05:59.891,-1808336,9032184,-1653829,-13694150,-4501953,-11621090,-2614746
2026-01-14 17:05:59.901,-1834231,9032184,-1653829,-13720050,-47045900,-14877320,-17626950
2026-01-14 17:05:59.911,-1851494,9023552,-1645197,-13737310,-4111328,11398320,-10040280
2026-01-14 17:05:59.921,51608780,9024418,-1644336,-67232110,-41723630,31982420,-5355835
2026-01-14 17:05:59.931,51582880,42243420,31574660,-67240740,-37036130,6890869,12825010
2026-01-14 17:05:59.941,-72521600,9035640,-1650373,-84402240,-3659668,1060791,4736328
2026-01-14 17:05:59.951,-19248640,53885910,-53146860,-138020500,-31835940,14135740,2709961
2026-01-14 17:05:59.961,-19533480,57474020,-50076660,-138253500,-29174800,9429932,-29800420
2026-01-14 17:05:59.971,51410250,57650090,-50245840,-67240740,-28833010,33203120,-4425049
2026-01-14 17:05:59.981,-7339600,5800055,-5058593,-8525419,-2368164,15670780,-13781740
2026-01-14 17:05:59.991,-2032758,42571420,31660980,-13884050,-1986084,-3842163,-2163086
2026-01-14 17:06:00.001,-2053475,42657730,31678240,-13897860,-19897460,-9051514,-27148440
2026-01-14 17:06:00.011,51185830,3777224,3666733,-67188950,-18286130,-9069824,-30981440
2026-01-14 17:06:00.021,-2104402,9285956,-1831641,-13933250,-15515140,-54107660,-30493160
2026-01-14 17:06:00.031,-2125117,42908050,31738670,-13947060,-18371580,-19058230,-34057620
2026-01-14 17:06:00.041,-2137203,9355872,-1882568,-13952240,-7739258,-8532715,-36743160
2026-01-14 17:06:00.051,58235320,60279300,-52795640,-59845990,-38269040,-16906740,-38134770
2026-01-14 17:06:00.061,58200790,94257890,-19334950,-59811450,-38391110,-20654300,-38916020
2026-01-14 17:06:00.071,58174900,9456002,-1955077,-59785570,-47088620,-23474120,-39404300
2026-01-14 17:06:00.081,50900980,43270590,31824980,-66990420,-4437256,-25830080,-35888670
2026-01-14 17:06:00.091,50875090,9500024,-1980108,-66964530,-3579712,-25854490,-32250980
2026-01-14 17:06:00.101,-2147559,38218460,37067000,-13924620,-4989624,-21386720,-2487793
2026-01-14 17:06:00.111,-2142382,9544906,-2004275,-13912530,-25497440,-21362300,-23986820
2026-01-14 17:06:00.121,-2119938,43538170,31971720,-13883180,-29129030,-2097168,-19799800
2026-01-14 17:06:00.131,5081468,43598580,32032140,-6674872,-115356400,-24389650,-16418460
2026-01-14 17:06:00.141,50823300,9571667,-1994782,-66671050,-22009280,-20666500,-18029780
2026-01-14 17:06:00.151,-72850470,43736700,32170250,-84591270,-32250980,-22363280,-17578120
2026-01-14 17:06:00.161,5084920,9585475,-1980970,-6648978,-37036130,-22888180,-20703120
2026-01-14 17:06:00.171,50866460,43883440,32316990,-66386210,-4243164,-23730470,-2409668
2026-01-14 17:06:00.181,-1841136,6165002,-5401443,-13557770,-5419922,-19238280,-22790530
2026-01-14 17:06:00.191,-17763990,9608786,-1957663,-134844000,-64746100,-1315918,-24267580
2026-01-14 17:06:00.201,-69763780,44116490,32550050,-81463150,-6923828,-123413100,-2614746
2026-01-14 17:06:00.211,50961410,44202810,32636360,-65945990,-70703130,-8459473,-3017578
2026-01-14 17:06:00.221,-1582186,9641581,-1942127,-13264290,-74609380,-10559080,-3317871
2026-01-14 17:06:00.231,-15088170,9657986,-1942989,-131822900,-84033200,-89416500,-35620120
2026-01-14 17:06:00.241,51039090,9683878,-1951624,-65592090,-8769531,-9509277,-39038090
2026-01-14 17:06:00.251,-1380205,9708045,-1961980,-13034690,-91308590,-17651370,-4465332
2026-01-14 17:06:00.261,-1315468,9750340,-1988738,-12961320,-9350586,-2084961,-5253906
2026-01-14 17:06:00.271,-12498660,9782282,-2008590,-128888200,-94921870,-15161130,-5078125
2026-01-14 17:06:00.281,51159930,63278810,-55493040,-65160500,-10332030,-47943120,-5029297
2026-01-14 17:06:00.291,51203090,39571050,38372960,-65065560,-10302730,28762820,-5932617
2026-01-14 17:06:00.301,-1041842,45048710,32964360,-12665250,-9472656,51086420,-67871100
2026-01-14 17:06:00.311,-61862350,45117770,32947110,-73482300,-6074219,3774414,-6503906
2026-01-14 17:06:00.321,-880429,45178180,32938470,-12498660,-49145510,73583980,-3046875
2026-01-14 17:06:00.331,51453410,45247240,32938470,-64694400,-43115230,9355469,42175290
2026-01-14 17:06:00.341,-5979420,10082660,-2260635,-7140725,-115600600,9711914,17297360
2026-01-14 17:06:00.351,-59277160,65715530,-57890050,-70888490,7067871,10224610,2607422
2026-01-14 17:06:00.361,-58845580,45290400,32998900,-70456900,61706540,13056640,4111328
2026-01-14 17:06:00.371,-6516912,6485587,-5702343,-122612900,-1008606,15576170,45581060
2026-01-14 17:06:00.381,-58933620,9935060,-2097495,-70541500,30303960,12958980,2043457
2026-01-14 17:06:00.391,-59367800,63222700,-55376500,-70970500,1607666,7426758,-22045900
2026-01-14 17:06:00.401,51427520,39849860,38681120,-64547660,12194820,3815918,-56884770
2026-01-14 17:06:00.411,-797567,9705456,-1843726,-12391630,66833500,1652832,-8051758
2026-01-14 17:06:00.421,-6041050,9665750,-1797115,-7199939,16467290,11505130,-86279300
2026-01-14 17:06:00.431,-854534,5,45091870,33663530,-12438240,29736330,14575200,-79003900
2026-01-14 17:06:00.441,-874387,45143660,33680790,-12452920,40942380,7519531,-57373050
2026-01-14 17:06:00.451,-885609,5,9710634,-1821284,-12458960,5371094,-2758789,-39038090
2026-01-14 17:06:00.461,-889062,9765877,-1869621,-12455510,671875,-12915040,-89904780
2026-01-14 17:06:00.471,-883020,9829751,-1926590,-12444290,7319336,-23205570,19256590
2026-01-14 17:06:00.481,-876980,5,63254640,-55344570,-12433060,77978510,-42358400,19836430
2026-01-14 17:06:00.491,51116780,99316050,-20146330,-64392290,8286133,-62597660,22253420
2026-01-14 17:06:00.501,57722010,45627030,33611740,-57735260,87402340,-74609380,24438480
2026-01-14 17:06:00.511,-832092,45678820,33611740,-12374370,7451172,-75683590,42407230
2026-01-14 17:06:00.521,-818283,10028280,-2090592,-12353650,6425781,-6074219,5678711
2026-01-14 17:06:00.531,51073620,10060220,-2110447,-64211020,6665039,-43774420,50341800
2026-01-14 17:06:00.541,-792388,10100790,-2138929,-12310490,6376953,-33813480,4025879
2026-01-14 17:06:00.551,-780304,10143080,-2165687,-12288050,5800781,-2208252,31396480
2026-01-14 17:06:00.561,-59248680,65886440,-57891780,-70744340,5292969,-11456300,26904300
2026-01-14 17:06:00.571,-7328296,66241200,-58227550,-122146800,4411621,-7067871,23840330
2026-01-14 17:06:00.581,-5865914,10276010,-2239919,-7012545,42041020,-10272220,124939000
2026-01-14 17:06:00.591,-679312,5,10321760,-2263226,-12130090,35766600,-17150880,40496820
2026-01-14 17:06:00.601,-653417,5,10368370,-2285668,-12086930,33813480,-22058100,-11299130
2026-01-14 17:06:00.611,-5764837,10423610,-2316741,-6906461,30371090,-22375490,-5267334
2026-01-14 17:06:00.621,-592994,5,47077150,34250490,-11991980,26635740,-26391600,-8001709
2026-01-14 17:06:00.631,-567966,5,68644260,-60485600,-11947960,22241210,-2553711,-95214850
2026-01-14 17:06:00.641,-56467550,69087930,-60905090,-67828560,21923830,-16723630,-40008540
2026-01-14 17:06:00.651,-5092688,47595060,34492170,-118512900,24060060,-6719971,50567630
2026-01-14 17:06:00.661,-484235,47793580,34569850,-11807270,27978520,-47851560,10357670
2026-01-14 17:06:00.671,-450573,5,10794770,-2532533,-11754610,2854004,10940550,17480470
2026-01-14 17:06:00.681,50357180,10868140,-2580009,-62476060,2939453,33050540,2446289
2026-01-14 17:06:00.691,-384112,5,72001980,-63687940,-11648440,29174800,10571290,27294920
2026-01-14 17:06:00.701,50236340,11014880,-2674958,-62199840,2680664,95947260,31298830
2026-01-14 17:06:00.711,-53774470,11080480,-2712933,-64997370,24023440,121032700,3383789
2026-01-14 17:06:00.721,-53440420,11154720,-2759544,-64640890,28198240,52642820,27246090
2026-01-14 17:06:00.731,50029180,74387780,-65963260,-61768260,27075200,-5569458,19555660
2026-01-14 17:06:00.741,4994286,112954100,-28432740,-6163011,26660160,-103027300,1439209
2026-01-14 17:06:00.751,49847920,49537180,35277650,-61483420,22607420,-10760500,11352540
2026-01-14 17:06:00.761,49761610,49744340,35363970,-61345310,1953125,-13574220,6945801
2026-01-14 17:06:00.771,49658020,49951500,35450280,-61207200,17883300,-10681150,40374760
2026-01-14 17:06:00.781,49545800,77395910,-68824660,-61077720,19091800,-49072260,46173100
2026-01-14 17:06:00.791,4943361,11671750,-3071150,-6094825,17272950,-6323242,18951420
2026-01-14 17:06:00.801,-233918,5,11746850,-3116897,-11246210,13659670,25161740,8605957
2026-01-14 17:06:00.811,49200540,44055210,42555020,-60663410,18713380,-21118160,11981200
2026-01-14 17:06:00.821,-250320,119065300,-32161620,-11212540,2166748,-25222780,16870120
2026-01-14 17:06:00.831,-254638,80664730,-71943290,-11190960,20397950,-46,7062,18005370
2026-01-14 17:06:00.841,-267582,12074850,-3324058,-11178020,18798830,3640747,20532230
2026-01-14 17:06:00.851,-289161,5,12167210,-3387069,-11173700,30322270,36907200,14709470
2026-01-14 17:06:00.861,48544540,122500700,-34423120,-60041920,3190918,-6365967,9106445
2026-01-14 17:06:00.871,4841505,123243000,-34889230,-5992967,32299800,-7067871,5795288
2026-01-14 17:06:00.881,48285590,12406310,-3545031,-59834770,28881840,-690918,12646480
2026-01-14 17:06:00.891,-398782,52480580,36408400,-11184920,32861330,-9552002,58380130
2026-01-14 17:06:00.901,-436761,5,52670480,36494720,-11198730,4013672,-1694336,3427124
2026-01-14 17:06:00.911,47836740,85867900,-76925480,-59541290,37036130,-14672850,16235350
2026-01-14 17:06:00.921,-530846,53041640,36658720,-11242750,34960940,-90026860,7678223
2026-01-14 17:06:00.931,-53869410,53222910,36753680,-64557150,3918457,-103149400,15197750
2026-01-14 17:06:00.941,-54140460,12780920,-3757366,-64804020,38452150,-13208010,20898440
2026-01-14 17:06:00.951,47215260,12828400,-3778949,-59178760,33251950,-19506840,22033690
2026-01-14 17:06:00.961,-699164,5,53706280,37029880,-11316120,3334961,-2565918,24975590
2026-01-14 17:06:00.971,-736282,12905220,-3805705,-11330800,36669920,-29125980,265625
2026-01-14 17:06:00.981,46835460,5399116,3724566,-58902540,20202640,-21936040,2939453
2026-01-14 17:06:00.991,46731890,5411200,3736650,-58781700,4647827,-66108700,42163090
2026-01-14 17:06:01.001,-750955,5,5423282,3748737,-11281600,-8685303,1953125,49829100
2026-01-14 17:06:01.011,-5473604,5436229,3761684,-6524424,-1262207,28198240,5498047
2026-01-14 17:06:01.021,-7293768,5449182,3774632,-112168600,-17297360,37670900,6425781
2026-01-14 17:06:01.031,-6983024,5462992,3788442,-111616200,-24987790,41723630,72998050
2026-01-14 17:06:01.041,46326200,13020880,-3741832,-58082540,-296875,48242190,703125
2026-01-14 17:06:01.051,46265770,130433200,-37366520,-57901260,-26904300,35180660,69677740
2026-01-14 17:06:01.061,-553294,88741380,-79403630,-10944100,-24072270,26635740,74560540
2026-01-14 17:06:01.071,-51528510,88928700,-79561590,-61891690,-25317380,15991210,69433590
2026-01-14 17:06:01.081,46075880,89203180,-79805010,-57279790,-2668457,5368042,6557617
2026-01-14 17:06:01.091,46006820,55631140,38661260,-57072630,-21118160,793457,5263672
2026-01-14 17:06:01.101,-323688,5582104,3878211,-10604010,-8917236,-4699707,46850580
2026-01-14 17:06:01.111,-48735300,13299690,-3808292,-58988000,-7714844,-22872920,49414060
2026-01-14 17:06:01.121,-205432,5,56192200,39032430,-10428790,-7928467,2520752,50683590
2026-01-14 17:06:01.131,-159685,5,5638210,3917054,-10353690,-49713140,-21190640,50146480
2026-01-14 17:06:01.141,-469664,9,56563370,39300020,-571310,8,20431520,-8483887,53125
2026-01-14 17:06:01.151,-776848,13467140,-3848000,-102112700,-17700200,-20065310,49951170
2026-01-14 17:06:01.161,-414328,91660620,-82008680,-101439400,1083374,-6304932,50097660
2026-01-14 17:06:01.171,3451,5,135431000,-38583580,-10067980,21621700,-18554690,40722660
2026-01-14 17:06:01.181,-4478375,92125000,-82407460,-5482577,5596924,-52734380,3244629
2026-01-14 17:06:01.191,45135020,136095600,-38609480,-54975130,31555180,-10687260,29516600
2026-01-14 17:06:01.201,1312020,13633730,-3854043,-98504670,-32978060,-9362793,3232422
2026-01-14 17:06:01.211,1769492,5780637,4030129,-97753710,29144290,-11578370,39672850
2026-01-14 17:06:01.221,49140990,50084430,48333920,-50088740,-522995,-12536620,46801760
2026-01-14 17:06:01.231,44789760,5811709,4061201,-54146500,-29510500,-8770752,5317383
2026-01-14 17:06:01.241,44703440,5827246,4076738,-53939340,524292,-1348877,5048828
2026-01-14 17:06:01.251,-40657780,13710550,-3777219,-50492700,3515625,-18554690,5175781
2026-01-14 17:06:01.261,405688,137174600,-37530520,-9399888,-1953125,-21240230,5761719
2026-01-14 17:06:01.271,451433,5,92263970,-82268500,-9324794,-8026123,-23864750,65722660
2026-01-14 17:06:01.281,487686,92106010,-82081180,-9257466,-1038208,-22229000,7729492
2026-01-14 17:06:01.291,-38473100,92035230,-81979330,-48188910,-13598630,-16931150,80908200
2026-01-14 17:06:01.301,5610592,137269500,-36399780,-91236800,-14526370,-1496582,8120117
2026-01-14 17:06:01.311,-37554690,91721030,-81602980,-47208350,-16479490,-20874020,78125
2026-01-14 17:06:01.321,-37224960,59394550,42096670,-46847540,-16589360,-18200680,73828130
2026-01-14 17:06:01.331,617166,8,59532660,42269310,-8972623,-25421140,-22476200,6855469
2026-01-14 17:06:01.341,43624480,13737310,-3526041,-51945420,4333496,-31951900,5136719
2026-01-14 17:06:01.351,610261,59843400,42580060,-8913928,58746340,15136720,37670900
2026-01-14 17:06:01.361,43305110,59998780,42718160,-51626040,23181150,10461430,24804690
2026-01-14 17:06:01.371,561922,3,13798600,-3499281,-8900120,29467770,19424440,7067871
2026-01-14 17:06:01.381,546384,8,13803770,-3476839,-8884582,27294920,10748290,-10076900
2026-01-14 17:06:01.391,531712,8,60404460,43141110,-8869906,17541500,12225340,-14697270
2026-01-14 17:06:01.401,525671,60525300,43296480,-8846601,1182251,53955080,-12097170
2026-01-14 17:06:01.411,520490,13801180,-3393112,-8824161,58746340,-41625980,14266970
2026-01-14 17:06:01.421,515311,3,13796010,-3363763,-8801718,51849360,-16320800,1026001
2026-01-14 17:06:01.431,502363,3,13799460,-3343048,-8788770,46142580,-29101560,13244630
2026-01-14 17:06:01.441,42165730,13793420,-3314565,-50486660,59509280,-32861330,9631348
2026-01-14 17:06:01.451,442805,3,13778740,-3277447,-8798266,103759800,-24487300,-11680600
2026-01-14 17:06:01.461,-37427800,61112260,44107860,-46644700,113220200,-836792,-8605957
2026-01-14 17:06:01.471,3772044,13739040,-3196310,-88189820,13793950,6970215,-89660650
2026-01-14 17:06:01.481,-37880100,89784950,-79223220,-47055570,17785640,1459961,-10192870
2026-01-14 17:06:01.491,3046980,89534640,-78955650,-88500560,21228030,1821289,-8795166
2026-01-14 17:06:01.501,2615392,89369770,-78775240,-88759500,25048830,15905760,-4748535
2026-01-14 17:06:01.511,2183808,89290360,-78682020,-89018460,30566410,8831787,-17425540
2026-01-14 17:06:01.521,167453,137001900,-30797810,-8937229,30395510,8190918,-21942140
2026-01-14 17:06:01.531,41026350,137062400,-30737390,-49882440,35253900,7684326,-62164310
2026-01-14 17:06:01.541,40922760,89220440,-78579310,-49882440,4885254,30883790,-13659670
2026-01-14 17:06:01.551,-40780340,13705370,-3057337,-49852230,5732422,-35217280,-22387700
2026-01-14 17:06:01.561,-41215380,6163881,4489336,-50280360,6225586,-93322750,-2446289
2026-01-14 17:06:01.571,-4173585,61647420,44919230,-5079565,58740230,-16064450,-21447750
2026-01-14 17:06:01.581,40603400,13684660,-3026267,-49960130,63378900,-18249510,-17932130
2026-01-14 17:06:01.591,-194212,5,13667390,-3009002,-9248840,6225586,-26098630,-10369870
2026-01-14 17:06:01.601,-246002,5,13650130,-2991739,-9300630,59472660,-2607422,-137786900
2026-01-14 17:06:01.611,-2882976,61578370,44988290,-93446500,49926760,-25195310,41290280
2026-01-14 17:06:01.621,-48143330,61543840,45005560,-49049310,42919920,-2388916,8526611
2026-01-14 17:06:01.631,40413500,13569860,-2916645,-50219080,39453120,-2331543,64453120
2026-01-14 17:06:01.641,-412592,61457520,45040080,-9479302,3564453,-21899410,37139890
2026-01-14 17:06:01.651,-453164,134964900,-28519050,-9525046,32470700,-21850590,2336502
2026-01-14 17:06:01.661,-493735,86630930,-75989810,-9570796,25585940,-15319820,-34454340
2026-01-14 17:06:01.671,-46213120,61276260,45100500,-55295360,22155760,-12780760,-55908200
2026-01-14 17:06:01.681,-46642120,13353200,-2718976,-55729540,17468260,-15808110,-8795166
2026-01-14 17:06:01.691,40309920,8524471,-7461394,-50616140,12890630,-15881350,-20217900
2026-01-14 17:06:01.701,-639607,13255660,-2626619,-9735666,6311035,-16296390,45280460
2026-01-14 17:06:01.711,40275390,131943800,-25670600,-50702450,23269650,-11779790,37719730
2026-01-14 17:06:01.721,-689669,60965510,45307660,-9789180,26260380,-45837400,1499939
2026-01-14 17:06:01.731,-706070,5,13089930,-2464343,-9807308,20339970,56884770,-23880000
2026-01-14 17:06:01.741,40232240,13038150,-2412555,-50797400,4081726,1583252,-10211180
2026-01-14 17:06:01.751,-747503,12994990,-2369395,-9852193,4147339,32910160,-15307620
2026-01-14 17:06:01.761,-756134,5,6077563,4548030,-9860824,8117676,4519043,-20019530
2026-01-14 17:06:01.771,-763906,81616800,-70991220,-9870317,14624020,5288086,-25585940
2026-01-14 17:06:01.781,-763906,81444160,-70818580,-9870317,18188480,4284668,-20751950
2026-01-14 17:06:01.791,40232230,81444170,-70818580,-50849190,21618650,3618164,-10021970
2026-01-14 17:06:01.801,45011590,81529620,-70905750,-46069830,3010254,25708010,-127334600
2026-01-14 17:06:01.811,40292660,12950970,-2327102,-50806040,35131840,14465330,111572300
2026-01-14 17:06:01.821,-674995,60775620,45445760,-9786590,39770510,14172360,2019043
2026-01-14 17:06:01.831,-639605,60801510,45402610,-9752926,44750980,10797120,21936040
2026-01-14 17:06:01.841,40404870,13051960,-2433271,-50745610,5205078,37078860,19641110
2026-01-14 17:06:01.851,-46886390,60861940,45290400,-56003160,58203120,-33081060,10131840
2026-01-14 17:06:01.861,-46712900,6088785,4524726,-55831400,4946289,-15283200,11863710
2026-01-14 17:06:01.871,-5498376,131598500,-25497970,-96700640,421875,-15100100,21133420
2026-01-14 17:06:01.881,-5317112,132030100,-25929550,-96536640,3239746,-93811030,4727173
2026-01-14 17:06:01.891,40534340,60982780,45117760,-50667930,15356450,-15716550,8648682
2026-01-14 17:06:01.901,-473015,5,13255660,-2643883,-9591516,33843990,12164310,-41748050
2026-01-14 17:06:01.911,40568870,61051830,45100500,-50581610,-9448242,1394043,-18164060
2026-01-14 17:06:01.921,40551600,61086360,45117760,-50529820,-22717280,34973140,-14978030
2026-01-14 17:06:01.931,40508450,13324720,-2695674,-50469400,-28881840,68359380,-19943240
2026-01-14 17:06:01.941,-439352,13348020,-2706893,-9521600,-3798828,-12931820,-3781128
2026-01-14 17:06:01.951,-447982,61310780,45238610,-9512966,-34423830,1940918,-10357670
2026-01-14 17:06:01.961,40240860,6141439,4530765,-50201820,-30639650,31234740,-17492680
2026-01-14 17:06:01.971,-479058,13417070,-2724157,-9499158,-22277830,14640810,-22875980
2026-01-14 17:06:01.981,39964650,13445560,-2730201,-49960130,-6719971,-6585693,-3322754
2026-01-14 17:06:01.991,-4558301,13474910,-2735378,-5454441,14694210,-2446289,-39672850
2026-01-14 17:06:02.001,39645280,135059800,-27388300,-49640750,48736570,-42211910,-4975586
2026-01-14 17:06:02.011,39472640,135370500,-27422830,-49468120,725708,-4645996,-58447260
2026-01-14 17:06:02.021,39317270,86980530,-76158130,-49278220,8288574,-50341800,-71484380
2026-01-14 17:06:02.031,43627930,82198230,-81113060,-44622300,8581543,-6147461,-8642578
2026-01-14 17:06:02.041,39006540,87181630,-76302270,-48898430,76416020,-57470700,-10419920
2026-01-14 17:06:02.051,38877060,136181900,-27129350,-48717160,63171390,-47436520,-12900390
2026-01-14 17:06:02.061,-537754,5,136043800,-26749560,-9267823,-114746100,-34887700,-14042970
2026-01-14 17:06:02.071,38635380,135905700,-26369770,-48389160,-28173830,-25463870,-14072270
2026-01-14 17:06:02.081,-44344360,8619333,-7521898,-53020920,-30541990,-17602540,-12958980
2026-01-14 17:06:02.091,-44183820,13517200,-2520447,-52836210,-35864260,-18066410,-11679690
2026-01-14 17:06:02.101,-44195900,55884050,54290640,-52824120,-3840332,-16955570,-11259770
2026-01-14 17:06:02.111,-5489752,84584370,-73547900,-91530270,-42993160,-7800293,-10224610
2026-01-14 17:06:02.121,-5696904,133661500,-23089730,-91495740,-38476560,9838867,-9145508
2026-01-14 17:06:02.131,-5895432,13323860,-2247688,-91469860,-32470700,1796875,-78515620
2026-01-14 17:06:02.141,3778947,5624917,5470237,-4756052,-21801760,27392580,-71240230
2026-01-14 17:06:02.151,-655144,5,13255660,-2143245,-9167702,-9857178,38964840,-6713867
2026-01-14 17:06:02.161,37530520,13238400,-2108720,-47387900,17456060,4177246,-69970700
2026-01-14 17:06:02.171,-4513760,63382380,48069790,-5360872,11767580,46411130,-7973633
2026-01-14 17:06:02.181,-710387,13217680,-2060381,-9164249,14208980,5073242,-8623047
2026-01-14 17:06:02.191,37262940,13223730,-2054341,-47137580,11663820,5029297,-8730469
2026-01-14 17:06:02.201,-715563,5,63537760,48259690,-9141804,7940674,41796880,-80078130
2026-01-14 17:06:02.211,37142090,132254500,-20353500,-46982200,2420044,3125,-6123047
2026-01-14 17:06:02.221,-703484,5,81817920,-70617460,-9102099,-8685303,16418460,-43896480
2026-01-14 17:06:02.231,-683632,81565010,-70352460,-9070161,-20837400,4586792,-30639650
2026-01-14 17:06:02.241,-6568708,81311240,-70088330,-90278690,-36206060,-5090332,-17456060
2026-01-14 17:06:02.251,-43814380,63719020,48648120,-52169840,-42626950,-37017820,-12164310
2026-01-14 17:06:02.261,-594721,8,6375355,4875170,-8934646,-40673830,59280400,-1237793
2026-01-14 17:06:02.271,-569688,3,63796710,48863910,-8890622,-2956543,-10538100,-15161130
2026-01-14 17:06:02.281,36814090,13064040,-1782442,-46205350,-27001950,49316410,-23999020
2026-01-14 17:06:02.291,36753670,13020020,-1722884,-46075880,-2536621,56396480,-3305664
2026-01-14 17:06:02.301,36693250,129760000,-16633240,-45963660,-21105960,10656740,-41455080
2026-01-14 17:06:02.311,-477331,5,12940610,-1612397,-8724034,-12927250,83618160,-49682620
2026-01-14 17:06:02.321,-41633150,63943440,49476760,-49862590,-11883550,-10269170,-5263672
2026-01-14 17:06:02.331,-4333100,6396075,4959760,-86472110,-21862790,-748291,-5209961
2026-01-14 17:06:02.341,40532620,12823220,-1453576,-41433760,-2541504,999,4507,-54052740
2026-01-14 17:06:02.351,-391012,57626790,56207740,-8568661,-22766110,18661500,-53466800
2026-01-14 17:06:02.361,36339340,76392050,-64994780,-45264500,-20178220,47210690,-51171880
2026-01-14 17:06:02.371,36261660,127489800,-13379090,-45169540,-2130127,54748540,-46923830
2026-01-14 17:06:02.381,36192610,127377600,-13146040,-45065960,-17687990,35186770,-4741211
2026-01-14 17:06:02.391,4055581,127265400,-12912990,-4056460,-15283200,24459840,-4736328
2026-01-14 17:06:02.401,36071770,12723090,-1277489,-44893340,-17883300,3527832,-5053711
2026-01-14 17:06:02.411,-352172,5,12718770,-1264540,-8434872,-10040280,41778560,-4958496
2026-01-14 17:06:02.421,-349580,5,64314610,50331300,-8420196,-39794920,55511480,-4963379
2026-01-14 17:06:02.431,-346993,5,12728270,-1255045,-8405524,-8285522,57769780,-44628900
2026-01-14 17:06:02.441,-39565870,12740350,-1260222,-47614040,-59509280,-16830440,-41577150
2026-01-14 17:06:02.451,-39399280,12744670,-1255907,-47435370,-10406490,-23040770,-41235350
2026-01-14 17:06:02.461,-39231820,75837030,-64341370,-47257550,-48065180,-22598270,-38134770
2026-01-14 17:06:02.471,-2908876,127697000,-12654030,-83062600,-46966550,10786060,-34057620
2026-01-14 17:06:02.481,-2710348,76018300,-64505370,-82743230,-10479740,5466461,-28051760
2026-01-14 17:06:02.491,-38472240,127955900,-12740350,-46463430,-1227417,27267460,-23205570
2026-01-14 17:06:02.501,-38220190,76199560,-64669370,-46197580,-15441900,-10688780,-18139650
2026-01-14 17:06:02.511,39399280,128137200,-12731730,-40236540,-15454100,-40893560,-18310550
2026-01-14 17:06:02.521,-169181,5,128275300,-12766250,-8117221,-1809082,-43701170,-17871090
2026-01-14 17:06:02.531,-142423,128335700,-12705830,-8074926,-17272950,-4034424,-20910640
2026-01-14 17:06:02.541,-36697560,128396200,-12645410,-44612800,-16638180,-23536680,-23449710
2026-01-14 17:06:02.551,-36275480,71186540,-70027650,-44171730,-14831540,101623500,-27929690
2026-01-14 17:06:02.561,-414324,76494770,-64892060,-79169720,-123413100,32684330,-34204100
2026-01-14 17:06:02.571,-35519340,76588850,-64970610,-43374160,-925293,37506100,-3269043
2026-01-14 17:06:02.581,-3501264,65255460,51082250,-4284501,-11254880,17105100,-34228520
2026-01-14 17:06:02.591,-3459314,58956060,57537020,-4240135,-12121580,-11148450,-3251953
2026-01-14 17:06:02.601,932220,12945790,-1279214,-76890960,-12060550,-29647830,-3322754
2026-01-14 17:06:02.611,1398336,65557570,51298040,-76148620,-12609860,-40130620,-35717770
2026-01-14 17:06:02.621,-32907390,12999300,-1294750,-40634470,-13574220,-78430180,-34277340
2026-01-14 17:06:02.631,232194,3,65790620,51462050,-7465532,-13195800,-9082031,-3544922
2026-01-14 17:06:02.641,37978510,59439440,58003120,-38688020,-17163090,-12512210,-359375
2026-01-14 17:06:02.651,-34403870,66032310,51634680,-35167420,-18371580,-16430660,-34350580
2026-01-14 17:06:02.661,-30208270,13109790,-1322371,-37809320,-1965332,-120666500,-35424800
2026-01-14 17:06:02.671,34509430,7815206,-6634220,-41173090,-18041990,-83618160,-35986330
2026-01-14 17:06:02.681,-28775410,7833678,-6650272,-36307410,-19152830,-40771480,-38745120
2026-01-14 17:06:02.691,-28103000,13187470,-1331003,-35598750,-20324710,3910,065,-44873050
2026-01-14 17:06:02.701,-27344280,13216820,-1336182,-34803780,-13696290,1889038,-546875
2026-01-14 17:06:02.711,34077850,78975510,-67072430,-40154540,-12670900,14198300,-60009770
2026-01-14 17:06:02.721,-26000330,79159360,-67233840,-33385590,-8306885,18997190,-6713867
2026-01-14 17:06:02.731,-25327930,79430400,-67480700,-32676930,-6707764,18447880,-67871100
2026-01-14 17:06:02.741,8251878,13357520,-1385385,-64875660,-58258060,19577030,-7241211
2026-01-14 17:06:02.751,3361177,67361590,52584160,-3913599,-680542,2986145,-71240230
2026-01-14 17:06:02.761,-23311560,60826540,59343620,-30550080,-5014038,28640750,-6796875
2026-01-14 17:06:02.771,9684746,67637800,52756800,-62337950,-23406980,82336420,-64990230
2026-01-14 17:06:02.781,-22053930,13496490,-1436310,-29218220,34179690,15527340,-56884770
2026-01-14 17:06:02.791,1052201,13533600,-1450985,-6075835,1352539,24560550,-41357420
2026-01-14 17:06:02.801,1076372,68026220,53007110,-6013685,14941410,45141600,-44006350
2026-01-14 17:06:02.811,11005390,13589710,-1463932,-59515400,-14758300,8046875,24682620
2026-01-14 17:06:02.821,10970860,68302440,53197010,-59135600,-24682620,11328130,36767580
2026-01-14 17:06:02.831,10763690,81785980,-69613590,-58928440,45135500,10224610,35375980
2026-01-14 17:06:02.841,10306210,81883520,-69688690,-58988860,33325200,6044922,18286130
2026-01-14 17:06:02.851,32006240,81722100,-69504830,-36926300,6386719,17993160,-19250490
2026-01-14 17:06:02.861,31816350,13636320,-1400059,-36788200,9355469,-1973877,-67041020
2026-01-14 17:06:02.871,31660980,13601790,-1348269,-36650090,11542970,-40576170,-11123050
2026-01-14 17:06:02.881,909781,62078140,60595220,-5898884,11523440,-6098633,-12587890
2026-01-14 17:06:02.891,31471090,68759920,54034280,-36425660,95703130,-6796875,-11367190
2026-01-14 17:06:02.901,927041,3,134559200,-11661390,-5847091,5966797,-62890620,-7416992
2026-01-14 17:06:02.911,-20962880,7874246,-6644230,-27719760,2878418,-4638672,-31860350
2026-01-14 17:06:02.921,-20798880,13362700,-1052200,-27538490,60150140,-35717770,-17593380
2026-01-14 17:06:02.931,-20548560,13308320,-985736,1,-27270910,-16589360,-3173828,2052002
2026-01-14 17:06:02.941,9779688,13253940,-919273,9,-57253900,-30541990,-22424320,29638670
2026-01-14 17:06:02.951,-20137700,76435210,-64088460,-26818610,-45825200,-19970700,33642580
2026-01-14 17:06:02.961,9995482,68768550,54837030,-56606520,-5214844,-21521000,31201170
2026-01-14 17:06:02.971,10133590,6914592,-6913353,-56226730,-55615230,-11987310,29174800
2026-01-14 17:06:02.981,-19568000,68820340,55061450,-26179870,-5371094,-105529800,23034670
2026-01-14 17:06:02.991,30668340,13046780,-643061,4,-35174070,-5083008,-15258790,25219730
2026-01-14 17:06:03.001,30556130,13028650,-609397,9,-35010070,-40039060,4849243,29663090
2026-01-14 17:06:03.011,30435280,130200200,-5835010,-34820170,-41748050,52825930,25146480
2026-01-14 17:06:03.021,10806860,130191500,-5671018,-54137860,-23828120,52978520,18859860
2026-01-14 17:06:03.031,10996750,130191500,-5498378,-53637220,-1607666,26229860,6506348
2026-01-14 17:06:03.041,11022640,73914760,-61429900,-53317850,-83984380,-42541500,-3643799
2026-01-14 17:06:03.051,11048550,130088000,-5084058,-52998480,-20507810,-99853520,-12188720
2026-01-14 17:06:03.061,11074440,129993000,-4833738,-52679100,881958,-1027832,-21838380
2026-01-14 17:06:03.071,-17627600,12988940,-459204,1,-23977060,21154780,-11553960,-25952150
2026-01-14 17:06:03.081,10901800,6942458,5599367,-52333840,3125,-9906006,-24291990
2026-01-14 17:06:03.091,-17564600,12983770,-429856,6,-23867440,3305664,-114746100,-22302250
2026-01-14 17:06:03.101,10780960,69519500,56123150,-52040360,19128420,-111572300,-12573240
2026-01-14 17:06:03.111,-17498130,12976000,-403098,1,-23761270,16357420,-6210327,-27709960
2026-01-14 17:06:03.121,-17420440,12981180,-397919,1,-23666320,13232420,-3262329,38726810
2026-01-14 17:06:03.131,-17429080,12993260,-403098,1,-23657690,95703130,-14389040,59143060
2026-01-14 17:06:03.141,10435700,69692140,56295780,-51695100,19555660,-64697260,9375
2026-01-14 17:06:03.151,10461590,69726660,56313040,-51548360,26904300,-18835450,13049320
2026-01-14 17:06:03.161,10496120,69752560,56338940,-51410250,17797850,-31225590,1282959
2026-01-14 17:06:03.171,-17279750,13005340,-391013,6,-23461750,10491940,-32299800,19445800
2026-01-14 17:06:03.181,-17024250,12998440,-380656,1,-23199350,27633670,-39086910,24536130
2026-01-14 17:06:03.191,10893180,69787090,56425260,-50771510,-15991210,-50634770,29052730
2026-01-14 17:06:03.201,11031280,69795720,56468410,-50564340,-7476807,-5004883,33398440
2026-01-14 17:06:03.211,11186650,69787090,56494310,-50374450,-10888670,-42041020,26757810
2026-01-14 17:06:03.221,1125570,12952690,-322824,6,-5027087,-869751,-3100586,23950200
2026-01-14 17:06:03.231,1134202,6321562,6308304,-5018455,-1459961,-22265620,15734860
2026-01-14 17:06:03.241,28838430,63147320,63134070,-32722670,-24121090,-8203125,13317870
2026-01-14 17:06:03.251,28847060,63138690,63125440,-32748570,-31323240,14457700,9436035
2026-01-14 17:06:03.261,11048550,12950100,-325414,3,-50581620,-35498050,8618164,9301758
2026-01-14 17:06:03.271,10729170,69769820,56442520,-50952780,-32006840,7751465,8428955
2026-01-14 17:06:03.281,10323480,12989810,-372025,8,-51410250,-35546880,7879639,7501221
2026-01-14 17:06:03.291,-17970280,6978710,5635621,-24152290,-21472170,12536620,9613037
2026-01-14 17:06:03.301,9201364,73803410,-61195980,-52705000,-19091800,12609860,15612790
2026-01-14 17:06:03.311,28760740,74145220,-61544700,-33249210,-13708500,18054200,22998050
2026-01-14 17:06:03.321,7846192,7440161,-6180625,-54284600,-16479490,13012700,28637700
2026-01-14 17:06:03.331,7207448,13130510,-542069,9,-55026920,-23742680,6317139,33911130
2026-01-14 17:06:03.341,28700320,13145180,-561923,4,-33620370,-3623047,5230713,37036130
2026-01-14 17:06:03.351,607670,6975256,5602820,-5631304,-43774420,117492700,31103520
2026-01-14 17:06:03.361,5671010,6974395,5601956,-56770520,-4501953,26391600,2607422
2026-01-14 17:06:03.371,5515644,13157260,-584364,9,-56960420,-45361330,3449707,24780270
2026-01-14 17:06:03.381,-22510540,13157260,-584363,6,-28761600,-39868160,38232420,27319340
2026-01-14 17:06:03.391,5800486,7508006,-6250887,-56727370,-37304690,35839840,26782230
2026-01-14 17:06:03.401,28760740,7508005,-6250888,-33767110,-34228520,29956060,28076170
2026-01-14 17:06:03.411,28803900,13174530,-601628,9,-33723950,-31079100,24890140,37548830
2026-01-14 17:06:03.421,7250604,13191790,-618891,4,-55242720,-24035640,20385740,45751950
2026-01-14 17:06:03.431,-20355210,69795720,55950510,-26601090,-2055664,2088623,5419922
2026-01-14 17:06:03.441,8338198,13228910,-650828,4,-54086070,-18017580,13989260,6821289
2026-01-14 17:06:03.451,28959270,69856140,55941880,-33395950,-1697998,16320800,68603520
2026-01-14 17:06:03.461,-18464880,13275520,-690532,6,-24693490,-20458980,14233400,72558590
2026-01-14 17:06:03.471,10116320,76469730,-63881300,-52066260,-22741700,1508789,7216797
2026-01-14 17:06:03.481,-17268530,71150550,-69891020,-23472970,-22155760,11755370,68408200
2026-01-14 17:06:03.491,-19677120,13387730,-785481,5,-19683310,-13549810,7129669,6435547
2026-01-14 17:06:03.501,-15904720,70175510,55933250,-22074640,-12072750,12039190,60791020
2026-01-14 17:06:03.511,12541820,70253200,55959140,-48967490,-22790530,119628900,54248050
2026-01-14 17:06:03.521,13215090,13505120,-875252,3,-48087060,-10687260,59539800,50927740
2026-01-14 17:06:03.531,28864320,13544830,-904600,8,-32213410,-99243170,-637207,546875
2026-01-14 17:06:03.541,14363110,13585390,-933084,8,-46472940,-105896000,-19519040,5839844
2026-01-14 17:06:03.551,-12334660,136251000,-9624316,-18394090,-21154780,-28173830,5786133
2026-01-14 17:06:03.561,15321220,136656700,-9909165,-45014180,-33666990,-30493160,52783200
2026-01-14 17:06:03.571,-11238440,79798970,-67112140,-17246080,-46411130,-28808590,49047850
2026-01-14 17:06:03.581,1616710,79892180,-67191540,-4361582,-6557617,-23522950,4506836
2026-01-14 17:06:03.591,16357030,70943730,56200830,-43115210,-76171870,-4498291,34765620
2026-01-14 17:06:03.601,-10076620,13762340,-1032348,-15991040,-6791992,5609131,34936520
2026-01-14 17:06:03.611,16633240,71150890,56287150,-42182990,-67529300,13293460,33618160
2026-01-14 17:06:03.621,16805870,13837440,-1078097,-41665090,-6723633,14794920,29785160
2026-01-14 17:06:03.631,16969870,13871970,-1095360,-41138560,-6801758,19177250,2890625
2026-01-14 17:06:03.641,-8938099,8157796,-6878581,-14712690,-64990230,11090090,25195310
2026-01-14 17:06:03.651,17107980,13957420,-1148013,-40240870,-5722656,-12519840,23376460
2026-01-14 17:06:03.661,27362410,139910800,-11661400,-29606640,-55322260,-13879400,15405270
2026-01-14 17:06:03.671,27198410,140342400,-11920350,-29390840,-45654300,-1149292,8880615
2026-01-14 17:06:03.681,17306510,14067900,-1210162,-38885700,-53222660,-10998540,91674810
2026-01-14 17:06:03.691,17280610,14111060,-1236056,-38514530,-4580078,-41625980,11791990
2026-01-14 17:06:03.701,-7759876,8352613,-7063558,-13301410,-39770510,-13012700,15637210
2026-01-14 17:06:03.711,17073450,64607740,64453060,-37962100,-39916990,-1586914,11553960
2026-01-14 17:06:03.721,-7797855,14220680,-1299066,-13263430,-30126950,-21923830,6878662
2026-01-14 17:06:03.731,16615970,14254350,-1317194,-37677260,-15283200,-33569340,5709839
2026-01-14 17:06:03.741,16348390,14269890,-1318920,-37582310,-18029780,-28076170,-41809080
2026-01-14 17:06:03.751,16098080,72626910,57020840,-37504620,-14990230,-2121582,-8355713
2026-01-14 17:06:03.761,15856390,72695970,57072640,-37435570,-17224120,-21984860,-36621100
2026-01-14 17:06:03.771,15623330,72756380,57133060,-37375150,-19567870,-19177250,-4095459
2026-01-14 17:06:03.781,25256280,14312180,-1311152,-27448720,-22912600,-2680664,-44403080
2026-01-14 17:06:03.791,26203350,72868590,57245260,-26225440,-18591310,-29589840,-2787,113
2026-01-14 17:06:03.801,24962800,65890750,64326700,-27207030,-25390620,-3798828,1586914
2026-01-14 17:06:03.811,-8711086,14327720,-1295614,-13903900,-6439209,-43579100,26391600
2026-01-14 17:06:03.821,14363110,14315630,-1273173,-37323360,-71777340,-375,31054690
2026-01-14 17:06:03.831,13983310,73023960,57486950,-37461460,-8935547,-27197270,3935547
2026-01-14 17:06:03.841,13508570,73075760,57556010,-37677260,-17881390,-20599360,4423828
2026-01-14 17:06:03.851,12861200,14295780,-1223972,-38065680,21459960,30297850,47094730
2026-01-14 17:06:03.861,12213820,14300960,-1218793,-38454110,3630371,46411130,43554690
2026-01-14 17:06:03.871,1139383,73231130,57694110,-3901514,48217770,5883789,38964840
2026-01-14 17:06:03.881,-11908260,14319090,-1217929,-16921530,6196289,66259770,29174800
2026-01-14 17:06:03.891,-12438240,8415451,-7104299,-17427350,7788086,6875,20141600
2026-01-14 17:06:03.901,-12881050,14302690,-1182539,-17847710,81933590,63671880,89904780
2026-01-14 17:06:03.911,9115050,73343340,57927170,-40361710,85058590,53515620,-4434204
2026-01-14 17:06:03.921,-13330760,73343340,57996220,-18261170,9477539,24206540,-17285160
2026-01-14 17:06:03.931,8709355,82874440,-69733580,-40473920,9370117,-12908940,-25756840
2026-01-14 17:06:03.941,8579884,141507700,-10064540,-40517070,79345700,-10253910,-32592770
2026-01-14 17:06:03.951,8467674,14100700,-952937,6,-40577500,6152344,-17272950,-2770996
2026-01-14 17:06:03.961,8450410,73231130,58281070,-40560230,36791990,34885410,-21289060
2026-01-14 17:06:03.971,8433146,14008350,-855399,6,-40542980,28808590,-993042,-14892580
2026-01-14 17:06:03.981,-13606970,13957420,-802745,6,-18502860,10986330,-6652832,-18237300
2026-01-14 17:06:03.991,-13434340,138978600,-7414612,-18330220,-23651120,-27938840,-19628910
2026-01-14 17:06:04.001,8847466,13838300,-680176,6,-40094130,-93566900,6561279,-16687010
2026-01-14 17:06:04.011,-13005340,7865442,-6549455,-17896050,-90148930,10046390,-20666500
2026-01-14 17:06:04.021,-12832710,72972180,58643600,-17723410,-45898440,7696533,-29248050
2026-01-14 17:06:04.031,9339474,72937650,58695390,-39550330,11541750,-75683590,-33911130
2026-01-14 17:06:04.041,-12660070,72903130,58729920,-17550780,2607422,-7861328,-40283200
2026-01-14 17:06:04.051,-12657490,136415000,-4799208,-17553370,43823240,-14074710,-34570310
2026-01-14 17:06:04.061,9330838,77013530,-63855400,-39714330,5576172,-22680660,-25976560
2026-01-14 17:06:04.071,9140941,76839170,-63684500,-40042330,6269531,-33764650,-14624020
2026-01-14 17:06:04.081,8881991,76663090,-63515320,-40473920,609375,-3876953,-8911133
2026-01-14 17:06:04.091,8553991,72695960,58695380,-41009080,63964840,-34960940,-5203247
2026-01-14 17:06:04.101,23236470,13556910,-426405,6,-26585560,6269531,-26416020,6690979
2026-01-14 17:06:04.111,7621770,13542240,-423815,1,-42493740,61376950,-25439450,7696533
2026-01-14 17:06:04.121,7017552,72506060,58540020,-43443220,68115230,-27270510,16345220
2026-01-14 17:06:04.131,-18735570,13528420,-437624,5,-19243800,6845703,-20678710,17675780
2026-01-14 17:06:04.141,-17204650,72350700,58401910,-22328410,64990230,-22460940,1652832
2026-01-14 17:06:04.151,5196272,72255740,58324220,-46455670,57958980,-18823240,14477540
2026-01-14 17:06:04.161,4462574,13476640,-437625,6,-47620940,5292969,-13598630,16247560
2026-01-14 17:06:04.171,24013320,65803570,64413880,-28519050,52685550,-791626,16235350
2026-01-14 17:06:04.181,3003826,71962270,58082540,-49960130,43188480,-48614500,13842770
2026-01-14 17:06:04.191,2424637,13415350,-429857,6,-2913190,29614260,-13595580,9729004
2026-01-14 17:06:04.201,1510548,71755100,57944430,-52264790,18188480,97961420,7904053
2026-01-14 17:06:04.211,-23533400,13365290,-410866,6,-28947180,9820557,23925780,2420044
2026-01-14 17:06:04.221,-24379300,7517759,-6223868,-29827620,5291748,39160160,-2848816
2026-01-14 17:06:04.231,-49200,25,7149616,5777180,-5526861,10205080,5307617,-7659912
2026-01-14 17:06:04.241,-1130750,7499288,-6207814,-56183570,11090090,5961914,-13220220
2026-01-14 17:06:04.251,-26496650,13296230,-393603,1,-32026100,17102050,60595700,-11138920
2026-01-14 17:06:04.261,-27088780,13282420,-390150,6,-32642400,1694336,47851560,-78063970
2026-01-14 17:06:04.271,24833330,71254470,57581900,-30910020,16369630,29785160,-5606079
2026-01-14 17:06:04.281,27667110,13273790,-398784,7,-28283410,109069800,1640625,-62927250
2026-01-14 17:06:04.291,-28354190,71168160,57495580,-33966500,37139890,17419430,11644360
2026-01-14 17:06:04.301,-28518190,13273790,-416045,6,-34147770,-335083,2064209,68847660
2026-01-14 17:06:04.311,-31309590,7111638,5739202,-31874270,-29663090,27319340,1574707
2026-01-14 17:06:04.321,-3374982,71107730,57314320,-59981500,-3564453,17028810,234375
2026-01-14 17:06:04.331,-29012780,13348890,-513583,1,-34688970,-40161130,105773900,28442380
2026-01-14 17:06:04.341,-3582146,13379960,-551563,3,-60464880,-29525760,-35591120,3022461
2026-01-14 17:06:04.351,-3694360,76586260,-63764770,-60697930,66345220,-13317870,32861330
2026-01-14 17:06:04.361,-29599740,70671180,-70543020,-35310450,8782959,-2626953,32104490
2026-01-14 17:06:04.371,25333970,13509440,-698304,3,-31876770,9057617,-3881836,3034668
2026-01-14 17:06:04.381,-433310,3,13550000,-744050,6,-6161289,10455320,-37841800,22802730
2026-01-14 17:06:04.391,-456613,3,71202680,56822310,-6189771,11035160,-3461914,17419430
2026-01-14 17:06:04.401,25325330,13624240,-825189,3,-32040780,16113280,-31811520,8721924
2026-01-14 17:06:04.411,-30966130,13657900,-860576,6,-36706190,17529300,-4091797,4385376
2026-01-14 17:06:04.421,-31225080,71254470,56701470,-36965140,19018560,-39257810,-40863040
2026-01-14 17:06:04.431,-5558800,136915600,-8959681,-62976690,18774410,-3076172,-970459
2026-01-14 17:06:04.441,-5645116,137088300,-9132313,-63063000,20043940,-2175293,-15625
2026-01-14 17:06:04.451,-31484030,137260900,-9304952,-37224090,17553710,-18188480,-86242670
2026-01-14 17:06:04.461,-5507010,79940530,-67143200,-62855850,21569820,-24609380,-22109980
2026-01-14 17:06:04.471,-5187634,13788240,-989189,8,-62484690,17297360,-35083010,4977417
2026-01-14 17:06:04.481,-470423,3,64753960,63271040,-6193224,-31280520,-35791020,17834470
2026-01-14 17:06:04.491,25290800,13852110,-1046160,-31833610,-48065180,-44482420,16467290
2026-01-14 17:06:04.501,-3521726,13889230,-1078096,-60525300,-13867190,-5336914,11236570
2026-01-14 17:06:04.511,-2908876,13927210,-1109170,-59757080,-14892580,-48901370,37139890
2026-01-14 17:06:04.521,-220968,5,71677420,56571990,-5890252,-1743164,-4814453,-23086550
2026-01-14 17:06:04.531,-1441494,82289220,-69455630,-57944430,-2355957,-45629880,-38085940
2026-01-14 17:06:04.541,-664638,140342400,-11920350,-56994940,-3161621,-35986330,-16833500
2026-01-14 17:06:04.551,25290800,82643100,-69792270,-30849600,-46679690,-29614260,-27075200
2026-01-14 17:06:04.561,1130748,140601300,-12006670,-54819760,-57128900,-103271500,-3869629
2026-01-14 17:06:04.571,1976648,82652600,-69782780,-53766700,-6328125,13696290,-45581060
2026-01-14 17:06:04.581,273621,3,82571460,-69691270,-5279992,-7080078,3852539,-54345700
2026-01-14 17:06:04.591,3314558,76603260,-75314210,-51997200,-7368164,6323242,-55615230
2026-01-14 17:06:04.601,3633934,140376900,-11367920,-51453400,-70166020,7685547,-6220703
2026-01-14 17:06:04.611,3780668,82154550,-69245020,-51082240,-55810550,83203130,-69628900
2026-01-14 17:06:04.621,-20918000,82073410,-69153520,-26383570,-3684082,7871094,-7607422
2026-01-14 17:06:04.631,3409508,82076860,-69150060,-51056350,-15820310,72265620,-83691410
2026-01-14 17:06:04.641,-21453170,82080310,-69146620,-26884210,26062010,6425781,-8417969
2026-01-14 17:06:04.651,232189,82082040,-69144890,-5186770,19055180,5341797,-85009770
2026-01-14 17:06:04.661,1674546,140316500,-10910440,-52428780,27172850,55371100,-8701172
2026-01-14 17:06:04.671,871800,140325100,-10901800,-53179740,34033200,6113281,-87353520
2026-01-14 17:06:04.681,-26747060,82171820,-69227750,-27287220,39868160,53271480,-78125
2026-01-14 17:06:04.691,-2526578,140497800,-11074440,-3066742,5385742,44140620,-7270508
2026-01-14 17:06:04.701,-1898968,140575500,-11169400,-55933240,6088867,26342770,-6430664
2026-01-14 17:06:04.711,26752140,82341000,-69403850,-27351180,5883789,11553960,-6435547
2026-01-14 17:06:04.721,-28191910,82165780,-69233790,-33610870,46069340,6097412,-67041020
2026-01-14 17:06:04.731,-4704262,14007480,-1080685,-58997500,2836914,28324130,-6665039
2026-01-14 17:06:04.741,-549837,8,13970370,-1048748,-5992971,122680700,55755620,-7548828
2026-01-14 17:06:04.751,-6370178,8120768,-6829294,-60956890,7827759,37384030,-66845700
2026-01-14 17:06:04.761,-7147024,13894410,-986600,2,-61906370,-1821289,29006960,-5917969
2026-01-14 17:06:04.771,-7923874,71910480,57098530,-62855850,-3083496,98083500,-4338379
2026-01-14 17:06:04.781,23952890,8024611,-6735556,-31186240,-40820310,7904053,-27124020
2026-01-14 17:06:04.791,-34089070,13803780,-921861,6,-39625430,-45874020,6555176,-15002440
2026-01-14 17:06:04.801,-34768380,137813300,-9097788,-40327180,-42041020,35217280,9857178
2026-01-14 17:06:04.811,-10245800,79886150,-67024950,-66058200,-37353520,-8062744,1541748
2026-01-14 17:06:04.821,-1075510,79880970,-67030130,-6675734,-35205080,-19384770,27001950
2026-01-14 17:06:04.831,-36465370,71573840,56848200,-42082860,-26123050,-33666990,29833980
2026-01-14 17:06:04.841,-11454230,13806370,-971063,3,-67784540,-16564940,-4765625,42163090
2026-01-14 17:06:04.851,-11652760,13846070,-1017674,-68103910,-13891600,-6220703,5625
2026-01-14 17:06:04.861,-11609600,13895270,-1072053,-68147070,-1274414,-6533203,68896480
2026-01-14 17:06:04.871,-11428340,13954830,-1133338,-67983070,-2493,858,-6928711,78466800
2026-01-14 17:06:04.881,-36620740,82542110,-69720620,-42272760,-1033783,-79052740,79296870
2026-01-14 17:06:04.891,24306800,71806900,56442520,-32127090,-6274414,-7348633,7685547
2026-01-14 17:06:04.901,2428093,71901850,56399360,-3201485,-74523930,-47802740,7363281
2026-01-14 17:06:04.911,-10116320,14231040,-1392289,-66187680,-10638430,-28344730,70947260
2026-01-14 17:06:04.921,-9814216,142793800,-14302690,-65626620,-41229250,-6768799,66308590
2026-01-14 17:06:04.931,-9538008,85324970,-72462040,-65039660,42877200,59448240,5004883
2026-01-14 17:06:04.941,-9279052,143449800,-14682480,-64435440,7757568,115234400,31860350
2026-01-14 17:06:04.951,-9115050,14370010,-1477743,-63908920,21789550,21362300,81970220
2026-01-14 17:06:04.961,-903736,3,14377780,-1469975,-6346870,36572260,21203610,-115234400
2026-01-14 17:06:04.971,23435000,72540590,56692840,-30633810,53027340,125,-32006840
2026-01-14 17:06:04.981,-895968,3,8579453,-7285565,-6268322,67089840,8618164,-48339840
2026-01-14 17:06:04.991,23132890,14399360,-1448396,-30279920,72509770,28274540,-56689450
2026-01-14 17:06:05.001,-898557,8,8572030,-7275725,-6213942,6982422,-7080078,-61621100
2026-01-14 17:06:05.011,26109950,14401090,-1429407,-26819480,625,-10394290,-6201172
2026-01-14 17:06:05.021,-32752890,85383660,-72403340,-38026840,6113281,-15625,-63183590
2026-01-14 17:06:05.031,-32672620,85127300,-72141810,-37934480,4465332,-30004880,-6303711
2026-01-14 17:06:05.041,-32418840,14307870,-1315465,-37670360,2010498,-32104490,-59765620
2026-01-14 17:06:05.051,-32163350,14249170,-1253318,-37407950,-5569458,-2548828,-57128900
2026-01-14 17:06:05.061,-31906980,14191340,-1190307,-37146410,-2993164,-13598630,-5024414
2026-01-14 17:06:05.071,-31564310,141326400,-11281600,-36798550,-36889650,-20645140,-35839840
2026-01-14 17:06:05.081,-7682186,140730800,-10668750,-59990120,-5966797,-129470800,-29077150
2026-01-14 17:06:05.091,-735418,5,14023020,-1013359,-5962760,-69628900,848999,-36914060
2026-01-14 17:06:05.101,-712113,5,8125686,-6824374,-5934276,-6538086,16430660,-33984380
2026-01-14 17:06:05.111,22778990,72531960,57633690,-29390850,-5888672,8319092,-25927730
2026-01-14 17:06:05.121,22761720,13933250,-913232,1,-29321800,-49414060,-19348140,-24169920
2026-01-14 17:06:05.131,-29942420,13918580,-893377,1,-35140410,-47485350,-11395260,-25952150
2026-01-14 17:06:05.141,-6352914,13895270,-864894,1,-58212010,-41430660,-16271970,-22644040
2026-01-14 17:06:05.151,-5990386,74193730,-72890000,-57711370,-34204100,-27075200,-29248050
2026-01-14 17:06:05.161,-5636486,79805020,-66760820,-57202100,-29589840,-27734380,-35839840
2026-01-14 17:06:05.171,2262362,138365700,-7854824,-2878658,-21691900,-26367190,-39672850
2026-01-14 17:06:05.181,22580460,79467510,-66407790,-28639890,-1496582,-32055660,-37304690
2026-01-14 17:06:05.191,-27140570,66068560,64614980,-32245340,-8557129,-2841797,-4074707
2026-01-14 17:06:05.201,-3556248,72601020,58151590,-54448600,-1126709,-21691900,-55078120
2026-01-14 17:06:05.211,-3107404,7259240,5822927,-53861650,-17272950,-670166,-65283200
2026-01-14 17:06:05.221,22528670,13682930,-593860,6,-28104730,-2680664,14648440,-76220700
2026-01-14 17:06:05.231,-218381,3,7256649,5837602,-5271363,-21142580,2980957,-7788086
2026-01-14 17:06:05.241,-1881708,135931600,-4937321,-52325200,-19677730,37280270,-7451172
2026-01-14 17:06:05.251,-1570964,13551730,-448846,6,-51945420,-17211910,37329100,-75390620
2026-01-14 17:06:05.261,-1329274,72488800,58557280,-51669200,-15930180,3474121,-77978510
2026-01-14 17:06:05.271,-1165276,13475770,-369436,1,-51487940,-13061520,30444340,-8144531
2026-01-14 17:06:05.281,-23636110,13441240,-334908,1,-28671830,-17626950,24682620,-7832031
2026-01-14 17:06:05.291,-871796,72376590,58669490,-51263510,-23205570,2055664,-7729492
2026-01-14 17:06:05.301,-750956,13370470,-267582,1,-51211720,-28051760,20129400,-7416992
2026-01-14 17:06:05.311,-23454850,74481860,-61380700,-28507830,-34521480,19018560,-69628900
2026-01-14 17:06:05.321,-23537710,133255800,-2261496,-28597600,-34204100,49194340,-6274414
2026-01-14 17:06:05.331,-733694,74134000,-61038020,-51401620,-44628900,-43762210,-6513672
2026-01-14 17:06:05.341,-871802,73960500,-60866250,-51608780,-46948240,-993,7286,-69873050
2026-01-14 17:06:05.351,-923588,132789700,-1864445,-51729620,-35473630,21224980,-6953125
2026-01-14 17:06:05.361,-23955490,13268610,-179537,6,-29042990,-31811520,7312012,-62890620
2026-01-14 17:06:05.371,-24038350,72152170,58704020,-29132760,-15063480,8465576,-65625
2026-01-14 17:06:05.381,-1156644,7212629,5869538,-52187100,6304932,-12336730,-7792969
2026-01-14 17:06:05.391,-1191170,13237540,-158822,6,-52325210,122558600,-140625,-7885742
2026-01-14 17:06:05.401,-1148008,72065850,58686760,-52368370,66345220,-15271000,-8496094
2026-01-14 17:06:05.411,-1104854,13208190,-136380,1,-52411530,8001709,-114990200,-9248047
2026-01-14 17:06:05.421,-24273990,72014060,58669490,-29415020,1517334,-8203125,-87353520
2026-01-14 17:06:05.431,-1182538,13204740,-139833,1,-52679110,17590330,-1295166,-8544922
2026-01-14 17:06:05.441,-24351680,7325358,-6019211,-29509970,8630371,-19458010,-8408203
2026-01-14 17:06:05.451,-1104852,13202150,-142422,6,-52756800,105163600,-19970700,-7792969
2026-01-14 17:06:05.461,-1070328,13209050,-152780,6,-52791320,18652340,-4338379,-73095700
2026-01-14 17:06:05.471,-776850,13208190,-153644,1,-52566900,22277830,-7324219,-79541020
2026-01-14 17:06:05.481,-397056,71919110,58591800,-52256150,17248540,-86816410,-9614258
2026-01-14 17:06:05.491,86316,6531314,6518054,-51876360,12771610,-9370117,-11220700
2026-01-14 17:06:05.501,23512690,71798270,58660860,-28553580,-25,-9033203,-13066410
2026-01-14 17:06:05.511,23633520,71604920,-58560730,-28536310,-35888670,-74121100,-13261720
2026-01-14 17:06:05.521,2408238,71642900,58764440,-49882440,-43896480,-4375,-11787110
2026-01-14 17:06:05.531,3141930,12889680,149328,4,-49235070,-5600586,-3753662,-11259770
2026-01-14 17:06:05.541,386699,1282840,20888,63,-4857906,-45361330,3527832,-9682617
2026-01-14 17:06:05.551,433310,6909829,-5606100,-4818201,-2927246,7841797,-60302740
2026-01-14 17:06:05.561,4686998,62713600,-61409870,-47845370,-38208010,13769530,-3781128
2026-01-14 17:06:05.571,4756054,12691150,347856,8,-47741790,-7373047,19970700,49487300
2026-01-14 17:06:05.581,418636,3,12692880,349582,9,-4820790,-9584961,24257810,90722660
2026-01-14 17:06:05.591,-20176540,68500100,-55450740,-25398700,-58740230,21210940,11025390
2026-01-14 17:06:05.601,-23649500,68847970,-55793420,-24169980,9283447,11806640,11728520
2026-01-14 17:06:05.611,23460890,68936860,-55877140,-28450000,6899414,19836430,8720703
2026-01-14 17:06:05.621,-69054,127463900,3167827,-51893620,11337890,-24707030,33764650
2026-01-14 17:06:05.631,-871798,12704100,360803,9,-52644580,15878910,-46850580,-11224370
2026-01-14 17:06:05.641,23141520,12660940,403961,4,-28631260,17880860,-7602539,-30493160
2026-01-14 17:06:05.651,23124260,65923550,64708220,-28700310,17744140,-89746100,-3330078
2026-01-14 17:06:05.661,-2252868,12537510,522215,9,-54198280,17236330,-11005860,-13256840
2026-01-14 17:06:05.671,-2252870,65740560,-52686010,-54370920,14912110,-11806640,-2407837
2026-01-14 17:06:05.681,-2218336,71038680,59420450,-54578080,10888670,-11621090,1977539
2026-01-14 17:06:05.691,-1890340,63486830,-50451270,-54560810,60791020,-91796870,42358400
2026-01-14 17:06:05.701,23711210,12080030,945167,3,-29287270,3253174,-62939450,6245117
2026-01-14 17:06:05.711,-87180,11936740,1078096,-5419828,-56152340,-21826170,76171870
2026-01-14 17:06:05.721,-302108,65551520,64493280,-53904810,-87890620,3729248,9301758
2026-01-14 17:06:05.731,258950,11651900,1345678,-53602700,-10410160,13842770,10507810
2026-01-14 17:06:05.741,-23535990,11510340,1480333,-28944590,-96484380,27392580,9975586
2026-01-14 17:06:05.751,-25537410,55175390,-42189900,-26080000,-9042969,4873047,8125
2026-01-14 17:06:05.761,1726336,69666240,60154140,-52653210,-71533200,70703130,49902340
2026-01-14 17:06:05.771,24712490,11168520,1811787,-29753380,-46875,65283200,49780270
2026-01-14 17:06:05.781,24772910,11125370,1854945,-29744750,-2133789,37426760,42211910
2026-01-14 17:06:05.791,2483333,11098610,1879978,-2971885,-17114260,12731930,43579100
2026-01-14 17:06:05.801,-21354760,52323490,-39344900,-26809980,-1685791,-42144780,3935547
2026-01-14 17:06:05.811,3633932,52237170,-39258580,-50935510,-17114260,-12371830,39916990
2026-01-14 17:06:05.821,4065516,52151720,-39171400,-50503930,-17468260,21514890,36987300
2026-01-14 17:06:05.831,-20060010,52151720,-39171400,-25515230,-11175540,635376,35302740
2026-01-14 17:06:05.841,25040490,110658100,19162310,-29494430,-6878662,43029780,34887700
2026-01-14 17:06:05.851,5412062,110830700,18989680,-49088330,80322260,50598140,2631836
2026-01-14 17:06:05.861,5671012,11109830,1873936,-48829380,20593260,13024900,16906740
2026-01-14 17:06:05.871,-18596080,11135720,1848042,-24044390,2944336,25024410,14501950
2026-01-14 17:06:05.881,-18337130,11161620,1822147,-23785440,19067380,30786130,21447750
2026-01-14 17:06:05.891,-18164500,11196150,1787620,-23612810,39642340,27368160,23046880
2026-01-14 17:06:05.901,6430602,65384070,64436310,-48035260,3274536,1875,32006840
2026-01-14 17:06:05.911,-17991860,69692140,60128240,-23440170,4763794,125,33764650
2026-01-14 17:06:05.921,6620494,54654900,-41674580,-47879900,10839840,59547420,36767580
2026-01-14 17:06:05.931,6629124,55085620,-42107030,-47888520,15490720,-9576416,4333496
2026-01-14 17:06:05.941,-17902090,65372850,64395750,-23357310,121032700,-1763916,46655270
2026-01-14 17:06:05.951,6655022,69795720,59972880,-47914420,122802700,-17651370,46044920
2026-01-14 17:06:05.961,6749972,69795720,59955610,-47836740,13757320,-2668457,52441410
2026-01-14 17:06:05.971,6853550,11415390,1558017,-47767690,9649658,-13439940,53271480
2026-01-14 17:06:05.981,-17637960,11415390,1558018,-23103540,25772100,-18005370,6074219
2026-01-14 17:06:05.991,7060710,11414530,1557154,-47629580,-62408450,-23461910,5800781
2026-01-14 17:06:06.001,-17461870,69769820,59929710,-22934360,-52490230,-24621580,5620117
2026-01-14 17:06:06.011,-17459290,11395540,1572692,-22936950,-6652832,-3466797,5551758
2026-01-14 17:06:06.021,-17456700,6971805,5994699,-22939540,-26153560,-31054690,5214844
2026-01-14 17:06:06.031,-17366930,49244480,-47948170,-22856670,-7385254,-36987300,4519043
2026-01-14 17:06:06.041,7371448,54731720,-41770400,-47595050,-29693600,-31860350,40844730
2026-01-14 17:06:06.051,7414608,112781500,16797230,-47638200,-33966060,-3046875,38476560
2026-01-14 17:06:06.061,7457764,11233260,1721156,-47681370,-11029050,-25,37304690
2026-01-14 17:06:06.071,-19921900,11197010,1753958,-20474330,-22192380,-17675780,39282230
2026-01-14 17:06:06.081,7380084,69415930,60059190,-47948950,-2529297,-109314000,4189453
2026-01-14 17:06:06.091,-17599980,11115870,1828189,-23141520,-30810550,-91918940,41088870
2026-01-14 17:06:06.101,7198820,69329610,60093720,-48285580,-38500980,-7576,942,44335940
2026-01-14 17:06:06.111,7060710,5256261,-3962371,-48492750,-37646480,132370000,49682620
2026-01-14 17:06:06.121,6836290,69277820,60076460,-48786220,-32641600,42144780,5161133
2026-01-14 17:06:06.131,6611864,11066670,1865304,-49079700,-21008300,30532840,6201172
2026-01-14 17:06:06.141,-18704840,11073580,1854947,-24280900,-14294430,-2444458,6660156
2026-01-14 17:06:06.151,6085330,11080480,1844588,-49761600,-3970337,-32234190,5908203
2026-01-14 17:06:06.161,569690,5,11087390,1834231,-5023634,6817627,-8895874,5683594
2026-01-14 17:06:06.171,5317112,11093430,1823009,-50719720,21899410,-15588380,6274414
2026-01-14 17:06:06.181,5023636,69182870,59929720,-51116770,6121826,-18041990,44750980
2026-01-14 17:06:06.191,4730160,69148340,59912460,-51513830,61157230,-61462400,44750980
2026-01-14 17:06:06.201,4445314,69122450,59886560,-51919520,13293460,-28778080,50634770
2026-01-14 17:06:06.211,4143206,11058040,1839409,-52307940,16357420,-8654785,57177740
2026-01-14 17:06:06.221,3936040,52366640,-39474370,-52618680,14904790,-117370600,65527340
2026-01-14 17:06:06.231,25843230,46392400,-45103340,-30780550,24932860,-1071167,64697260
2026-01-14 17:06:06.241,25843230,51932470,-39045380,-30832340,-58624270,-14318850,60302740
2026-01-14 17:06:06.251,28102140,51672660,-38787300,-28607960,-10513310,-4849243,54052740
2026-01-14 17:06:06.261,2736240,6893257,5992108,-54008390,15209960,9338379,48339840
2026-01-14 17:06:06.271,2408240,68906660,59929710,-54370920,27368160,18225100,41845700
2026-01-14 17:06:06.281,1985284,10912160,1969748,-54811130,375,2121582,37890620
2026-01-14 17:06:06.291,-23917510,10894900,1987012,-29598870,38867190,26708980,3647461
2026-01-14 17:06:06.301,1312014,10876780,2003412,-55518940,38378900,28442380,35351560
2026-01-14 17:06:06.311,25687860,6440536,6439650,-31160340,37670900,25219730,31152340
2026-01-14 17:06:06.321,89769,25,10842250,2037938,-5596778,42358400,24523930,25317380
2026-01-14 17:06:06.331,25670600,68768550,60016030,-31212130,48510740,27368160,17272950
2026-01-14 17:06:06.341,25679230,107973600,20793700,-31238030,40307620,3696289,14672850
2026-01-14 17:06:06.351,25696490,49768510,-36893500,-31255290,35742190,4482422,17358400
2026-01-14 17:06:06.361,25731020,49681330,-36808050,-31272550,29541020,37231440,15893560
2026-01-14 17:06:06.371,28251470,107516100,21199390,-28803890,17492680,28344730,20361330
2026-01-14 17:06:06.381,25791440,49593290,-36723460,-31298450,91552740,19189450,19360350
2026-01-14 17:06:06.391,25825970,49678740,-36810640,-31315710,-12863160,13989260,1842041
2026-01-14 17:06:06.401,25851870,107749200,20914550,-31324340,-54748540,14379880,19604490
2026-01-14 17:06:06.411,25877760,68699500,59946980,-31332980,-446167,14501950,24194340
2026-01-14 17:06:06.421,25895020,10842250,2020674,-31350240,30555720,848999,25
2026-01-14 17:06:06.431,145012,10884540,1976653,-5582967,-7743,835,-23101810,20812990
2026-01-14 17:06:06.441,25938180,10925970,1931768,-31376140,50201420,-109191900,1586914
2026-01-14 17:06:06.451,25955440,51916930,-39060920,-31393400,18493650,-17578120,111694300
2026-01-14 17:06:06.461,25964080,68872130,59670760,-31419290,-14099120,-21081540,27038570
2026-01-14 17:06:06.471,25972710,6890667,5960170,-31445190,-72631840,-24902340,1876831
2026-01-14 17:06:06.481,-2716144,68949820,59541290,-2773596,-87768550,-21728520,-26733400
2026-01-14 17:06:06.491,104443,3,11196150,1649513,-5645978,-7928467,-13623050,-4147339
