Timestamp,Rotation X,Rotation Y,Rotation Z,Rotation W,Acceleration X,Acceleration Y,Acceleration Z
2026-01-14 17:05:52.791,4541127,-61008680,53343750,12601380,21289060,4248047,-3022461
2026-01-14 17:05:52.801,4555796,-43868760,-32435250,12621230,25585940,-59051510,-17224120
2026-01-14 17:05:52.811,-31747300,-95129680,19170950,48941590,25830080,-7269287,-8782959
2026-01-14 17:05:52.821,4578241,-94948420,19334950,12650580,23632810,-28823850,-7128906
2026-01-14 17:05:52.831,4585144,-43346540,-31921660,12660940,26342770,-15167240,-10040280
2026-01-14 17:05:52.841,8236431,-94663580,19568010,9044178,27612300,-2130127,-8135986
2026-01-14 17:05:52.891,46490200,-43255050,-31840520,127351700,26757810,11431890,-14624020
2026-01-14 17:05:52.901,82877020,-43427690,-32013160,90964900,24401860,4324341,-10687260
2026-01-14 17:05:52.911,82877020,-43514000,-32099470,90964900,25024410,-17684940,-43670660
2026-01-14 17:05:52.921,82877020,-43600320,-32185790,90964900,24145510,25238040,8216858
2026-01-14 17:05:52.951,82620660,-95241900,18937890,90703360,26513670,24108890,-15808110
2026-01-14 17:05:52.961,-31747300,-9533687,1886022,49062440,28100590,-2073288,13420110
2026-01-14 17:05:52.971,8236430,-9551812,1869620,9044182,2692871,8583069,2331543
2026-01-14 17:05:52.981,-31738670,-9570803,1854085,49002020,2084961,59051510,-415802
2026-01-14 17:05:52.991,4579103,-9597560,1829052,12649720,1973877,7092285,4459381
2026-01-14 17:05:53.001,4563569,-61060460,53240170,12630730,17150880,546875,-6713867
2026-01-14 17:05:53.011,4548028,-45076330,-33644540,12611740,14880370,-1096344,-68359380
2026-01-14 17:05:53.021,4524724,-96795600,17556830,12583250,12719730,-56915280,79956060
2026-01-14 17:05:53.031,8134059,-96994130,17410090,8939389,109802200,-60150140,1958847
2026-01-14 17:05:53.041,-39397550,-45772900,-34329030,41101440,83984380,-5368042,-4284668
2026-01-14 17:05:53.051,4472072,-97546550,16926710,12515060,1116333,-55603030,-892334
2026-01-14 17:05:53.061,4457398,-97831410,16693660,12495210,91918940,-36346440,-10095220
2026-01-14 17:05:53.071,80488630,-46642120,-35186160,88519540,6829834,-26245120,-37323000
2026-01-14 17:05:53.081,80318590,-9847881,1613256,88344320,60791020,-30151370,-30471800
2026-01-14 17:05:53.091,80062230,-61474790,53171110,88082780,18920900,-19317630,-26412960
2026-01-14 17:05:53.101,43823010,-47683960,-36215920,123976700,-33477780,-52856440,-6945801
2026-01-14 17:05:53.151,4316699,-49159980,-37674670,12307900,-9564209,-4824829,-75927740
2026-01-14 17:05:53.161,-31626460,-49334340,-37845580,48233800,-1182251,-7800293,-5429077
2026-01-14 17:05:53.171,-31609190,-10122370,1369848,48199270,-13696290,-81604000,-1247406
2026-01-14 17:05:53.181,-31600560,-10141360,1354311,48156110,-11920170,-55480960,32310490
2026-01-14 17:05:53.191,-31574660,-61906370,53084790,48130210,-15332030,-2859497,-9398,46
2026-01-14 17:05:53.201,4285626,-10179330,1323235,12252660,-14050290,-19348140,-17868040
2026-01-14 17:05:53.231,4292534,-62044470,53067530,12245750,-1862793,-17578120,-23956300
2026-01-14 17:05:53.241,4294258,-10253570,1259361,12244030,-18237300,-15478520,-692749
2026-01-14 17:05:53.251,-31453820,-5090100,-3938632,48009370,-21606440,-13391110,-8532715
2026-01-14 17:05:53.261,-31427930,-50989030,-39470920,47983480,-23779300,-12390140,-120910600
2026-01-14 17:05:53.271,-3140205,-51076200,-39556370,4797483,-2454834,-17541500,-9576416
2026-01-14 17:05:53.281,-31376140,-103010400,12205190,47966210,-20544430,-20959470,15853880
2026-01-14 17:05:53.291,4328785,-103019000,12213820,12261290,-17675780,-21057130,28381350
2026-01-14 17:05:53.301,7907130,-51165110,-39640100,8700208,-14172360,-16040040,15510560
2026-01-14 17:05:53.311,-31332980,-51165110,-39640100,47957580,-14025880,-12805180,4135132
2026-01-14 17:05:53.321,4357267,-51251430,-39726420,12284600,-15637210,-11218260,8430481
2026-01-14 17:05:53.331,4365899,-51337740,-39812740,12293230,-18615720,-10046390,-4876709
2026-01-14 17:05:53.341,4374531,-51424060,-39899060,12301860,-15405270,-15661620,-6689453
2026-01-14 17:05:53.351,4383162,-51510380,-39985370,12310490,-12719730,-2109375,-2828598
2026-01-14 17:05:53.361,4383162,-51596700,-40071690,12310490,-13537600,-18432620,3265381
2026-01-14 17:05:53.371,-31289820,-103536900,11695920,48000740,-13366700,-14013670,4046631
2026-01-14 17:05:53.381,7958924,-62208480,53007110,8751997,-16174320,-12121580,33599860
2026-01-14 17:05:53.391,4397838,-10369230,1150602,12330350,-140625,-14978030,10070800
2026-01-14 17:05:53.401,-38833900,-10368370,1149740,40508450,-14733890,-20324710,9971619
2026-01-14 17:05:53.411,4412514,-62191220,52972580,12350200,-1149292,-25024410,5404663
2026-01-14 17:05:53.421,44202800,-5176420,-4024952,123596900,-7611084,-21972660,7366943
2026-01-14 17:05:53.431,44280490,-10357150,1155779,123691900,-58532720,-14685060,6512451
2026-01-14 17:05:53.441,80100210,-62156690,52955310,88044800,-7977295,-7867432,40252690
2026-01-14 17:05:53.451,80184800,-51675250,-40165780,88132850,-6921387,-1005249,3765869
2026-01-14 17:05:53.461,80270260,-103364300,11695920,88220030,-41259770,-13879400,10449220
2026-01-14 17:05:53.471,80354850,-103269400,11773600,88308070,-33741000,-16174320,10876470
2026-01-14 17:05:53.481,80353110,-51412850,-39910280,88309790,-43182370,-11798100,85876460
2026-01-14 17:05:53.491,80437710,-103070800,11920340,88397840,9811401,-9112549,7336426
2026-01-14 17:05:53.501,44686170,-51151310,-39653920,124322000,19714360,-87768550,5291748
2026-01-14 17:05:53.511,80520570,-51064120,-39568460,88487610,48034670,-12841800,6286621
2026-01-14 17:05:53.521,44651650,-50976090,-39483870,124356500,6695557,-14733890,8483887
2026-01-14 17:05:53.531,80517120,-456322,5,-444831,6,88491060,80444340,-15466310,7879639
2026-01-14 17:05:53.541,44625750,-10241490,1247275,124382400,6500244,-7086182,32104490
2026-01-14 17:05:53.551,84018820,-10232850,1255905,84816740,7330322,-52825930,6817627
2026-01-14 17:05:53.561,44427230,-61915000,52955320,124235700,70251460,-914917,791626
2026-01-14 17:05:53.571,80253860,-10213860,1271443,88236430,90026860,-101867700,670166
2026-01-14 17:05:53.581,80166670,-10213860,1271443,88150980,60638430,-87768550,1329422
2026-01-14 17:05:53.591,44228700,-10213000,1270581,124089000,7904053,-8270264,-3765869
2026-01-14 17:05:53.601,44133740,-10204370,1279212,124011300,7977295,-111328100,-48332220
2026-01-14 17:05:53.611,79991460,-61863220,52955320,87980930,58135980,-12219240,30731200
2026-01-14 17:05:53.621,79904270,-61845950,52972580,87895470,66467280,-10772710,26794430
2026-01-14 17:05:53.671,4384027,-10124950,1355173,12378680,24047850,-81970220,-217247
2026-01-14 17:05:53.681,4384027,-10116320,1363804,12378680,3479004,-7873535,-11260990
2026-01-14 17:05:53.691,-31583300,-100999200,13819310,48346000,53375240,-8105469,-5331421
2026-01-14 17:05:53.701,-31583300,-100912900,13905630,48346000,6500244,-6652832,-56427000
2026-01-14 17:05:53.711,4385752,-49159110,-37675540,12376960,7519531,-4940796,-8935547
2026-01-14 17:05:53.721,4385752,-49072790,-37589220,12376960,41534420,-42236330,-1194458
2026-01-14 17:05:53.771,4352088,-49159980,-37674670,12341570,-4776001,-33050540,-87768550
2026-01-14 17:05:53.781,4352088,-49159980,-37674670,12341570,-6286621,-21560670,-11529540
2026-01-14 17:05:53.791,4343457,-49246290,-37760990,12332930,-10534670,-4574585,-15917970
2026-01-14 17:05:53.801,4343457,-49246290,-37760990,12332930,-117370600,-74401860,-11212160
2026-01-14 17:05:53.811,4343457,-49159980,-37674670,12332930,-10144040,-96191410,-5783081
2026-01-14 17:05:53.821,4343457,-49073660,-37588350,12332930,-9643555,-725708,-6506348
2026-01-14 17:05:53.831,4343457,-48987340,-37502040,12332930,-690918,-6549072,-7788086
2026-01-14 17:05:53.841,4343459,-100593500,14276790,12332930,-8660889,-3579712,-1270752
2026-01-14 17:05:53.871,-31591930,-100507200,14363110,48285580,-3125,-8648682,-74523930
2026-01-14 17:05:53.881,4352091,-100507200,14363100,12341560,-8026123,-9240723,-7330322
2026-01-14 17:05:53.971,4355541,-48811260,-37332860,12355380,-111206100,-77819820,-7965088
2026-01-14 17:05:53.981,4354678,-48811260,-37332860,12356240,-6958008,-10144040,-4788208
2026-01-14 17:05:53.991,-31652350,-100369100,14397630,48380530,-5218506,-9942627,-22460940
2026-01-14 17:05:54.001,-31669620,-100360500,14389000,48380530,-413208,-7788086,920,2957
2026-01-14 17:05:54.011,4352088,-48722350,-37249130,12358830,-44189450,-34698490,9864807
2026-01-14 17:05:54.021,-31695510,-48721490,-37249990,48406430,-36834720,-340271,-41503900
2026-01-14 17:05:54.031,4349501,-100420900,14276790,12361420,-49926760,-848999,-21865840
2026-01-14 17:05:54.041,-31721400,-48806080,-37338040,48432320,-33721920,-1451416,-29022220
2026-01-14 17:05:54.051,4337415,-43645370,-42498740,12356240,-46203610,-13867190,-6702423
2026-01-14 17:05:54.061,4327922,-100395000,14250900,12348470,-5026245,-8959961,17303470
2026-01-14 17:05:54.071,4326194,-48889800,-37426940,12350200,-4663086,-40405270,26626590
2026-01-14 17:05:54.081,4325330,-48888940,-37427800,12351060,-26550290,-25985720,-4724121
2026-01-14 17:05:54.091,7936739,-100533100,14043730,8739652,-20965580,-5630493,-48583980
2026-01-14 17:05:54.101,-31833610,-48886350,-37430390,48492740,-72669980,-881958,-8232117
2026-01-14 17:05:54.111,-31842250,-48885490,-37431260,48501380,-4840851,-7910156,-30578610
2026-01-14 17:05:54.121,4310658,-100334600,14190480,12348470,11871340,-10168460,-16647340
2026-01-14 17:05:54.131,-31859510,-48797450,-37346660,48535900,23208620,-7476807,-3878784
2026-01-14 17:05:54.141,4317562,-48711130,-37260350,12358830,42755130,-715332,-6719971
2026-01-14 17:05:54.171,4325330,-48710270,-37261210,12368320,6994629,-76171870,-26489260
2026-01-14 17:05:54.181,4325330,-48796580,-37347530,12368320,7366943,-3274536,-35339360
2026-01-14 17:05:54.251,4340868,-49053800,-37608200,12387310,6173706,-7305908,-13656620
2026-01-14 17:05:54.261,-31859510,-49053800,-37608200,48587700,8001709,-61584470,-1058197
2026-01-14 17:05:54.291,4342596,-100654000,13819310,12385590,44403080,-8001709,-24612430
2026-01-14 17:05:54.301,4342596,-100740300,13732990,12385590,54626460,-11657720,13637540
2026-01-14 17:05:54.311,4334825,-49228170,-37779110,12376090,54260260,-11773680,25009160
2026-01-14 17:05:54.321,4334825,-49228170,-37779110,12376090,26321410,-7867432,16693120
2026-01-14 17:05:54.331,4334825,-49228170,-37779110,12376090,3616333,-8026123,-7843018
2026-01-14 17:05:54.341,4343457,-49314480,-37865430,12384720,21865840,-8557129,-13702390
2026-01-14 17:05:54.351,-31833620,-49228170,-37779110,48561800,4586792,-8526611,20446780
2026-01-14 17:05:54.361,-31833620,-49142710,-37691940,48561800,52368160,-95825190,49957280
2026-01-14 17:05:54.371,-31833620,-49142710,-37691940,48561800,55145260,-7043457,36224360
2026-01-14 17:05:54.381,4345183,-49056390,-37605620,12383000,7525635,-59326170,35247800
2026-01-14 17:05:54.391,4336551,-49056390,-37605620,12374370,6762695,-36254880,64086910
2026-01-14 17:05:54.401,4336551,-49142710,-37691940,12374370,59326170,-5001831,-28808590
2026-01-14 17:05:54.411,4328785,-100679900,13845210,12364870,6738281,-758667,13168340
2026-01-14 17:05:54.421,4320154,-100679900,13845210,12356240,73791500,-9765625,62194820
2026-01-14 17:05:54.431,4302888,-49144440,-37690210,12338980,3363037,-93444820,60668940
2026-01-14 17:05:54.441,4294256,-49230760,-37776520,12330350,24673460,-93688970,3881836
2026-01-14 17:05:54.451,4276993,-49230760,-37776520,12313080,2142334,-10083010,25741580
2026-01-14 17:05:54.461,-3189406,-49317070,-37862840,4846683,-13008120,-8404541,23025510
2026-01-14 17:05:54.491,4259730,-49230760,-37776520,12295820,-9223938,-95581060,256958
2026-01-14 17:05:54.501,4259730,-49230760,-37776520,12295820,60157780,-7122803,-30273440
2026-01-14 17:05:54.511,4259730,-49230760,-37776520,12295820,12046810,-90270990,-26607510
2026-01-14 17:05:54.521,4259730,-49058980,-37603020,12295820,2368164,-10424810,19714360
2026-01-14 17:05:54.531,-31902670,-48972670,-37516710,48440950,25222780,-7525635,42541500
2026-01-14 17:05:54.541,-31902670,-48886350,-37430390,48440950,1991272,-7702637,2029419
2026-01-14 17:05:54.551,-31894040,-100360500,14216370,48432320,41625980,-42938230,17944340
2026-01-14 17:05:54.561,-31902670,-100369100,14225000,48423690,30807500,-7086182,115737900
2026-01-14 17:05:54.571,4245058,-100369100,14225000,12275960,17089840,-60455320,-5393982
2026-01-14 17:05:54.581,4245058,-100369100,14225000,12275960,-5531311,-7409668,-1713562
2026-01-14 17:05:54.591,7850420,-48888940,-37427800,8653338,-13473510,-107666000,-6198883
2026-01-14 17:05:54.601,7850420,-48888940,-37427800,8653338,-29525760,-11376950,-17837520
2026-01-14 17:05:54.631,-31894040,-48803490,-37340620,48380540,-44921880,-11895750,7698059
2026-01-14 17:05:54.641,-31902670,-48717170,-37254310,48371900,-15655520,-81604000,112838700
2026-01-14 17:05:54.651,4221750,-48717170,-37254310,12247480,-20477300,-74279780,76942450
2026-01-14 17:05:54.661,4221753,-100308700,14337210,12247480,-46142580,-5670166,-14518740
2026-01-14 17:05:54.671,4221753,-100222400,14423530,12247480,-6311035,-6982422,12527470
2026-01-14 17:05:54.681,4222616,-100222400,14423530,12246620,-57800290,-13830570,-6931305
2026-01-14 17:05:54.691,4222616,-100222400,14423530,12246620,-57647700,-15283200,-20950320
2026-01-14 17:05:54.701,4222614,-43386420,-42239790,12246620,-59692380,-12878420,-45684820
2026-01-14 17:05:54.711,-31868140,-43386420,-42239790,48354640,-50628660,-1116333,-38024900
2026-01-14 17:05:54.721,-31868140,-43300100,-42153470,48354640,-49102780,-13476560,73280340
2026-01-14 17:05:54.731,-31868140,-43127470,-41980840,48354640,-16082760,-9466553,8163452
2026-01-14 17:05:54.741,-31868140,-43041150,-41894520,48354640,-28625490,-7788086,15060430
2026-01-14 17:05:54.751,-31868140,-43041150,-41894520,48354640,-21713260,-8959961,76560980
2026-01-14 17:05:54.761,-31868140,-42954840,-41808200,48354640,-50720220,-8105469,9712219
2026-01-14 17:05:54.771,-31868140,-42954840,-41808200,48354640,-33996580,-7531738,-25405880
2026-01-14 17:05:54.781,4239877,-42868520,-41721890,12263880,-46081540,-84472660,-340271
2026-01-14 17:05:54.791,4239877,-42868520,-41721890,12263880,-72387700,-93566900,-19744870
2026-01-14 17:05:54.801,4239877,-42782200,-41635570,12263880,-33416750,-10626220,-20477300
2026-01-14 17:05:54.811,4239016,-99531840,15114060,12264740,-4006958,-8123779,-9628296
2026-01-14 17:05:54.821,4247648,-99359200,15286700,12273370,-29876710,-8013916,39901730
2026-01-14 17:05:54.831,-31876780,-99272890,15373020,48397800,-35247800,-647583,-21499630
2026-01-14 17:05:54.841,-31868140,-6150071,5312798,48406430,-27893070,-7678223,-26992800
2026-01-14 17:05:54.851,-31868140,-9909164,1553703,48406430,-15014650,-88134770,-656,2471
2026-01-14 17:05:54.861,7876317,-9900531,1562333,8679235,24505620,-101623500,-48294070
2026-01-14 17:05:54.871,-31859510,-9900533,1562335,48415060,27359010,-9020996,-4284668
2026-01-14 17:05:54.881,-39308650,-9891901,1570967,40965930,11550900,-71777340,-736084
2026-01-14 17:05:54.891,427181,7,-9891899,1570965,1230100,14434810,-10491940,-3353882
2026-01-14 17:05:54.901,427181,7,-9883268,1579597,1230100,2418518,-12164310,-34713740
2026-01-14 17:05:54.911,427181,7,-9883268,1579597,1230100,3100586,-12731930,-24612430
2026-01-14 17:05:54.921,7893580,-9873772,1587365,8696498,18997190,-90270990,-43121340
2026-01-14 17:05:54.931,7902212,-9873772,1587365,8705130,14511110,-6414795,-53466800
2026-01-14 17:05:54.941,4296848,-9873773,1587365,12327760,-50468440,-9527588,-7385254
2026-01-14 17:05:54.951,4305479,-9865141,1595996,12336390,3112793,-10998540,-57861330
2026-01-14 17:05:54.961,4305481,-61422990,53171110,12336390,35095220,-11975100,-8872986
2026-01-14 17:05:54.971,4314111,-9839246,1621891,12345020,7104492,-56243900,-5393982
2026-01-14 17:05:54.981,4314111,-6140574,5320564,12345020,7299805,-6665039,24734500
2026-01-14 17:05:54.991,4314109,-46644700,-35183570,12345020,66101070,-7550049,67481990
2026-01-14 17:05:55.001,4322743,-98124870,16469230,12353650,7537842,-7910156,-56365970
2026-01-14 17:05:55.011,4331375,-98124870,16469230,12362280,6463623,-10595700,-5807495
2026-01-14 17:05:55.021,-31816350,-98038560,16555550,48510000,8380127,-9210205,-13008120
2026-01-14 17:05:55.031,-31824980,-97952240,16641870,48501370,11401370,-37841800,63972470
2026-01-14 17:05:55.041,-31824980,-97865920,16728180,48501370,12347410,-13465880,59661860
2026-01-14 17:05:55.071,4311522,-97770980,16805870,12347610,9112549,-4953003,-7611084
2026-01-14 17:05:55.081,4310659,-97770980,16805870,12348470,871582,-31982420,-58776860
2026-01-14 17:05:55.091,4302025,-46210530,-34754570,12339840,982666,-7446289,-50964360
2026-01-14 17:05:55.101,4302025,-46210530,-34754570,12339840,10736080,-7849121,-45959470
2026-01-14 17:05:55.111,4293393,-46210530,-34754570,12331210,993042,-58013920,-847168
2026-01-14 17:05:55.121,4293396,-97770980,16805870,12331210,7421875,-50720220,-10418700
2026-01-14 17:05:55.131,4284764,-97770980,16805870,12322570,7348633,-36834720,-97351070
2026-01-14 17:05:55.141,4285627,-97857300,16719550,12321710,41992190,-16433720,-8843994
2026-01-14 17:05:55.171,-31859510,-97865920,16728180,48484110,43640140,-63819880,-11273190
2026-01-14 17:05:55.181,-31842250,-46213120,-34751980,48484110,5404663,7659912,-101379400
2026-01-14 17:05:55.191,4314109,-46213120,-34751980,12345020,4727173,21514890,-14208980
2026-01-14 17:05:55.201,7936737,-46126800,-34665670,8739655,45318600,-17044070,-16821290
2026-01-14 17:05:55.231,4343457,-40883240,-39736600,12367460,50109860,-30044560,-4727173
2026-01-14 17:05:55.241,4353815,-46043940,-34575900,12374370,79833980,-5542755,-5343628
2026-01-14 17:05:55.251,-39248220,-97658770,17038930,40922760,59295660,-32470700,-3781128
2026-01-14 17:05:55.261,-31695510,-46218300,-34746800,48458220,9597778,-44891360,-51574710
2026-01-14 17:05:55.311,4478114,-6150069,5330059,12474500,7501221,-4598999,-23132320
2026-01-14 17:05:55.321,-31471080,-57819280,56999260,48458220,-12756350,-56854250,-8605957
2026-01-14 17:05:55.331,4516092,-6151795,5331785,12505570,-9140,969,2394104,18630980
2026-01-14 17:05:55.341,4554071,-46658520,-35169760,12536640,871582,20178220,-7873535
2026-01-14 17:05:55.371,-30927290,-97520660,17591350,48466850,886,4403,43115230,-58203120
2026-01-14 17:05:55.381,4941633,-9673518,1853220,12856880,-24776460,48901370,-77734380
2026-01-14 17:05:55.391,-30357600,-95621690,19835590,48466840,8074951,6333008,-10820310
2026-01-14 17:05:55.401,-29943270,-61466150,54232810,48466850,15588380,8510742,-14941410
2026-01-14 17:05:55.411,-29425380,-39549470,-27950220,48466850,22033690,11318360,-17158200
2026-01-14 17:05:55.421,-37641000,-61233100,55104610,39612480,3244629,15380860,-18105470
2026-01-14 17:05:55.431,6445270,-32680380,-21008630,14098110,4309082,19902340,-18994140
2026-01-14 17:05:55.441,6997698,-8083564,3629619,14564220,5029297,20292970,-19550780
2026-01-14 17:05:55.451,7651978,-22710800,-10952730,15118380,6567383,19072270,-20527340
2026-01-14 17:05:55.461,8409842,-69562670,48501380,15758850,83251950,16992190,-21230470
2026-01-14 17:05:55.471,9253154,-9294588,2561881,16469230,10517580,16123050,-21484380
2026-01-14 17:05:55.481,10174160,36340210,48250200,17240050,13261720,16201170,-215625
2026-01-14 17:05:55.511,-16262070,23400470,35467550,49010650,21875,17265620,-2203125
2026-01-14 17:05:55.521,14073950,31402900,43520040,20400960,22304690,18730470,-23203120
2026-01-14 17:05:55.571,-5360270,451435,12789550,47310210,11474610,25800780,-14755860
2026-01-14 17:05:55.581,-3573512,777711,5,13153810,46869990,73828130,24882810,-11044920
2026-01-14 17:05:55.611,21415190,72310990,84785490,25765550,-5361328,20976560,-9921875
2026-01-14 17:05:55.621,3711624,75404580,87906700,44746600,-94433590,21640620,-82910160
2026-01-14 17:05:55.651,9702002,-53490490,72083110,42588680,-12294920,19707030,4324341
2026-01-14 17:05:55.661,11808130,-5305892,7260101,41708250,-12207030,18789060,-32928470
2026-01-14 17:05:55.671,13948790,3996463,16564180,40741500,-14072270,1921875,-10687260
2026-01-14 17:05:55.681,16106710,4523858,17089850,39688440,-11982420,26933590,-20935060
2026-01-14 17:05:55.691,18178310,4977886,17533520,38721690,-16943360,18056640,-46777340
2026-01-14 17:05:55.701,-5755600,5441408,17984960,11542280,-17294920,21425780,-39208980
2026-01-14 17:05:55.711,-40793290,5855724,18382020,99557730,-1671875,20742190,-32989500
2026-01-14 17:05:55.721,-24168690,-5006375,7500927,83727240,-16591800,13554690,17834470
2026-01-14 17:05:55.731,-7664926,6541943,19025070,67948540,-17226560,10097660,27514650
2026-01-14 17:05:55.741,28251470,-60992270,63597310,32653620,-20566410,7011719,-23544310
2026-01-14 17:05:55.751,24073740,6990793,19422130,37366520,-17607420,64208980,52948000
2026-01-14 17:05:55.761,31764560,7116814,19520530,30124540,-17353520,7001953,47973630
2026-01-14 17:05:55.771,33395950,13352580,13353820,28907480,-19365230,45532230,87646480
2026-01-14 17:05:55.781,67750020,-48363270,75069670,-5101325,-18896480,-40527340,10087890
2026-01-14 17:05:55.811,39420860,7195363,19424720,24039210,-17314450,-12783200,10078130
2026-01-14 17:05:55.821,12212100,-47543260,74249660,-5845373,-12421880,-12841800,13642580
2026-01-14 17:05:55.831,42277940,-4719801,7405975,21561920,-65478520,-12392580,16132810
2026-01-14 17:05:55.841,4366765,7519053,19584410,2029307,13450620,-12128910,18769530
2026-01-14 17:05:55.851,45040080,-4626579,7371449,19006950,3022461,-14892580,18398440
2026-01-14 17:05:55.861,14692150,8013648,19935720,-14051330,3605957,-15009770,1703125
2026-01-14 17:05:55.871,18954300,8391714,20230920,-12551320,61083980,-15498050,16376950
2026-01-14 17:05:55.881,49105600,8851782,20599490,14786060,5229492,-15556640,15234380
2026-01-14 17:05:55.891,5040901,-43037530,73455550,1325824,7441406,-13271480,15644530
2026-01-14 17:05:55.901,5166061,-42018990,73438280,1166138,16484380,-11347660,14121090
2026-01-14 17:05:56.011,35314770,-51119360,54981180,-29906160,17353520,-1203125,20976560
2026-01-14 17:05:56.021,29819850,-50875090,54759340,23144110,1625,-12714840,21757810
2026-01-14 17:05:56.031,29331290,-3309385,7210900,22510550,16669920,-13320310,1859375
2026-01-14 17:05:56.041,60128250,-32834890,71988160,-9408528,20214840,-11210940,21328120
2026-01-14 17:05:56.051,28354190,14395040,24844550,21277940,23085940,-8510742,24179690
2026-01-14 17:05:56.061,6018868,14452010,24873900,-1169592,22871090,-8544922,25488280
2026-01-14 17:05:56.111,5922193,14956100,25302030,-1718566,24785160,-33691410,27695310
2026-01-14 17:05:56.121,40589580,15131330,25472070,-36543060,22050780,-2006836,27890620
2026-01-14 17:05:56.131,58324230,-31186240,72169430,-19516220,19453120,10430910,27871090
2026-01-14 17:05:56.141,5778045,15514570,25848410,-2073328,19238280,1940918,29101560
2026-01-14 17:05:56.171,16180160,-30469810,72903120,15377240,12441410,6347656,33320310
2026-01-14 17:05:56.181,18875750,-30348970,73075750,10799950,15195310,7573242,40390620
2026-01-14 17:05:56.191,17930580,-3023676,7327428,9811624,20410160,5932617,45546880
2026-01-14 17:05:56.201,5361997,1651067,2687213,-2791484,20722660,57666020,48085940
2026-01-14 17:05:56.211,5268776,16711790,27085330,-2914053,18935550,6508789,50742190
2026-01-14 17:05:56.221,14736860,1693016,2731579,6531588,14511720,74121100,49960940
2026-01-14 17:05:56.231,13519800,-29632540,74361870,5297257,14267580,5004883,49296880
2026-01-14 17:05:56.241,85514000,1741869,2782848,77279380,10322270,47460940,4921875
2026-01-14 17:05:56.251,10941510,-29192320,74974720,2696534,7597656,578125,54453120
2026-01-14 17:05:56.261,46697360,-2892472,7527681,-35786920,6147461,76220700,62226560
2026-01-14 17:05:56.291,50624770,1904149,2945125,-31462450,15869140,3095703,102734400
2026-01-14 17:05:56.301,-3167824,-2723292,7672696,-11333390,225,4814453,123203100
2026-01-14 17:05:56.311,-25317300,20144600,30523330,-26127470,23828120,8984375,146875
2026-01-14 17:05:56.321,-41829960,-2580006,7778004,-49838420,20390620,90625,16671880
2026-01-14 17:05:56.331,-28639890,-25057750,78366980,-107395300,10683590,22363280,1721875
2026-01-14 17:05:56.341,-5380121,22051340,32397260,-13074400,-13242190,-12949220,1609375
2026-01-14 17:05:56.351,2543758,-24384480,79437300,-4910561,-453125,-37441410,13578130
2026-01-14 17:05:56.361,21251190,-49575160,55058000,-50357200,-7234375,-69726560,1003125
2026-01-14 17:05:56.371,16823130,21463520,32052860,-51401620,-94921870,-9234375,5671875
2026-01-14 17:05:56.381,12300140,20165320,30916930,-52230260,-10875,-112734400,16904300
2026-01-14 17:05:56.391,28317940,18428630,29356320,-32759790,-2003125,-8796875,-1778125
2026-01-14 17:05:56.401,6680922,-29986440,77685070,-54638500,-13625,-2171875,-158375
2026-01-14 17:05:56.411,-17505030,-31721410,76692430,-24151430,-52125,85234380,-101875
2026-01-14 17:05:56.421,33237990,-33594480,75009250,-37075640,213125,-17953120,63125
2026-01-14 17:05:56.431,16874930,-3285213,7488840,-54681660,94609380,-49453120,23015620
2026-01-14 17:05:56.441,1665051,16347530,26983480,-5561387,112421900,-49609380,74648440
2026-01-14 17:05:56.451,1583913,16978500,27491880,-5654609,80859380,30859380,-16984380
2026-01-14 17:05:56.461,1497597,21676460,22724870,-5708126,-20585940,-496875,-58203120
2026-01-14 17:05:56.471,-17784700,-50458180,54813720,-24942090,-12878420,-24296880,-48125
2026-01-14 17:05:56.481,14147320,-3216160,7402524,-56994950,-22973630,-22070310,-87421870
2026-01-14 17:05:56.491,1444080,14267300,25024090,-5654609,-1697998,-13212890,-93984380
2026-01-14 17:05:56.501,-16809320,12652310,23566200,-23914920,37548830,-10498050,-71015620
2026-01-14 17:05:56.511,1617577,11005380,22071190,-5507008,7944336,-15966800,-471875
2026-01-14 17:05:56.521,-14881000,-40793300,71176790,-22028040,10830080,-23007810,-30371090
2026-01-14 17:05:56.531,18376840,-42295200,70710670,-53283330,890625,-2765625,-9658203
2026-01-14 17:05:56.541,-12870690,-43227420,70538050,-20050520,44091800,-37207030,10722660
2026-01-14 17:05:56.551,20422550,-43581320,70702050,-51479310,-29956060,-4640625,13017580
2026-01-14 17:05:56.561,-11022650,8117228,19573190,-18221460,-15214840,-44921880,-5078125
2026-01-14 17:05:56.571,22338780,-57179320,57466580,-49804770,-209375,-403125,-21855470
2026-01-14 17:05:56.581,-9207404,-42312460,72281640,-16445930,-28007810,-44648440,-29296880
2026-01-14 17:05:56.591,2453986,9900532,21346130,-4820791,-38203120,-40273440,-31230470
2026-01-14 17:05:56.601,25895020,10515110,21939990,-47336100,-37558590,-40078120,-28183590
2026-01-14 17:05:56.611,-5814295,11097750,22496740,-13192650,-3609375,-44296880,-22128910
2026-01-14 17:05:56.621,-4472933,11594070,22967160,-11909980,-37324220,-40859380,23880000
2026-01-14 17:05:56.631,-2976198,-39075590,74413660,-10471950,-24902340,-40,20117190
2026-01-14 17:05:56.641,32472360,-3860946,7465534,-42968480,-25175780,-33066410,31875
2026-01-14 17:05:56.651,612844,12618650,23927860,-75190510,-29394530,-33632810,36953120
2026-01-14 17:05:56.661,1607221,-38031160,74974720,-5992110,-25957030,-39628900,28769530
2026-01-14 17:05:56.671,-2674089,-37901680,75104200,-10273420,-19277340,-4359375,18867190
2026-01-14 17:05:56.681,12333800,-3787579,7521641,4756916,-9370117,-41679690,17324220
2026-01-14 17:05:56.691,26900610,13023470,24351680,19365160,-6894531,-41601560,21015620
2026-01-14 17:05:56.701,41281850,-38134740,75458100,33813720,-10644530,-43671880,25039060
2026-01-14 17:05:56.711,8882857,12882770,24285220,1509681,-95166020,-41992190,25019530
2026-01-14 17:05:56.721,42864900,-3884252,7576882,-29623910,-10771480,-42265620,29863280
2026-01-14 17:05:56.731,11574210,-5583054,5948864,4480702,-10273440,-403125,32578120
2026-01-14 17:05:56.741,12871550,-4003371,7614863,5962761,-11064450,-38457030,36152340
2026-01-14 17:05:56.751,44237340,-56798140,60350940,-22658150,-12070310,-35976560,38652340
2026-01-14 17:05:56.761,44323650,11470630,23297750,-20034120,-14726560,-334375,421875
2026-01-14 17:05:56.771,4422008,10934610,22884300,-1723745,-14960940,-315625,42539060
2026-01-14 17:05:56.781,43900700,10289820,22372430,-14294050,-14375,-29804690,4296875
2026-01-14 17:05:56.791,43356900,-45437140,76770110,-11212550,-10644530,-29863280,41523440
2026-01-14 17:05:56.801,19819190,-4689589,7672695,14759300,-86083980,-29042970,396875
2026-01-14 17:05:56.811,24967990,-48449590,76606110,-21280530,-5185547,-28984380,39238280
2026-01-14 17:05:56.821,21577460,-50037820,76398950,17420440,1687622,-29492190,38574220
2026-01-14 17:05:56.831,38721690,5860906,18635780,2192446,5107422,-31875,384375
2026-01-14 17:05:56.841,17702700,-53188370,75768830,-13440380,8691406,-34355470,40117190
2026-01-14 17:05:56.851,14935390,-54690290,75354520,-10528060,13398440,-32734380,41757810
2026-01-14 17:05:56.861,12007520,2834642,15930620,-7482798,14873050,-34101560,45898440
2026-01-14 17:05:56.871,29701590,1892926,15059680,16460600,10751950,-36210940,47578120
2026-01-14 17:05:56.881,36346260,10142220,142293200,-31671340,7114258,-35605470,4625
2026-01-14 17:05:56.891,13573310,198529,13439520,-8869046,47485350,-31347660,4703125
2026-01-14 17:05:56.901,-8769782,-534303,12704960,55795140,-28051760,-27695310,49140620
2026-01-14 17:05:56.931,9304947,35410580,48489290,35907770,-1609375,17167970,67148440
2026-01-14 17:05:56.941,5524272,-2870034,10103380,38635380,-19570310,42148440,72773440
2026-01-14 17:05:56.971,-5593322,12033420,24564880,45557980,-15791020,90859380,62695310
2026-01-14 17:05:56.981,-26384430,-50374460,73162070,30204820,-79003900,97578130,59179690
2026-01-14 17:05:56.991,-12697190,-1939539,10225950,49019280,36083980,98984380,5640625
2026-01-14 17:05:57.001,-16072180,-9350695,2617988,50426240,65625,965625,52460940
2026-01-14 17:05:57.011,-19257260,-69536780,48130220,51660570,10732420,940625,453125
2026-01-14 17:05:57.021,-22192040,-74905670,40724240,52730900,11601560,85390620,34277340
2026-01-14 17:05:57.031,-24816060,-59032030,54629870,53663120,7475586,796875,196875
2026-01-14 17:05:57.041,9621728,-8094785,3088413,17775210,18981930,72539060,83740230
2026-01-14 17:05:57.051,-28924740,-80663000,29563490,55130500,-40356440,65351560,-12724610
2026-01-14 17:05:57.061,-30340330,-28752110,-17858930,55682930,-10458980,60507810,-21035160
2026-01-14 17:05:57.071,8056804,-23523040,-12729990,16802420,-13388670,55898440,-26445310
2026-01-14 17:05:57.081,-31781820,-63555020,43702170,56571990,-10820310,51210940,-31054690
2026-01-14 17:05:57.091,8111188,-53420820,53422030,16989720,-14868160,47851560,-3375
2026-01-14 17:05:57.101,8429694,7615726,18279300,17309960,10,45664060,-36152340
2026-01-14 17:05:57.111,8884586,-27129350,79437300,17735500,23203120,44453120,-38320310
2026-01-14 17:05:57.121,-30176330,-13922890,92643760,57832220,35644530,41914060,-4125
2026-01-14 17:05:57.131,10019650,-48095690,58470960,18758350,45078120,36347660,-48476560
2026-01-14 17:05:57.141,-28424100,-46939050,59610340,58306960,51289060,31308590,-56367190
2026-01-14 17:05:57.151,11153850,20206750,126704400,19764810,53984380,26132810,-6234375
2026-01-14 17:05:57.161,-26879030,76506850,87149700,58695390,54179690,19296880,-68007810
2026-01-14 17:05:57.171,12013560,-5317024,5317199,20527850,53007810,13417970,-7109375
2026-01-14 17:05:57.181,-25895020,3975747,14599620,58971600,50078120,10810550,-76054690
2026-01-14 17:05:57.191,-40700930,4239877,14853390,44044840,44726560,72021490,-78945310
2026-01-14 17:05:57.201,12603970,-43365530,62665960,21076820,39140620,31420900,-79335940
2026-01-14 17:05:57.251,12232810,-43995640,61811420,20791980,33964840,62402340,-43554690
2026-01-14 17:05:57.261,11953140,3233424,13822760,20536480,33007810,82373050,-36035160
2026-01-14 17:05:57.271,-27094820,8079192,8079302,58945700,30390620,9970703,-2875
2026-01-14 17:05:57.281,11253120,70471580,81100620,19872710,27148440,11660160,-21738280
2026-01-14 17:05:57.291,-27949360,65104400,75764520,58315590,24902340,11337890,-15566410
2026-01-14 17:05:57.301,10482310,59474830,70172930,19107080,22070310,1109375,-10820310
2026-01-14 17:05:57.311,10100790,5671012,113100800,18711750,18632810,10058590,-68115230
2026-01-14 17:05:57.321,-41529570,48724080,59517120,44338320,17773440,84716800,-27368160
2026-01-14 17:05:57.331,9439599,-503227,10343340,17991860,15527340,78808590,44822690
2026-01-14 17:05:57.341,9159071,-997822,9905709,17668180,13203130,6850586,7458496
2026-01-14 17:05:57.351,8909617,34740760,45706440,17365200,1296875,59765620,60546880
2026-01-14 17:05:57.361,8689508,-1898106,9131448,17084670,13398440,6713867,12402340
2026-01-14 17:05:57.371,8471128,26648570,37743720,16802420,12265630,8354492,17120360
2026-01-14 17:05:57.381,8237209,22731520,33892270,16501170,11123050,8959961,-41923520
2026-01-14 17:05:57.391,7986888,-5369766,5858317,16181800,11845700,8828125,5493164
2026-01-14 17:05:57.401,7720171,19806070,20935440,15844300,11396480,8227539,29907230
2026-01-14 17:05:57.431,-28778000,6985909,6997402,50339920,5390625,-105651900,17529300
2026-01-14 17:05:57.441,6524686,-37047150,78479180,14363970,4104004,-2998047,20039060
2026-01-14 17:05:57.451,6214804,-31654680,-30493380,13983310,15283200,-44891360,17890620
2026-01-14 17:05:57.461,5896296,-14553000,-2882979,13594020,-16320800,45433040,13515630
2026-01-14 17:05:57.471,5585558,-73127550,44125120,13214230,-54785160,45837400,10419920
2026-01-14 17:05:57.481,5274816,-26345600,-14568540,12834440,-7661133,12670900,953125
2026-01-14 17:05:57.491,49804760,-85626220,32627730,124727700,-11464840,17224120,8652344
2026-01-14 17:05:57.501,47042620,-91633860,27068930,121275000,-1515625,8306,503,65722660
2026-01-14 17:05:57.511,77718730,-43764320,-31849150,85074650,-17978520,-16564940,4675293
2026-01-14 17:05:57.521,75250070,-43669890,-42474230,82536940,-1984375,-19702150,-85632320
2026-01-14 17:05:57.551,-28234210,-62659060,-50588520,42631840,-18613280,2993164,-7211914
2026-01-14 17:05:57.561,66663290,-61124340,59909000,73687740,-18583980,5415039,-7260742
2026-01-14 17:05:57.591,-27716310,-13539650,-1358625,40819190,-21113280,10966800,-13574220
2026-01-14 17:05:57.601,3020223,-6895845,5302437,9823708,-21738280,9301758,-14658200
2026-01-14 17:05:57.611,-27500510,-14616880,-2404783,40085500,-22753910,75146480,-14316410
2026-01-14 17:05:57.621,2813065,-70166880,52040370,9530228,-24921880,48388670,-11630860
2026-01-14 17:05:57.631,-27327880,-10244330,-9021567,39464020,-26542970,13671880,-82714850
2026-01-14 17:05:57.641,-32624280,-16300060,-4070697,33822350,-28613280,-19091800,-5756836
2026-01-14 17:05:57.691,-26628720,-18649600,-6451313,38747590,-3453125,-17832030,-23181150
2026-01-14 17:05:57.701,29175060,-18956020,-6766370,94430510,-3421875,-20019530,-5331421
2026-01-14 17:05:57.711,-26257550,-19193390,-7012370,38911590,-33867190,-20683590,21838380
2026-01-14 17:05:57.721,32610470,-19360850,-7190186,97727820,-32714840,-20917970,49414060
2026-01-14 17:05:57.731,-25825970,-74206500,47413790,39274120,-31738280,-20605470,6875
2026-01-14 17:05:57.741,3709030,-19532620,-7380946,10222490,-31152340,-19882810,8388672
2026-01-14 17:05:57.751,-25377120,-19544700,-7403386,39826540,-30175780,-19033200,11103520
2026-01-14 17:05:57.761,-31912170,-7408568,4722391,33412350,-29628910,-18105470,14306640
2026-01-14 17:05:57.771,-24945540,-19412640,-7293762,40517080,-28847660,-17890620,16796880
2026-01-14 17:05:57.781,4796621,-19294380,-7187596,11361870,-27578120,-17978520,19667970
2026-01-14 17:05:57.791,5087511,-73559130,47370630,11675200,-26210940,-18251950,225
2026-01-14 17:05:57.801,83528720,-18960340,-6882902,90140580,-24902340,-18818360,24648440
2026-01-14 17:05:57.811,-24194580,-18754040,-6692136,42200260,-23613280,-19472660,26230470
2026-01-14 17:05:57.821,-24030580,-18520980,-6476343,42657740,-21933590,-19511720,27128910
2026-01-14 17:05:57.831,-23866580,-72402480,47871260,43132470,-20273440,-18974610,25839840
2026-01-14 17:05:57.841,-23711210,-7204861,4803529,43615850,-19160160,-18583980,24375
2026-01-14 17:05:57.851,-23581730,-17717380,-5726252,44090590,-18154300,-19326170,25585940
2026-01-14 17:05:57.861,-23478150,-17405770,-5433638,44573970,-1640625,-19492190,27773440
2026-01-14 17:05:57.871,7410292,-17076040,-5124625,14255210,-14619140,-18232420,28984380
2026-01-14 17:05:57.881,-23331410,-70408570,48881170,45532080,-12890630,-16523440,28496090
2026-01-14 17:05:57.891,7893668,-69951090,49114230,14824900,-11806640,-15136720,28066410
2026-01-14 17:05:57.901,-33720500,-69484980,49338650,36040690,-11376950,-13994140,28320310
2026-01-14 17:05:57.911,8313166,-15647500,-3791032,15337620,-10947270,-12568360,2875
2026-01-14 17:05:57.921,8496159,-68535500,49770230,15568950,-92626950,-1078125,27753910
2026-01-14 17:05:57.951,-23633520,-59558560,57884010,48665380,-3857422,-10810550,17314450
2026-01-14 17:05:57.961,-2381477,-66602000,50547080,4905378,-2376709,-94189460,15371090
2026-01-14 17:05:57.991,9083974,-12800770,-1182539,16552100,20983890,-19067380,8256836
2026-01-14 17:05:58.001,-36383370,-12446010,-864029,4,38953880,32373050,25585940,8227539
2026-01-14 17:05:58.011,-25144070,-12099020,-555015,3,50883720,44384770,61572260,71875
2026-01-14 17:05:58.021,-37079950,-11767560,-264990,8,39655640,46557620,84521490,59765620
2026-01-14 17:05:58.031,-25851860,-63019860,51574250,51626040,40185550,91308590,68603520
2026-01-14 17:05:58.041,8985572,-11153850,260675,7,16805870,31958010,86279300,7944336
2026-01-14 17:05:58.051,-26542400,-5747403,-4610609,52385630,25317380,8618164,84228510
2026-01-14 17:05:58.061,8992478,-10572940,750092,2,16954340,14050290,11367190,7363281
2026-01-14 17:05:58.071,9046860,-61017300,51764150,17072590,69503780,13994140,5576172
2026-01-14 17:05:58.081,-27241560,-48688690,-37455420,53619960,-105041500,14599610,5546875
2026-01-14 17:05:58.091,9300630,-95405900,16512390,17440290,-28198240,13037110,625
2026-01-14 17:05:58.101,-27310620,-40879610,-29727480,54534920,-4699707,94091800,75
2026-01-14 17:05:58.111,9812489,-58617700,52541000,18033290,-6088867,6665039,9116211
2026-01-14 17:05:58.121,10170700,-8027458,3055613,18417400,-5541992,73535150,9628906
2026-01-14 17:05:58.131,-26594190,-73904400,36615560,56062720,-38061520,9736328,9199219
2026-01-14 17:05:58.141,1109774,-17335860,-6314933,1937206,-15185550,12763670,89746100
2026-01-14 17:05:58.151,-39810150,-50379630,-39389780,42967610,11844640,14873050,95166020
2026-01-14 17:05:58.161,1226304,26458670,37415720,2053735,2133789,14697270,10498050
2026-01-14 17:05:58.171,12924210,-53499120,55726090,21188170,48754880,13105470,7709961
2026-01-14 17:05:58.181,17316950,-3526903,7359365,18141970,91845700,9692383,3474121
2026-01-14 17:05:58.191,-2276169,-27224300,81258580,5956717,13427730,6816406,-3173828
2026-01-14 17:05:58.201,-2203665,28777140,39585720,6011963,165625,57910160,-74316410
2026-01-14 17:05:58.211,15503350,-13379100,94344200,23701710,19248050,-3074646,-19335940
2026-01-14 17:05:58.221,15975510,-49088340,58289700,24161780,22480470,-22766110,-22617190
2026-01-14 17:05:58.231,16340620,-312468,10394260,24521720,25214840,-23950200,-28125
2026-01-14 17:05:58.241,16596990,48610140,59285790,24783270,25273440,-13574220,-31542970
2026-01-14 17:05:58.251,16752360,3314564,109760400,24955900,25117190,-24694820,-33144530
2026-01-14 17:05:58.261,-39062640,528256,5,11141770,43249000,23886720,-47436520,-34667970
2026-01-14 17:05:58.271,16789470,59029430,60087670,25056890,21777340,-6557617,-3640625
2026-01-14 17:05:58.281,-20698750,-46723260,58790340,62424270,20429690,-9453125,-35371100
2026-01-14 17:05:58.291,-2104402,834683,11353240,6256238,20214840,-12421880,-32089840
2026-01-14 17:05:58.301,16413990,876977,11362740,24828150,18994140,-13027340,-30664060
2026-01-14 17:05:58.311,-21872660,-46144940,58384640,62821320,16787110,-11875,-31699220
2026-01-14 17:05:58.321,16056640,918409,11338570,24581280,15390630,-10507810,-31894530
2026-01-14 17:05:58.331,15883150,-45799660,58091170,24461300,14980470,-89160160,-29804690
2026-01-14 17:05:58.341,15711380,56710970,67067250,24339600,15517580,-7558594,-28359380
2026-01-14 17:05:58.351,15557730,-45368080,57884010,24234290,16552730,-55371100,-2671875
2026-01-14 17:05:58.361,-23814790,1205842,11499980,63382380,19716800,-37060550,-2421875
2026-01-14 17:05:58.371,-24116890,64138090,65164390,63494600,23515620,-3684082,-22363280
2026-01-14 17:05:58.381,15211600,1460479,11694190,24010730,26171880,-36083980,-20097660
2026-01-14 17:05:58.391,15133910,1569237,11775330,23967570,26679690,-36987300,-18691410
2026-01-14 17:05:58.401,19055800,1632248,11815900,19942100,26210940,-3947754,-17822270
2026-01-14 17:05:58.411,-2497141,62328460,72498300,6386579,25136720,-22058100,-16376950
2026-01-14 17:05:58.421,-4253948,1642608,11805540,4641856,24804690,-14793400,-1484375
2026-01-14 17:05:58.431,-25152700,6621458,6723109,63857130,24980470,-19787600,-13300780
2026-01-14 17:05:58.441,-2516994,-44263220,57469690,6378806,24570310,-53564450,-1046875
2026-01-14 17:05:58.451,-25152690,14216370,116121900,63667230,23828120,-7578125,-8046875
2026-01-14 17:05:58.461,14776560,1312877,11531050,23634390,21777340,-6098633,-70458980
2026-01-14 17:05:58.471,14723050,-4495377,5757326,23549800,20332030,27026370,-68408200
2026-01-14 17:05:58.481,-24902380,56742040,67036180,63002600,21308590,12216800,-54541020
2026-01-14 17:05:58.491,14590120,880430,11221180,23337460,22109380,13730470,-21533200
2026-01-14 17:05:58.501,-2463475,7095240,110986100,6237248,21484380,10019530,78186030
2026-01-14 17:05:58.511,-24488060,510129,5,10952730,62018580,19130860,6166992,1583252
2026-01-14 17:05:58.521,-2430677,-46947680,58048020,6164740,16318360,22973630,1694336
2026-01-14 17:05:58.531,-24099630,48322700,58882700,61233100,13505860,-13623050,1862793
2026-01-14 17:05:58.541,-2386658,-142423,10483170,6079289,11689450,-5361328,26123050
2026-01-14 17:05:58.551,-23607630,-348722,5,10344200,60326770,11044920,-7890625,28320310
2026-01-14 17:05:58.561,-23348680,43041850,53805540,59826140,10634770,-9453125,19348140
2026-01-14 17:05:58.571,-23089720,-49468130,58893910,59290960,11650390,-10498050,12902830
2026-01-14 17:05:58.581,13865920,-845041,5,10063670,22024580,12919920,-10771480,15602110
2026-01-14 17:05:58.591,13714010,39741100,50718860,21796710,15,-10664060,-55267340
2026-01-14 17:05:58.601,-2252865,-50780140,59670760,5759051,17753910,-1078125,-8898926
2026-01-14 17:05:58.611,-2246821,-11954870,99134780,5701221,20019530,-10019530,-10760500
2026-01-14 17:05:58.621,-22502770,36883140,48052530,56425260,22167970,-80810540,-6317139
2026-01-14 17:05:58.631,-22623610,35215500,46440140,55855570,23261720,-4519043,44670100
2026-01-14 17:05:58.641,-22856680,-1788486,9487938,55277240,23183590,27526860,121398900
2026-01-14 17:05:58.671,10879370,20969790,32373960,18640970,17460940,14003910,13183590
2026-01-14 17:05:58.681,-37377740,15601750,27038720,40221010,1328125,18955080,15791020
2026-01-14 17:05:58.691,9774509,15050020,16196650,17536110,921875,23105470,18037110
2026-01-14 17:05:58.701,-25739650,3921366,15413580,51928150,54296880,26113280,20214840
2026-01-14 17:05:58.711,-26335240,2963252,4114721,51384360,14111330,27910160,21894530
2026-01-14 17:05:58.721,8075793,-29937240,-18400140,15851210,-24072270,28476560,22890620
2026-01-14 17:05:58.731,7515600,-6608411,4951128,15289290,-60595700,27441410,23652340
2026-01-14 17:05:58.741,6976985,-59316860,56537460,14740310,-9199219,25390620,23789060
2026-01-14 17:05:58.751,-28380940,-60007400,56140410,49045170,-12753910,23125,22988280
2026-01-14 17:05:58.761,9437357,-82596500,33913850,10208330,-16542970,20214840,22988280
2026-01-14 17:05:58.771,-28959270,-34849520,-23155330,47655480,-20546880,15722660,23691410
2026-01-14 17:05:58.781,5116859,-62044480,55398080,12716180,-24453120,10898440,21953120
2026-01-14 17:05:58.791,-29080110,-95690740,22321510,46136300,-27421880,7397461,18515620
2026-01-14 17:05:58.801,4475522,-45292120,-33428750,11907390,-29375,4567871,15947270
2026-01-14 17:05:58.811,4251963,-10084390,1849768,11578530,-30410160,24023440,13574220
2026-01-14 17:05:58.821,4076739,-48040440,-36032060,11287640,-31328120,10430910,10380860
2026-01-14 17:05:58.831,-27940730,-47993830,-35906040,42925320,-31757810,-8934021,8833008
2026-01-14 17:05:58.841,70064170,-64961980,56727360,77019570,-32246090,-12561040,8745117
2026-01-14 17:05:58.851,-26844510,-100869700,21630980,41345710,-31699220,-2536621,80566410
2026-01-14 17:05:58.861,-26223020,-99290150,24021950,40568860,-30996090,-33520510,61816410
2026-01-14 17:05:58.871,3833326,-41508000,-29099100,10374410,-29785160,-38891600,41455080
2026-01-14 17:05:58.881,38410950,-9513836,2971021,102458000,-28789060,-4423828,20056150
2026-01-14 17:05:58.891,-24375850,-9281641,3273995,38341900,-27207030,-47070310,-1374054
2026-01-14 17:05:58.901,-23823420,-9064986,3557977,37616840,-26367190,-5493164,-21179200
2026-01-14 17:05:58.911,37798100,-8853513,3829873,98064460,-25488280,-68847660,-30004880
2026-01-14 17:05:58.921,-22925730,-29416750,-16676390,36235770,-24726560,-7807617,-5239258
2026-01-14 17:05:58.931,35830080,-85358630,42545520,93990300,-24433590,-88964850,-7524414
2026-01-14 17:05:58.941,-22338770,-26788400,-13953100,34906490,-24179690,-9707031,-9902344
2026-01-14 17:05:58.951,-22166140,-84322830,44444490,34285010,-24375,-10957030,-10146480
2026-01-14 17:05:58.961,-22053930,-84668100,44444490,33689420,-25039060,-12597660,-10869140
2026-01-14 17:05:58.971,-22019400,-85678000,43728060,33136990,-25390620,-1453125,-13330080
2026-01-14 17:05:58.981,-22062560,-67059480,62588270,32627730,-25644530,-16582030,-16669920
2026-01-14 17:05:58.991,2290846,-30746890,-17763120,7721895,-25957030,-17607420,-19013670
2026-01-14 17:05:59.001,-22312880,-33083480,-20087630,31738670,-25722660,-18427730,-20996090
2026-01-14 17:05:59.011,-22537300,-94283780,35761030,31358870,-26015620,-19599610,-22460940
2026-01-14 17:05:59.021,1433720,-38613800,-25605860,6818158,-2640625,-20585940,-23242190
2026-01-14 17:05:59.031,1154056,-100067000,29977800,6545394,-27167970,-2109375,-23203120
2026-01-14 17:05:59.041,-23460890,-44478160,-31480580,30642440,-27617190,-21152340,-23769530
2026-01-14 17:05:59.051,6473756,-47234250,-34248760,60853300,-284375,-20644530,-23808590
2026-01-14 17:05:59.061,4384888,-49641620,-36675120,59144230,-28886720,-19814450,-240625
2026-01-14 17:05:59.071,-24600270,-51789180,-38843400,30625180,-29648440,-18710940,-23535160
2026-01-14 17:05:59.081,1027168,-11173710,1747914,56805050,-30195310,-17568360,-21503910
2026-01-14 17:05:59.091,-25385750,-112893700,16046290,30996340,-30195310,-15683590,-18476560
2026-01-14 17:05:59.101,-25782810,-11377410,1485512,31289820,-28828120,-13408200,-16601560
2026-01-14 17:05:59.111,-26179870,-11437830,1390564,31635090,-27832030,-11142580,-15537110
2026-01-14 17:05:59.121,-194215,-51393850,-50114640,5666692,-26933590,-8730469,-13935550
2026-01-14 17:05:59.131,-218383,3,-57475730,-44723300,5725387,-2578125,-6660156,-12265630
2026-01-14 17:05:59.141,-27371040,-57627650,-44916650,32947100,-246875,-5131836,-10195310
2026-01-14 17:05:59.151,-2296022,-11486170,1179950,58919810,-23515620,-3618164,-8095703
2026-01-14 17:05:59.161,-2235602,-68276540,57935800,59895180,-22714840,-25683590,-54785160
2026-01-14 17:05:59.171,-2106128,-11482720,1090180,60974150,-21699220,-9307861,-35009770
2026-01-14 17:05:59.181,-197665,3,-11493070,1031485,6205310,-21152340,4718,304,-27539060
2026-01-14 17:05:59.191,-29416750,-5888962,-4641682,35562500,-20507810,87646480,-16149900
2026-01-14 17:05:59.201,-1545068,-67422020,56805050,64383650,-19433590,13427730,-418396
2026-01-14 17:05:59.211,-1320646,-67197580,56511570,65540300,-18681640,14257810,9667969
2026-01-14 17:05:59.221,-30607920,-59934040,-47616640,37185250,-17089840,28930660,27539060
2026-01-14 17:05:59.231,30313580,-60080770,-47815160,37186110,-16904300,2734375,3034668
2026-01-14 17:05:59.241,-112212,-115017100,7121134,69510870,-15839840,22888180,30664060
2026-01-14 17:05:59.251,-31669620,-114585500,7034814,38833900,-15126950,27441410,3544922
2026-01-14 17:05:59.261,33462410,-11398990,712975,1,40597360,-14550780,31274410,43310550
2026-01-14 17:05:59.271,3471573,-11304900,756998,4193353,-13613280,32958980,54003900
2026-01-14 17:05:59.281,3314564,-11195290,820009,1,76269470,-12919920,3486328,6669922
2026-01-14 17:05:59.291,-32696780,-11051130,917549,1,41000450,-12294920,42456060,74560540
2026-01-14 17:05:59.301,6214808,-10874190,1051337,80619840,-11611330,43481440,8276367
2026-01-14 17:05:59.311,41821330,-64133340,54690280,49329150,-10664060,4729004,89404300
2026-01-14 17:05:59.321,44206260,-63710390,54716180,51777960,-9404297,5317383,88964850
2026-01-14 17:05:59.331,-3309386,-48283000,-36480040,4321014,-88671870,5371094,82958980
2026-01-14 17:05:59.341,1499322,-98366560,19300430,9186686,-7661133,42382810,86328130
2026-01-14 17:05:59.351,52495250,-9490529,2239918,60234410,-5703125,32055660,8515625
2026-01-14 17:05:59.361,55578500,-61751000,55208190,63365980,-3720703,28442380,8745117
2026-01-14 17:05:59.371,5874978,-87059070,29572110,6658211,-17626950,2626953,86083980
2026-01-14 17:05:59.381,-32783100,-8266557,3363765,45972300,6530762,24353030,82910160
2026-01-14 17:05:59.391,2971887,-78099390,37875780,10890580,28222660,22888180,80566410
2026-01-14 17:05:59.401,-39065230,-16201570,-15045090,40518810,54248050,25512700,7426758
2026-01-14 17:05:59.411,35968190,-5777012,5754908,115949300,7709961,30639650,6489258
2026-01-14 17:05:59.421,75047230,-12481410,-984013,8,83085040,99853520,30371090,546875
2026-01-14 17:05:59.431,4170826,-8233755,3227383,12246620,12216800,31567380,49682620
2026-01-14 17:05:59.441,-32092570,7234205,18660820,49062440,14091800,34155270,4387207
2026-01-14 17:05:59.451,83189500,42642190,54032550,91342980,15693360,38452150,3161621
2026-01-14 17:05:59.461,4854456,-48743070,64797980,13047640,17021480,42895510,20837400
2026-01-14 17:05:59.471,5024501,-45808300,67387480,13257390,17871090,39111330,10321050
2026-01-14 17:05:59.481,-32040770,-43132480,69718030,50667920,17929690,4013672,50231940
2026-01-14 17:05:59.491,5314523,9911752,21162280,13623370,17197270,3293457,914917
2026-01-14 17:05:59.501,-32135720,11913430,23131160,51332570,16972660,17102050,2121582
2026-01-14 17:05:59.511,-32178880,-53973860,57875380,51634670,17597660,736084,29858400
2026-01-14 17:05:59.521,5640801,15916810,27068930,14056680,178125,8074951,20080570
2026-01-14 17:05:59.531,5736612,22835700,23947980,14185290,17900390,15979000,-38848880
2026-01-14 17:05:59.541,5834149,-5294670,5800485,14312180,18193360,20898440,-22766110
2026-01-14 17:05:59.551,-3235149,-52627320,58065280,5270498,18671880,2775879,-33251950
2026-01-14 17:05:59.561,-32360140,-26223030,84227880,52920790,1890625,30273440,-39111330
2026-01-14 17:05:59.571,6101731,-243068,6,859369,2,14648820,18847660,3010254,-35375980
2026-01-14 17:05:59.581,-32342880,27124170,38131280,53283330,19316410,24951170,-3161621
2026-01-14 17:05:59.591,6270053,-20612440,89320570,14843030,19599610,24121090,-34521480
2026-01-14 17:05:59.601,-41835140,-1892065,9090881,43963700,19990230,22839360,-48046880
2026-01-14 17:05:59.611,-32204780,36999070,38096500,53645860,203125,24169920,-5756836
2026-01-14 17:05:59.621,-32144360,-50961410,58729910,53706280,20996090,22155760,-6953125
2026-01-14 17:05:59.631,6541948,34567260,45534670,15123560,20898440,22827150,-8286133
2026-01-14 17:05:59.641,6579065,-50736980,58954340,15155490,20449220,21081540,-92578130
2026-01-14 17:05:59.651,-31954460,-130081,7,967353,1,53723540,20253910,19873050,-10498050
2026-01-14 17:05:59.661,-31894040,36976360,47959310,53663120,19111330,17712400,-10947270
2026-01-14 17:05:59.671,6596330,-12067080,97865920,15138230,19091800,1227417,-10039060
2026-01-14 17:05:59.681,6578204,-11954870,98098980,15104570,18613280,14404300,-93115230
2026-01-14 17:05:59.691,6543675,37561600,48582520,15052780,18037110,2331543,-9238281
2026-01-14 17:05:59.701,6492748,37207700,48245880,14982860,17255860,30932620,-89160160
2026-01-14 17:05:59.711,-41280120,-13076980,97494760,43413870,16679690,33911130,-8569336
2026-01-14 17:05:59.721,6366725,-51263520,59532660,14815400,15546880,3786621,-8515625
2026-01-14 17:05:59.731,6292493,34758890,45860950,14717010,13828130,41552740,-8647461
2026-01-14 17:05:59.741,-31583290,-51729630,59532660,52420160,12412110,4025879,-7734375
2026-01-14 17:05:59.751,613714,31971720,43123840,1450986,10712890,41308590,-74365230
2026-01-14 17:05:59.761,6055983,-1980971,9197049,14401090,94873050,34838870,-60498050
2026-01-14 17:05:59.771,5976574,28923880,40129520,14290600,86816410,21264650,-41967770
2026-01-14 17:05:59.781,-31358870,-2310702,8922563,51470670,74365230,13549810,-3112793
2026-01-14 17:05:59.791,-31263920,25874310,37136920,51220360,62109380,112976100,-21948240
2026-01-14 17:05:59.801,5811707,2439138,3568507,14023880,4921875,4699707,-1821289
2026-01-14 17:05:59.811,5778910,-28052950,85194630,13953100,40649420,34698490,-19763180
2026-01-14 17:05:59.821,5764232,-2958939,8396892,13898720,2993164,5038452,-24487300
2026-01-14 17:05:59.831,-30668340,-31134450,82751860,50244980,25878910,637207,-18200680
2026-01-14 17:05:59.841,5729706,-3250690,8170743,13777880,21875,3829956,4032135
2026-01-14 17:05:59.851,-30305810,17664720,29118960,49744340,1932373,7128906,104003900
2026-01-14 17:05:59.861,5713308,-55208190,59662130,13673430,970459,8868408,18664550
2026-01-14 17:05:59.871,-29917380,15301370,26821200,49252330,35461420,61920170,27539060
2026-01-14 17:05:59.881,5704677,-37901680,77607390,13578490,-15037540,48431400,31152340
2026-01-14 17:05:59.891,9224069,-39256860,76545690,10007300,-11193850,9698486,28857420
2026-01-14 17:05:59.901,5702951,-40698340,75397680,13493900,-23339840,82092290,29370120
2026-01-14 17:05:59.911,5705538,15559370,16723090,13456780,-30664060,1737976,39697260
2026-01-14 17:05:59.921,5716759,9100374,20765220,13428300,-33251950,-6161499,47875980
2026-01-14 17:05:59.931,-37411400,-57072630,59834770,39324180,-43041990,-12634280,5805664
2026-01-14 17:05:59.941,-28639900,6918285,18631470,47750420,-4951172,-20629880,6123047
2026-01-14 17:05:59.951,-2845863,11238610,12412180,4758643,-5722656,-21887210,50390620
2026-01-14 17:05:59.961,5795307,-4781948,6974392,13367010,-6669922,-27001950,46826170
2026-01-14 17:05:59.971,5819476,4383164,16160220,13360110,-67626950,-36083980,5541992
2026-01-14 17:05:59.981,5851416,-49312760,68647700,13362690,-640625,-4880371,68066410
2026-01-14 17:05:59.991,5891121,-49916970,68216120,13374780,-6542969,-5126953,7763672
2026-01-14 17:06:00.001,-27638620,2889883,14718730,46939050,-66015620,-5410156,84033200
2026-01-14 17:06:00.011,-27491880,-50667930,67758640,46844090,-6611328,-49804690,8066406
2026-01-14 17:06:00.021,-27362410,-5099596,6756876,46749140,-6899414,-37890620,6323242
2026-01-14 17:06:00.031,6005919,2179497,14048050,13398090,-7402344,-27905270,49023440
2026-01-14 17:06:00.041,-27189770,2001684,13880600,46576510,-63623050,-38867190,6225586
2026-01-14 17:06:00.051,5994698,1911052,13798590,13357520,-5605469,-45043940,88671870
2026-01-14 17:06:00.061,-27129350,-51703740,67240740,46412510,-51660160,-4152832,96972660
2026-01-14 17:06:00.071,5915292,16460600,135456900,13264290,-49926760,-36450200,9458008
2026-01-14 17:06:00.081,-27215670,1385382,13288460,46257140,-43164060,-31933590,84033200
2026-01-14 17:06:00.091,-27301980,866618,12771430,46170820,-4013672,-20605470,7788086
2026-01-14 17:06:00.101,-27440090,56195650,68100460,46084510,-36767580,-17236330,77441410
2026-01-14 17:06:00.111,-27604090,47563980,59468780,45989560,-37451170,-12695310,77734380
2026-01-14 17:06:00.121,-27811250,36343660,48246740,45903250,-39453120,-10998540,7192383
2026-01-14 17:06:00.131,5190230,-31013610,87982660,12573760,-4946289,-42381290,50097660
2026-01-14 17:06:00.141,50011920,-4567024,7329152,124002600,-5834961,-7800293,50390620
2026-01-14 17:06:00.151,-28570840,-5946363,5944636,45592510,-6044922,-1895752,63427740
2026-01-14 17:06:00.161,-28838420,-61060460,57780420,45497550,-62890620,-3137207,7441406
2026-01-14 17:06:00.171,77755860,-90459950,28311890,85210170,-68310540,-3930664,7026367
2026-01-14 17:06:00.181,4247645,-50818980,-38950430,11720950,-69677740,-38598630,5683594
2026-01-14 17:06:00.191,4081921,-64996510,53602700,11575940,-65966800,-4182129,4633789
2026-01-14 17:06:00.201,7644626,-12658350,-807062,7719755,-61621100,-4399414,3569336
2026-01-14 17:06:00.211,-30115910,-66895480,51531090,45221340,-56347660,-421875,29614260
2026-01-14 17:06:00.221,3655514,-14461510,-2629208,11208230,-515625,-4885254,33325200
2026-01-14 17:06:00.231,69411610,-15147730,-3324060,76981590,-43579100,-4970703,38500980
2026-01-14 17:06:00.241,3430230,-68906660,49226440,11019190,-36010740,-48706060,38110350
2026-01-14 17:06:00.251,3343911,-16346670,-4541987,10950140,-3178711,-4580078,34375
2026-01-14 17:06:00.261,66967980,-6993386,4800934,74591470,-27368160,-48608400,33129880
2026-01-14 17:06:00.271,32152980,-11983100,-10804530,108543300,-27392580,-4633789,3425293
2026-01-14 17:06:00.281,-31281190,-17626740,-5851411,45281760,-25390620,-4248047,2705078
2026-01-14 17:06:00.291,-31367500,-17966830,-6201856,45350820,-26782230,-3010254,16101070
2026-01-14 17:06:00.301,3147974,-70943740,46602420,10835340,-25927730,-16870120,13916020
2026-01-14 17:06:00.311,31574670,-70805630,46636930,108603700,-21606440,16708370,32958980
2026-01-14 17:06:00.321,66573520,-70399940,46921780,74295410,-16381840,33007810,46044920
2026-01-14 17:06:00.331,-3160920,-17166670,-5448314,4579966,-1616211,71435540,47265620
2026-01-14 17:06:00.341,3291257,-16553830,-4852727,11054590,-14379880,10263670,49194340
2026-01-14 17:06:00.351,3356858,-15767480,-4085372,11144350,-11053470,1328125,5024414
2026-01-14 17:06:00.361,69634300,-67378860,49252330,77449420,-9008789,16210940,4819336
2026-01-14 17:06:00.371,3535534,-13847800,-2207119,11380000,-8081055,18388670,40625
2026-01-14 17:06:00.381,71849200,-12714460,-1096226,79723010,1425,743,17949220,28320310
2026-01-14 17:06:00.391,3739242,-11494800,100990,2,11642400,10601810,14628910,18127440
2026-01-14 17:06:00.401,-31833620,-50671380,-39098030,47456940,21704100,10146480,2960205
2026-01-14 17:06:00.411,-31824980,-37715240,-26159150,47690000,33276370,59277340,-22094730
2026-01-14 17:06:00.421,-31807720,-23897660,-12355380,47879900,4284668,26245120,-4675293
2026-01-14 17:06:00.431,80825100,-5770278,5761639,81623010,5629883,-6427765,-46069340
2026-01-14 17:06:00.441,-3172140,2006001,13531010,4812159,7866211,-15002440,-47485350
2026-01-14 17:06:00.451,-31678240,-38626740,76606110,48182000,93847660,-1184082,-6064453
2026-01-14 17:06:00.461,4286492,22722020,34247030,12269060,11152340,-40008540,-73046870
2026-01-14 17:06:00.471,-31600560,28761600,40291790,48156110,12724610,42533880,-83496100
2026-01-14 17:06:00.481,4259732,-2228698,9306671,12226770,13554690,34332280,-8769531
2026-01-14 17:06:00.491,41949930,26165190,37709190,121534000,13984380,22140500,-88623050
2026-01-14 17:06:00.501,4095733,-34457650,81068690,12045500,1375,-52856440,-8173828
2026-01-14 17:06:00.511,-31764560,-48320120,67309800,47646840,13408200,-13586430,-74560540
2026-01-14 17:06:00.521,3819516,-13555180,-1981833,11752020,12285160,-21362300,-7050781
2026-01-14 17:06:00.531,72082250,-35138690,-23556710,80007850,10791020,-24926760,-7182617
2026-01-14 17:06:00.541,3463893,-63227020,52696380,11382590,9082031,-27539060,-7133789
2026-01-14 17:06:00.551,3259320,-13568130,-1968885,11172840,78125,-24487300,-6513672
2026-01-14 17:06:00.561,66221340,-109384000,-97776150,74129670,69433590,-23339840,-5854492
2026-01-14 17:06:00.571,-32714040,-70935100,45212710,46334820,5839844,-15881350,-53466800
2026-01-14 17:06:00.581,2661145,-21174360,-9554401,10562580,4921875,-10058590,-52001950
2026-01-14 17:06:00.591,2472974,-23507500,-11882360,10370960,4501953,-50231940,-47924800
2026-01-14 17:06:00.601,22856680,-25926960,-14296640,101784700,3713379,-16998290,-41552740
2026-01-14 17:06:00.611,-33395950,-2826099,-1662373,45480300,3708496,-6323242,-35351560
2026-01-14 17:06:00.621,5466871,-8289861,3352542,6254943,36645510,-103149400,-2763672
2026-01-14 17:06:00.631,52946700,-85186000,31324350,60818780,37768560,-76660160,-28051760
2026-01-14 17:06:00.641,1576143,-35004900,-23345230,9437872,40673830,-16113280,-23071290
2026-01-14 17:06:00.651,-33913850,-89847100,26835880,44565330,4169922,12069700,-24987790
2026-01-14 17:06:00.661,47441410,-92315760,24470800,55275520,40966800,8312988,-24853520
2026-01-14 17:06:00.671,-34155540,-94879370,22028030,44030160,3474121,12854000,-15698240
2026-01-14 17:06:00.681,-34276380,-9743436,1957666,43736690,27905270,22485350,-5596924
2026-01-14 17:06:00.691,6309756,-10008430,1704756,84150190,18188480,3034668,26397700
2026-01-14 17:06:00.701,39190400,-58626780,58625890,46953720,9283447,34423830,5545044
2026-01-14 17:06:00.711,37041970,-63373760,53999760,44786300,2040863,36694340,5493164
2026-01-14 17:06:00.721,22444,5,-63710390,53783960,7746062,-8203125,2878418,10827640
2026-01-14 17:06:00.731,-1829912,-64047020,53568170,75199150,-17199710,18847660,1652832
2026-01-14 17:06:00.741,-3866988,-64375030,53361010,72920380,-22363280,1315918,20812990
2026-01-14 17:06:00.751,-5817746,-11668300,119117,2,70727940,-28881840,8709717,19909670
2026-01-14 17:06:00.761,-35096380,-65039660,52972580,41173080,-3215332,30212400,21179200
2026-01-14 17:06:00.771,24512230,-12192240,-375478,8,32111560,-38061520,-25283810,2076416
2026-01-14 17:06:00.781,22455300,-71171610,-59339310,30025280,-44433590,-91308590,24414060
2026-01-14 17:06:00.791,-13439510,-126911500,-8433146,61949520,-47143560,-12194820,26049800
2026-01-14 17:06:00.801,-1534710,-66317160,52333840,5971390,-50634770,-15576170,27539060
2026-01-14 17:06:00.811,16461470,-66627890,52195730,23934770,-54589840,-15563970,27294920
2026-01-14 17:06:00.821,17754580,-66930000,52066260,18498450,-59472660,-15258790,22839360
2026-01-14 17:06:00.831,12353650,-67249380,51936780,19756170,-6279297,-1274414,17785640
2026-01-14 17:06:00.841,1030017,-138400300,-19041470,1766639,-68847660,-16259770,17675780
2026-01-14 17:06:00.851,-24824690,-67853600,51677840,48475480,-72021490,-20935060,22460940
2026-01-14 17:06:00.861,6020595,-68147060,51556990,13314360,-75927740,-26098630,1899414
2026-01-14 17:06:00.871,3881666,-68449180,51427520,11137450,-76660160,-24060060,8392334
2026-01-14 17:06:00.881,15692390,-147290900,-27241570,87887700,-79785150,-15283200,-25970460
2026-01-14 17:06:00.891,24892890,-14961280,-2940812,32076170,-79052740,-12249760,-12573240
2026-01-14 17:06:00.901,-353812,5,-15202100,-3166098,360717,-8725586,-15649410,-83618160
2026-01-14 17:06:00.911,-56261260,-15450700,-3400877,14829220,-9555664,-25390620,-13938900
2026-01-14 17:06:00.921,-49284270,-69994250,50642040,-42211480,-10292970,-31689450,-134887700
2026-01-14 17:06:00.931,-42338360,-70304990,50452140,28009780,-10917970,-34326170,-12536620
2026-01-14 17:06:00.941,-44660280,-7061574,5026226,25325330,-11181640,-3642578,-25610350
2026-01-14 17:06:00.951,-47068520,-16477000,-4377120,22554570,-11660160,-44458010,-35839840
2026-01-14 17:06:00.961,-49571700,-71228580,49873810,19706110,-12353520,-5551758,-34277340
2026-01-14 17:06:00.971,-51988570,-71513420,49692550,16943980,-13271480,-6665039,-29663090
2026-01-14 17:06:00.981,-54405450,-1719948,-507022,2,14181840,-13232420,-6699219,-35986330
2026-01-14 17:06:00.991,-26115130,-72031320,49347280,-19287480,-1359375,-6582031,-39379880
2026-01-14 17:06:01.001,-34235800,-72264380,49183280,33729990,-13710940,-5810547,-41625980
2026-01-14 17:06:01.011,-6172508,-72480180,49019280,596445,6,-13994140,-45214840,-4477539
2026-01-14 17:06:01.021,-6419376,-17989270,-5834149,325413,2,-14355470,-34887700,-4428711
2026-01-14 17:06:01.031,-6667103,-72877220,48691270,55239,59,-14794920,-27783200,-46166990
2026-01-14 17:06:01.041,-37073040,-18344900,-6186321,29960540,-14882810,-30297850,-46533200
2026-01-14 17:06:01.051,-71409840,-73231120,48337380,-4548895,-14794920,-296875,-50341800
2026-01-14 17:06:01.061,-73757660,-7339513,4815615,-7034815,-14521480,-38378900,-5878906
2026-01-14 17:06:01.071,-46142340,-18876610,-6724937,-39483870,-1421875,-53271480,-60839840
2026-01-14 17:06:01.081,-33691150,-19046650,-6900160,32790000,-13984380,-7348633,-66552740
2026-01-14 17:06:01.091,-37910310,-19208930,-7065888,28467260,-13261720,-8613281,-78564460
2026-01-14 17:06:01.101,-38074310,-73990720,47387890,28199680,-12792970,-9482422,-92041020
2026-01-14 17:06:01.111,-84460930,-74111560,47215260,-18256000,-12382810,-10566410,-9375
2026-01-14 17:06:01.121,-38393690,-19631880,-7506101,27742200,-11748050,-11337890,-97314460
2026-01-14 17:06:01.131,-38549060,-74284190,46921780,27535040,-11132810,-11181640,-10244140
2026-01-14 17:06:01.141,-60099760,-74344610,46809570,-53493080,-10039060,-1015625,-11181640
2026-01-14 17:06:01.151,-3887707,-19899460,-7790950,2718977,-9321289,-9165039,-10800780
2026-01-14 17:06:01.161,-39049700,-19964200,-7864317,27051670,-9067383,-8125,-10361330
2026-01-14 17:06:01.171,-39222330,-74422300,46490200,26930820,-86865230,-7001953,-9472656
2026-01-14 17:06:01.181,-39403590,-74422300,46386620,26853140,-8491211,-58740230,-9169922
2026-01-14 17:06:01.191,-33828390,-74422300,46265770,32549180,-77246100,-45288090,-90966800
2026-01-14 17:06:01.201,-98349300,-61696620,58870610,-31816350,-67089840,-33520510,-97314460
2026-01-14 17:06:01.211,-9955774,-20219700,-8178512,-3285216,-6020508,-23156740,-10107420
2026-01-14 17:06:01.221,-100774800,-20280120,-8256194,-33879320,-56152340,-24353030,-10507810
2026-01-14 17:06:01.231,-10208680,-14937550,-13736880,-3498418,-5239258,-29907230,-9609375
2026-01-14 17:06:01.241,-40629290,-74361870,45514820,26680500,-4819336,-29492190,-95214850
2026-01-14 17:06:01.251,-1047108,-7435325,4533356,-371939,2,-43408200,-21521000,-9433594
2026-01-14 17:06:01.261,-10620410,-20579640,-8629948,-3846275,-41308590,-14379880,-90234380
2026-01-14 17:06:01.271,-41345720,-74353240,44936500,26602820,-36694340,-35583500,-9238281
2026-01-14 17:06:01.281,-41578780,-15407370,-14216540,26559660,-34375,15037540,-9082031
2026-01-14 17:06:01.291,-4181184,-20876570,-8989026,2651650,-34423830,18432620,-8847656
2026-01-14 17:06:01.301,-42053520,-20979290,-9110732,26464710,-32714840,-27103420,-83740230
2026-01-14 17:06:01.311,-11374820,-74413660,44064700,-4507464,-2800293,-21255490,-88964850
2026-01-14 17:06:01.321,-42493730,-74439560,43866170,26335230,-23718260,-7897949,-92041020
2026-01-14 17:06:01.331,-42700900,-74474090,43659010,26248920,-25878910,-1340332,-8935547
2026-01-14 17:06:01.341,-42899420,-74482720,43477740,26171230,-27783200,-14477540,-79248050
2026-01-14 17:06:01.351,-43080690,-21479920,-9697684,26093550,-27612300,-2708435,-7270508
2026-01-14 17:06:01.361,-43270580,-21550700,-9782274,26024500,-2211914,117614700,-72558590
2026-01-14 17:06:01.371,-43443220,-74499990,43046160,25955440,-1685791,22363280,-6738281
2026-01-14 17:06:01.381,-43615850,-7449137,4291671,25886390,-13708500,26586910,-54785160
2026-01-14 17:06:01.391,-12457230,-21703480,-9974762,-5496652,-14343260,29077150,-41088870
2026-01-14 17:06:01.401,-43952480,-21749230,-10032590,25756910,-113098100,28857420,-32958980
2026-01-14 17:06:01.411,-44116480,-21803610,-10099060,25696490,-24002080,18518070,-27270510
2026-01-14 17:06:01.421,-44263230,-7448273,4244196,25618810,4131317,4663086,-21765140
2026-01-14 17:06:01.431,-44409960,-21930500,-10248390,25523860,3829956,-18859860,-17114260
2026-01-14 17:06:01.441,-35940560,-7452589,4219164,34027790,26260380,-10882570,-15332030
2026-01-14 17:06:01.451,-44677550,-74543140,42070780,25308070,15897750,-20361330,-10461430
2026-01-14 17:06:01.461,-44807020,-22141110,-10486620,25161330,-21087650,-21105960,-8081055
2026-01-14 17:06:01.471,-44919230,-22206710,-10559120,25014590,-10461430,-17907720,-16494750
2026-01-14 17:06:01.481,-45040080,-22273180,-10630770,24841960,-14355470,-1015625,40985110
2026-01-14 17:06:01.491,-45135020,-74715780,41673730,24660690,-21264650,-60394290,115356400
2026-01-14 17:06:01.501,-45229970,-22399200,-10763700,24462160,-24523930,33203120,11242680
2026-01-14 17:06:01.511,-45333550,-74802100,41535620,24255000,-3232422,9210205,16467290
2026-01-14 17:06:01.521,-45411240,-74862510,41475200,24039210,-44458010,1048584,24938960
2026-01-14 17:06:01.531,-45488920,-59843400,56494310,23806150,-54589840,92285150,29638670
2026-01-14 17:06:01.541,-45549340,-22614990,-10979490,23555840,-6279297,6732178,2775879
2026-01-14 17:06:01.551,-45609770,-75043780,41345720,23288260,-69140620,23040770,2631836
2026-01-14 17:06:01.561,-14758430,-59909860,56531420,-7891080,-8125,-1727295,2421875
2026-01-14 17:06:01.571,-45696080,-75190520,41319820,22718560,-89941410,-30807500,18603520
2026-01-14 17:06:01.581,-45730610,-22790210,-11132270,22407830,-96240230,-74523930,18896480
2026-01-14 17:06:01.591,-35105880,-75311370,41371620,32739070,-10429690,-11682130,21728520
2026-01-14 17:06:01.601,-45773770,-75363150,41423410,21777710,-11132810,-10638430,13598630
2026-01-14 17:06:01.611,-15531840,-22805750,-11116730,-8809488,-11835940,-101989700,66345220
2026-01-14 17:06:01.621,-45799660,-75458100,41570140,21113070,-1265625,-19689940,47180180
2026-01-14 17:06:01.631,-45791030,-22767770,-11051130,20776440,-13583980,-25805660,-11207580
2026-01-14 17:06:01.641,-15974640,-22722880,-10992440,-9350694,-14111330,-33935550,-43945310
2026-01-14 17:06:01.651,-45765140,-22671100,-10923390,20129060,-14375,-40771480,-1315918
2026-01-14 17:06:01.661,-45747870,-7554443,4210534,19818320,-1421875,-35864260,-2241211
2026-01-14 17:06:01.671,-45713350,-22524350,-10742120,19507580,-14287110,-3684082,-28588870
2026-01-14 17:06:01.681,-16477010,-22438040,-10638540,-9987712,-14453130,-35742190,-3791504
2026-01-14 17:06:01.691,-45652930,-22343090,-10526330,18912000,-14921880,-39086910,-38305660
2026-01-14 17:06:01.701,-4561841,-16914200,-15730800,1863578,-15234380,-3935547,-39526370
2026-01-14 17:06:01.711,-16810190,-22135930,-10284640,-10414120,-15097660,-3876953,-46801760
2026-01-14 17:06:01.721,-33214680,-22022860,-10156030,30469810,-14658200,-39648440,-59765620
2026-01-14 17:06:01.731,-45540710,-75389040,43434580,17867560,-14707030,-35888670,-7158203
2026-01-14 17:06:01.741,-17088990,-21813970,-9916067,-10774060,-15546880,-38232420,-7836914
2026-01-14 17:06:01.751,-45488920,-75302730,43814380,17453240,-16015630,-41455080,-83447260
2026-01-14 17:06:01.761,-17224510,-21586090,-9660570,-10949280,-15478520,-4206543,-9091797
2026-01-14 17:06:01.771,-45454400,-75173260,44185540,17159770,-14287110,-40966800,-10166020
2026-01-14 17:06:01.781,-4544575,-75095570,44366810,1706479,-12167970,-35302740,-11455080
2026-01-14 17:06:01.791,-45463030,-61289210,58242230,17013030,-10664060,-35888670,-12207030
2026-01-14 17:06:01.801,-45497560,-74897040,44686180,16978500,-10615230,-43774420,-11757810
2026-01-14 17:06:01.811,-17393690,-20956840,-8995068,-11142630,-11699220,-6064453,-10458980
2026-01-14 17:06:01.821,-45557980,-74681250,44953760,17038920,-11875,-71875,-10205080
2026-01-14 17:06:01.831,-45601140,-61291800,58343220,17133870,-10566410,-7529297,-10458980
2026-01-14 17:06:01.841,-45635660,-20620210,-8658430,17271980,-92578130,-65478520,-11162110
2026-01-14 17:06:01.851,-45678820,-20507130,-8547082,17435980,-8432617,-5732422,-11337890
2026-01-14 17:06:01.861,-45739240,-20400960,-8446091,17634510,-80029300,-45532230,-10986330
2026-01-14 17:06:01.871,-17149410,-74059770,45402610,-10782690,-7919922,-32006840,-1046875
2026-01-14 17:06:01.881,-17081220,-73921660,45437140,-10678250,-79345700,-12915040,-10175780
2026-01-14 17:06:01.891,-17006120,-20125610,-8203543,-10563440,-79833980,10154720,-94921870
2026-01-14 17:06:01.901,-46110400,-73628180,45437140,18747990,-7861328,10772710,-8676758
2026-01-14 17:06:01.911,-34020020,-60850720,58041970,31304490,-77978510,18359380,-82470700
2026-01-14 17:06:01.921,-46369360,-19934850,-8066297,19438530,-76904300,18798830,-75634770
2026-01-14 17:06:01.931,-46507460,-73213860,45264500,19801060,-76904300,15686040,-6723633
2026-01-14 17:06:01.941,-16581440,-60522710,57731230,-9900534,-7114258,9259033,-62597660
2026-01-14 17:06:01.951,-46775040,-19850260,-8047308,20534750,-61865230,64941410,-61083980
2026-01-14 17:06:01.961,-46895880,-19839040,-8058529,20897280,-5336914,4232788,-5957031
2026-01-14 17:06:01.971,-35434750,-19819190,-8061120,32859060,-48168940,-1914978,-53027340
2026-01-14 17:06:01.981,-47137580,-14518300,-13344740,21639610,-46020510,-7434082,-4272461
2026-01-14 17:06:01.991,-16073900,-19770850,-8057667,-9147849,-47607420,-15209960,-3076172
2026-01-14 17:06:02.001,-12812770,-19734600,-8042129,-12115510,-47607420,-20373540,-19055180
2026-01-14 17:06:02.011,-47413790,-72203950,44530810,22796250,-4152832,-29101560,-116882300
2026-01-14 17:06:02.021,-47491470,-19594770,-7940276,23201940,-35595700,-3269043,-40893560
2026-01-14 17:06:02.031,-15530970,-19498950,-7863455,-8413294,-21130370,-3005371,31555180
2026-01-14 17:06:02.041,-47629580,-19378110,-7759872,24047840,-6732178,-34448240,15808110
2026-01-14 17:06:02.051,-11970490,-19240000,-7639031,-11248710,7745361,-34204100,31323240
2026-01-14 17:06:02.061,-15054500,-19092400,-7510421,-7784909,19812010,-3540039,45458980
2026-01-14 17:06:02.071,-14890500,-70978260,44651650,-7569120,3671875,-3395996,5957031
2026-01-14 17:06:02.081,-3697637,-18804970,-7262691,3675539,54296880,-33789060,72265620
2026-01-14 17:06:02.091,-4800072,-70529420,44686180,2624889,6640625,-29370120,8701172
2026-01-14 17:06:02.101,-14458920,-18584000,-7086605,-6982164,7739258,-2364502,9975586
2026-01-14 17:06:02.111,-48207900,-18502860,-7029635,27060300,87890620,-15661620,10644530
2026-01-14 17:06:02.121,-48320110,-69968350,44504910,27431460,9707031,-71899420,11171880
2026-01-14 17:06:02.131,-14143860,-18432940,-7013236,-6520368,10048830,-59432980,11611330
2026-01-14 17:06:02.141,-14071360,-13309960,-12170750,-6402978,10585940,7080078,12001950
2026-01-14 17:06:02.151,-14015250,-69597190,44047430,-6303716,10322270,18591310,12431640
2026-01-14 17:06:02.161,-13975540,-69519500,43848910,-6222578,10068360,2919922,12900390
2026-01-14 17:06:02.171,-13943610,-18550330,-7241111,-6150932,99316410,4177246,13349610
2026-01-14 17:06:02.181,-49148760,-18605580,-7323973,29140530,99658200,54589840,13955080
2026-01-14 17:06:02.191,-49286860,-69303720,43236060,29364950,98046870,6611328,14648440
2026-01-14 17:06:02.201,-13884050,-6925192,4302890,-5986066,9526367,765625,15166020
2026-01-14 17:06:02.211,-49545810,-18782520,-7578608,29744750,90185540,8286133,16074220
2026-01-14 17:06:02.221,-49666660,-18831730,-7650252,29917380,9067383,84472660,16699220
2026-01-14 17:06:02.231,-13832260,-69105180,42519630,-5847963,85839840,8154297,17412110
2026-01-14 17:06:02.241,-13817580,-69062020,42390150,-5810847,9082031,7270508,1734375
2026-01-14 17:06:02.251,-13792550,-18927540,-7796128,-5766823,875,5942383,17285160
2026-01-14 17:06:02.261,-49942870,-68975710,42234780,30452550,83984380,4321289,1734375
2026-01-14 17:06:02.271,-41229190,-68949820,42208890,39287060,89404300,36694340,16455080
2026-01-14 17:06:02.281,-49968760,-18892150,-7779726,30599280,8696289,2866211,15849610
2026-01-14 17:06:02.291,-13688110,-68872130,42286570,-5629582,8227539,12548830,16445310
2026-01-14 17:06:02.301,-13662220,-18774750,-7655432,-5603685,7363281,435791,16865230
2026-01-14 17:06:02.311,-1365098,-68759920,42519630,-559767,1,8515625,-97717290,16972660
2026-01-14 17:06:02.321,-13639770,-68699500,42683630,-5591602,8491211,-22961430,16640630
2026-01-14 17:06:02.331,-49804760,-68621820,42882160,30590650,90625,-53985600,16982420
2026-01-14 17:06:02.341,-13622510,-18296560,-7132352,-5591600,82666020,-3850937,16523440
2026-01-14 17:06:02.351,-13625100,-57154630,54642820,-5606275,95410160,57037350,16611330
2026-01-14 17:06:02.361,-49658020,-12972120,-11852580,30392130,88671870,-4650879,16367190
2026-01-14 17:06:02.371,-13663080,-17862390,-6651568,-5671874,9716797,3857422,16777340
2026-01-14 17:06:02.381,-49580340,-17724280,-6496197,30176330,95751950,10131840,16640630
2026-01-14 17:06:02.391,-49554440,-17593080,-6351184,30029600,93847660,7183838,16289060
2026-01-14 17:06:02.401,-13802910,-17480000,-6222574,-5860045,96484380,4269409,15644530
2026-01-14 17:06:02.411,-13880600,-17374700,-6103457,-5954993,9580078,72387700,15087890
2026-01-14 17:06:02.421,-13975540,-68060750,44772490,-6067208,9375,18273930,14287110
2026-01-14 17:06:02.431,-14078260,-68034860,44919240,-6188915,89453130,21325680,134375
2026-01-14 17:06:02.441,-49623500,-17150280,-5844506,29080110,90722660,30004880,12675780
2026-01-14 17:06:02.451,-14344120,-17103660,-5787538,-6492746,8959961,27539060,11787110
2026-01-14 17:06:02.461,-49744340,-17074320,-5747830,28562210,8027344,32958980,11679690
2026-01-14 17:06:02.471,-11162740,-17061370,-5726253,-10381920,6816406,37939450,11386720
2026-01-14 17:06:02.481,-49899710,-11961000,-10826620,27940730,6328125,3935547,10693360
2026-01-14 17:06:02.491,-39918900,-17078630,-5726251,37679850,56640620,41601560,9892578
2026-01-14 17:06:02.501,-5008959,-68233380,45359450,2723290,4934082,4736328,93310540
2026-01-14 17:06:02.511,-50184560,-12057160,-10920360,26844510,39111330,47045900,84765620
2026-01-14 17:06:02.521,-50288130,-17236590,-5861768,26430190,32861330,50146480,7626953
2026-01-14 17:06:02.531,-16016940,-17309100,-5927370,-8376179,31835940,57421880,67529300
2026-01-14 17:06:02.541,-16267250,-17391100,-6000740,-8661022,2866211,5703125,55859380
2026-01-14 17:06:02.551,-16534830,-6875992,4521272,-8963130,30395510,6220703,47631840
2026-01-14 17:06:02.561,-16801550,-68889390,45169550,-9266105,28710940,6044922,42871100
2026-01-14 17:06:02.571,-50814660,-69010240,45117770,24160050,28857420,5678711,41210940
2026-01-14 17:06:02.581,-17359160,-17751040,-6331332,-9899668,25219730,5180664,37329100
2026-01-14 17:06:02.591,-17658680,-17874470,-6449587,-10238890,22802730,5048828,3347168
2026-01-14 17:06:02.601,-5116855,-69441820,44858810,2261496,18017580,47045900,359375
2026-01-14 17:06:02.611,-18290520,-18163630,-6730116,-10953600,83862300,44384770,32421880
2026-01-14 17:06:02.621,-15340560,-69804350,44548070,-14611360,9590149,4597168,25146480
2026-01-14 17:06:02.631,-18962060,-70011510,44340910,-11714910,-61065670,34643560,1751709
2026-01-14 17:06:02.641,-51729630,-18776480,-7342963,20293070,-9637451,2434082,12512210
2026-01-14 17:06:02.651,-51876360,-70460360,43840280,19680220,-15625,16101070,7043457
2026-01-14 17:06:02.661,-52023100,-7070205,4354682,19067370,-21899410,16247560,-24795530
2026-01-14 17:06:02.671,-52169840,-70943740,43236060,18454520,-2939453,14465330,-89538580
2026-01-14 17:06:02.681,-52307940,-19851990,-8442638,17850300,-37768560,11907960,-97473140
2026-01-14 17:06:02.691,-52454680,-20140290,-8741294,17254720,-3935547,8984375,-12017820
2026-01-14 17:06:02.701,-52610060,-7167743,4219165,16685030,-4255371,7165527,-15820310
2026-01-14 17:06:02.711,-52748160,-20740190,-9367090,16132600,-45483400,49713140,-19335940
2026-01-14 17:06:02.721,-18986920,-72160800,41432040,-18301920,-45214840,-43563840,-22766110
2026-01-14 17:06:02.731,-53041640,-72385220,41034980,15096800,-49902340,-40649420,-2166748
2026-01-14 17:06:02.741,-53171110,-72609650,40637930,14604790,-4975586,-67871100,-2277832
2026-01-14 17:06:02.751,-53309220,-21958120,-10652350,14155950,-52441410,-619812,-24804690
2026-01-14 17:06:02.761,-35563360,-22259360,-10972590,31591060,-5708008,-8111572,-22973630
2026-01-14 17:06:02.771,-53550900,-73257020,39403590,13292780,-60791020,-13027190,-22058100
2026-01-14 17:06:02.781,-33487530,-17799720,-16675180,33079940,-6455078,10192870,-22277830
2026-01-14 17:06:02.791,-53775330,-23160510,-11935880,12533190,-73535150,25878910,-21154780
2026-01-14 17:06:02.801,-5387890,-73869870,38152000,1218789,-9008789,5415039,-20715330
2026-01-14 17:06:02.811,-35035100,-74059770,37737680,30824570,-10439450,87402340,-2142334
2026-01-14 17:06:02.821,-34968640,-57624200,53931570,30718400,-11289060,11601560,-17150880
2026-01-14 17:06:02.831,-54206910,-7440504,3689180,11359280,-10996090,12705080,-14807130
2026-01-14 17:06:02.841,-54319130,-7455178,3646885,11143490,-9506836,11474610,-11895750
2026-01-14 17:06:02.851,-5445722,-74698510,36045870,1095356,-7451172,8071289,-61828610
2026-01-14 17:06:02.861,-54603980,-25124220,-14080850,10772330,-55322260,33398440,31555180
2026-01-14 17:06:02.871,-32664470,-25377120,-14363110,32660050,-41333010,-111572300,1652832
2026-01-14 17:06:02.881,-25557530,-25629170,-14646230,-19033710,-2824707,-4428711,29418940
2026-01-14 17:06:02.891,-55078710,-56800740,52717950,10038630,-20593260,-6123047,44091800
2026-01-14 17:06:02.901,-34748530,-7530274,3390524,30196190,-12445070,-6635742,5444336
2026-01-14 17:06:02.911,-55389450,-75440830,33439110,9313574,-7501221,-6621094,59765620
2026-01-14 17:06:02.921,-55536190,-26756460,-15901270,8873362,-13964840,-62597660,6123047
2026-01-14 17:06:02.931,-55682930,-27084470,-16263800,8381356,-20227050,-56933590,5854492
2026-01-14 17:06:02.941,-27162150,-7596736,3189405,-20795430,-3359375,-5449219,49169920
2026-01-14 17:06:02.951,-55941880,-76148630,31350240,7311024,-45703120,-53222660,35742190
2026-01-14 17:06:02.961,-56054090,-55844340,51292000,6767234,-5830078,-5083008,24975590
2026-01-14 17:06:02.971,-28082290,-55707100,51083980,-21843320,-6767578,-4946289,11352540
2026-01-14 17:06:02.981,-56243990,-7669243,2977067,5696904,-7949219,-49389650,49072260
2026-01-14 17:06:02.991,-56321680,-7686506,2930456,5187636,-8979492,-4921875,-70373540
2026-01-14 17:06:03.001,-56364840,-29359780,-18770430,4712890,-91748050,-4814453,-16662600
2026-01-14 17:06:03.011,-56407990,-29606640,-19041470,4272678,-91064460,-46850580,-30078120
2026-01-14 17:06:03.021,-5643387,-77270740,28173780,386695,7,-92578130,-4560547,-38745120
2026-01-14 17:06:03.031,-56451150,-77365700,27906210,3487192,-9301758,-47216800,-42138670
2026-01-14 17:06:03.041,-56459780,-30125410,-19610300,3167824,-93603520,-48535160,-4987793
2026-01-14 17:06:03.051,-56459780,-3022553,-1971731,2874350,-91064460,-41625980,-5097656
2026-01-14 17:06:03.061,-29884580,-30292000,-19788980,-23977070,-83740230,-32104490,-50390620
2026-01-14 17:06:03.071,-32121050,-77572860,27422840,26712440,-7685547,-25610350,-45874020
2026-01-14 17:06:03.081,-32028690,-55007080,49988620,26597640,-6748047,-16870120,-40942380
2026-01-14 17:06:03.091,-56468410,-55007080,49988620,1950756,-63183590,-14562990,-40576170
2026-01-14 17:06:03.101,-5646842,-30325660,-19824360,174358,8,-69873050,-17663570,-39624020
2026-01-14 17:06:03.111,-31755930,-77581500,27465990,26266180,-6767578,-21704100,-38598630
2026-01-14 17:06:03.121,-31660980,-77590130,27509150,26153970,-61376950,-23742680,-40966800
2026-01-14 17:06:03.131,-29071480,-30272150,-19757040,28519050,-44189450,-17089840,-46484380
2026-01-14 17:06:03.141,-31453820,-30248840,-19728550,25912290,-29370120,-15527340,-51123050
2026-01-14 17:06:03.151,-56364830,-30242800,-19717330,759581,8,-28344730,-17297360,-5004883
2026-01-14 17:06:03.161,-56338940,-77607390,27681780,543791,7,-28173830,-21679690,-54345700
2026-01-14 17:06:03.171,-30824570,-25489420,-24436180,-25160470,-25463870,-25317380,-59765620
2026-01-14 17:06:03.181,-30999800,-30230720,-19694890,25382300,-22509770,-23400880,-67041020
2026-01-14 17:06:03.191,-56243990,-77676440,27716310,-138110,3,-2010498,-20080570,-6948242
2026-01-14 17:06:03.201,-31086110,-77693700,27699050,-25503150,-13574220,-1907959,-72753900
2026-01-14 17:06:03.211,-56174940,-7773686,2767317,-621478,3,-9301758,-1953125,-7495117
2026-01-14 17:06:03.221,-56149040,-77771380,27621360,-871804,3,-5368042,-21447750,-8046875
2026-01-14 17:06:03.231,-30353280,-30395580,-19858030,24630480,-30929560,-22424320,-8574219
2026-01-14 17:06:03.241,-27382500,-25722480,-24669240,27325050,-33966060,-24487300,-89501950
2026-01-14 17:06:03.251,-30090880,-77918130,27371040,24323190,-8105469,-23498540,-97021490
2026-01-14 17:06:03.261,-5600231,-30630360,-20106620,-186445,5,-8892822,-2397461,-10126950
2026-01-14 17:06:03.271,-55959140,-30722720,-20204160,-2097500,-22567750,-29418940,-10703130
2026-01-14 17:06:03.281,-31795630,-55114100,50002430,-26433640,6890869,-32958980,-10917970
2026-01-14 17:06:03.291,-5588145,-78177070,26870400,-250321,8,16040040,-35742190,-115625
2026-01-14 17:06:03.301,-55855570,-7824613,2673233,-2684450,20800780,-34326170,-11552730
2026-01-14 17:06:03.311,-26792630,-7829793,2659420,26205850,23425290,-28173830,-11113280
2026-01-14 17:06:03.321,-32051140,-31194010,-20716880,-26765100,24353030,-1652832,-10654300
2026-01-14 17:06:03.331,-55855560,-78392860,26257560,-3098774,24560550,-24246220,-1015625
2026-01-14 17:06:03.341,-32189240,-78427390,26050390,-26920470,23803710,15722660,-9580078
2026-01-14 17:06:03.351,-5593324,-78479180,25808710,-331459,8,19335940,3251953,-8847656
2026-01-14 17:06:03.361,-32329940,-31701550,-21296930,-27073250,13781740,49047850,-83691410
2026-01-14 17:06:03.371,-56036830,-7858276,2520451,-3538984,8557129,56396480,-8339844
2026-01-14 17:06:03.381,-56088620,-32088250,-21738870,-3659834,15002440,54248050,-81347660
2026-01-14 17:06:03.391,-32577660,-54307040,48875990,-27343420,17980960,45629880,-8022461
2026-01-14 17:06:03.401,-56174940,-32565580,-22280070,-3936048,16748050,3095703,-7792969
2026-01-14 17:06:03.411,-29082700,-78936660,23555840,23052610,22814940,11895750,-7675781
2026-01-14 17:06:03.421,-29030910,-79048880,23098370,22983560,29370120,-61157230,-7319336
2026-01-14 17:06:03.431,-26250040,-79152460,22649520,25643580,35986330,-22644040,-7265625
2026-01-14 17:06:03.441,-28935960,-33600520,-23454850,22854080,36450200,-31323240,-6738281
2026-01-14 17:06:03.451,-56330300,-7934235,2176911,-4643838,359375,-37548830,-6069336
2026-01-14 17:06:03.461,-28855690,-7943731,2134615,22744460,30981440,-37597660,-5161133
2026-01-14 17:06:03.471,-56373460,-79514980,20940450,-4842372,28735350,-33764650,-4177246
2026-01-14 17:06:03.481,-56399360,-34536200,-24521720,-4920056,24487300,-29077150,-3161621
2026-01-14 17:06:03.491,-56399360,-7969625,2015498,-4971846,1875,-265625,-24047850
2026-01-14 17:06:03.501,-56407990,-52787870,46787130,-5015004,18554690,-14794920,-19482420
2026-01-14 17:06:03.511,-33278560,-35193920,-25262320,-28144440,30151370,-8628845,-1616211
2026-01-14 17:06:03.521,-33258700,-49858880,49250010,-28129770,4580078,59814450,-107788100
2026-01-14 17:06:03.531,-33230220,-8010193,1881707,-28106460,6274414,9094238,-4071045
2026-01-14 17:06:03.541,-33183610,-80214140,18549470,-28066760,7260742,110839800,3390503
2026-01-14 17:06:03.551,-56140410,-52421020,46221760,-5006372,8383789,9423828,1262207
2026-01-14 17:06:03.561,-56062730,-8042131,1813517,-4980478,94384770,7489014,23730470
2026-01-14 17:06:03.571,-28562210,-80507630,17979780,22468250,96191410,64575200,359375
2026-01-14 17:06:03.581,-55924620,-52346790,46071560,-4945950,9189453,1789856,4428711
2026-01-14 17:06:03.591,-28504380,-36397180,-26562250,22422500,76416020,-18951420,59765620
2026-01-14 17:06:03.601,-55821040,-8070615,1755685,-4980476,5185547,-42053220,7216797
2026-01-14 17:06:03.611,-55786510,-36586220,-26770270,-5049532,32836910,-20996090,84472660
2026-01-14 17:06:03.621,-32991120,-36701020,-26897160,-27931240,11553960,14282230,9428711
2026-01-14 17:06:03.631,-55743360,-36830490,-27043900,-5299852,-52246100,592041,10283200
2026-01-14 17:06:03.641,-5573472,-8092195,1671956,-549838,2,-23388670,6781006,10888670
2026-01-14 17:06:03.651,-55726090,-51912620,45452670,-5748698,-32104490,-15899660,10947270
2026-01-14 17:06:03.661,-55726100,-37367380,-27663650,-6042174,-42773440,-16064450,10507810
2026-01-14 17:06:03.671,-27782770,-81085950,15588810,21573140,-4777832,-31933590,9472656
2026-01-14 17:06:03.681,-55743350,-51430100,44830330,-6749970,-5048828,-44360350,8417969
2026-01-14 17:06:03.691,-55751990,-38041520,-28456900,-7155664,-46533200,-5830078,7216797
2026-01-14 17:06:03.701,-55760620,-8120679,1422503,-7578612,-35351560,-7036133,6513672
2026-01-14 17:06:03.711,-55777880,-8122405,1377618,-8027458,-27514650,-77685540,5654297
2026-01-14 17:06:03.721,-55803780,-38669900,-29209580,-8484938,-19897460,-8256836,52734380
2026-01-14 17:06:03.731,-26682230,-8124133,1296479,20205020,-1459961,-84472660,51123050
2026-01-14 17:06:03.741,-34950510,-50344240,43482060,-30304950,-13134770,-79541020,50341800
2026-01-14 17:06:03.751,-35172350,-39138600,-29793950,-30566490,-14111330,-7583008,5131836
2026-01-14 17:06:03.761,-5594190,-39259450,-29949320,-1029760,-16955570,-69873050,5449219
2026-01-14 17:06:03.771,-35623780,-39363030,-30087430,-31099060,-21020510,-67333980,5810547
2026-01-14 17:06:03.781,-35844750,-81060050,11367920,-31361460,-23901370,-63916020,57714840
2026-01-14 17:06:03.791,-56054100,-8100826,1110899,-11652760,-28100590,-62841800,54052740
2026-01-14 17:06:03.801,-36293600,-39643550,-30462900,-31896620,-34448240,-5913086,4790039
2026-01-14 17:06:03.811,-36520620,-39732460,-30581160,-32170250,-39819340,-5605469,3881836
2026-01-14 17:06:03.821,-24969710,-8086154,1037528,18050560,-40893560,-49902340,31689450
2026-01-14 17:06:03.831,-56105880,-39868840,-30772780,-13586250,-46289060,-41748050,22668460
2026-01-14 17:06:03.841,-56114510,-48881180,41803200,-14095530,-5136719,-24938960,119262700
2026-01-14 17:06:03.851,-56123150,-8065436,977107,9,-14622060,-6118164,-6890869,13175960
2026-01-14 17:06:03.861,-35836550,-80568050,9598424,-35426550,-7480469,22338870,-14086910
2026-01-14 17:06:03.871,-23848450,-80481730,9443053,16668620,-8696289,50634770,-2705078
2026-01-14 17:06:03.881,-23624900,-40028530,-31061940,16391550,-9560547,9321289,-3947754
2026-01-14 17:06:03.891,-23409960,-8027458,914958,1,16123100,-10546880,12001950,-5751953
2026-01-14 17:06:03.901,-56226730,-48140580,41024620,-17194300,-12373050,13300780,-7416992
2026-01-14 17:06:03.911,-22955940,-8005016,887337,1,15558590,-12841800,12988280,-8847656
2026-01-14 17:06:03.921,-56261250,-7992930,875254,1,-18264620,-12236330,11855470,-9633789
2026-01-14 17:06:03.931,-5626126,-7980846,864894,3,-1881706,-11132810,9248047,-10791020
2026-01-14 17:06:03.941,-39659090,-47680500,40569740,-35971640,-9951172,6479492,-11601560
2026-01-14 17:06:03.951,-39914590,-79558140,8519460,-36285830,-91845700,39404300,-12783200
2026-01-14 17:06:03.961,-56235360,-39855030,-31062810,-20552020,-8286133,92285150,-13720700
2026-01-14 17:06:03.971,-5620947,-7928193,851946,6,-2114761,-7685547,-16259770,-14570310
2026-01-14 17:06:03.981,-5617492,-47384440,40330640,-2175185,-7211914,-3173828,-15742190
2026-01-14 17:06:03.991,-20825640,-39514940,-30746890,12976000,-63134770,-45166020,-16650390
2026-01-14 17:06:04.001,-20541660,-39350940,-30582880,12638500,-57421880,-5732422,-17871090
2026-01-14 17:06:04.011,-20257680,-39155860,-30380900,12301000,-56591800,-7036133,-18720700
2026-01-14 17:06:04.021,-19989230,-7847919,939127,2,11982490,-5361328,-8154297,-19794920
2026-01-14 17:06:04.031,-19737190,-38694940,-29892350,11682110,-4855957,-8852539,-20761720
2026-01-14 17:06:04.041,-55933250,-47526860,40723380,-25049120,-45532230,-9472656,-22011720
2026-01-14 17:06:04.051,-55898720,-38140780,-29289860,-25480700,-4567871,-10605470,-23066410
2026-01-14 17:06:04.061,-55855570,-77797280,11022650,-25869130,-4033203,-11767580,-23417970
2026-01-14 17:06:04.071,-18922360,-77633280,11549180,10718810,-35766600,-12099610,-23339840
2026-01-14 17:06:04.081,-55829670,-7745201,1209300,-26481980,-27661130,-121875,-23476560
2026-01-14 17:06:04.091,-55846940,-7727074,1267132,-26706400,-21142580,-12050780,-22890620
2026-01-14 17:06:04.101,-14914930,-48362410,41976700,14087500,-124816900,-115625,-22265620
2026-01-14 17:06:04.111,-18603850,-76925480,13810680,10312260,-10955810,-10957030,-2171875
2026-01-14 17:06:04.121,-55976410,-48668830,42429860,-27094830,3262329,-10478520,-21171880
2026-01-14 17:06:04.131,-43040980,-76580220,14863750,-40151100,17578120,-96533200,-21171880
2026-01-14 17:06:04.141,-56123150,-7643347,1532125,-27172510,29144290,-82958980,-21230470
2026-01-14 17:06:04.151,-18670310,-76286740,15726910,10332110,8239746,-6533203,-21601560
2026-01-14 17:06:04.161,-5625263,-34658760,-25434950,-2718116,13378910,-5878906,-21738280
2026-01-14 17:06:04.171,-56313040,-7607957,1636568,-27155250,18041990,-5498047,-22558590
2026-01-14 17:06:04.181,-56347570,-34341110,-25079330,-27120720,22387700,-6347656,-23574220
2026-01-14 17:06:04.191,-18836900,-34227180,-24951580,10493530,22216800,-7807617,-24921880
2026-01-14 17:06:04.201,-56399360,-75950100,16943980,-26965350,24389650,-89160160,-25957030
2026-01-14 17:06:04.211,-18957750,-7594147,1709072,10631630,29174800,-9819336,-26738280
2026-01-14 17:06:04.221,-56451150,-49530280,43657290,-26671880,31274410,-10488280,-27089840
2026-01-14 17:06:04.231,-19157140,-7597601,1736694,10863830,29663090,-11611330,-27734380
2026-01-14 17:06:04.241,-56520200,-33919890,-24568330,-26188500,26953120,-12519530,-27636720
2026-01-14 17:06:04.251,-19486870,-76036420,17669040,11241890,18408200,-13291020,-2734375
2026-01-14 17:06:04.261,-56666940,-33809400,-24419870,-25472070,8135986,-1390625,-265625
2026-01-14 17:06:04.271,-19953840,-49964450,44155330,11776190,-4953003,-14638670,-25585940
2026-01-14 17:06:04.281,-56865470,-7613999,1822149,-24513960,-17810060,-14755860,-24570310
2026-01-14 17:06:04.291,-20576190,-33611740,-24151430,12483130,-30664060,-14912110,-234375
2026-01-14 17:06:04.301,-20930950,-76234950,18627150,12887950,-40673830,-14599610,-22128910
2026-01-14 17:06:04.311,-57262530,-47580620,47523170,-22597730,-5029297,-14296880,-20996090
2026-01-14 17:06:04.321,-5741791,-33425300,-23889020,-2183815,-63964840,-13984380,-20019530
2026-01-14 17:06:04.331,-57581900,-76398940,19222740,-21018130,-7285156,-13544920,-18925780
2026-01-14 17:06:04.341,-57745900,-7645936,1942129,-20146330,-81103520,-12890630,-18095700
2026-01-14 17:06:04.351,-57909900,-7652842,1959393,-19222740,-9038086,-12011720,-16855470
2026-01-14 17:06:04.361,-23738830,-33233680,-23597270,16104980,-10068360,-11152340,-15742190
2026-01-14 17:06:04.371,-5826381,-33193100,-23534260,-1721157,-11201170,-10166020,-14833980
2026-01-14 17:06:04.381,-24875630,-33152540,-23471250,17419580,-12060550,-8378906,-13730470
2026-01-14 17:06:04.391,-5860906,-76778740,20241280,-1500188,-12460940,-671875,-12675780
2026-01-14 17:06:04.401,-58773070,-33086070,-23365080,-13836570,-12949220,-46411130,-11513670
2026-01-14 17:06:04.411,-26737470,-76865060,20500230,19580090,-13017580,-22106930,-99560540
2026-01-14 17:06:04.421,-37638420,-7690821,2061246,-32865100,-13427730,59570310,-82177740
2026-01-14 17:06:04.431,-59273710,-32986810,-23222650,-10124960,-14404300,27270510,-68896480
2026-01-14 17:06:04.441,-28704630,-32958320,-23182080,21876980,-15009770,42382810,-5263672
2026-01-14 17:06:04.451,-59567180,-51727040,46121630,-7552716,-15097660,5151367,-3552246
2026-01-14 17:06:04.461,-5969667,-32872000,-23078510,-624934,7,-14179690,5756836,-17553710
2026-01-14 17:06:04.471,-30670060,-76916850,21104440,24192850,-12763670,6582031,-10375980
2026-01-14 17:06:04.481,-59938350,-32724410,-22915370,-3659834,-11552730,6586914,1508789
2026-01-14 17:06:04.491,-60059190,-7677874,2136342,-2365080,-10351560,6074219,3569336
2026-01-14 17:06:04.501,-60180030,-76666530,21510140,-1087594,-93359380,5727539,5810547
2026-01-14 17:06:04.511,-60300880,-27913880,-26931770,155368,-88183590,60253900,8378906
2026-01-14 17:06:04.521,-60430350,-76373060,21872670,1372430,-8364258,6484375,10898440
2026-01-14 17:06:04.531,-29317910,-76183160,22062560,-28686940,-76660160,7441406,13339840
2026-01-14 17:06:04.541,-35019560,-75993260,22252460,29320930,-66748050,88378900,16230470
2026-01-14 17:06:04.551,-60766990,-31591930,-21769080,4747418,-55908200,98779300,18789060
2026-01-14 17:06:04.561,-30884130,-75604830,22589090,-24220480,-4128418,12099610,21230470
2026-01-14 17:06:04.571,-60948250,-75414940,22709940,6724068,-36254880,13955080,22929690
2026-01-14 17:06:04.581,-61025940,-31117190,-21311600,7613132,-30200200,15322270,24804690
2026-01-14 17:06:04.591,-61094990,-75078300,22873940,8441774,-2890625,15957030,2609375
2026-01-14 17:06:04.601,-29490980,-74931570,22899840,-22454440,-21154780,16855470,26875
2026-01-14 17:06:04.611,-61207200,-51449100,46261460,9935056,-10974120,16376950,27519530
2026-01-14 17:06:04.621,-28901440,-30748610,-20989640,-21714710,-22399900,15419920,27558590
2026-01-14 17:06:04.631,-28626080,-3066488,-2091799,-21368570,10723880,14121090,27128910
2026-01-14 17:06:04.641,-28358500,-74379140,22986150,-21031940,2746582,12324220,26210940
2026-01-14 17:06:04.651,-6135396,-30440460,-20710840,1256771,3449707,10820310,25644530
2026-01-14 17:06:04.661,-61379840,-30291130,-20566690,13197830,34375,91064460,25097660
2026-01-14 17:06:04.671,-61397100,-51154760,46106960,13819310,36206060,6982422,24941410
2026-01-14 17:06:04.681,-61397100,-51157340,46156150,14458050,46362300,50097660,25664060
2026-01-14 17:06:04.691,-26973120,-29609230,-19867520,-19327180,64501950,29174800,26484380
2026-01-14 17:06:04.701,-26683100,-29306260,-19549010,-18978470,8496094,1685791,28046880
2026-01-14 17:06:04.711,-22907950,-7298080,2478155,-22132130,10205080,7788086,29277340
2026-01-14 17:06:04.721,-26122900,-2865284,-1885588,-18312960,11894530,13252260,30605470
2026-01-14 17:06:04.731,-22325910,-72488800,25705130,-21540260,13564450,-8428955,31894530
2026-01-14 17:06:04.741,-25614490,-27959720,-18116160,-17716510,14707030,-16906740,32753910
2026-01-14 17:06:04.751,-6109500,-27626540,-17758810,1823009,14863280,-15197750,33125
2026-01-14 17:06:04.761,-61051830,-27309760,-17419580,18584000,14794920,-8093262,32890620
2026-01-14 17:06:04.771,-61000050,-27002470,-17088120,18860210,15654300,-284729,32167970
2026-01-14 17:06:04.781,-60974150,-26728850,-16792060,19076000,17304690,-25268560,31191410
2026-01-14 17:06:04.791,-60948250,-50002340,49572660,19222740,18613280,-54504400,29824220
2026-01-14 17:06:04.801,-24822970,-71116360,28648530,-16798970,18564450,-16870120,28886720
2026-01-14 17:06:04.811,-24814340,-25999470,-16002260,-16790330,178125,-3022461,27949220
2026-01-14 17:06:04.821,-24846270,-70874670,29287270,-16827450,16640630,-4831543,27109380
2026-01-14 17:06:04.831,-24892890,-25613630,-15576720,-16884420,16386720,-62060550,25546880
2026-01-14 17:06:04.841,-24970570,-52329520,48246740,-16979370,15175780,-7373047,2375
2026-01-14 17:06:04.851,-41951660,-52423620,48377080,37735950,14462890,-7817383,21582030
2026-01-14 17:06:04.861,-6091372,-7058983,3046981,1851494,13798830,-8071289,19902340
2026-01-14 17:06:04.871,-25285630,-70538040,30780550,-17372110,13564450,-6767578,18251950
2026-01-14 17:06:04.881,-21869640,-24777220,-14617740,-21081570,13583980,-5234375,165625
2026-01-14 17:06:04.891,-6086194,-7044310,3142793,1759999,13320310,-27124020,15996090
2026-01-14 17:06:04.901,-25699950,-70399940,31747300,-17890010,12900390,-37719730,16005860
2026-01-14 17:06:04.911,-25854460,-24274000,-14033380,-18080770,11259770,2467041,16367190
2026-01-14 17:06:04.921,-60836040,-24130710,-13865920,16538290,10234380,5649414,16005860
2026-01-14 17:06:04.931,-26188500,-7029635,3255869,-18489050,93847660,82910160,15507810
2026-01-14 17:06:04.941,-40561100,-23926140,-13621640,36053640,8833008,10341800,14892580
2026-01-14 17:06:04.951,-26556210,-7029635,3290396,-18932710,85302740,11767580,13955080
2026-01-14 17:06:04.961,-60905090,-70304980,32998890,14950060,86035150,12294920,13046880
2026-01-14 17:06:04.971,-26992970,-70330880,33042050,-19445440,8334961,11435550,11777340
2026-01-14 17:06:04.981,-27240700,-23823420,-13482680,-19732870,8120117,10175780,10449220
2026-01-14 17:06:04.991,-61120890,-23849320,-13508570,13577620,7314453,859375,9555664
2026-01-14 17:06:05.001,-61224460,-7041721,3297303,13059730,63671880,73095700,8666992
2026-01-14 17:06:05.011,-6134531,-5354746,4979096,1250730,6147461,66552740,80126950
2026-01-14 17:06:05.021,-28450000,-24023680,-13696740,-21113080,64208980,57373050,74121100
2026-01-14 17:06:05.031,-28803900,-7055530,3264501,-21518760,6308594,54248050,69970700
2026-01-14 17:06:05.041,-29189730,-2423169,-1392029,-21961570,55322260,53027340,62402340
2026-01-14 17:06:05.051,-61837310,-70719310,32291100,9822844,43774420,54052740,50683590
2026-01-14 17:06:05.061,-26819480,-24515680,-14223270,-26109950,29174800,58935550,36254880
2026-01-14 17:06:05.071,-6201857,-70952370,31885410,817416,8,15075680,6430664,15100100
2026-01-14 17:06:05.081,-62079000,-24844550,-14567670,7319660,26123050,7626953,-60028080
2026-01-14 17:06:05.091,-62122160,-25013730,-14743760,6447862,-106933600,8876953,-25927730
2026-01-14 17:06:05.101,-62130790,-53335980,49329160,5576062,-24182130,95654300,-5107422
2026-01-14 17:06:05.111,-36291870,-71487530,31177610,30551810,-33422850,97021490,-7783203
2026-01-14 17:06:05.121,-62079000,-71608370,31108560,3884248,-41064450,8979492,-10078130
2026-01-14 17:06:05.131,-62018580,-25424600,-15144270,3081510,-56591800,7314453,-12128910
2026-01-14 17:06:05.141,-35116240,-71755110,31203510,29155200,-6503906,53271480,-13486330
2026-01-14 17:06:05.151,-33270790,-53612190,49570840,-26926510,-7011719,38232420,-13916020
2026-01-14 17:06:05.161,-33483130,-25250240,-14904310,-27214800,-6748047,31152340,-13291020
2026-01-14 17:06:05.171,-61543840,-71789640,31980360,397055,7,-60498050,29223630,-11972660
2026-01-14 17:06:05.181,-33701510,-20209340,-19168360,27548850,-5727539,33569340,-103125
2026-01-14 17:06:05.191,-33974270,-71686050,32774470,-27914840,-5263672,36450200,-90771490
2026-01-14 17:06:05.201,-34097700,-54333800,50489260,-28102150,-45629880,40234380,-75634770
2026-01-14 17:06:05.211,-60913720,-71565220,33603110,-1579596,-42456060,51904300,-5839844
2026-01-14 17:06:05.221,-60749720,-71504790,34008800,-2037078,-5029297,62841800,-45141600
2026-01-14 17:06:05.231,-60577090,-23832920,-13248760,-2468660,-59716800,6508789,-40942380
2026-01-14 17:06:05.241,-34527560,-23657690,-13044180,-28777140,-5966797,6196289,-35839840
2026-01-14 17:06:05.251,-60231820,-23517000,-12874140,-3314560,-53808590,5864258,-3227539
2026-01-14 17:06:05.261,-60059190,-71392580,35294920,-3746150,-5566406,5004883,-3256836
2026-01-14 17:06:05.271,-59886560,-7140121,3552800,-4160470,-5859375,37573240,-39208980
2026-01-14 17:06:05.281,-30784860,-71401210,35735130,24354260,-5864258,2109375,-4440918
2026-01-14 17:06:05.291,-59567180,-23113900,-12379540,-4997740,-59033200,6628418,-5131836
2026-01-14 17:06:05.301,-59411810,-5375825,5375792,-5412060,-5810547,-7952881,-60302740
2026-01-14 17:06:05.311,-27057620,-22984420,-12215550,26406970,-58740230,-18469240,-6660156
2026-01-14 17:06:05.321,-59144240,-7144437,3638254,-6180280,-6425781,-3154297,-72998050
2026-01-14 17:06:05.331,-59023380,-71444370,36503350,-6542811,-67578130,-4169922,-7651367
2026-01-14 17:06:05.341,-58911180,-71444370,36624200,-6879449,-67333980,-46606440,-8071289
2026-01-14 17:06:05.351,-29099960,-71444370,36745040,22500180,-66552740,-56591800,-84277340
2026-01-14 17:06:05.361,-58704020,-7144437,3684865,-7500922,-6538086,-69873050,-86083980
2026-01-14 17:06:05.371,-33442910,-22665910,-11826260,-32934670,-6201172,-7949219,-84472660
2026-01-14 17:06:05.381,-58505490,-71444370,37038520,-8044723,-5913086,-8354492,-82177740
2026-01-14 17:06:05.391,-35850800,-22596860,-11739940,-30837520,-6044922,-9042969,-8227539
2026-01-14 17:06:05.401,-33662410,-22574420,-11710590,-33164010,-58935550,-9711914,-77441410
2026-01-14 17:06:05.411,-28136670,-56066180,52641130,21443670,-6035156,-10449220,-7402344
2026-01-14 17:06:05.421,-35976820,-71487520,37271570,-31039500,-60058590,-11435550,-7348633
2026-01-14 17:06:05.431,-35994080,-22547660,-11668300,-31074030,-57470700,-12060550,-7416992
2026-01-14 17:06:05.441,-27903610,-71530690,37297460,21193350,-54003900,-13134770,-7446289
2026-01-14 17:06:05.451,-27877720,-7154796,3729748,21167460,-53759770,-13955080,-72314460
2026-01-14 17:06:05.461,-58056640,-22577010,-11690740,-9011466,-5024414,-14736330,-66845700
2026-01-14 17:06:05.471,-58065270,-22602040,-11717500,-8951046,-4169922,-14423830,-6015625
2026-01-14 17:06:05.481,-5806526,-71599740,37228410,-886476,1,-3227539,-13251950,-50097660
2026-01-14 17:06:05.491,-58082540,-22678000,-11796910,-8761148,-3095703,-10947270,-3244629
2026-01-14 17:06:05.501,-28058980,-71686060,37073040,21383240,-3095703,-8666992,-2084961
2026-01-14 17:06:05.511,-58099800,-71755110,36952200,-8571256,-3137207,-67529300,-125
2026-01-14 17:06:05.521,-3577223,-71850060,36805460,-3081252,-33789060,-49658200,-7751465
2026-01-14 17:06:05.531,-58056640,-23091460,-12229350,-8424514,-36914060,-35473630,-38635260
2026-01-14 17:06:05.541,-35672120,-23226970,-12370050,-30705460,-41186520,-1385498,-7763672
2026-01-14 17:06:05.551,-57978960,-56061000,52473680,-8277777,-45458980,85372930,-16040040
2026-01-14 17:06:05.561,-57935800,-18608680,-17523500,-8148300,-54589840,23828120,-21679690
2026-01-14 17:06:05.571,-35444240,-23586050,-12736030,-30449960,-62060550,6352539,-2154541
2026-01-14 17:06:05.581,-57901270,-7248017,3602000,-7733980,-5859375,115625,-114868200
2026-01-14 17:06:05.591,-5791855,-18815840,-17730670,-744051,-46777340,1578125,22201540
2026-01-14 17:06:05.601,-57935800,-72540590,35994090,-7095239,-27319340,17851560,2619629
2026-01-14 17:06:05.611,-57970320,-23667190,-12810270,-6715440,6512451,1703125,58496100
2026-01-14 17:06:05.621,-58013480,-23592090,-12729990,-6344280,37109380,13789060,796875
2026-01-14 17:06:05.631,-58056650,-7239385,3627895,-5990382,61816410,99902340,8754883
2026-01-14 17:06:05.641,-34522380,-23356450,-12482260,-29282960,86621100,63623050,10224610
2026-01-14 17:06:05.651,-58142960,-56190480,52637680,-5489749,11113280,56396480,13613280
2026-01-14 17:06:05.661,-34413620,-7204858,3686590,-29132760,12285160,7475586,17265620
2026-01-14 17:06:05.671,-34416210,-71936370,37064410,-29130180,12744140,85058590,19648440
2026-01-14 17:06:05.681,-29576430,-22743600,-11834890,23214890,13857420,93603520,21582030
2026-01-14 17:06:05.691,-58186120,-22643470,-11727850,-5584692,14404300,10439450,22304690
2026-01-14 17:06:05.701,-58142960,-22568380,-11647580,-5852276,14287110,10810550,20898440
2026-01-14 17:06:05.711,-58065270,-22537300,-11609600,-6206174,13935550,10029300,19335940
2026-01-14 17:06:05.721,-28891940,-22539890,-11607010,22431990,12587890,9140625,18671880
2026-01-14 17:06:05.731,-57832220,-71789630,37625460,-7112505,10439450,79296870,16953120
2026-01-14 17:06:05.741,-57668220,-17646850,-16551840,-7621768,8598633,65283200,14970700
2026-01-14 17:06:05.751,-57486950,-22588230,-11627730,-8131038,7348633,58740230,13037110
2026-01-14 17:06:05.761,-57279790,-71988160,37772210,-8648938,6557617,5161133,10400390
2026-01-14 17:06:05.771,-57055370,-22577870,-11586290,-9166840,6166992,4020996,8378906
2026-01-14 17:06:05.781,-26881620,-72083120,38022530,20230050,54345700,3305664,7104492
2026-01-14 17:06:05.791,-35704920,-72100380,38229690,-31069710,43896480,37109380,6430664
2026-01-14 17:06:05.801,-5632168,-22342230,-11286780,-1072918,3984375,48168940,59521480
2026-01-14 17:06:05.811,-35896540,-57072630,53740810,-31413260,31884770,49658200,47924800
2026-01-14 17:06:05.821,-5582104,-22030620,-10925110,-1174772,21691900,48901370,41723630
2026-01-14 17:06:05.831,-55579350,-21845040,-10713630,-12248350,7208252,58691410,4116211
2026-01-14 17:06:05.841,-36180520,-71850060,39705710,-31923390,-60913090,7133789,39086910
2026-01-14 17:06:05.851,-55087340,-57483500,54313950,-13310040,-122558600,7060547,31933590
2026-01-14 17:06:05.861,-23919230,-57575000,54446880,17046690,-1430664,58935550,24401860
2026-01-14 17:06:05.871,-36541330,-21044880,-9821980,-32529330,-112976100,484375,16723630
2026-01-14 17:06:05.881,-5434503,-20864480,-9622590,-1508818,-14831540,40063480,7659912
2026-01-14 17:06:05.891,-5410332,-71349420,41207610,-1572694,-2121582,23950200,-34423830
2026-01-14 17:06:05.901,-22251590,-2055030,-928076,8,15227140,-30932620,42297360,-12817380
2026-01-14 17:06:05.911,-53637220,-57867610,54913850,-17038920,-41870120,-7446289,-23010250
2026-01-14 17:06:05.921,-21414320,-20291340,-9004561,14303550,-51660160,-15368650,-41088870
2026-01-14 17:06:05.931,-21004320,-20173090,-8881129,13850380,-6201172,-2265625,-5419922
2026-01-14 17:06:05.941,-20595170,-20054830,-8757697,13396360,-7416992,-22387700,-70214850
2026-01-14 17:06:05.951,-36375600,-19943480,-8644620,-36044150,-84765620,-2175293,-9536133
2026-01-14 17:06:05.961,-19783800,-70684780,42338360,12498660,-8417969,-2524414,-11347660
2026-01-14 17:06:05.971,-52368370,-7056393,4247649,-20931810,-8486328,-36108400,-12207030
2026-01-14 17:06:05.981,-5216985,-19558510,-8252745,-2157920,-86621100,-38867190,-12998050
2026-01-14 17:06:05.991,-51971310,-19411770,-8106003,-22209300,-88964850,-44213870,-13603520
2026-01-14 17:06:06.001,-18205930,-19256400,-7950634,10744710,-81640620,-5209961,-14462890
2026-01-14 17:06:06.011,-17831310,-6995110,4308933,10325210,-7861328,-6381836,-15166020
2026-01-14 17:06:06.021,-17473100,-5653347,5650696,9923836,-82666020,-7651367,-15361330
2026-01-14 17:06:06.031,-51272140,-69588560,43434590,-24634800,-8569336,-7446289,-15585940
2026-01-14 17:06:06.041,-51108140,-18545150,-7246288,-25213120,-84277340,-6772461,-16513670
2026-01-14 17:06:06.051,-50952780,-6919149,4377987,-25782810,-76660160,-66308590,-16826170
2026-01-14 17:06:06.061,-50780140,-13089240,-11959870,-26352500,-7324219,-7060547,-17265620
2026-01-14 17:06:06.071,-5059886,-68794450,44107860,-2693086,-72802740,-73779300,-17978520
2026-01-14 17:06:06.081,-15358340,-17805420,-6518641,7567389,-6699219,-7919922,-18144530
2026-01-14 17:06:06.091,-50236340,-57614700,55218540,-28052940,-5727539,-8339844,-178125
2026-01-14 17:06:06.101,-14671260,-17439440,-6159563,6804349,-54785160,-8310547,-17363280
2026-01-14 17:06:06.111,-14343250,-17246950,-5972255,6441818,-5263672,-7192383,-17646480
2026-01-14 17:06:06.121,-14032510,-6778455,4492788,6096552,-47314450,-6484375,-18056640
2026-01-14 17:06:06.131,-49588970,-67577380,45083240,-30098650,-3864746,-62158200,-1671875
2026-01-14 17:06:06.141,-13435200,-67370220,45238600,5433636,-37158200,-5756836,-16416020
2026-01-14 17:06:06.151,-49295490,-67145790,45411240,-31030870,-31420900,-47729490,-15957030
2026-01-14 17:06:06.161,-4031944,-16286240,-5033993,-4031767,-2277832,-3557129,-16289060
2026-01-14 17:06:06.171,-12609150,-16067860,-4820790,4516092,-14123540,-18444820,-1609375
2026-01-14 17:06:06.181,-41432040,-66429360,46006820,-39774760,-11791990,5924225,-15517580
2026-01-14 17:06:06.191,-12075710,-15581040,-4340869,3927411,-17687990,26879880,-13769530
2026-01-14 17:06:06.201,-11812440,-65885580,46498830,3638248,-26098630,57373050,-12607420
2026-01-14 17:06:06.211,-7850506,-65609360,46775050,7030496,-18115230,82128900,-11962890
2026-01-14 17:06:06.221,-48268320,-65298620,47085790,-33974270,-12878420,11738280,-9272461
2026-01-14 17:06:06.231,-48095690,-64979250,47405160,-34388600,64453120,14169920,-8671875
2026-01-14 17:06:06.241,-42008640,-140523700,-28139250,-40700080,29760740,16220700,-7392578
2026-01-14 17:06:06.251,-103795900,-13664800,-2424633,20845500,40429690,20449220,-60546880
2026-01-14 17:06:06.261,-47491480,-81752310,-70510420,-35700610,6323242,24277340,-69921870
2026-01-14 17:06:06.271,-9713223,-12785240,-1543343,1369847,74316410,26132810,-5800781
2026-01-14 17:06:06.281,-55542230,-62907640,49528550,47174690,6816406,30019530,-24597170
2026-01-14 17:06:06.291,-8865596,-62624000,-61499470,473876,5,6738281,31054690,-616,0736
2026-01-14 17:06:06.301,-46213980,-61958160,50529820,-37910320,82666020,31503910,35766600
2026-01-14 17:06:06.311,-7815981,-10838790,411730,7,-617165,10361330,35410160,65478520
2026-01-14 17:06:06.321,-45264500,-10313120,939128,6,-39256850,12529300,39921880,4650879
2026-01-14 17:06:06.331,-66170420,-9769328,1482925,-18523570,14414060,42890620,22167970
2026-01-14 17:06:06.341,-21421230,-9216902,2035350,12932840,13828130,44570310,-22613520
2026-01-14 17:06:06.351,-14179250,-59273710,53214280,5673598,11503910,42734380,-2446289
2026-01-14 17:06:06.361,-20278830,-3039559,-1915022,19426880,94140620,37578120,-43554690
2026-01-14 17:06:06.371,2380616,-7536315,3703851,-10912160,67822260,34492190,-375
2026-01-14 17:06:06.381,-26723660,-19082900,-7847917,-58660860,43017580,32675780,-46118160
2026-01-14 17:06:06.391,-16978500,-13468860,-2240782,-68423280,28051760,29394530,-7607422
2026-01-14 17:06:06.401,-39110110,-76813270,35381230,-46274410,17773440,26875,-10390630
2026-01-14 17:06:06.411,352175,-52420160,59670770,-8883722,14196780,22597660,-12216800
2026-01-14 17:06:06.421,56284130,-46490200,65479880,-57136080,-1385498,20195310,-14023440
2026-01-14 17:06:06.431,25066380,9859103,21042300,-110105600,-47680660,15898440,-16416020
2026-01-14 17:06:06.441,36227140,15909910,27075840,-121042000,-7451172,9970703,-17402340
2026-01-14 17:06:06.451,4766411,2213421,3328115,-13222000,-953125,5644531,-17617190
2026-01-14 17:06:06.461,5929963,28360230,39484730,-14354470,-10703130,120910600,-19521480
2026-01-14 17:06:06.471,7103873,-15355750,95630320,-15493860,-10556640,-40405270,-19833980
2026-01-14 17:06:06.481,8280365,-889925,10177610,-16630650,-10302730,-88964850,-19960940
2026-01-14 17:06:06.491,9466361,-49908340,60421720,-17775210,-11865230,-13535160,-19003910
2026-01-14 17:06:06.501,-2655103,372025,11367050,-5608862,-13447270,-18212890,-18154300
2026-01-14 17:06:06.511,11791740,9883264,119419200,-20007360,-146875,-21757810,-17871090
2026-01-14 17:06:06.521,12930250,64892920,75803360,-21095810,-15664060,-23925780,-19287110
2026-01-14 17:06:06.531,14053240,21285700,129941200,-22165280,-15078130,-29140620,-19521480
2026-01-14 17:06:06.541,-38365200,2625758,13446420,-42202840,-14150390,-32714840,-17578120
2026-01-14 17:06:06.551,16243090,79203380,89977440,-24239460,-14091800,-35097660,-16669920
2026-01-14 17:06:06.561,-18394100,8293748,9366663,-60948260,-14335940,-37773440,-16318360
2026-01-14 17:06:06.571,-17073450,-44271850,62571000,-61630160,-14199220,-40351560,-13876950
2026-01-14 17:06:06.581,-15770070,4095733,14738590,-62243000,-12919920,-4359375,-10214840
2026-01-14 17:06:06.591,20276670,-43365530,62665960,-28008920,-11367190,-45625,-69677740
2026-01-14 17:06:06.601,21164860,-4297710,6269185,-28829790,-10,-46484380,-57958980
2026-01-14 17:06:06.611,-35408860,4781950,15312590,-40567140,-83203130,-47070310,-39746100
2026-01-14 17:06:06.621,-3767460,4989108,15485220,-3767991,-64404300,-46875,-100097700
2026-01-14 17:06:06.631,23451400,-41898150,62735010,-30928150,-3569336,-46679690,1965332
2026-01-14 17:06:06.641,24100500,-41526980,62760900,-31522010,-8428955,-44765620,59375
2026-01-14 17:06:06.651,-8519462,5627855,16020390,-65246820,42633060,-42265620,8364258
2026-01-14 17:06:06.661,25177730,5896298,16252580,-32516380,21713260,-37871100,9868164
2026-01-14 17:06:06.671,25606730,-40258130,62924900,-32916030,52368160,-34296880,11279300
2026-01-14 17:06:06.681,-6836290,-3980926,6301123,-66049580,5328369,-30898440,12109380
2026-01-14 17:06:06.691,26262730,6737024,16982820,-33537510,9942627,-27695310,13261720
2026-01-14 17:06:06.701,2651651,7005467,17215010,-3378437,10357670,-24609380,14033200
2026-01-14 17:06:06.711,-596448,7264417,17439440,-6667968,6097412,-22167970,14443360
2026-01-14 17:06:06.721,-5791856,-3815198,6327018,-66869580,-22232060,-18476560,15361330
2026-01-14 17:06:06.731,-33286320,7684782,17795920,-39426900,-519104,-14326170,14951170
2026-01-14 17:06:06.741,-5550166,-3753049,6328744,-67232110,-41534420,-11230470,13105470
2026-01-14 17:06:06.751,27327880,7946321,18000490,-34613020,-11268620,-83447260,12216800
2026-01-14 17:06:06.761,27453040,8018827,18048830,-34746810,-51361080,-6557617,10820310
2026-01-14 17:06:06.771,27560940,8038680,18046240,-34863330,48034670,-57958980,11298830
2026-01-14 17:06:06.781,-5239426,-3691764,6296807,-67888120,18835450,-46606440,11865230
2026-01-14 17:06:06.791,-36309910,12492280,13489070,-36938470,31054690,-40942380,12060550
2026-01-14 17:06:06.801,-517900,3,-3680546,6268322,-6820749,44091800,-3557129,10458980
2026-01-14 17:06:06.811,27913970,7921289,17852890,-35269890,5341797,-29638670,92333980
2026-01-14 17:06:06.821,27965760,-36727780,62398380,-35338940,59472660,-1821289,87402340
2026-01-14 17:06:06.831,-33799910,-36667350,62268900,-40139020,62109380,-11833190,9165039
2026-01-14 17:06:06.841,28023600,7837561,17712190,-35436480,57177740,119384800,9589844
2026-01-14 17:06:06.851,-34001890,7837563,17694940,-40351350,5644531,20532230,9267578
2026-01-14 17:06:06.861,-553289,8,7846193,17686300,-6902750,5185547,27685550,85595700
2026-01-14 17:06:06.871,27999430,-36339350,61906370,-35477910,5883789,22717280,81884770
2026-01-14 17:06:06.881,27962310,7904889,17713920,-35463230,6020508,18725590,71972660
2026-01-14 17:06:06.891,-5929962,-36132180,61820050,-69286450,4560547,1821289,49438480
2026-01-14 17:06:06.901,27873400,-47636480,50212180,-35414040,37329100,1274414,26660160
2026-01-14 17:06:06.911,-6163016,8025735,17800240,-69398660,35229490,1574707,20141600
2026-01-14 17:06:06.921,-6249328,-35881870,61776900,-69433190,30639650,14343260,21838380
2026-01-14 17:06:06.931,27776730,8093923,17852890,-35355340,25170900,56793210,23156740
2026-01-14 17:06:06.941,27737020,-35761020,61776890,-35325990,25073240,-4638672,18457030
2026-01-14 17:06:06.951,-6482386,-35691970,61794160,-69493620,33496090,-13439940,22460940
2026-01-14 17:06:06.961,-34893540,8230303,17975460,-41186040,38452150,-18847660,31396480
2026-01-14 17:06:06.971,-668954,5,-3552797,6187184,-6949361,36547850,-25024410,40478520
2026-01-14 17:06:06.981,27509150,8408978,18142050,-35139540,3635254,-32128910,48535160
2026-01-14 17:06:06.991,27396930,8532410,18260300,-35044600,27807620,-29370120,5517578
2026-01-14 17:06:07.001,-7241972,8699868,18420860,-69424560,16052250,-2944336,5708008
2026-01-14 17:06:07.011,27082740,8885447,18597800,-34771840,14538570,-29296880,5214844
2026-01-14 17:06:07.021,26879040,-47114270,49905750,-34595760,17858890,-30419920,5629883
2026-01-14 17:06:07.031,-8217352,-47027950,49871230,-69260560,24768070,-35131840,7055664
2026-01-14 17:06:07.041,-8640306,-33870680,62873120,-69200130,2163086,-37768560,8652344
2026-01-14 17:06:07.051,26099600,-33465000,63088910,-33925070,12121580,-34399420,8388672
2026-01-14 17:06:07.061,-964155,5,-46649880,49679600,-6907931,-9719849,-28979490,7446289
2026-01-14 17:06:07.071,25448770,10697240,20307740,-33367460,-18225100,-17785640,66503900
2026-01-14 17:06:07.081,-10763700,-32066670,63796710,-68923920,-3881836,-13153080,55615230
2026-01-14 17:06:07.091,-11342020,11455960,21016400,-68828980,-390625,8111572,5205078
2026-01-14 17:06:07.101,-1192895,-31065390,64280080,-6874267,-39257810,15344240,6113281
2026-01-14 17:06:07.111,-12507300,12216410,21723330,-68647710,-3828125,21179200,6152344
2026-01-14 17:06:07.121,-1309425,16867160,17814910,-6856139,-36523440,21569820,56103520
2026-01-14 17:06:07.131,-1368981,-29537590,64927460,-6846645,-3876953,26879880,56689450
2026-01-14 17:06:07.141,-14276790,13341120,22756550,-68380130,-46557620,3408203,41503900
2026-01-14 17:06:07.151,22558020,13693290,23077640,-30872050,-6333008,3515625,30932620
2026-01-14 17:06:07.161,22214480,-28061570,65471250,-30576850,-78271490,38598630,16210940
2026-01-14 17:06:07.171,21889930,-44720700,48518640,-30297180,-8339844,37280270,-46722410
2026-01-14 17:06:07.181,21584370,-27224300,65738830,-30033050,-86376950,39135740,-26782230
2026-01-14 17:06:07.191,-1688354,14855970,24124670,-6800032,-8383789,34936520,-3828125
2026-01-14 17:06:07.201,-17280610,15075220,24319740,-67948540,-8652344,36694340,-49438480
2026-01-14 17:06:07.211,-40263310,-26248920,65954620,-45293850,-81884770,34545900,-6699219
2026-01-14 17:06:07.221,-1791072,15382510,24582150,-6792264,-72558590,2944336,-85302740
2026-01-14 17:06:07.231,20607260,-2584322,6596325,-29214760,-6977539,2800293,-9794922
2026-01-14 17:06:07.241,-1828188,-2572238,6591147,-6800033,-7338867,26049800,-11171880
2026-01-14 17:06:07.251,-18368200,-43738420,47757330,-68069380,-75878900,16442870,-12470700
2026-01-14 17:06:07.261,-1838546,15472280,24613220,-6815569,-76660160,11206060,-13300780
2026-01-14 17:06:07.271,-18342310,19499730,20413130,-68267920,-6479492,35186770,-14345700
2026-01-14 17:06:07.281,20743640,-2582596,6547987,-29406390,-5415039,-47729490,-14472660
2026-01-14 17:06:07.291,-18083360,15107160,24236020,-68526860,-43286130,-13244630,-14335940
2026-01-14 17:06:07.301,-17884830,14925890,24054750,-68673600,-3713379,-23522950,-13525390
2026-01-14 17:06:07.311,-17651770,14726510,23857090,-68837600,-32910160,-32470700,-12675780
2026-01-14 17:06:07.321,21488550,1450900,2364301,-30128860,-23632810,-35668940,-11835940
2026-01-14 17:06:07.331,21727650,-26835870,64539030,-30355870,-13427730,-34887700,-11708980
2026-01-14 17:06:07.341,-1679724,-2709482,6431461,-6936413,-6500244,-34155270,-11767580
2026-01-14 17:06:07.351,-16477860,-43884290,47559660,-69545400,-28198240,-34814450,-11328130
2026-01-14 17:06:07.361,-16132600,-27612720,63883020,-69718030,-56793210,-34204100,-10654300
2026-01-14 17:06:07.371,-15787330,13325580,22478610,-69890670,-15905760,-29541020,-10195310
