Timestamp,Rotation X,Rotation Y,Rotation Z,Rotation W,Acceleration X,Acceleration Y,Acceleration Z
2026-01-14 17:05:52.931,-46490200,41261140,-50407250,-60646140,-9753418,11320110,-50323490
2026-01-14 17:05:52.941,-46490200,27624,5,-9173741,-60646140,2909851,-32615660,-4663086
2026-01-14 17:05:52.951,1808336,53517,-9199638,-12520240,11886600,-48675540,-3970337
2026-01-14 17:05:52.961,-46403880,-4107811,-5038307,-60732460,-2468872,-77590940,-40283200
2026-01-14 17:05:52.971,-46317560,-41043610,-50400340,-60818780,-44158940,-2961731,-5670166
2026-01-14 17:05:52.981,-46231240,132930,5,-9275595,-60905090,-21698000,-39100650,-36895750
2026-01-14 17:05:52.991,-46144930,-4097453,-5045212,-60991410,107666000,-13969420,-14450070
2026-01-14 17:05:53.001,2153602,201981,5,-9344651,-12865510,13183590,-45135500,-31311040
2026-01-14 17:05:53.011,70602780,2270136,-93714100,-81314690,61950680,-4248047,-76446540
2026-01-14 17:05:53.021,2326234,43766040,-52908710,-13038140,655365,-40802000,53901670
2026-01-14 17:05:53.031,2498867,44025850,-53166800,-13210780,-8105469,-256958,56610110
2026-01-14 17:05:53.041,-45627030,-40801920,-50590240,-61509310,-12890630,-7147217,-3944397
2026-01-14 17:05:53.051,-45540710,-40758760,-50616140,-61595620,-5609131,-11260990,-1534462
2026-01-14 17:05:53.061,-45454400,-45190260,-46184630,-61681940,14633180,-12927250,-30975340
2026-01-14 17:05:53.071,-4535947,-40681080,-50693820,-6175965,17150880,-10620120,-20217900
2026-01-14 17:05:53.081,-4527316,-40637920,-50736980,-6184597,26565550,-41748050,16784670
2026-01-14 17:05:53.091,-4518686,5239428,-96614340,-6193227,6524658,-56518560,8522034
2026-01-14 17:05:53.101,3103947,5584696,-96959600,-13814130,9661865,-82336420,7671356
2026-01-14 17:05:53.111,3190266,-40517080,-50857820,-13900450,89904780,-114868200,-10528560
2026-01-14 17:05:53.121,3190268,645650,-9781414,-13900450,87402340,-103393600,-3390,312
2026-01-14 17:05:53.131,3276584,680176,5,-9815940,-13986760,26382450,-27191160,-5554199
2026-01-14 17:05:53.141,3276584,4825883,-5739287,-13986760,-3125,-14762880,2998352
2026-01-14 17:05:53.151,3362901,4860410,-5773814,-14073080,20431520,-8166504,4714966
2026-01-14 17:05:53.161,-44824290,53059680,-53973080,-62260260,89660650,-9051514,5239868
2026-01-14 17:05:53.171,-44824290,53404950,-54318350,-62260260,58746340,-58898930,8050537
2026-01-14 17:05:53.181,-44824290,8545364,-99868480,-62260260,32901760,-30212400,59387210
2026-01-14 17:05:53.191,-44824290,-40214970,-51108140,-62260270,17578120,-18814090,7556152
2026-01-14 17:05:53.201,-44824280,907192,-10037770,-62260270,12597660,-4031372,9399414
2026-01-14 17:05:53.211,-44824280,933087,-10063670,-62260270,16442870,-7122803,89904780
2026-01-14 17:05:53.221,-44910600,950350,5,-10080930,-62173950,7244873,-6689453,9576416
2026-01-14 17:05:53.231,3190268,968474,5,-10097330,-13900450,-5618286,-22995000,81970220
2026-01-14 17:05:53.241,3189402,-40085500,-51185830,-13901310,-101135300,-680542,8502197
2026-01-14 17:05:53.251,3103087,1004727,-10130130,-13815000,-6329346,-10858150,85754390
2026-01-14 17:05:53.261,-4518682,1021990,-10147400,-6193227,74157710,-15307620,6439209
2026-01-14 17:05:53.271,-4527314,1031485,-10155170,-6184595,8325195,-14831540,64819340
2026-01-14 17:05:53.281,-52748160,-4000779,-5122897,-54388180,-27709960,-8709717,62683100
2026-01-14 17:05:53.291,2756092,-39981920,-51220360,-13471460,-13244630,-45166020,4272461
2026-01-14 17:05:53.301,2668911,51719260,-60837770,-13386000,-7861328,-9161377,35064700
2026-01-14 17:05:53.311,2582595,51720130,-60836900,-13299680,-8766174,-10864260,4473877
2026-01-14 17:05:53.321,2495414,51806440,-60923220,-13214230,61828610,-7324219,4156494
2026-01-14 17:05:53.331,2409098,51892760,-61009540,-13127910,39733890,-8795166,34729000
2026-01-14 17:05:53.341,2322779,10875910,-102026400,-13041600,3829956,-60821530,28213500
2026-01-14 17:05:53.351,22356030,10962240,-102112700,-129561400,-3704834,-29815670,18707280
2026-01-14 17:05:53.361,70597600,51981670,-61093270,-81319870,-8538818,-47576900,35827640
2026-01-14 17:05:53.371,70596730,10988120,-102086800,-81320740,-47454830,-8074951,3640747
2026-01-14 17:05:53.381,70596730,10988120,-102086800,-81320740,85998540,-7836914,17715450
2026-01-14 17:05:53.391,2147556,10996760,-102078200,-12871550,1328125,-60333250,35369870
2026-01-14 17:05:53.401,-46119040,10910440,-101991900,-61138150,81848140,-6695557,7434082
2026-01-14 17:05:53.411,-46205360,10910440,-101991900,-61051830,2255249,-10467530,5609131
2026-01-14 17:05:53.421,2059515,51811620,-60918040,-12786960,-33996580,-115478500,34851070
2026-01-14 17:05:53.431,2059515,51726170,-60830860,-12786960,62675480,-12072750,36621100
2026-01-14 17:05:53.441,6886781,1066876,-10171570,-7959699,97473140,-117248500,27404780
2026-01-14 17:05:53.451,6886782,-3991286,-5113405,-7959699,14208980,-12548830,12023930
2026-01-14 17:05:53.461,6800465,1049612,-10154300,-7873382,11480710,-6298828,35877230
2026-01-14 17:05:53.471,6800465,1032349,-10137040,-7873382,13952260,-11199950,-71029660
2026-01-14 17:05:53.481,-46403880,-39930120,-51099510,-60905100,-5657959,-31585690,-25772100
2026-01-14 17:05:53.491,-46403880,-39947380,-51082250,-60905100,8049011,-7519531,9536743
2026-01-14 17:05:53.501,-46403880,-39956020,-51073620,-60905100,41290280,-48309330,25238040
2026-01-14 17:05:53.511,-46403880,997824,5,-10102510,-60905100,5130005,-58898930,25375370
2026-01-14 17:05:53.521,-46317560,989193,-10093880,-60991410,-9819031,-60394290,19927980
2026-01-14 17:05:53.531,-46317560,-4497100,-4607586,-60991410,-5496216,-7336426,8041382
2026-01-14 17:05:53.541,-46231250,963298,-10067980,-61077730,-4333496,-87890620,289917
2026-01-14 17:05:53.551,-46144930,954666,5,-10059350,-61164040,129470800,-725708,28381350
2026-01-14 17:05:53.561,-45972300,945171,-10051580,-61336680,17440800,-85510260,4928589
2026-01-14 17:05:53.571,7232048,936537,-10042950,-8304966,969696,-6286621,18829350
2026-01-14 17:05:53.581,-45799660,927908,-10034320,-61509310,-43518060,-76293940,9933472
2026-01-14 17:05:53.591,7404680,-40068230,-51013190,-8477601,18585200,-11364750,-6729126
2026-01-14 17:05:53.601,2663733,-40085500,-51013200,-13391180,6866455,-11004640,-51612860
2026-01-14 17:05:53.611,-45514820,908055,5,-10019650,-61742370,22155760,-9564209,1008606
2026-01-14 17:05:53.621,-52808590,899423,5,-10011010,-54448600,-38757320,-7312012,19973760
2026-01-14 17:05:53.631,-4533356,889926,-10003250,-6190637,-26817320,-10876470,29735560
2026-01-14 17:05:53.641,-4532494,-45031440,-46119040,-6189776,36956790,-111572300,13710020
2026-01-14 17:05:53.651,-52765430,-4015453,-5103044,-54439970,72753900,-11651610,17669680
2026-01-14 17:05:53.661,-4522137,-40171810,-51030460,-6196682,5633545,-107666000,25344850
2026-01-14 17:05:53.671,-4521274,49645080,-58768760,-6195814,2394104,-60546880,42633060
2026-01-14 17:05:53.681,-4521274,49558760,-58682440,-6195814,-11254880,-19378660,32104490
2026-01-14 17:05:53.691,-4521274,49472440,-58596120,-6195814,-121032700,-4675293,16326900
2026-01-14 17:05:53.701,-4520410,49385260,-58510670,-6194950,-4650879,-8154297,-62408450
2026-01-14 17:05:53.711,-52730900,8312304,-99583620,-54405440,-9265137,-904541,-21118160
2026-01-14 17:05:53.721,-52730900,8312304,-99583620,-54405440,-111450200,-9454346,-28564450
2026-01-14 17:05:53.731,3103084,49383540,-58512390,-13814990,-44799800,-8868408,-24429320
2026-01-14 17:05:53.741,3103084,49382670,-58513260,-13814990,-7598877,-40802000,-85372930
2026-01-14 17:05:53.751,3189401,49382670,-58513260,-13901310,-10595700,-25177000,-11177060
2026-01-14 17:05:53.761,3276581,49382670,-58513260,-13986760,-52856440,-29296880,11169430
2026-01-14 17:05:53.771,-44824290,8286408,-99609520,-62260260,17995830,-51361080,3842163
2026-01-14 17:05:53.781,3450941,49380080,-58515850,-14157670,63972470,-62805180,4876709
2026-01-14 17:05:53.791,8355371,8260512,-99635420,-9425875,20889280,-59906010,3353882
2026-01-14 17:05:53.801,8355371,8251880,-99644050,-9425875,-8605957,-6951904,3488159
2026-01-14 17:05:53.811,36253030,8165572,-99557730,-143285800,-8154297,-19546510,76171870
2026-01-14 17:05:53.821,-44453130,8165568,-99557730,-62579640,-1529541,-29846190,4989624
2026-01-14 17:05:53.831,-44366810,8079256,-99471420,-62665950,-8850098,-71777340,6060791
2026-01-14 17:05:53.841,-44366810,49118550,-58259480,-62665950,-15487670,-6585693,3552246
2026-01-14 17:05:53.851,-44358180,49031370,-58174030,-62657320,-27664180,-7873535,24383540
2026-01-14 17:05:53.861,-44271860,49031370,-58174030,-62743640,-86242670,-5117798,24108890
2026-01-14 17:05:53.871,-44271860,48945050,-58087710,-62743640,-14257810,-5633545,26474000
2026-01-14 17:05:53.881,-44185540,48945910,-58086850,-62829950,-99853520,-8337402,16708370
2026-01-14 17:05:53.891,-44099220,48945050,-58087710,-62916270,-25527950,-10925290,2229309
2026-01-14 17:05:53.901,-44012900,771674,-9914338,-63002590,-16235350,-7910156,2748108
2026-01-14 17:05:53.911,-44012900,771674,-9914338,-63002590,-40863040,-7861328,2520752
2026-01-14 17:05:53.921,-43926590,-40387600,-51056350,-63088910,-48919680,-7165527,53955080
2026-01-14 17:05:53.931,-43840280,-40396230,-51047720,-63175220,-7348633,-7507324,46539310
2026-01-14 17:05:53.941,-43840270,754411,-9897076,-63175220,-15002440,-703125,49682620
2026-01-14 17:05:53.951,-43753960,745779,5,-9888444,-63261540,-6561279,-7751465,44555660
2026-01-14 17:05:53.961,-43667640,737147,5,-9879812,-63347860,18112180,-791626,27008060
2026-01-14 17:05:53.991,-43581320,-45192860,-46251100,-63434180,-11584470,14696120,57296750
2026-01-14 17:05:54.001,-43503640,711252,5,-9853917,-63529120,-13549810,-29815670,63591000
2026-01-14 17:05:54.011,-43503640,711252,5,-9853917,-63529120,-5355835,-19866940,-8293152
2026-01-14 17:05:54.021,-43417320,702621,-9845286,-63615440,-29785160,-14907840,-26779180
2026-01-14 17:05:54.051,-43072060,686221,-9827158,-63960700,-74279780,-7989502,2368164
2026-01-14 17:05:54.061,10081710,677587,-9818530,-11152210,-715332,-81726070,13946530
2026-01-14 17:05:54.071,10168030,677587,-9818530,-11238530,26351930,-6365967,-94,53297
2026-01-14 17:05:54.081,-42726790,668958,-9809896,-64305970,10205080,-46722410,-32562260
2026-01-14 17:05:54.091,-42640470,668094,5,-9810759,-64392290,960083,-32562260,-76789860
2026-01-14 17:05:54.101,-52420160,659462,-9802127,-54612600,-14465330,-19256590,-2684021
2026-01-14 17:05:54.111,560972,1,651691,5,-9792634,-1631473,-10809330,-1473999,-16525270
2026-01-14 17:05:54.121,-524202,643060,-9784003,-546298,6,-8306885,-5621338,27877810
2026-01-14 17:05:54.131,586867,3,-4049982,-5090962,-1657368,-59051510,-105407700,3378296
2026-01-14 17:05:54.141,586867,1,625796,5,-9766740,-1657368,-4208374,-1081543,51696780
2026-01-14 17:05:54.151,10772240,617165,5,-9758108,-11842740,-37384030,-12670900,2243042
2026-01-14 17:05:54.161,10858560,608534,-9749476,-11929060,-2230835,-13183590,10231020
2026-01-14 17:05:54.171,6126763,599902,-9740845,-16833490,-7720947,-109680200,4219055
2026-01-14 17:05:54.181,6126761,-40525710,-50866460,-16833490,-8258057,-97839350,-2041626
2026-01-14 17:05:54.191,6213078,-40525710,-50866460,-16919810,-28900150,-8270264,-13450620
2026-01-14 17:05:54.201,6213078,-40525710,-50866460,-16919810,-28018950,-4244995,-42785640
2026-01-14 17:05:54.211,6213080,599902,-9740845,-16919810,-14877320,-24749760,-12466430
2026-01-14 17:05:54.221,6213080,599902,-9740845,-16919810,-1939392,-51361080,-21530150
2026-01-14 17:05:54.231,6213078,-40517080,-50875090,-16919810,-54382320,-4385376,-28015140
2026-01-14 17:05:54.241,6299394,-40517080,-50875090,-17006130,-49316410,-6201172,-16815190
2026-01-14 17:05:54.251,-41889520,-40508440,-50866450,-65195040,-49682620,-7366943,-26367190
2026-01-14 17:05:54.261,-41889520,-40508440,-50866450,-65195040,-3314209,-6585693,-20965580
2026-01-14 17:05:54.271,-41975830,-40499810,-50875080,-65108720,-29632570,-6933594,-31341550
2026-01-14 17:05:54.281,-41975830,-40499810,-50875080,-65108720,-35888670,-8026123,-12298580
2026-01-14 17:05:54.291,-41889520,-40491180,-50883720,-65195040,-15964510,-10656740,-9941101
2026-01-14 17:05:54.301,-41889520,-40491180,-50883720,-65195040,58135980,-11773680,-76141360
2026-01-14 17:05:54.311,-41889520,-4047389,-5088370,-65195040,-5834961,-9484863,-9338379
2026-01-14 17:05:54.321,-41803200,-4047389,-5088370,-65281350,-831604,-8087158,-15174870
2026-01-14 17:05:54.331,-41803200,-40473920,-50900980,-65281350,62805180,-10205080,-2394104
2026-01-14 17:05:54.341,-41803200,-40473920,-50900980,-65281350,6945801,-10015870,-3817749
2026-01-14 17:05:54.351,6299394,-40465290,-50909620,-17006130,19332890,-6402588,-7312012
2026-01-14 17:05:54.361,6299394,-40456660,-50918250,-17006130,6909,371,-33050540,-5935669
2026-01-14 17:05:54.371,6213078,-40456660,-50918250,-16919810,-24627690,-17700200,-61157230
2026-01-14 17:05:54.381,6213078,-40448020,-50926880,-16919810,-21820070,-26290890,-4196167
2026-01-14 17:05:54.391,6213078,-40439390,-50935510,-16919810,-134887700,-23910520,-20217900
2026-01-14 17:05:54.401,6213078,-40430760,-50944140,-16919810,-29510500,-4940796,-9414673
2026-01-14 17:05:54.411,6299394,-40422130,-50952770,-17006130,-3756714,-5279541,-3686905
2026-01-14 17:05:54.421,6385711,-40422130,-50952770,-17092440,-38024900,-49072260,17089840
2026-01-14 17:05:54.431,6472030,706071,5,-9841836,-17178760,-56030270,-6561279,10810850
2026-01-14 17:05:54.441,6558347,714703,-9850467,-17265080,-2981186,-84350580,15060430
2026-01-14 17:05:54.451,6644660,-45158330,-46216570,-17351390,57769780,-10015870,37956240
2026-01-14 17:05:54.461,11462770,-40387600,-50987300,-12533280,8728027,-103881800,-7835388
2026-01-14 17:05:54.471,11549090,-40387600,-51004560,-12619600,9118652,-77941900,-13175960
2026-01-14 17:05:54.481,-41432040,-40387600,-51004560,-65600720,6817627,-71777340,-14511110
2026-01-14 17:05:54.491,-41432040,746643,-9887581,-65600720,6561279,-7611084,-30212400
2026-01-14 17:05:54.501,-41423400,755274,5,-9896213,-65592090,3540039,-92285150,-158844
2026-01-14 17:05:54.551,6648978,769945,5,-9916068,-17347070,9346008,-8453369,28121950
2026-01-14 17:05:54.561,-41483830,769084,5,-9916929,-65479880,27755740,-71899420,5316162
2026-01-14 17:05:54.571,6737019,48942460,-58090300,-17431660,-32424930,-10479740,4248047
2026-01-14 17:05:54.581,6737018,7768508,-99264260,-17431670,-30090330,-66345220,15365600
2026-01-14 17:05:54.591,6737018,7854828,-99350580,-17431670,-64208980,-8795166,3756714
2026-01-14 17:05:54.601,6737018,7941144,-99436890,-17431670,-23590090,-10852050,25348660
2026-01-14 17:05:54.611,6737881,7941144,-99436890,-17430800,-20721440,-9094238,18066410
2026-01-14 17:05:54.621,6737882,49199690,-58350990,-17430800,-26794430,-59021000,22644040
2026-01-14 17:05:54.631,-41371620,49199690,-58350980,-65540300,-2588272,-86120610,13214110
2026-01-14 17:05:54.641,-41371620,49285140,-58438160,-65540300,-14038090,-85998540,25878910
2026-01-14 17:05:54.651,6739607,8087876,-99635420,-17429080,11703490,-7696533,7987976
2026-01-14 17:05:54.661,6739607,8174192,-99721740,-17429080,13534550,-72509770,3515625
2026-01-14 17:05:54.671,6654153,8165560,-99730370,-17341900,3527832,-70251460,47332760
2026-01-14 17:05:54.681,-41432040,53576380,-54492190,-65428080,27023320,-77941900,32440190
2026-01-14 17:05:54.691,-41432040,53490060,-54405870,-65428080,-8491516,-6866455,3933716
2026-01-14 17:05:54.701,-41518360,53490060,-54405870,-65341770,-57403560,-9460449,2053833
2026-01-14 17:05:54.711,-41509720,49368000,-58527930,-65333140,-26931760,-8984375,9361267
2026-01-14 17:05:54.721,-41596040,49368000,-58527930,-65246820,-34576420,-85510260,12619020
2026-01-14 17:05:54.731,-41596040,49368000,-58527930,-65246820,-62408450,-56640620,33664700
2026-01-14 17:05:54.741,-41682360,8225992,-99842580,-65160500,-1991272,-6921387,30612950
2026-01-14 17:05:54.751,6397793,8225988,-99842580,-17080360,19714360,-54229740,5332947
2026-01-14 17:05:54.761,11118720,49452590,-58615980,-12186800,17730710,-59265140,12054440
2026-01-14 17:05:54.771,11118720,49451730,-58616840,-12186800,-18548960,-46691900,4753113
2026-01-14 17:05:54.781,-41829100,8200096,-99868470,-64961980,-77285770,-50811770,724411
2026-01-14 17:05:54.791,-41829100,8113776,-99782150,-64961980,9086609,-62561040,12748720
2026-01-14 17:05:54.801,6227750,49363680,-58532250,-16905130,-10681150,-4849243,25619510
2026-01-14 17:05:54.811,6141433,49363680,-58532250,-16818820,-5154419,-3982544,10509490
2026-01-14 17:05:54.821,6141433,49276500,-58446790,-16818820,-2986145,-6311035,42304990
2026-01-14 17:05:54.831,6055980,49275640,-58447660,-16731640,-63171390,-5859375,10543820
2026-01-14 17:05:54.841,-41975830,49189330,-58361340,-64763440,-9169,578,-70617680,7965088
2026-01-14 17:05:54.851,-42062150,7820304,-99557730,-64677130,-29571530,-61187740,34576420
2026-01-14 17:05:54.861,-42062150,7820304,-99557730,-64677130,-9051514,-44921880,16067510
2026-01-14 17:05:54.871,-42062150,7733988,-99471410,-64677130,-10424810,-7281494,21362300
2026-01-14 17:05:54.881,-52247530,7647668,-99385090,-54491760,-5621338,-10205080,-8872986
2026-01-14 17:05:54.891,-4222618,48928640,-58104120,-6449585,-4802704,-10369870,-30548100
2026-01-14 17:05:54.901,-5325056,48928640,-58104120,-5347148,-44891360,-8062744,-17150880
2026-01-14 17:05:54.911,-5325056,48928640,-58104120,-5347148,-9448242,-8306885,-24047850
2026-01-14 17:05:54.921,-4239879,755271,-9930741,-6432324,-54626460,-9637451,-27709960
2026-01-14 17:05:54.931,-4239879,754407,5,-9931604,-6432324,23468020,-89782710,-15098570
2026-01-14 17:05:54.941,5540670,-40551610,-51237620,-16211150,20568850,-635376,-34484860
2026-01-14 17:05:54.951,-42467840,-40560230,-51228980,-64219660,-14968870,-8660889,-13442990
2026-01-14 17:05:54.961,-42554160,744053,-9924696,-64133340,-58898930,-61431880,-4827881
2026-01-14 17:05:54.971,-42640470,735421,5,-9916065,-64047020,-99731450,-36743160,-6866455
2026-01-14 17:05:54.981,-42640470,735421,5,-9916065,-64047020,-5923462,-41412350,-38208010
2026-01-14 17:05:54.991,-42726790,726790,-9907434,-63960710,-6046295,-62561040,-1739502
2026-01-14 17:05:55.001,-42804470,4857996,-5776229,-63865760,-8613586,-7696533,-40527340
2026-01-14 17:05:55.011,-42804470,4849364,-5767597,-63865760,-3363037,-83496100,-38146970
2026-01-14 17:05:55.021,-42890790,-40612020,-51228980,-63779450,-62683100,-3781128,-61553960
2026-01-14 17:05:55.031,-42890790,-40612020,-51228980,-63779450,-9466553,23513790,-82336420
2026-01-14 17:05:55.041,-42890790,4849364,-5767597,-63779440,-9350586,1574707,-9509277
2026-01-14 17:05:55.051,-42890790,-40612020,-51228980,-63779450,-785,3508,-13809200,-8654785
2026-01-14 17:05:55.061,5111676,-40612030,-51228990,-15776980,4497528,-15777590,-8898926
2026-01-14 17:05:55.071,98247440,-40620660,-51237620,-108912700,-30807500,-11968610,-6439209
2026-01-14 17:05:55.081,98247440,-40620660,-51237620,-108912700,-10180660,76560980,-21713260
2026-01-14 17:05:55.091,5111676,-40620660,-51237620,-15776980,-17248540,-19454960,12619020
2026-01-14 17:05:55.101,5197993,-40620660,-51237620,-15863290,-13720700,-66223140,67710880
2026-01-14 17:05:55.111,5197993,-40612030,-51228990,-15863290,-84350580,-12866210,13793950
2026-01-14 17:05:55.121,5284309,-40629290,-51228990,-15949610,-64453120,-12768560,12901310
2026-01-14 17:05:55.131,5370626,-40629290,-51228990,-16035930,-5239868,-9301758,42648320
2026-01-14 17:05:55.141,5370626,-40629290,-51228990,-16035930,-4663086,-6008911,-14053350
2026-01-14 17:05:55.151,5370626,-40629290,-51228990,-16035930,-56243900,-4675293,-32287600
2026-01-14 17:05:55.161,5285172,-40620660,-51237620,-15948750,38471220,-50048830,-56243900
2026-01-14 17:05:55.171,5285174,714703,-9902256,-15948740,19626620,-31677250,-17196660
2026-01-14 17:05:55.181,-42778580,713842,-9903118,-63839860,-14404300,-30776980,-29449460
2026-01-14 17:05:55.191,-42864900,722474,-9911750,-63753540,-46722410,-2748108,-3338623
2026-01-14 17:05:55.201,-43037530,722474,-9911750,-63580910,-46722410,-57006840,-335083
2026-01-14 17:05:55.211,-43123840,722474,-9911750,-63494600,-8068848,-4434204,-16448980
2026-01-14 17:05:55.221,-43210160,722474,-9911750,-63408280,-13842770,-4360962,-26794430
2026-01-14 17:05:55.231,4680957,723335,-9910888,-15344530,-16674810,-345459,-52948000
2026-01-14 17:05:55.241,4680957,731966,5,-9919520,-15344530,-13012700,-17868040,-4888916
2026-01-14 17:05:55.251,4680955,-40594760,-51263520,-15344530,-10089110,-24734500,-178833
2026-01-14 17:05:55.261,4766407,7587240,-99445520,-15431710,-111084000,-8581543,-3857422
2026-01-14 17:05:55.291,4939903,8105144,-99963420,-15603480,-19882200,-11193850,-55664060
2026-01-14 17:05:55.301,4939903,8286412,-100127400,-15603480,-418396,-11682130,-3314209
2026-01-14 17:05:55.311,4939905,-40491180,-51349830,-15603480,22277830,-14294430,-6689453
2026-01-14 17:05:55.321,4852728,4987469,-5905706,-15518020,-12695310,-74646000,-14538570
2026-01-14 17:05:55.331,-43149740,873528,5,-10054170,-63520490,-16882320,-13221740,-9851074
2026-01-14 17:05:55.341,-43149740,-40422130,-51367090,-63520500,-12634280,10543820,7684326
2026-01-14 17:05:55.351,-43158370,883886,-10061080,-63529120,-6100464,-37078860,3815918
2026-01-14 17:05:55.361,4850138,866620,5,-10043820,-15520610,-7318115,-55725100,6123047
2026-01-14 17:05:55.371,4762958,-4043939,-5131531,-15435160,-27490230,-83618160,69433590
2026-01-14 17:05:55.381,-43443220,8251888,-99989310,-63296070,-41015620,-116882300,62890620
2026-01-14 17:05:55.391,4243329,49275640,-58447660,-14918980,-28076170,-13903810,63916020
2026-01-14 17:05:55.401,36373880,757867,-9928153,-143165000,-25219730,-2479248,6977539
2026-01-14 17:05:55.411,2599859,-40560240,-51108140,-13282420,-25341800,-27685550,5854492
2026-01-14 17:05:55.421,-46697360,613715,-9778822,-60162770,-2529297,-12133790,4140625
2026-01-14 17:05:55.431,-1665916,5377540,-96994120,-105246000,-8734131,16625980,33520510
2026-01-14 17:05:55.441,-21544660,4574360,-5490176,-85419060,32421880,28686520,41064450
2026-01-14 17:05:55.451,-45739240,-40862340,-50685190,-61276260,41625980,18969730,33447270
2026-01-14 17:05:55.461,-73395130,-40965920,-50529820,-33689420,19567870,-13549810,18566900
2026-01-14 17:05:55.471,-10623000,-41078140,-50365820,-92360,3,14854430,-34838870,-5569458
2026-01-14 17:05:55.481,-14510710,-41173090,-50201820,3788440,-65979000,-51904300,-3713379
2026-01-14 17:05:55.491,-13829240,-179539,5,-8949319,12756320,-8862305,-47558590,-7236328
2026-01-14 17:05:55.501,-23237330,38082080,-47198860,12497800,-38208010,-45141600,-11347660
2026-01-14 17:05:55.511,-56002300,-390149,5,-8711084,-51496570,-74072260,-41503900,-14560550
2026-01-14 17:05:55.521,-8125860,40373620,-41282020,-2636111,-79248050,-44067380,-17724610
2026-01-14 17:05:55.531,-86403060,35863740,-44928720,-21320230,-5546875,-4543457,-20292970
2026-01-14 17:05:55.541,-43456170,-5006372,-85453580,32675200,2890625,-5415039,-21210940
2026-01-14 17:05:55.551,-58350120,35452020,-44477290,-49545810,64453120,-61083980,-19589840
2026-01-14 17:05:55.561,-10432250,-5204900,-84788940,-367709,8,21398930,-51660160,-17666020
2026-01-14 17:05:55.571,-62201570,35392450,-44364210,51391260,90789790,-34521480,-17128910
2026-01-14 17:05:55.581,-11745990,-4307208,-85099680,925315,3,-29159550,-12310790,-13642580
2026-01-14 17:05:55.591,-12416670,-40404870,-48656750,1583910,2796936,16442870,-11699220
2026-01-14 17:05:55.601,-13087350,37688480,-46556660,2242511,-14501950,10473630,-11279300
2026-01-14 17:05:55.611,-13791690,38572360,-47399120,2936498,-13330080,-61828610,-8930664
2026-01-14 17:05:55.621,-63416920,-39533060,-48302850,-45238610,119262700,-16064450,-72998050
2026-01-14 17:05:55.631,-15285830,93221,5,-8831929,4411650,110839800,-19421390,-7158203
2026-01-14 17:05:55.641,-16066140,2037076,-88940770,5185047,118652300,-7434082,-5810547
2026-01-14 17:05:55.651,-65859680,-38549060,-47836740,-43037530,-8123779,2006836,-41381840
2026-01-14 17:05:55.661,-17637100,-3817790,-4765547,6738748,-6035156,63183590,-2939453
2026-01-14 17:05:55.671,-67465170,43901560,-52427920,-41604670,-10878910,11123050,-2319336
2026-01-14 17:05:55.681,-19103620,64996,19,-912108,1,8189733,-9707031,7392578,-22644040
2026-01-14 17:05:55.691,-5604029,747503,-9161659,-5316767,-49829100,45263670,-4440918
2026-01-14 17:05:55.701,-2055117,-36762300,-46775040,962516,4,-16625980,39794920,-6640625
2026-01-14 17:05:55.711,-21270170,-36451560,-46498830,10339020,-2088623,33935550,-80566410
2026-01-14 17:05:55.721,-21980560,-36123560,-46188090,11044230,-5078125,49291990,-7524414
2026-01-14 17:05:55.731,-7193638,933084,-9096921,-3751325,-8979492,62646480,-5703125
2026-01-14 17:05:55.741,-72670070,951212,5,-9044265,-36865880,-12880860,44213870,-6098633
2026-01-14 17:05:55.751,-24072880,-3513092,-4507460,13112380,-12089840,37817380,-66503900
2026-01-14 17:05:55.761,-24749600,-34768380,-44694810,13782190,-9482422,2998047,-5214844
2026-01-14 17:05:55.771,-74819350,-34423110,-44280490,-34941020,-11816410,3659668,-26733400
2026-01-14 17:05:55.781,-26086640,-3407786,-4384890,15103700,-15722660,43945310,-77781680
2026-01-14 17:05:55.791,-57089040,9943696,-87076330,-52843970,-14853520,45336910,-7720947
2026-01-14 17:05:55.801,-57184840,10090430,-86411690,-52817210,-10332030,21679690,-31445310
2026-01-14 17:05:55.811,-77495180,44561020,-52113730,-32558670,-39648440,5175781,-46484380
2026-01-14 17:05:55.821,-28608830,44599000,-52075750,17605170,3322754,52490230,-66308590
2026-01-14 17:05:55.831,-29270010,44635250,-52039500,18273260,796875,41235350,-7753906
2026-01-14 17:05:55.841,-7937690,44498870,-51830610,-3046979,7392578,37329100,-9194336
2026-01-14 17:05:55.851,-30653670,11773610,-84383250,19686260,5161133,35058590,-9003906
2026-01-14 17:05:55.861,-5731521,44482470,-51674380,-5213443,49365230,5883789,-84472660
2026-01-14 17:05:55.871,-81224060,12619510,-83882610,-27949360,78808590,62646480,-10351560
2026-01-14 17:05:55.881,-8181105,13284140,-83908500,-2703440,11699220,32421880,-12753910
2026-01-14 17:05:55.891,-82372080,-30124540,-39912860,-26041770,9633789,57666020,-11738280
2026-01-14 17:05:55.901,-8292450,4581261,-5276111,-2500596,92578130,48168940,-1140625
2026-01-14 17:05:55.911,-83451030,-29537590,-39446750,-23927000,51416020,26245120,-6713867
2026-01-14 17:05:55.921,-35880140,1566648,-8411566,25197580,-22106930,31396480,-16784670
2026-01-14 17:05:55.931,-8442642,-28933370,-39015170,-2186405,-38134770,-1048584,-84228510
2026-01-14 17:05:55.941,-37283660,47986070,-54730860,26711580,15449520,-23583980,-36450200
2026-01-14 17:05:55.951,-37970740,-28234210,-38730320,27457360,28100590,7751465,-16931150
2026-01-14 17:05:55.961,-85678000,20526130,-87024540,-18851580,3942871,47192380,45092770
2026-01-14 17:05:55.971,-86031900,-27509150,-38540420,-17910720,13549810,47021480,11396480
2026-01-14 17:05:55.981,-39817060,23892470,-89527730,29478030,-11639400,22473140,14833980
2026-01-14 17:05:55.991,-4032634,-32043360,-33212090,3003908,60333250,19317630,13183590
2026-01-14 17:05:56.001,-8685193,-26404290,-38505900,-1550250,43774420,-4558563,10478520
2026-01-14 17:05:56.011,-87050430,-26033130,-38583580,-14803320,7314453,6279,945,9926758
2026-01-14 17:05:56.021,-54345890,-25644700,-38713060,-47041760,81591800,-8660889,8730469
2026-01-14 17:05:56.031,-8734393,-25239020,-38911590,-1359490,9277344,-13122560,66259770
2026-01-14 17:05:56.041,-5396439,-24833330,-39144640,-4652560,11914060,-27563480,36083980
2026-01-14 17:05:56.091,-52954460,-2291708,-4094001,-45291260,18427730,3933716,5917969
2026-01-14 17:05:56.101,-8734392,-2262362,-4140614,-1045295,13691410,-7775879,9897461
2026-01-14 17:05:56.111,-8720582,-2233014,-4192404,-1014222,11826170,-2770996,8852539
2026-01-14 17:05:56.121,-52316580,-22036660,-42476470,-44599860,11845700,-39135740,6303711
2026-01-14 17:05:56.131,-43424230,7435324,-13919440,33777470,10527340,-52978520,37158200
2026-01-14 17:05:56.141,-51876360,-21449710,-43753960,-44159640,10136720,-71240230,93688970
2026-01-14 17:05:56.151,-43319780,8398617,-14958690,33761070,10976560,-5917969,-24853520
2026-01-14 17:05:56.161,-86057790,-31766290,-34214230,-9097784,13886720,-30200200,-30151370
2026-01-14 17:05:56.171,-8572117,9514695,-16155910,-895104,2,15673830,-12561040,-4736328
2026-01-14 17:05:56.181,-42982280,10121500,-16809320,33563400,18359380,26611330,-17932130
2026-01-14 17:05:56.191,-8496158,10751610,-17491230,-870935,1,16337890,32958980,4152832
2026-01-14 17:05:56.201,-42585230,-19179580,-48786220,33269920,15839840,42993160,6723633
2026-01-14 17:05:56.231,-49457770,-33294960,-36690660,-42037980,12607420,11578370,5620117
2026-01-14 17:05:56.241,-49135800,-1759997,-5312794,-41790250,10039060,-3996582,-35009770
2026-01-14 17:05:56.251,-48775870,-17133870,-54370920,-41511450,14394530,-38134770,-7207031
2026-01-14 17:05:56.261,-8068027,15937520,-23163960,-891650,9,2140625,418396,-40966800
2026-01-14 17:05:56.271,-7981712,-34476630,-38581860,-903737,7,20292970,14770510,-43548580
2026-01-14 17:05:56.281,-39256860,-34789100,-39098030,30452540,24003910,72558590,90185540
2026-01-14 17:05:56.291,-77840450,-14742900,-60007400,-9356735,309375,9838867,14443360
2026-01-14 17:05:56.301,-37856800,19980600,-27545400,29228580,34179690,12607420,17724610
2026-01-14 17:05:56.311,-37014350,21151050,-28809070,28482800,32695310,15917970,23710940
2026-01-14 17:05:56.321,-73973460,-36147720,-41399240,-10323480,24316410,13613280,20058590
2026-01-14 17:05:56.331,-72393860,23687900,-31537540,-10850010,2644043,13017580,14931640
2026-01-14 17:05:56.341,-33697190,-1064287,-6873401,25481570,-39921880,9794922,10478520
2026-01-14 17:05:56.351,-68837600,-36969460,-43080690,-12420980,-940625,7885742,8651733
2026-01-14 17:05:56.361,-66981800,28169470,-36188290,-13810680,-133046900,14394530,-26171880
2026-01-14 17:05:56.371,-2878578,-590406,5,-7376629,2070825,-17296880,38925780,-50976560
2026-01-14 17:05:56.381,-23106390,-3487196,-75095570,22296220,-17734380,54375,-77539060
2026-01-14 17:05:56.411,-56338940,7276500,-77883600,-25903650,339375,-3684375,2071875
2026-01-14 17:05:56.421,-54189650,4109714,-4794721,-26775450,1181875,-4365625,5925
2026-01-14 17:05:56.431,-21614580,3761166,-4514883,13775290,10921880,8609375,12859380
2026-01-14 17:05:56.441,-6011965,-3055612,-77633280,-1766904,-9375,373125,-3996875
2026-01-14 17:05:56.451,-6111228,-37170580,-44381480,-1743600,-89625,10742190,-2325
2026-01-14 17:05:56.461,-6114679,-315056,-7658885,-1869621,-147578100,27421880,771875
2026-01-14 17:05:56.471,-61595630,-35521060,-42889060,-19542110,93203130,10322270,65351560
2026-01-14 17:05:56.481,-25462580,-35156810,-42441940,17229680,-150,24926760,-15390630
2026-01-14 17:05:56.491,-25567880,-3432472,-4161674,17193430,-1665625,30917970,12138670
2026-01-14 17:05:56.501,-63908920,-18989,25,-7355910,-21648240,66345220,18710940,37988280
2026-01-14 17:05:56.511,-64599460,33188790,-40353080,-22822150,78554690,-42333980,284375
2026-01-14 17:05:56.521,-6533316,-31239750,-38573220,-2386659,114765600,-24179690,23867190
2026-01-14 17:05:56.531,-25260600,-30530230,-37815370,16188700,13375,-39882810,22734380
2026-01-14 17:05:56.541,-25491930,2399604,-69726670,16302640,14609380,-471875,18984380
2026-01-14 17:05:56.551,-48491890,2088868,-68932540,-44229560,1296875,-44257810,13935550
2026-01-14 17:05:56.561,-26573470,1398332,-68172960,17240910,94765620,-31679690,13896480
2026-01-14 17:05:56.571,-23040790,466112,-67430640,22102870,734375,-26855470,15507810
2026-01-14 17:05:56.581,-7035681,-664636,-66696950,-2378026,65820310,-27988280,12402340
2026-01-14 17:05:56.591,-28774550,-1942128,-65954620,19338400,53632810,-25625,10195310
2026-01-14 17:05:56.601,-29574710,30627940,-31312950,20126480,47265620,-17646480,11533200
2026-01-14 17:05:56.611,-49797000,-31592790,-37581440,-44668050,46523440,-9902344,70214850
2026-01-14 17:05:56.621,-31163800,-6059434,-63874390,21731100,36894530,-16271970,1694336
2026-01-14 17:05:56.631,-31957050,-32563860,-38129560,22543340,16347660,7006836,33251950
2026-01-14 17:05:56.641,-32719230,23127710,-30267830,23317610,-90527340,77441410,36035160
2026-01-14 17:05:56.651,-33415800,-1040981,-6157835,24019360,-24609380,59472660,6953125
2026-01-14 17:05:56.661,-29800600,20848080,-28093510,28860260,-32949220,10021970,11738280
2026-01-14 17:05:56.671,-34584530,19717330,-26997290,25163920,-36660160,-7475586,14140630
2026-01-14 17:05:56.681,-7760740,18638380,-25935590,-1689218,-33847660,-6821289,21972660
2026-01-14 17:05:56.691,-50507380,-15269430,-57789060,-44354720,-29492190,-27954100,26855470
2026-01-14 17:05:56.701,-35855980,16586620,-23895920,26326610,-31367190,-105529800,296875
2026-01-14 17:05:56.711,-36115790,-17289240,-55769250,26532900,-35410160,-29736330,309375
2026-01-14 17:05:56.721,-31953510,-18212830,-54742080,30988660,-34921880,-45092770,32441410
2026-01-14 17:05:56.731,-36393730,13649270,-20929220,26669280,-35058590,-46557620,3578125
2026-01-14 17:05:56.741,-36386820,12703240,-19959020,26572610,-35019530,-29907230,41640620
2026-01-14 17:05:56.751,-80913310,11788280,-19009530,-18316410,-33476560,-12561040,44570310
2026-01-14 17:05:56.761,-36002720,10911300,-18091120,25955450,-29277340,3034668,46757810
2026-01-14 17:05:56.771,-8144849,10090430,-17220190,-2038801,-25214840,8730469,4640625
2026-01-14 17:05:56.781,-35101570,-22511410,-48233800,24767720,-20078120,15439450,4484375
2026-01-14 17:05:56.811,-81413960,-23702570,-45350810,-26775450,-38476560,28417970,17539060
2026-01-14 17:05:56.821,-31721400,-23961530,-44556700,20741910,3466797,33144530,75634770
2026-01-14 17:05:56.831,-30616550,6446997,-13250480,19481690,101501500,35859380,-4350586
2026-01-14 17:05:56.841,-80205510,6113817,-12875870,-32627730,27685550,36132810,-18525390
2026-01-14 17:05:56.851,-28178100,-24444900,-42847630,16758390,6586914,35390620,-3234375
2026-01-14 17:05:56.861,-78824450,5607137,-12312220,-36632820,7763672,334375,-4421875
2026-01-14 17:05:56.871,-77969920,-24695220,-42217520,-38644010,10,2875,-53242190
2026-01-14 17:05:56.881,-24060790,-24867860,-41993100,12295820,99902340,21757810,-63007810
2026-01-14 17:05:56.891,-17260680,80642280,-87330100,16074860,1015625,14521480,-73398440
2026-01-14 17:05:56.901,-74802100,-25239010,-41794570,-44556700,10742190,5551758,-81171870
2026-01-14 17:05:56.911,-19567140,-25454810,-41872260,7570840,14208980,-19555660,-8828125
2026-01-14 17:05:56.921,-18033300,47845370,-115638500,5997290,27070310,-10722660,-925
2026-01-14 17:05:56.931,-70797000,47370640,-115768000,-49787490,39335940,-15058590,-80390620
2026-01-14 17:05:56.941,-15033790,-26654610,-42623210,2971885,471875,-27480470,-62460940
2026-01-14 17:05:56.951,-13534470,4245057,-11274690,1484648,4828125,-34609380,-54140620
2026-01-14 17:05:56.961,-11991990,75601470,-76316000,-28481,18,56132810,-40078120,-4375
2026-01-14 17:05:56.971,-64349130,-28812530,-43848900,-55406720,68671870,-34492190,-31582030
2026-01-14 17:05:56.981,-8995931,-2947717,-4447902,-2919232,88671870,-284375,-21992190
2026-01-14 17:05:56.991,-23013770,3686588,-11211680,11167660,10109380,-25761720,-75927740
2026-01-14 17:05:57.001,-107196800,3554525,-11205640,-10522010,8734375,-27167970,10068360
2026-01-14 17:05:57.011,45082370,69134540,-76913400,-56771380,70351560,-21113280,23066410
2026-01-14 17:05:57.021,7061572,3242058,-11155580,-18660820,59882810,-14287110,3546875
2026-01-14 17:05:57.031,12804230,2976202,-11024380,-24311970,51992190,-62158200,46757810
2026-01-14 17:05:57.041,15954780,-40890240,-40903500,-27376220,40351560,-58935550,52421880
2026-01-14 17:05:57.051,15909040,-35441660,-47629580,-27249340,26445310,10419920,52734380
2026-01-14 17:05:57.061,-54396820,-36822720,-47474210,-58263800,3408203,25859380,52578120
2026-01-14 17:05:57.071,-40189080,-38298740,-47154830,-71781010,-26308590,34121100,46835940
2026-01-14 17:05:57.081,-43581330,-8113768,-78375600,-67750020,-5484375,37871100,41015620
2026-01-14 17:05:57.091,3700396,-17125240,-70296360,-14771390,-6890625,39804690,36816410
2026-01-14 17:05:57.101,2348676,-25135440,-63114800,-13360970,-659375,33242190,3125
2026-01-14 17:05:57.111,-47767690,7719310,-16622010,-61751000,-46054690,22988280,21835940
2026-01-14 17:05:57.121,56701470,1294754,-10271700,-67594640,-30117190,17275390,8178711
2026-01-14 17:05:57.231,2208846,-36587080,27287310,-12810270,-4265625,-10878910,-32714840
2026-01-14 17:05:57.241,3239469,-35717870,26430190,-13851250,-40664060,-79003900,-26699220
2026-01-14 17:05:57.251,4611905,-34154670,24885980,-15240950,-38242190,-41625980,-20214840
2026-01-14 17:05:57.261,-41768680,-48976120,-43503640,-64728930,-34707030,-44403080,-13457030
2026-01-14 17:05:57.271,8130172,-48604960,-43650380,-18800650,-29707030,19592280,-8178711
2026-01-14 17:05:57.281,10448640,-26265320,17065680,-21143290,-23066410,22583010,-33422850
2026-01-14 17:05:57.291,-35303550,-22884290,13714010,-71901850,-15839840,21899410,515,9378
2026-01-14 17:05:57.301,15429120,-19158000,10017060,-26175550,-10966800,19055180,17822270
2026-01-14 17:05:57.371,-51315310,-32239300,-56925890,-57909900,6010742,-578125,96191410
2026-01-14 17:05:57.381,-2140656,11698510,-20583950,-8804307,6352539,-6464844,-97717290
2026-01-14 17:05:57.391,-2151878,15511120,-24367220,-8815528,5986328,-68652340,-31201170
2026-01-14 17:05:57.401,-51643310,-20301690,-67948540,-58237910,6191406,-7055664,-4807129
2026-01-14 17:05:57.411,-22684040,-1616709,-7175510,-87421600,78222660,-5566406,-40307620
2026-01-14 17:05:57.421,-23581740,-12032550,-75561670,-86765590,72998050,-3330078,-42822260
2026-01-14 17:05:57.431,-52213000,-40050970,-47197990,-58358750,64941410,-15905760,-2602539
2026-01-14 17:05:57.441,-25541130,35275060,-43963700,-85272310,23022460,-41389460,-19445800
2026-01-14 17:05:57.451,23707750,336636,-86843280,-34815000,-23547360,-11657720,-19458010
2026-01-14 17:05:57.461,-26982610,-38281470,-47862630,-84296930,-22607420,-25268560,-15063480
2026-01-14 17:05:57.511,20375930,65951170,-74399860,-31586750,38305660,29467770,17114260
2026-01-14 17:05:57.521,19849400,-34613010,-49494020,-31077480,-9552002,45898440,76660160
2026-01-14 17:05:57.531,-3137619,36779560,-120489500,-8109457,-49291990,43237300,-51086420
2026-01-14 17:05:57.541,18621110,4105226,-12433070,-29888900,-65283200,37963870,26229860
2026-01-14 17:05:57.551,18006540,4515230,-12799910,-29295040,-51660160,36401370,1352539
2026-01-14 17:05:57.561,17305640,4899340,-13140860,-28614860,-57910160,45483400,2841797
2026-01-14 17:05:57.571,-54431340,-31609190,-50357180,-58868020,-8701172,69189460,32373050
2026-01-14 17:05:57.581,15644910,5625263,-13778740,-26995560,-10566410,10488280,3046875
2026-01-14 17:05:57.591,-36140820,5966217,-14076530,-77572860,-10576170,125,39086910
2026-01-14 17:05:57.601,-36684620,6299399,-14364830,-77253490,-95458980,11191410,3005371
2026-01-14 17:05:57.611,14404540,6624812,-14643640,-25819060,-9614258,89941410,390625
2026-01-14 17:05:57.621,-37237040,6949365,-14923300,-77115380,-5419922,65527340,51220700
2026-01-14 17:05:57.631,-37444200,-28406840,-50831920,-77149900,-33374020,5722656,7895508
2026-01-14 17:05:57.641,14111060,-2791483,-5082331,-25594640,-3557129,48535160,9584961
2026-01-14 17:05:57.651,14011790,-37950020,-40287480,-25521270,-35546880,36523440,8408203
2026-01-14 17:05:57.661,-38074320,7998113,-15773520,-77262110,-31420900,32055660,74072260
2026-01-14 17:05:57.671,-3837644,-37420040,-39833450,-7721897,-20129400,23583980,703125
2026-01-14 17:05:57.681,-56002300,8384811,-16060090,-59869290,-11253360,11621090,9243164
2026-01-14 17:05:57.691,-56149040,8539318,-16164530,-59998770,19238280,-5368042,11132810
2026-01-14 17:05:57.701,13254800,8658434,-16235320,-24897200,29296880,-28295900,10507810
2026-01-14 17:05:57.711,12981170,-25135440,-50150030,-24652930,44067380,-39379880,98876950
2026-01-14 17:05:57.721,12622100,8799993,-16283660,-24321470,62158200,-37890620,10039060
2026-01-14 17:05:57.731,-40586140,-24660690,-49744340,-76666540,7495117,-36938480,10849610
2026-01-14 17:05:57.741,11646720,8814667,-16217190,-23397880,91796870,-39086910,10634770
2026-01-14 17:05:57.751,11030410,-24393110,-49304120,-22805750,11474610,-43017580,10947270
2026-01-14 17:05:57.761,10328660,8699866,-16038520,-22126440,14121090,-41430660,11992190
2026-01-14 17:05:57.771,9540588,8601464,-15912490,-21360800,1515625,-32226560,13847660
2026-01-14 17:05:57.781,8667064,8475442,-15762300,-20508000,15498050,-2397461,14287110
2026-01-14 17:05:57.791,-4558388,11591480,-12318260,-7303260,15673830,-30615230,15253910
2026-01-14 17:05:57.801,6835422,8131039,-15381650,-18714330,16884770,-40527340,16298830
2026-01-14 17:05:57.811,5877307,7921289,-15159810,-17773480,17050780,-5053711,17158200
2026-01-14 17:05:57.821,4920916,-24867850,-47448310,-16830900,16953120,-62890620,1734375
2026-01-14 17:05:57.831,3879074,7391304,-14619470,-15801140,165625,-77783200,16298830
2026-01-14 17:05:57.841,8658327,-25437540,-46861360,-8777655,16875,-9213867,14990230
2026-01-14 17:05:57.851,16253450,6775007,-14010070,-135664000,17705080,-9824219,13876950
2026-01-14 17:05:57.861,-53352380,-26153970,-46265770,-66127260,17783200,-83935540,13544920
2026-01-14 17:05:57.871,45812610,6067206,-13319540,-57767480,15185550,-52734380,12900390
2026-01-14 17:05:57.881,33725680,5690002,-12954420,-45685730,12705080,-25073240,11494140
2026-01-14 17:05:57.891,-56796420,-27448720,-45333550,-62838590,12158200,-23266600,10800780
2026-01-14 17:05:57.901,-37375150,4905384,-12202600,-82259860,13222660,-37182620,10117190
2026-01-14 17:05:57.911,9556122,44979660,-118159000,-21517900,14394530,-38842770,98828130
2026-01-14 17:05:57.921,-50296770,-28950630,-44453120,-69286450,13867190,-22998050,9536133
2026-01-14 17:05:57.931,-5976922,36546510,-110192000,-5977951,11679690,211792,8408203
2026-01-14 17:05:57.941,-5971394,-30020960,-43866170,-5978299,96435540,413208,6660156
2026-01-14 17:05:57.951,-5967081,27828510,-101991900,-5975707,76904300,-12261960,43041990
2026-01-14 17:05:57.961,-5966473,2329690,-9771918,-5967680,5810547,-27294920,21594240
2026-01-14 17:05:57.971,3532080,-36788200,-37910320,-15457600,23132320,-22912600,42175290
2026-01-14 17:05:57.981,-44910600,-32316980,-42657730,-74258300,-81848140,-10971070,-1194458
2026-01-14 17:05:57.991,-38816640,984877,5,-8509967,-80248680,-16052250,12365720,-30981440
2026-01-14 17:05:58.001,23401330,5550164,-81111840,-35294060,-18568040,16772460,-5444336
2026-01-14 17:05:58.011,32039910,38894760,-39653480,-43918820,23583980,31762700,-58203120
2026-01-14 17:05:58.021,39816180,-2710348,-73490080,-51679560,6113281,38232420,-5419922
2026-01-14 17:05:58.031,47594180,-6853546,-69692140,-59438570,10742190,2043457,-43530270
2026-01-14 17:05:58.041,-53343750,-35726500,-41181710,-64910190,14082030,52452090,-36621100
2026-01-14 17:05:58.051,-32801,5,19183030,-26910110,-11771880,15458980,-11364750,-35131840
2026-01-14 17:05:58.061,-4540260,14590130,-22353450,-113299400,15410160,-10992430,-28222660
2026-01-14 17:05:58.071,-13059720,-2520445,-5282584,-104555500,17958980,55358890,-19311520
2026-01-14 17:05:58.081,-27612730,4796625,-12639360,-89760780,21386720,-32234190,-7244873
2026-01-14 17:05:58.091,9772434,-7475028,-71349420,-10943580,24042970,42114260,16571050
2026-01-14 17:05:58.101,-21378930,-68103910,-11134860,9695094,22363280,16247560,8766174
2026-01-14 17:05:58.111,-54164620,-13475770,5513916,42510130,18125,2692871,-23266600
2026-01-14 17:05:58.121,-14271610,-4166509,-3835052,2646472,14326170,32592770,-48583980
2026-01-14 17:05:58.131,-18311240,-64107450,-16287970,6720619,12460940,3852539,-5571289
2026-01-14 17:05:58.141,-22781580,-71901850,-8890623,11227220,13505860,6772461,-67041020
2026-01-14 17:05:58.151,-2768177,-43332730,35215510,1616711,14208980,7963867,-79345700
2026-01-14 17:05:58.161,-60076460,-8808621,651694,1,-54621240,13847660,8964844,-10078130
2026-01-14 17:05:58.171,-60404460,-9630357,1435450,-53827120,9980469,11884770,-12001950
2026-01-14 17:05:58.181,-9528506,-10449510,2221794,-1846316,28857420,12939450,-93115230
2026-01-14 17:05:58.191,-49254060,-48406430,-34146900,37925850,-5019531,10859380,-5004883
2026-01-14 17:05:58.201,-104840300,-12055000,3775499,-7992925,-14072270,34106440,15335080
2026-01-14 17:05:58.211,-10894040,-9063863,8234014,-346130,4,-22988280,-44189450,10644530
2026-01-14 17:05:58.221,-62136840,-13487860,5173829,50938100,-31816410,-82336420,12963870
2026-01-14 17:05:58.231,-115457300,-14115380,5789270,3832460,-39667970,-13757320,7574463
2026-01-14 17:05:58.241,-67453950,-52152580,-31194870,56324260,-46367190,-23950200,-13964840
2026-01-14 17:05:58.251,-61820050,-15082990,6737889,-49217800,-471875,-2919922,-32910160
2026-01-14 17:05:58.261,-11885820,-53007110,-30530230,802743,-434375,-9259033,-11367190
2026-01-14 17:05:58.271,-61647420,-53291960,-30297170,-49045180,-4171875,-10296630,-16855470
2026-01-14 17:05:58.281,-11701960,-42989190,-40651730,641330,9,-42148440,-43408200,-18964840
2026-01-14 17:05:58.291,-61267620,-15983270,7615730,-49304120,-4328125,-6035156,-19179690
2026-01-14 17:05:58.301,-11276420,-12269930,11432650,220970,5,-41523440,-83496100,-17060550
2026-01-14 17:05:58.311,-11008840,-53758070,-30055490,-46613,52,-37050780,-13505860,-17509770
2026-01-14 17:05:58.321,-6047353,-53766700,-30167700,-5006374,-32792970,-15683590,-19648440
2026-01-14 17:05:58.331,-60180030,-15909040,7500064,-50339920,-28945310,-12265630,-2140625
2026-01-14 17:05:58.341,-4664557,-15796830,7370587,4554071,-24804690,-87939460,-2265625
2026-01-14 17:05:58.351,-48336510,-5364588,-3078917,37289700,-21699220,-82421870,-22871090
2026-01-14 17:05:58.361,-44970160,-15477460,7016690,33923340,-18798830,-96240230,-22539060
2026-01-14 17:05:58.371,-9122816,-15253030,6775002,-1924001,-13623050,-10087890,-21230470
2026-01-14 17:05:58.381,-8803444,-11179830,10330300,-2243373,-5566406,-10986330,-18769530
2026-01-14 17:05:58.391,-5822928,-5305890,-3206667,-5223890,24511720,-13417970,-15029300
2026-01-14 17:05:58.401,-5799622,-14519340,5989519,-5247196,6513672,-16425780,-10644530
2026-01-14 17:05:58.411,-80861530,-52748160,-32705410,-29589380,7915039,-18652340,-5058594
2026-01-14 17:05:58.421,-29689510,-5260144,-3300752,18647870,8803711,-17441410,59021000
2026-01-14 17:05:58.431,-28394760,-13841750,5268776,17353120,73535150,-13154300,35668940
2026-01-14 17:05:58.441,-27359820,-13613880,5030542,16316450,3388672,-10869140,52001950
2026-01-14 17:05:58.451,-76027790,-52048990,-33870690,-34423120,20584110,-10966800,7182617
2026-01-14 17:05:58.461,-19821780,-42985830,-42985650,19711290,-41186520,-10878910,60253900
2026-01-14 17:05:58.471,-24257600,-51582880,-34457640,13203870,-56933590,-10341800,5151367
2026-01-14 17:05:58.481,-23225250,-51289410,-34802910,12164620,-20019530,-46777340,4584961
2026-01-14 17:05:58.491,-22364670,-79151770,78289980,11298860,36938480,30981440,53100580
2026-01-14 17:05:58.501,-71401220,-50624760,-35640180,-39291380,8979492,5605469,-19494630
2026-01-14 17:05:58.511,-70736580,-50296760,-36037240,-40007810,9746094,30126950,-13720700
2026-01-14 17:05:58.521,-20558060,-110865200,24479430,9480163,890625,-8538818,-13269040
2026-01-14 17:05:58.531,-70253200,-10753340,2107858,-40560240,88378900,-52490230,8506775
2026-01-14 17:05:58.541,-20301700,-10428790,1776400,9218629,60302740,-84765620,21606440
2026-01-14 17:05:58.551,-70192780,-10103370,1445809,-40672450,-23413090,-93408200,19714360
2026-01-14 17:05:58.561,-70046040,-97512030,10901810,-40870980,-11572270,-8305664,-11245730
2026-01-14 17:05:58.571,-19703530,-48354640,-38307370,8608368,-17578120,-7089844,-39697260
2026-01-14 17:05:58.581,-68785820,-89027090,2296033,-42200260,-19404300,-56689450,-9379883
2026-01-14 17:05:58.591,-17635370,-84046610,-2736240,6533310,-17714840,-640625,-14775390
2026-01-14 17:05:58.601,-66049570,-78470550,-8381352,-44988280,-14326170,-78564460,-19208980
2026-01-14 17:05:58.611,-14443380,-33349340,24655510,3337868,-10400390,-93115230,-22460940
2026-01-14 17:05:58.621,-12631590,-6594600,-2106129,1524354,-6069336,-10576170,-24179690
2026-01-14 17:05:58.631,-10818080,-19805380,11096020,-287435,2,-15661620,-11865230,-25097660
2026-01-14 17:05:58.641,-9176334,-5179005,-3538986,-1925727,5185547,-11455080,-25664060
2026-01-14 17:05:58.651,-27126760,-4364780,-4363570,16031610,10537110,-8613281,-25898440
2026-01-14 17:05:58.661,-65790620,2622305,-11361010,-45074600,14765630,-35546880,-25234380
2026-01-14 17:05:58.671,-5538947,10473670,-19219290,-5538945,16044920,27783200,-22792970
2026-01-14 17:05:58.681,5687410,18497680,-27250200,-16754940,15585940,10107420,-1984375
2026-01-14 17:05:58.691,18640960,26782360,-35538330,-29696410,17109380,17070310,-16142580
2026-01-14 17:05:58.701,31595380,-4350364,-83243870,-42637020,19082030,2234375,-10380860
2026-01-14 17:05:58.711,-592996,5,391878,-9154754,-10433110,20273440,25488280,-33862300
2026-01-14 17:05:58.721,-48924330,5146466,-6022921,-61181310,20917970,26660160,3684082
2026-01-14 17:05:58.731,1668502,5940578,-6817038,-12660080,1859375,25527340,10810550
2026-01-14 17:05:58.741,-4657652,6700165,-7576625,-6314933,14970700,22929690,18222660
2026-01-14 17:05:58.751,-45532090,74425750,-83188620,-64003860,12148440,17978520,24628910
2026-01-14 17:05:58.761,4460849,4207079,-12969950,-15392000,15419920,12587890,3015625
2026-01-14 17:05:58.771,4644702,-42907190,-44756100,-15553420,17373050,69384770,33769530
2026-01-14 17:05:58.781,-44573970,5453496,-14226720,-64254180,12988280,34033200,36015620
2026-01-14 17:05:58.791,3721978,5993836,-14773970,-14577170,64697260,79589840,36269530
2026-01-14 17:05:58.801,-4584283,-3305932,-5486293,-6241564,28955080,-18713380,35058590
2026-01-14 17:05:58.811,-46636940,-32636350,-55423980,-61310780,2529297,-42773440,33613280
2026-01-14 17:05:58.821,56767070,7449138,-16270710,-67529040,24731440,-59375,32441410
2026-01-14 17:05:58.831,47800920,12291060,-12291950,-48873840,3347168,-6582031,30351560
2026-01-14 17:05:58.841,-2067287,8268282,-17126110,-8627358,4873047,-71777340,27109380
2026-01-14 17:05:58.851,10207820,8610959,-17491230,-20866210,49414060,-6230469,23496090
2026-01-14 17:05:58.861,-53113280,8926880,-17831310,-53108100,2902832,-4765625,19521480
2026-01-14 17:05:58.871,-74508620,-30961810,-58324220,-31350250,-11682130,-1385498,15576170
2026-01-14 17:05:58.881,-89873000,-30797810,-58729910,-15640600,-39990230,21606440,13320310
2026-01-14 17:05:58.891,-56186160,9738254,-18711740,45667600,-5571289,31347660,96728510
2026-01-14 17:05:58.901,-11544000,9968720,-18964650,1058244,-4892578,22302250,7705078
2026-01-14 17:05:58.911,-12564270,-30383500,-59782980,2109580,-515625,16186520,6113281
2026-01-14 17:05:58.921,-6049941,10388220,-19425580,-4375395,-6904297,21313480,49121100
2026-01-14 17:05:58.931,-14606520,10576390,-19634470,4210532,-9091797,27978520,3713379
2026-01-14 17:05:58.941,-62035850,-30107280,-60646140,-41665100,-10048830,21081540,29956060
2026-01-14 17:05:58.951,-62527850,-30038220,-60887820,-40948660,-10302730,19360350,21057130
2026-01-14 17:05:58.961,-52739540,11018330,-20124750,-50512560,-9716797,31188960,1619873
2026-01-14 17:05:58.971,-52653210,-2989147,-6129350,-50408980,-99316410,-1038208,121398900
2026-01-14 17:05:58.981,-62752270,11266060,-20394920,-40137280,-11103520,-9710693,3944397
2026-01-14 17:05:58.991,-6259691,11374820,-20510590,-4015454,-12900390,-14335630,-15185550
2026-01-14 17:05:59.001,-1609377,11483580,-20626250,583070,1,-13408200,10656740,-24377440
2026-01-14 17:05:59.011,-15829630,11575940,-20723790,5576925,-12939450,17871090,-29125980
2026-01-14 17:05:59.021,-15394590,11651900,-20803200,5148794,-12285160,11395260,-31689450
2026-01-14 17:05:59.031,-14960420,11711460,-20864480,4719800,-11503910,89538580,-3581543
2026-01-14 17:05:59.041,-60594350,11754620,-20907640,-41777300,-11132810,15026860,-37768560
2026-01-14 17:05:59.051,-94887140,11789140,-20942160,84651700,-10361330,19946290,-3251953
2026-01-14 17:05:59.061,-13576760,11798640,-20949940,3341322,-9350586,23937990,-20690920
2026-01-14 17:05:59.071,-13147770,11791730,-20939580,2907148,-10380860,26831060,-20532230
2026-01-14 17:05:59.081,-12374370,11786550,-20927490,2126845,-12714840,2998047,-2861328
2026-01-14 17:05:59.091,-67276140,11791730,-20922310,57019980,-11513670,3474121,-15795900
2026-01-14 17:05:59.101,-10140490,11789140,-20907640,-127748,3,-94433590,3630371,79711910
2026-01-14 17:05:59.111,-8766330,11778780,-20883470,-1515722,-7583008,35498050,19360350
2026-01-14 17:05:59.121,-25864820,-29157800,-61751000,15567230,-7529297,25854490,31958010
2026-01-14 17:05:59.131,-5161744,-29123270,-61612890,-5153111,-7211914,25854490,5332031
2026-01-14 17:05:59.141,7781454,11646720,-20704800,-18113570,-5541992,12548830,71533200
2026-01-14 17:05:59.151,25898480,11576800,-20619350,-36249580,-7626953,94055180,83251950
2026-01-14 17:05:59.161,-923596,-29123260,-61146780,-102777400,-7104492,64941410,88183590
2026-01-14 17:05:59.171,2055199,-29131900,-60965520,-12446010,-5102539,1927185,10595700
2026-01-14 17:05:59.181,-42735420,11298870,-20293060,-61379840,-5130005,-12384030,11230470
2026-01-14 17:05:59.191,6092236,11177160,-20155820,-16522750,-18786620,4510498,11523440
2026-01-14 17:05:59.201,8067160,-29313160,-60335400,-18518400,-23449710,-703125,12451170
2026-01-14 17:05:59.211,-36986730,-29408110,-60119610,-67715490,-24646000,15075680,12109380
2026-01-14 17:05:59.221,12190510,10705000,-19643960,-22681450,-904541,-533,5808,13574220
2026-01-14 17:05:59.231,-50598880,-29667060,-59618970,-54500400,6439209,42907720,13886720
2026-01-14 17:05:59.241,-31238030,-29831060,-59351390,-74051140,101135300,-78086860,12753910
2026-01-14 17:05:59.251,17945250,10072300,-18981920,-28493160,2043457,-72265620,12958980
2026-01-14 17:05:59.261,-2796663,-3023676,-5879034,-7768507,2434082,-11077880,12939450
2026-01-14 17:05:59.271,25883800,-30487080,-58505490,-26942050,31445310,-117370600,13017580
2026-01-14 17:05:59.281,-50210450,9259200,-18155000,-55769250,5366211,-8935547,13359380
2026-01-14 17:05:59.291,-24246370,-31091280,-57849480,-81905950,62109380,-58532720,13408200
2026-01-14 17:05:59.301,-23383210,-43167860,-45772900,-82941760,45385740,55419920,12304690
2026-01-14 17:05:59.311,-2267542,8231164,-17128690,-8378766,18164060,21533200,10996090
2026-01-14 17:05:59.321,26089230,-32187520,-56805050,-36749360,5239258,19372560,10019530
2026-01-14 17:05:59.331,26514770,-32619100,-56442520,-37186980,82910160,18066410,91015620
2026-01-14 17:05:59.341,-21225280,11034480,-11925780,-85617580,81396480,21008300,7792969
2026-01-14 17:05:59.351,-21199390,6570435,-15492130,-85764320,6826172,22766110,60791020
2026-01-14 17:05:59.361,26842780,6100006,-15030340,-37549510,5371094,3149414,39111330
2026-01-14 17:05:59.371,26751280,-34621650,-54785240,-37468370,3425293,29101560,16333010
2026-01-14 17:05:59.381,26487160,5114268,-14065320,-37214600,29101560,20629880,-12191770
2026-01-14 17:05:59.391,26224750,-35700600,-53930700,-36959110,19958500,22229000,-19116210
2026-01-14 17:05:59.401,26048660,-36244400,-53507750,-36789920,16699220,19335940,-37109380
2026-01-14 17:05:59.411,25787120,36805460,-126678400,-36533560,14160160,10131840,-56103520
2026-01-14 17:05:59.421,-22761730,-37280200,-52713630,-84737140,15795900,29556270,-67041020
2026-01-14 17:05:59.431,-5067662,27794000,-117908700,-5683957,19885250,-3363037,-73535150
2026-01-14 17:05:59.441,-2311563,-3825558,-5197994,-8440051,2932129,-12176510,-74560540
2026-01-14 17:05:59.451,-2328826,5996079,-6899642,-8422788,3881836,-18811040,-8144531
2026-01-14 17:05:59.461,-2346090,1526944,-10574660,-8405525,44873050,-2775879,-87597660
2026-01-14 17:05:59.471,-50745620,56170800,-57076780,-56753260,56591800,-3701172,-86279300
2026-01-14 17:05:59.481,-24047840,746643,5,-9818528,-83433760,51904300,-3388672,-8823242
2026-01-14 17:05:59.491,23889020,4465858,-5374255,-34633730,40161130,-29858400,-89746100
2026-01-14 17:05:59.501,-24971430,41114400,-50208720,-82458380,30664060,-29418940,-90234380
2026-01-14 17:05:59.511,22941260,37829180,-46933860,-33682520,1409,054,-19787600,-8623047
2026-01-14 17:05:59.521,-50900990,34717460,-43830780,-56477050,-33911130,-1295166,-88623050
2026-01-14 17:05:59.531,-2613674,-9184100,-82035440,-8120680,-42163090,-19592280,-8588867
2026-01-14 17:05:59.541,26567000,-11825400,-79497720,-27639920,-25732420,-31201170,-7626953
2026-01-14 17:05:59.551,21309870,-14302690,-77141270,-32033870,-602417,-37890620,-6972656
2026-01-14 17:05:59.561,20709970,-16607340,-74957460,-31425340,-29266360,-32885740,-64697260
2026-01-14 17:05:59.571,20110070,22518320,-31688610,-30816800,-8892822,-25610350,-5942383
2026-01-14 17:05:59.581,-2872622,2061330,-2979567,-7827203,-19677730,-21569820,-5600586
2026-01-14 17:05:59.591,-29373590,18794610,-27989070,-77538330,-3701172,-18359380,-54833980
2026-01-14 17:05:59.601,18136870,21377810,-22298470,-28819430,-50146480,-1743164,-53125
2026-01-14 17:05:59.611,17536110,15934930,-25151840,-28211760,-51220700,-21899410,-4946289
2026-01-14 17:05:59.621,-51108140,-2680996,-6547986,-55562090,-49731440,-2475586,-51171880
2026-01-14 17:05:59.631,16422620,13765800,-23005140,-27081020,-55566410,-30786130,-5673828
2026-01-14 17:05:59.641,15821860,-28639900,-63857130,-26473350,-63183590,-3112793,-63427740
2026-01-14 17:05:59.651,15308270,12461550,-21719880,-25951130,-5703125,-34277340,-66308590
2026-01-14 17:05:59.661,14880140,12197420,-21466110,-25516090,-5839844,-41333010,-67626950
2026-01-14 17:05:59.671,14452010,12193970,-21469560,-25081060,-6352539,-40478520,-6689453
2026-01-14 17:05:59.681,-3369807,12449460,-21731970,-7254059,-6928711,-35546880,-6713867
2026-01-14 17:05:59.691,-3393112,13051090,-22338770,-7225574,-71484380,-34277340,-7036133
2026-01-14 17:05:59.701,-34000160,13912540,-23203660,-72152170,-55126950,-3581543,-67529300
2026-01-14 17:05:59.711,13683790,-26792720,-66153150,-24295580,-29760740,-36328120,-63671880
2026-01-14 17:05:59.721,13512880,-25506600,-67456540,-24121220,-13769530,-35009770,-61621100
2026-01-14 17:05:59.731,18730680,-2404784,-6893256,-18730790,-48187260,-32177730,-62353520
2026-01-14 17:05:59.741,18558040,19433350,-28731390,-18558150,5633545,-32592770,-6298828
2026-01-14 17:05:59.751,18385410,-20664230,-72281640,-18385520,9686279,-23303220,-6191406
2026-01-14 17:05:59.761,12736040,-1874799,-7416336,-23344360,119384800,-20812990,-5361328
2026-01-14 17:05:59.771,-35355340,24963670,-34249620,-70745200,15808110,-22424320,-47631840
2026-01-14 17:05:59.781,11956590,31459210,-31552020,-22570100,11053470,-22241210,-375
2026-01-14 17:05:59.791,11522420,-43011640,-49709810,-22141110,6378174,-28344730,-35595700
2026-01-14 17:05:59.801,-36796830,-42769940,-49882440,-69424560,6726074,-34057620,-26513670
2026-01-14 17:05:59.811,10396850,33004930,-42263270,-21022440,8520508,-31225590,-25268560
2026-01-14 17:05:59.821,14573890,-6456492,-86040530,-15636970,122558600,-29882810,-2565918
2026-01-14 17:05:59.831,9184102,-4201899,-5039172,-19818320,22045900,-29418940,-21923830
2026-01-14 17:05:59.841,-51815950,-41768670,-50555720,-54578080,30273440,-25268560,-18408200
2026-01-14 17:05:59.851,-40189080,-10355,-9211721,-66256730,28393560,-15454100,-19824220
2026-01-14 17:05:59.861,6931232,43472570,-52684290,-17582720,22399900,-7507324,-2322998
2026-01-14 17:05:59.871,-41803200,-41000450,-51013190,-64763460,28027340,-19927980,-25219730
2026-01-14 17:05:59.881,-42519630,-40741500,-51168560,-64098820,4099121,-29392240,-21447750
2026-01-14 17:05:59.891,-43236060,49530280,-58710920,-63434170,44018560,7543945,-26708980
2026-01-14 17:05:59.901,3986108,-4024086,-5146205,-14658310,4716797,8972168,-29858400
2026-01-14 17:05:59.911,3292983,1220519,-10380450,-13970370,55029300,12347410,-24853520
2026-01-14 17:05:59.921,2513542,-45148830,-46346910,-13196110,6279297,18688960,-21569820
2026-01-14 17:05:59.931,1734102,-39524440,-51867730,-12421850,6621094,20751950,-16247560
2026-01-14 17:05:59.941,-47068520,1778991,-10909570,-59843400,6298828,15441900,-13134770
2026-01-14 17:05:59.951,-4786269,19473060,-110692600,-5908381,5996094,8111572,-19372560
2026-01-14 17:05:59.961,42988330,2106994,-11220320,-53686420,62841800,12435910,-14489750
2026-01-14 17:05:59.971,-12938880,2265819,-11372230,-94076620,7109375,76942450,-41015620
2026-01-14 17:05:59.981,-50236340,-44794070,-46183770,-56796420,68115230,9887695,32348630
2026-01-14 17:05:59.991,-2850184,25325330,-116234100,-7856549,5205078,55358890,45928960
2026-01-14 17:06:00.001,12771430,6735988,-7644385,-23481610,37426760,1161499,1826477
2026-01-14 17:06:00.011,6728387,68484570,-77563370,-17440290,31860350,1484375,-8651733
2026-01-14 17:06:00.021,-53567480,-3794482,-5277404,-53568860,29223630,17114260,-9301758
2026-01-14 17:06:00.031,-53565580,-37832630,-52851740,-53570760,39135740,20080570,-90270990
2026-01-14 17:06:00.041,-53568170,71598880,-80663860,-53568160,48364260,27026370,-19058230
2026-01-14 17:06:00.051,-53570760,3168690,-12230220,-53565580,36816410,37646480,4437256
2026-01-14 17:06:00.061,-5361133,3256731,-12314810,-5354227,8987427,5004883,-39024350
2026-01-14 17:06:00.071,-5359410,74193560,-83248180,-5355950,-2409668,52441410,-45043940
2026-01-14 17:06:00.081,-5355093,-37280200,-53231540,-5360271,-21240230,4482422,-12268070
2026-01-14 17:06:00.091,4137161,3555387,-12603110,-14852520,-31311040,359375,8001709
2026-01-14 17:06:00.101,13633730,77304420,-86352140,-24345630,105529800,32250980,13452150
2026-01-14 17:06:00.111,-2334007,-36934940,-53525020,-8376178,1796875,37060550,17150880
2026-01-14 17:06:00.121,-951216,38937480,-129380200,-9755516,17834470,39379880,15844730
2026-01-14 17:06:00.131,5334288,4015456,-13058000,-6404789,25927730,37109380,1430664
2026-01-14 17:06:00.141,-45998190,4137165,-13177970,-61017300,5107422,24145510,14172360
2026-01-14 17:06:00.151,3886841,-36417040,-53973860,-14584940,81933590,12249760,28393560
2026-01-14 17:06:00.161,-4251102,-36313460,-54077440,-6443547,828125,5432129,3449707
2026-01-14 17:06:00.171,7255785,4458260,-13495620,-17948700,5942383,29937740,31054690
2026-01-14 17:06:00.181,9070163,455408,-1358971,-19759630,51708980,-6188965,30419920
2026-01-14 17:06:00.191,10797360,-44253730,-46085370,-21485100,63964840,-17419430,32055660
2026-01-14 17:06:00.201,-35553860,4719803,-13751980,-71288990,73876950,-29052730,35253900
2026-01-14 17:06:00.211,-3390522,-3584735,-5445724,-7292039,8041992,-39624020,3930664
2026-01-14 17:06:00.221,20613560,-35778290,-54509020,-21681650,84228510,-5288086,39160160
2026-01-14 17:06:00.231,-30780550,-35717870,-54552180,-76010530,8886719,-55615230,39208980
2026-01-14 17:06:00.241,-29485800,4947679,-13972950,-77305280,8208008,-55322260,36401370
2026-01-14 17:06:00.251,-50875090,-35622910,-54595340,-55915990,8623047,-58496100,33496090
2026-01-14 17:06:00.261,-27068930,4993427,-14013520,-79722140,98876950,-65722660,32666020
2026-01-14 17:06:00.271,-50667930,5002921,-14021290,-56123150,10664060,-64697260,27319340
2026-01-14 17:06:00.281,-50590250,-35579760,-54586700,-56200830,103125,-59814450,16845700
2026-01-14 17:06:00.291,28209440,4978751,-13993670,-29277520,98339840,-46557620,-4421997
2026-01-14 17:06:00.301,23920100,4961488,-13976410,-34602660,10341800,-3425293,-1895752
2026-01-14 17:06:00.311,24351680,4927825,-13941020,-35034240,11728520,-18615720,-23693850
2026-01-14 17:06:00.321,-23564470,-3567467,-5445722,-83295660,11298830,2019043,-36694340
2026-01-14 17:06:00.331,24521720,4832877,-13846070,-35209460,10175780,6738281,-51904300
2026-01-14 17:06:00.341,24435410,4781087,-13794280,-35123140,10791020,10498050,-60253900
2026-01-14 17:06:00.351,24176460,-35855980,-54310500,-34864200,10966800,13203130,-63623050
2026-01-14 17:06:00.361,-24255000,-44193300,-46024940,-82605130,10039060,16171880,-61572260
2026-01-14 17:06:00.371,-24764270,-36045870,-54241440,-82078590,83740230,19355470,-53027340
2026-01-14 17:06:00.381,-50590250,4501421,-13538780,-56200830,64501950,20527340,-32885740
2026-01-14 17:06:00.391,-50624770,-36296190,-54163760,-56114510,34326170,18583980,-51460260
2026-01-14 17:06:00.401,21509270,-36451560,-54111970,-32179750,-119262700,13710940,265625
2026-01-14 17:06:00.411,-27094830,82733740,-91798720,-79575410,-57421880,8066406,4621582
2026-01-14 17:06:00.421,20304290,-36762300,-53991120,-30967860,-93652340,24023440,56884770
2026-01-14 17:06:00.431,-2826874,8048001,-8956398,-7833244,-11699220,-21374510,69384770
2026-01-14 17:06:00.441,-50823300,38531800,-129440600,-55743350,-14052730,-40234380,6982422
2026-01-14 17:06:00.451,-28933380,-37167980,-53809860,-77616020,-17265620,-4699707,57128900
2026-01-14 17:06:00.461,18928400,3709895,-12811130,-29581610,-18544920,-5395508,40112300
2026-01-14 17:06:00.471,-50797400,3690907,-12795590,-55700200,-16113280,-5517578,25634770
2026-01-14 17:06:00.481,-50745620,3690907,-12795590,-55751980,-13476560,-5385742,93688970
2026-01-14 17:06:00.491,-27440100,-37237040,-53792590,-79057500,-11757810,-58984380,-11199950
2026-01-14 17:06:00.501,-26490610,3788446,-12887950,-80006990,-9711914,-6489258,-3334961
2026-01-14 17:06:00.511,-2537718,38868430,-129794500,-8113773,-87597660,-62597660,-4958496
2026-01-14 17:06:00.521,-24185950,8091163,-8999555,-82363440,-82470700,-5776367,-6303711
2026-01-14 17:06:00.531,-2273589,41380250,-132116400,-8384806,-7246094,-56689450,-7939453
2026-01-14 17:06:00.541,-21285710,-452898,2,-453077,7,-85332740,-57714840,-55615230,-88964850
2026-01-14 17:06:00.551,-1974929,-44328830,-46131120,-8690372,-44482420,-49804690,-9790039
2026-01-14 17:06:00.561,-18212830,4693908,-13726090,-88474660,-40307620,-3581543,-9790039
2026-01-14 17:06:00.571,31435690,4907972,-13926350,-42106170,-44018560,-21118160,-9589844
2026-01-14 17:06:00.581,-49528540,5140164,-14143000,-57210740,-40625,-17004400,-88427740
2026-01-14 17:06:00.591,34626820,5380125,-14369150,-45302480,-27319340,-15527340,-7216797
2026-01-14 17:06:00.601,-1177361,-3475112,-5498377,-9498294,-13061520,-20654300,-53222660
2026-01-14 17:06:00.611,37733360,-34423120,-55156400,-48410750,-19604490,-22644040,-38598630
2026-01-14 17:06:00.621,-876116,6145752,-15088170,-9801266,-2927246,-21557620,-29077150
2026-01-14 17:06:00.631,-720745,5,6403839,-15330720,-9956637,-36523440,-23400880,-18139650
2026-01-14 17:06:00.641,-48622230,-33430470,-55682930,-58168860,-37182620,-29223630,-11248780
2026-01-14 17:06:00.651,-48466860,-33085200,-55855560,-58324220,-40112300,-2644043,-4928589
2026-01-14 17:06:00.661,-2554976,7215221,-16090300,-104236100,-40893560,-2368164,-25558470
2026-01-14 17:06:00.671,-48147480,7500063,-16357880,-58643600,-28588870,-21203610,8224487
2026-01-14 17:06:00.681,638744,12213380,-12214260,-107429800,-2133789,-16296390,4638672
2026-01-14 17:06:00.691,-47836740,-31591920,-56589250,-58954340,-20336910,-5496216,9173584
2026-01-14 17:06:00.701,375477,5,-3120351,-5678779,-11052860,-12792970,50994870,13024900
2026-01-14 17:06:00.711,530845,-30797810,-56986310,-11208230,-1687622,39794920,1574707
2026-01-14 17:06:00.721,687080,5,9008878,-17766570,-11362740,41778560,231781,24719240
2026-01-14 17:06:00.731,-47198000,-29995060,-57374740,-59541290,53771970,12229920,32763670
2026-01-14 17:06:00.741,982282,-29580750,-57564640,-11654490,-34729000,11749270,36132810
2026-01-14 17:06:00.751,59228820,9938512,-18632330,-69901020,-107055700,-28823850,3918457
2026-01-14 17:06:00.761,1250729,10243210,-18914590,-11921210,-6262207,-8001709,43139650
2026-01-14 17:06:00.771,-46611040,-28380940,-58125690,-60059190,-50964360,-15637210,48266600
2026-01-14 17:06:00.781,1512269,10851740,-19479960,-12177570,-11981200,-17480470,48510740
2026-01-14 17:06:00.791,1633975,11146940,-19754450,-12297550,-17260740,-18286130,48901370
2026-01-14 17:06:00.801,1756544,-27198400,-58669490,-12416670,-23669430,-17248540,47583010
2026-01-14 17:06:00.811,-46084510,-2680995,-5885074,-60482140,-23583980,-16491700,47729490
2026-01-14 17:06:00.821,67869990,-26421550,-59032020,-78523210,-19482420,-16503910,4963379
2026-01-14 17:06:00.831,-45816930,12327760,-20852400,-60680670,-13122560,-2175293,5004883
2026-01-14 17:06:00.841,-45678820,-25653330,-59385920,-60766990,-101989700,-23376460,5390625
2026-01-14 17:06:00.851,-45540720,12891410,-21376340,-60853310,-13867190,-19384770,5605469
2026-01-14 17:06:00.861,2450530,-24919640,-59722560,-13086480,-28222660,-13989260,5185547
2026-01-14 17:06:00.871,78275650,13447290,-21890790,-79338720,-45458980,-8117676,42211910
2026-01-14 17:06:00.881,-45135020,1372612,-2214713,-61138140,-48046880,-12573240,45043940
2026-01-14 17:06:00.891,28199680,-40181300,-43822150,-134421100,-46728520,-15319820,48095700
2026-01-14 17:06:00.901,2943401,14282830,-22660740,-13560360,-37695310,-17333980,5551758
2026-01-14 17:06:00.911,3075465,14553000,-22908460,-13687250,-40405270,-19165040,5703125
2026-01-14 17:06:00.921,3206667,-2267540,-6065478,-13815000,-5361328,-13659670,5205078
2026-01-14 17:06:00.931,-44375440,15084720,-23395290,-61656050,-62646480,-55267340,45654300
2026-01-14 17:06:00.941,-44211440,15354890,-23643020,-61768260,-62597660,-713501,4831543
2026-01-14 17:06:00.951,-44038810,-21579180,-61077720,-61871840,-6230469,-18188480,4663086
2026-01-14 17:06:00.961,-43866180,15868470,-24113440,-61992690,-6088867,-2614746,5078125
2026-01-14 17:06:00.971,3911874,16112750,-24335280,-14490860,-7128906,-2088623,43017580
2026-01-14 17:06:00.981,4070695,-20552020,-61466150,-14642770,-77978510,-14477540,3173828
2026-01-14 17:06:00.991,4220888,16599570,-24780670,-14786060,-8261719,-42785640,23937990
2026-01-14 17:06:01.001,-43115220,-19878740,-61725100,-62450170,-7163086,36697390,24194340
2026-01-14 17:06:01.011,4557523,17076910,-25218300,-15105430,-5517578,48980710,3022461
2026-01-14 17:06:01.021,4735336,17302190,-25424600,-15272880,-41137700,13757320,36938480
2026-01-14 17:06:01.031,-42467840,17525750,-25632620,-62804060,-35302740,18579100,4025879
2026-01-14 17:06:01.041,5083192,17741550,-25831150,-15598300,-28125,27441410,43481440
2026-01-14 17:06:01.051,5253236,17938350,-26014140,-15756260,-20227050,2529297,55322260
2026-01-14 17:06:01.061,-51396440,-38094160,-42525670,-53530190,-2130127,21472170,63427740
2026-01-14 17:06:01.071,-41587410,-1791070,-6257100,-63235650,-24267580,-20690920,63378900
2026-01-14 17:06:01.081,5752148,18467470,-26503560,-16224100,-30126950,-22583010,60839840
2026-01-14 17:06:01.091,-4117309,-1750503,-6275227,-6344281,-41210940,-3803711,53808590
2026-01-14 17:06:01.101,-40974560,18746270,-26759920,-63555020,-51171880,-50634770,44799800
2026-01-14 17:06:01.111,-4078469,-17142510,-62890380,-6364134,-58496100,-5878906,3491211
2026-01-14 17:06:01.121,-40594770,18988820,-26983470,-63744920,-6303711,-6142578,22546390
2026-01-14 17:06:01.131,6500511,-16831770,-63028490,-16925850,-7109375,-5444336,82458500
2026-01-14 17:06:01.141,6643800,-3756677,-4220717,-17058780,-68066410,-5078125,-34423830
2026-01-14 17:06:01.151,-40042340,-16555550,-63149320,-64021130,-4909668,-52246100,15274050
2026-01-14 17:06:01.161,6929508,19409180,-27374490,-17325490,-33569340,-49438480,3501892
2026-01-14 17:06:01.171,11737690,19498090,-27458220,-12776260,-34887700,-3552246,-117004400
2026-01-14 17:06:01.181,-3948993,19586130,-27542810,-6426281,-40429690,-113342300,-19946290
2026-01-14 17:06:01.191,7334333,19674180,-27627400,-17697520,-41088870,-1838684,-25952150
2026-01-14 17:06:01.201,7478482,19770850,-27720620,-17829590,-39892580,-12565610,-18945310
2026-01-14 17:06:01.211,-3890299,-15899540,-63563650,-6448725,-46118160,-9811401,-9197998
2026-01-14 17:06:01.221,-50332160,19946940,-27889800,-52919940,-55029300,-4385376,-122802700
2026-01-14 17:06:01.231,-38488640,-15692380,-63701750,-64642610,-70654300,-73913580,-10913090
2026-01-14 17:06:01.241,-38281480,-15580170,-63762180,-64728920,-9008789,-501709,-16870120
2026-01-14 17:06:01.251,-38074320,-15467950,-63822600,-64815240,-10810550,-45043940,-19067380
2026-01-14 17:06:01.261,8387395,-15347120,-63891650,-18664270,-11132810,-12042240,-15332030
2026-01-14 17:06:01.271,13168050,20416500,-28335200,-14194360,-10751950,-19067380,-49560550
2026-01-14 17:06:01.281,-37409680,-15088160,-64029760,-65082830,-10449220,-20361330,30303960
2026-01-14 17:06:01.291,8882852,-14958690,-64107440,-19118290,-98828130,-19042970,13244630
2026-01-14 17:06:01.301,9045130,-14820590,-64176500,-19266760,-9785156,-20214840,18530270
2026-01-14 17:06:01.311,9197910,-14682480,-64245550,-19407460,-9638672,-24255370,17736820
2026-01-14 17:06:01.321,-49542360,-14561630,-64314610,-52432250,-9223633,-30078120,14160160
2026-01-14 17:06:01.331,9495706,2103108,-2891180,-19679360,-8378906,-39892580,13659670
2026-01-14 17:06:01.341,9631220,-36871060,-41884340,-19802790,-82421870,-37475580,6866455
2026-01-14 17:06:01.351,9767602,21225290,-29097370,-19925350,-8823242,-16296390,-9265137
2026-01-14 17:06:01.361,-35761020,21322830,-29189730,-65678410,-84277340,52886960,-20288090
2026-01-14 17:06:01.371,-3556251,21428130,-29291590,-6573882,-68652340,11151120,-17333980
2026-01-14 17:06:01.381,-35372600,21532580,-29394300,-65773360,-5239258,10821530,-9802246
2026-01-14 17:06:01.391,-3517410,-13724360,-64858400,-6581652,-4309082,17919920,-50323490
2026-01-14 17:06:01.401,10401170,25286410,-26072060,-20482960,-40844730,19677730,-29006960
2026-01-14 17:06:01.411,1052113,-36686340,-41844630,-2058742,-3869629,75805660,43151860
2026-01-14 17:06:01.421,10650620,-3665785,-4183859,-20699620,-37353520,-1616211,12548830
2026-01-14 17:06:01.431,-3437135,-38979350,-39499840,-6594601,-41064450,-33203120,19177250
2026-01-14 17:06:01.441,10892310,22223110,-30067570,-20906780,-4658203,-4741211,2775879
2026-01-14 17:06:01.451,11005380,22353450,-30196190,-21000860,-51660160,-55615230,3005371
2026-01-14 17:06:01.461,11108960,-1279213,-6560073,-21087180,-5708008,-6538086,31420900
2026-01-14 17:06:01.471,11203910,-36524930,-41833410,-21164870,-56152340,-68408200,3269043
2026-01-14 17:06:01.481,15773520,26288890,-27072130,-16767890,-47436520,-6040039,3552246
2026-01-14 17:06:01.491,11386040,-12334660,-65971890,-21310740,-4411621,-49951170,42236330
2026-01-14 17:06:01.501,-47885940,23060380,-30887580,-51171160,-3935547,-39990230,49121100
2026-01-14 17:06:01.511,11551770,23207980,-31033460,-21438490,-3425293,-38110350,5932617
2026-01-14 17:06:01.521,11621690,-1183402,-6638622,-21489420,-25146480,-37451170,70410160
2026-01-14 17:06:01.531,-32627730,23529950,-31350240,-65842410,-2397461,-29638670,76660160
2026-01-14 17:06:01.541,11737350,-1150601,-6669696,-21563650,-32739260,-25610350,8305664
2026-01-14 17:06:01.551,-32342890,-11333380,-66852310,-65730200,-41748050,-30908200,93847660
2026-01-14 17:06:01.561,11834890,-36301370,-41884340,-21621480,-40673830,-359375,10078130
2026-01-14 17:06:01.571,11870280,-1103990,-6716307,-21637880,-45776370,-34936520,99072260
2026-01-14 17:06:01.581,16292630,24306790,-32127090,-17267320,-5083008,-29223630,9477539
2026-01-14 17:06:01.591,11933290,24452670,-32274690,-21661190,-55371100,-22961430,98779300
2026-01-14 17:06:01.601,-31721400,24597680,-32423160,-65350410,-5600586,-20263670,95996100
2026-01-14 17:06:01.611,11988530,-10496120,-67793170,-21675000,-46875,-25683590,99609380
2026-01-14 17:06:01.621,12008380,-36300510,-42057840,-21672410,-36010740,-33154300,11855470
2026-01-14 17:06:01.631,-31384770,24986110,-32828850,-65048300,-3371582,-3642578,12460940
2026-01-14 17:06:01.641,12011840,-36363520,-42167460,-21634430,-38500980,-35717770,11621090
2026-01-14 17:06:01.651,-3120353,-36412720,-42239100,-6481526,-4165039,-36328120,11005860
2026-01-14 17:06:01.661,-31108560,-10159480,-68613180,-64685770,-39453120,-33032230,10830080
2026-01-14 17:06:01.671,11983350,25376260,-33267340,-21542070,-3293457,-2993164,11152340
2026-01-14 17:06:01.681,-30961820,-10133580,-68932540,-64435450,-29907230,-29785160,11367190
2026-01-14 17:06:01.691,11941920,-10142220,-69079290,-21462660,-2919922,-29541020,11074220
2026-01-14 17:06:01.701,1190823,-10176740,-69217400,-2141001,-33422850,-18188480,10488280
2026-01-14 17:06:01.711,11882360,-1021126,-6935551,-21366850,-3803711,-1081543,9560547
2026-01-14 17:06:01.721,-30763290,25619670,-33593610,-63926180,-3696289,-8129883,8979492
2026-01-14 17:06:01.731,-30720130,25636940,-33628140,-63796700,-25634770,-7623291,9277344
2026-01-14 17:06:01.741,11776190,25635210,-33647130,-21214060,-9020996,-25131230,10029300
2026-01-14 17:06:01.751,-30668340,-10530640,-69795710,-63572280,74043270,9051514,9663086
2026-01-14 17:06:01.761,-3065110,25587730,-33642810,-6345143,27404780,27685550,765625
2026-01-14 17:06:01.771,-30651080,25542850,-33618640,-63347860,-16571050,46923830,4716797
2026-01-14 17:06:01.781,11610460,-10936330,-70028780,-21000000,2748,966,5595703,25805660
2026-01-14 17:06:01.791,11580250,25435820,-33553040,-20961160,86120610,54785160,20007320
2026-01-14 17:06:01.801,11550040,-11247070,-70132350,-20922320,20739750,4321289,2980957
2026-01-14 17:06:01.811,11518110,-1142833,-7015825,-20885200,35888670,26782230,4494629
2026-01-14 17:06:01.821,-3064246,-37969010,-43824740,-6297672,37231440,13342290,38134770
2026-01-14 17:06:01.831,-30651080,28765060,-29585060,-62933540,23254400,15197750,78063970
2026-01-14 17:06:01.841,15647580,-12015290,-70175510,-16583090,12695310,17602540,-12573240
2026-01-14 17:06:01.851,11422290,-12213820,-70166880,-20773850,1772461,15844730,-11810300
2026-01-14 17:06:01.861,11414520,-38389370,-44163960,-20764360,21521000,2010498,-12335210
2026-01-14 17:06:01.871,11405890,-12584980,-70123730,-20755730,17199710,3564453,-21850590
2026-01-14 17:06:01.881,11405890,24513960,-32800360,-20755720,11657720,5410156,-30297850
2026-01-14 17:06:01.891,11413660,2440434,-3270283,-20765220,8782959,65478520,-27734380
2026-01-14 17:06:01.901,-3065111,-13120140,-70002880,-6286450,60516360,64404300,-13720700
2026-01-14 17:06:01.911,-30642450,-13292770,-69951090,-62890380,26947020,61865230,-9208679
2026-01-14 17:06:01.921,11480120,-13465410,-69882030,-20836860,-7421875,5410156,12463380
2026-01-14 17:06:01.931,-30599290,23907150,-32250520,-63002590,-18249510,41674800,1875
2026-01-14 17:06:01.941,11561260,23774220,-32124500,-20928360,-26538090,2668457,23181150
2026-01-14 17:06:01.951,-30590660,23633530,-31988980,-63166590,-32836910,14025880,26782230
2026-01-14 17:06:01.961,-3058204,23492830,-31853470,-6326153,-31982420,4142761,2980957
2026-01-14 17:06:01.971,-30582030,-14294050,-69346860,-63365120,-2692871,-8508301,36572260
2026-01-14 17:06:01.981,-30590650,23187270,-31554810,-63477330,-22583010,-15759280,4038086
2026-01-14 17:06:01.991,-3061658,-14656590,-69053400,-6358956,-15698240,-16748050,33325200
2026-01-14 17:06:02.001,11811580,26607140,-27444410,-21247730,-9082031,-14160160,21130370
2026-01-14 17:06:02.011,-30694240,-39197290,-44564470,-63822600,-85372930,-107177700,59265140
2026-01-14 17:06:02.021,-30737400,22448400,-30826300,-63952080,37200930,-78186030,-10229490
2026-01-14 17:06:02.031,-30797820,22249010,-30628630,-64081550,13635250,-74035650,-25610350
2026-01-14 17:06:02.041,-30832340,-15675120,-68138430,-64219660,2619629,-7183838,-38183590
2026-01-14 17:06:02.051,-45937780,-15882280,-67948540,-49286860,34155270,-6854248,-5048828
2026-01-14 17:06:02.061,-30884130,-16080810,-67750010,-64513140,4169922,-119140600,-6064453
2026-01-14 17:06:02.071,-3088416,-39350940,-44479880,-6466853,4560547,-22216800,-68896480
2026-01-14 17:06:02.081,-46147520,-16443340,-67370220,-49543220,5810547,-3701172,-6484375
2026-01-14 17:06:02.091,12282010,-1659007,-6718896,-21864890,63183590,-47216800,-60253900
2026-01-14 17:06:02.101,12379550,20956840,-29331290,-21974510,734375,-53515620,-49267580
2026-01-14 17:06:02.111,12477950,-16866290,-66843690,-22083280,81152340,-55859380,-44799800
2026-01-14 17:06:02.121,-30685610,20666820,-29034360,-65471250,87060540,-54833980,-40795900
2026-01-14 17:06:02.131,17032450,20539930,-28902300,-17994880,93603520,-5883789,-28955080
2026-01-14 17:06:02.141,-30538860,20430320,-28787500,-65790620,10332030,-46166990,-19348140
2026-01-14 17:06:02.151,-3046982,20312920,-28663200,-6594598,10322270,-37158200,-19445800
2026-01-14 17:06:02.161,-30409390,20212790,-28556170,-66092730,10039060,-265625,-18249510
2026-01-14 17:06:02.171,13124460,-17392830,-65971890,-22783300,10507810,-12817380,-15405270
2026-01-14 17:06:02.181,13233220,20039300,-28367140,-22898970,10791020,47424320,-10845950
2026-01-14 17:06:02.191,-48181580,-39182620,-44009450,-48544970,10732420,16174320,-4788208
2026-01-14 17:06:02.201,-30115920,19909820,-28220390,-66679690,11240230,22961430,33294680
2026-01-14 17:06:02.211,-46586020,-17505030,-65514400,-50261380,11044920,27954100,13452150
2026-01-14 17:06:02.221,-29977810,-17530930,-65419460,-66921370,11181640,3215332,21960450
2026-01-14 17:06:02.231,-2991739,-1753956,-6534178,-6701632,10917970,35473630,2927246
2026-01-14 17:06:02.241,-29856970,-17556820,-65272710,-67111260,10400390,26953120,38671880
2026-01-14 17:06:02.251,13837440,-3901602,-4377900,-23537710,9511719,18798830,4326172
2026-01-14 17:06:02.261,-29762020,19633610,-27909660,-67258010,90283200,5227661,47436520
2026-01-14 17:06:02.271,-48322190,19599080,-27875130,-48697840,84033200,-56732180,44311520
2026-01-14 17:06:02.281,-2971024,19564550,-27840600,-6732705,7548828,-1430664,37036130
2026-01-14 17:06:02.291,13982450,-17712200,-65065560,-23686180,75390620,-19311520,35424800
2026-01-14 17:06:02.301,-46625720,19510180,-27791400,-50394310,74072260,-23034670,29663090
2026-01-14 17:06:02.311,13984170,19482550,-27767230,-23684450,70458980,-17028810,12585450
2026-01-14 17:06:02.321,18349380,-39088540,-43810060,-19319240,6582031,-13757320,29342650
2026-01-14 17:06:02.331,13978130,19450620,-27747380,-23673230,74365230,-2277832,-2588272
2026-01-14 17:06:02.341,13972950,-1791072,-6512599,-23661150,890625,-25756840,-6304932
2026-01-14 17:06:02.351,-2959804,-17945250,-65177780,-6721486,10458980,-22485350,-11047360
2026-01-14 17:06:02.361,13964320,-1796250,-6524684,-23635250,11289060,-17944340,-14318850
2026-01-14 17:06:02.371,-29511690,19511040,-27842330,-67094000,11884770,-12634280,-23754880
2026-01-14 17:06:02.381,18308730,19549880,-27889800,-19273580,11455080,-8099365,-34570310
2026-01-14 17:06:02.391,-4630379,-17971150,-65514410,-5006027,11474610,-11883550,-3930664
2026-01-14 17:06:02.401,13981590,-39410500,-44178640,-23600730,11308590,-11016850,-45141600
2026-01-14 17:06:02.411,13990220,-1791935,-6577337,-23592090,11445310,-37078860,-4555664
2026-01-14 17:06:02.421,-2910602,19841630,-28219530,-6672283,10976560,-6816864,-46972660
2026-01-14 17:06:02.431,-28985160,-17798510,-66084090,-66636530,10449220,-15167240,-4897461
2026-01-14 17:06:02.441,-28847060,24221650,-24305620,-66550210,9692383,-3274536,-43017580
2026-01-14 17:06:02.451,-28700320,20198120,-28605370,-66455260,9042969,-21759030,-3930664
2026-01-14 17:06:02.461,-28527690,20349180,-28765050,-66351680,8256836,2218628,-30615230
2026-01-14 17:06:02.471,14215500,-17392830,-66835060,-23677550,7573242,57281500,-22485350
2026-01-14 17:06:02.481,-45273140,-17254710,-67042220,-49071070,61621100,11578370,-23669430
2026-01-14 17:06:02.491,-45121220,20865350,-29301940,-48929510,55615230,15026860,-18786620
2026-01-14 17:06:02.501,14406260,-16918080,-67482430,-23780260,53027340,17285160,-11047360
2026-01-14 17:06:02.511,14481360,-16745450,-67706860,-23826010,5151367,20092770,-6124878
2026-01-14 17:06:02.521,-27353780,21472160,-29920830,-65781990,4272461,27685550,-88378900
2026-01-14 17:06:02.531,19236750,21687080,-30137490,-19329560,35107420,31054690,-10760500
2026-01-14 17:06:02.541,-26896300,21920140,-30370540,-65600730,30078120,32348630,-10571290
2026-01-14 17:06:02.551,14821450,22153190,-30603600,-24038350,30395510,35205080,-39764400
2026-01-14 17:06:02.561,1491638,22395740,-30844430,-2409876,26879880,33496090,-25466920
2026-01-14 17:06:02.571,-43788480,-15355750,-69096550,-47707260,24499510,3491211,-31547550
2026-01-14 17:06:02.581,-2590367,22899830,-31341610,-6526408,21154780,3449707,-36468500
2026-01-14 17:06:02.591,15225410,23161370,-31597970,-24307660,19921880,31713870,-7714844
2026-01-14 17:06:02.601,15328120,-14509850,-69787090,-24377580,17004400,3173828,-9802246
2026-01-14 17:06:02.611,-25126810,23696540,-32115870,-65039670,16210940,27807620,-1126709
2026-01-14 17:06:02.621,1556722,-1386247,-7021004,-2455280,13562010,24719240,-18688960
2026-01-14 17:06:02.631,-24591640,-13508570,-70425830,-64936090,13366700,23840330,-23876950
2026-01-14 17:06:02.641,15840850,-1312013,-7062437,-24762550,14697270,21740720,-25463870
2026-01-14 17:06:02.651,-2401335,-12714460,-70822890,-6489294,19628910,19445800,-21008300
2026-01-14 17:06:02.661,16149000,-12291510,-71004160,-25006820,29541020,17810060,-2052002
2026-01-14 17:06:02.671,-2340048,25515230,-33818900,-6486702,4111328,22583010,-15222170
2026-01-14 17:06:02.681,-23089730,25848420,-34124460,-64867030,4868164,28076170,-9899902
2026-01-14 17:06:02.691,-41726380,-1093631,-7153067,-45936910,5361328,36157230,-8300781
2026-01-14 17:06:02.701,-22468250,-38007850,-44131160,-64901560,5493164,37060550,-8544922
2026-01-14 17:06:02.711,-22157510,-9969584,-71824160,-64918820,59033200,3474121,-4714966
2026-01-14 17:06:02.721,-21838140,-9477580,-71970900,-64944710,65283200,3347168,5392456
2026-01-14 17:06:02.731,-21527400,-8985572,-72100370,-64979240,6826172,33129880,125
2026-01-14 17:06:02.741,-2122531,27824200,-35894820,-6500513,6855469,29736330,21105960
2026-01-14 17:06:02.751,17764840,-7992930,-72333430,-26360270,6772461,24963380,27441410
2026-01-14 17:06:02.761,-20612440,-7492292,-72437010,-65082820,6665039,2163086,32202150
2026-01-14 17:06:02.771,-20318960,-700026,-7253195,-65134620,6821289,26171880,40063480
2026-01-14 17:06:02.781,-20034120,-6508282,-72609650,-65177780,6323242,32885740,4897461
2026-01-14 17:06:02.791,-1974931,-6016276,-72687330,-6522094,6508789,4729004,54248050
2026-01-14 17:06:02.801,-19473060,-35783470,-42505820,-65272720,7241211,69384770,56396480
2026-01-14 17:06:02.811,-39955160,29985580,-37773070,-44566200,8046875,11396480,56689450
2026-01-14 17:06:02.821,19003490,30273870,-38019940,-27434910,8227539,16210940,55126950
2026-01-14 17:06:02.831,19178720,30535410,-38241770,-27587690,72998050,19541020,56933590
2026-01-14 17:06:02.841,-39586590,-3711620,-72954910,-44296020,50390620,1984375,52197260
2026-01-14 17:06:02.851,-1810928,-3288668,-72980800,-6556621,2397461,16845700,39404300
2026-01-14 17:06:02.861,-17815780,31258750,-38847710,-65652510,-9313965,11347660,20898440
2026-01-14 17:06:02.871,19952980,31477990,-39025530,-28280820,-47021480,5288086,-522995
2026-01-14 17:06:02.881,20171360,-33975130,-41068640,-28476760,-7495117,-6756592,-27319340
2026-01-14 17:06:02.891,-38960790,-161410,3,-7298079,-43868760,-96435540,-5600586,-48120120
2026-01-14 17:06:02.901,-1651243,-1130748,-72980800,-6605821,-10410160,-90966800,-47607420
2026-01-14 17:06:02.911,20909370,32505160,-39862800,-29137080,-95751950,-11152340,-3166504
2026-01-14 17:06:02.921,21182990,-6904,25,-7297218,-29381360,-80078130,-12050780,6504059
2026-01-14 17:06:02.931,-15303960,-32571620,-39917180,-66368940,-5834961,-11582030,31030270
2026-01-14 17:06:02.941,21715560,105308,-7297218,-29850060,-42285160,-11035160,51464840
2026-01-14 17:06:02.951,-14501220,33721370,-40856300,-66532940,-27124020,-10224610,7363281
2026-01-14 17:06:02.961,22195490,218382,8,-7296356,-30267830,-13085940,-9814453,8911133
2026-01-14 17:06:02.971,-1378479,272761,-7297217,-6664516,-5126953,-9404297,10791020
2026-01-14 17:06:02.981,22605490,-31061080,-38682850,-30617410,5316162,-8623047,12089840
2026-01-14 17:06:02.991,22774670,3711620,-73006700,-30758970,6347656,-79345700,12783200
2026-01-14 17:06:03.001,-37102390,4151836,-73032590,-42481650,8087158,-70410160,12392580
2026-01-14 17:06:03.011,-126455,7,-30378320,-38139920,-666625,6,41870120,-6113281,12138670
2026-01-14 17:06:03.021,-12420980,-30193600,-37996630,-66645160,-3375244,-5366211,12089840
2026-01-14 17:06:03.031,26795740,523944,-7315345,-27583810,-793457,-5048828,11445310
2026-01-14 17:06:03.041,-12032560,-29899250,-37773070,-66550210,-10913090,-45092770,10039060
2026-01-14 17:06:03.051,23402190,5800484,-73265650,-31236310,-15319820,-34643560,8330078
2026-01-14 17:06:03.061,-11687290,-29677420,-37615110,-66429370,-19433590,-23095700,7138672
2026-01-14 17:06:03.071,-1154057,-29585930,-37551240,-6636896,-25170900,-14648440,7529297
2026-01-14 17:06:03.081,-1140246,-29513420,-37502900,-6629991,-30859380,-12524410,7553711
2026-01-14 17:06:03.091,-1129024,659460,-7352460,-6623948,-3552246,-14904790,7558594
2026-01-14 17:06:03.101,27113810,-29415020,-37445930,-27887210,-3791504,-21765140,90625
2026-01-14 17:06:03.111,-35849940,-29389120,-37437300,-41351760,-4609375,-23388670,8066406
2026-01-14 17:06:03.121,23664590,6922606,-73697230,-31370960,-5288086,-20629880,45654300
2026-01-14 17:06:03.131,23680130,-32966180,-33773930,-31372690,-54345700,-17468260,16809080
2026-01-14 17:06:03.141,23703440,7112504,-73800820,-31383900,-5600586,-19677730,1307373
2026-01-14 17:06:03.151,23718110,721609,8,-7385262,-31386490,-62109380,-27075200,2590332
2026-01-14 17:06:03.161,-10711910,730243,-7388713,-65851040,-59814450,-3173828,26635740
2026-01-14 17:06:03.171,23755230,37338040,-43989600,-31401170,-6459961,-29638670,80566410
2026-01-14 17:06:03.181,-10599700,-29150020,-37296600,-65773360,-61376950,-23266600,-11035160
2026-01-14 17:06:03.191,-1054792,37484770,-44119080,-6573882,-6464844,-1665039,-1796875
2026-01-14 17:06:03.201,-10487490,-2903175,-3720769,-65712940,-6035156,-12695310,-22546390
2026-01-14 17:06:03.211,27258050,7906616,-74007980,-28019190,-58691410,-13427730,-21826170
2026-01-14 17:06:03.221,-10358010,37746320,-44340910,-65669780,-5834961,-16577150,-21521000
2026-01-14 17:06:03.231,-1029762,8225984,-74016610,-6566115,-54052740,-1887207,-17773440
2026-01-14 17:06:03.241,-1023718,-28697730,-36937520,-6565253,-4794922,-17956540,-11022950
2026-01-14 17:06:03.251,23933900,38002680,-44550660,-31515970,-44799800,-13256840,-21392820
2026-01-14 17:06:03.261,23962390,8692096,-74016610,-31539270,-4650879,-103881800,-11846920
2026-01-14 17:06:03.271,-1009044,-28442230,-36726910,-6562664,-46020510,-18310550,-30932620
2026-01-14 17:06:03.281,24002090,9002840,-73999340,-31568620,-39648440,8728027,-53466800
2026-01-14 17:06:03.291,-9995478,-28245420,-36561180,-65617990,-35009770,13793950,-6386719
2026-01-14 17:06:03.301,-9935058,935676,5,-7395618,-65626620,-27441410,16271970,-7675781
2026-01-14 17:06:03.311,-9866006,9538002,-73930290,-65643890,-26171880,23852540,-8491211
2026-01-14 17:06:03.321,-9796956,-27902750,-36265120,-65661150,-22338870,375,-9716797
2026-01-14 17:06:03.331,24222200,-27773270,-36152900,-31762830,-20544430,55859380,-11123050
2026-01-14 17:06:03.341,-959842,5,1015949,-7382671,-6572158,-20507810,7089844,-10693360
2026-01-14 17:06:03.351,24377570,10401170,-73774920,-31900940,-21582030,8046875,-93115230
2026-01-14 17:06:03.361,28188010,-27313200,-35749800,-28263140,-26904300,85058590,-77978510
2026-01-14 17:06:03.371,24577830,10927700,-73662710,-32080480,-31323240,89501950,-61816410
2026-01-14 17:06:03.381,-9020102,-26937730,-35417480,-65902840,-31274410,8701172,-41723630
2026-01-14 17:06:03.391,24820380,-26728840,-35229320,-32304040,-37548830,7260742,-27172850
2026-01-14 17:06:03.401,-8700728,11825400,-73386500,-66049570,-39990230,51708980,-23266600
2026-01-14 17:06:03.411,-8553994,12136140,-73265650,-66144520,-43603520,3581543,-23535160
2026-01-14 17:06:03.421,25182910,39751450,-45822970,-32649310,-4152832,16174320,-32543940
2026-01-14 17:06:03.431,-8277780,12731730,-73015330,-66351680,-32641600,-3744507,-44848630
2026-01-14 17:06:03.441,25419420,-2562052,-3421424,-32878910,-26391600,-17663570,-44750980
2026-01-14 17:06:03.451,25541990,-25387480,-33998440,-32998030,-17468260,-24438480,-42285160
2026-01-14 17:06:03.461,25655060,-25153560,-33783510,-33109380,-5609131,-27416990,-37475580
2026-01-14 17:06:03.471,-7759882,14009210,-72480170,-66748740,5078125,-32885740,-24658200
2026-01-14 17:06:03.481,-34268620,14328580,-72350690,-40188210,1303711,-3371582,-8996582
2026-01-14 17:06:03.491,25980480,40547300,-46304620,-33422710,14990230,-3857422,12597660
2026-01-14 17:06:03.501,2608577,40654320,-46370220,-3352454,15808110,-38549800,20117190
2026-01-14 17:06:03.511,-7276506,40760500,-46436680,-67076740,15637210,-37475580,1920166
2026-01-14 17:06:03.521,26271360,-23823420,-32558680,-33701510,13562010,-3713379,19238280
2026-01-14 17:06:03.531,-706935,8,-23633520,-32386040,-6719760,12030030,-38598630,10424810
2026-01-14 17:06:03.541,-34103750,-23453120,-32221180,-40128660,7922363,-3659668,-7501221
2026-01-14 17:06:03.551,-692262,-23271860,-32057180,-6727528,6304932,-29907230,-37304690
2026-01-14 17:06:03.561,-6853554,-23099220,-31901800,-67309800,368042,-2824707,-6538086
2026-01-14 17:06:03.571,26556210,-22926590,-31746440,-33969090,15792850,-25463870,-82910160
2026-01-14 17:06:03.581,-674134,1702167,-7138395,-6733569,-11436460,-27416990,-9423828
2026-01-14 17:06:03.591,26631300,17280610,-71314900,-34032100,-38757320,-28881840,-10195310
2026-01-14 17:06:03.601,-33933700,41723790,-47096140,-40005220,-55511480,-27001950,-10390630
2026-01-14 17:06:03.611,-653420,5,17824410,-71237210,-6730116,-390625,-16821290,-10585940
2026-01-14 17:06:03.621,-645650,5,-22068600,-30998930,-6727528,37574770,-39367680,-10488280
2026-01-14 17:06:03.631,-36492390,18428630,-71150890,-37101270,4660034,9020996,-97314460
2026-01-14 17:06:03.641,-33660940,42319380,-47553620,-39760080,44830320,14562990,-8198242
2026-01-14 17:06:03.651,-605081,8,-21472150,-30490530,-6716307,5621338,109375,-6767578
2026-01-14 17:06:03.661,26975710,19481690,-71030050,-34274660,37231440,46539310,-6010742
2026-01-14 17:06:03.671,-566239,8,42872660,-47984340,-6706809,9162903,-29342650,-5385742
2026-01-14 17:06:03.681,-543798,5,20275800,-70943730,-6701631,-39886480,-17016600,-4375
2026-01-14 17:06:03.691,27276090,20681500,-70883310,-34492170,-83984380,-39575200,-34033200
2026-01-14 17:06:03.701,27394340,21078550,-70831520,-34581070,-5203247,-55566410,-35961910
2026-01-14 17:06:03.711,-468701,3,-20047060,-29274320,-6685233,11108400,-67578130,-38598630
2026-01-14 17:06:03.721,-4410786,-19814000,-29075790,-66783260,10046390,-71777340,-3564453
2026-01-14 17:06:03.731,27756870,-19580090,-28878130,-34840030,15100100,-76171870,-4230957
2026-01-14 17:06:03.741,-32085660,-19354800,-28689090,-38366070,22607420,-79345700,-4020996
2026-01-14 17:06:03.751,-3521726,46614590,-47090880,-66532940,27172850,-81689460,-2783203
2026-01-14 17:06:03.761,-3193722,-18920630,-28329150,-66429370,2565918,-859375,-960083
2026-01-14 17:06:03.771,-31414980,-18721240,-28166020,-37759260,21240230,-9355469,38238520
2026-01-14 17:06:03.781,-2537714,-18529610,-28012370,-66170420,11828610,-103125,8135986
2026-01-14 17:06:03.791,-2192448,-18346620,-27867360,-66032300,36346440,-10615230,9881592
2026-01-14 17:06:03.801,-30660570,2485061,-7073656,-37063550,-52825930,-10507810,10003660
2026-01-14 17:06:03.811,-30392990,25204490,-70779730,-36813220,-1194458,-10566410,8917236
2026-01-14 17:06:03.821,-30125410,-17822680,-27459080,-36562910,-18371580,-99365230,3338623
2026-01-14 17:06:03.831,-811376,2587779,-7088331,-65341780,-22387700,-90527340,-982666
2026-01-14 17:06:03.841,-29558310,-17514530,-27232070,-36025160,-2783203,-7631836,-36697390
2026-01-14 17:06:03.851,29152620,-17373830,-27131080,-35654000,-3203125,-54052740,99487300
2026-01-14 17:06:03.861,29242390,-17240910,-27039590,-35685070,-34179690,-20446780,76446540
2026-01-14 17:06:03.871,621480,2716391,-7123721,-64426820,-4091797,15429690,9442139
2026-01-14 17:06:03.881,1001270,27474620,-71358050,-64167870,-54248050,50097660,21948240
2026-01-14 17:06:03.891,29519460,-16884420,-26809120,-35770520,-7363281,78125,45117190
2026-01-14 17:06:03.901,1769490,28061580,-71582470,-63624070,-9628906,953125,66015620
2026-01-14 17:06:03.911,2140654,47851420,-52189690,-63356480,-11884770,11191410,7294922
2026-01-14 17:06:03.921,2503184,-16591800,-26635620,-63080280,-13554690,10478520,59228520
2026-01-14 17:06:03.931,29837110,48245880,-52554810,-35832670,-15576170,74072260,47729490
2026-01-14 17:06:03.941,3202352,50366770,-50796450,-62553740,-17294920,33691410,46679690
2026-01-14 17:06:03.951,29964860,48611000,-52897490,-35843020,-18847660,-35308840,43359380
2026-01-14 17:06:03.961,3806568,2952036,-7231618,-62035840,-19794920,-36938480,4099121
2026-01-14 17:06:03.971,4065516,29692970,-72454270,-61776890,-20585940,-69384770,41357420
2026-01-14 17:06:03.981,-25314120,29831070,-72592380,-31896630,-209375,-9609375,3630371
2026-01-14 17:06:03.991,450573,2995191,-7274775,-6126763,-20488280,-11220700,4111328
2026-01-14 17:06:04.001,30026140,30038230,-72920380,-35660900,-20136720,-12646480,5913086
2026-01-14 17:06:04.011,4807840,30090020,-73093020,-60775620,-20195310,-13955080,82470700
2026-01-14 17:06:04.021,4902786,30090020,-73282910,-60542560,-19902340,-14316410,9794922
2026-01-14 17:06:04.031,29859550,49592420,-53935880,-35395900,-18789060,-14560550,10820310
2026-01-14 17:06:04.041,4954582,49638170,-54010970,-60093710,-18095700,-13837890,11640630
2026-01-14 17:06:04.051,29664470,2983108,-7390441,-35159400,-16630860,-12294920,11865230
2026-01-14 17:06:04.061,-24175590,2964982,-7413744,-30635540,-15146480,-10722660,11044920
2026-01-14 17:06:04.071,4825106,-17269390,-27649840,-59532660,-12900390,-8208008,9716797
2026-01-14 17:06:04.081,4738784,-17503310,-27882030,-59377290,-10791020,-63134770,8173828
2026-01-14 17:06:04.091,4643842,2893340,-7481936,-59230550,-93652340,-42822260,6591797
2026-01-14 17:06:04.101,-24084100,-18009120,-28377490,-30450820,-8256836,-23205570,5097656
2026-01-14 17:06:04.111,4479834,28346420,-75250940,-58980230,-73095700,-8642578,3232422
2026-01-14 17:06:04.121,4419416,-18527890,-28877270,-58868020,-65771480,59570310,10357670
2026-01-14 17:06:04.131,4358992,27742210,-75630730,-58773070,-5991211,76171870,-66833500
2026-01-14 17:06:04.141,28787500,-19022480,-29349420,-34223730,-6147461,22619630,-10961910
2026-01-14 17:06:04.151,4281308,-19244310,-29559170,-58609070,-67822260,6142578,-8285522
2026-01-14 17:06:04.161,28677870,-19457520,-29760290,-34108920,-7998047,5332031,-1574707
2026-01-14 17:06:04.171,28634710,51196790,-51692760,-34065760,-9379883,31298830,7312012
2026-01-14 17:06:04.181,-24032310,-19842490,-30117640,-30295450,-10898440,26171880,21447750
2026-01-14 17:06:04.191,4082776,26136710,-76459370,-58462320,-11259770,1965332,24584960
2026-01-14 17:06:04.201,4005096,48679200,-53744260,-58470960,-11640630,16247560,2454834
2026-01-14 17:06:04.211,28473300,2561882,-7661476,-33933700,-11591800,15917970,23059080
2026-01-14 17:06:04.221,28438780,-20561510,-30762430,-33916440,-11513670,12225340,17871090
2026-01-14 17:06:04.231,-24377580,2506640,-7670105,-30606190,-1125,8343506,21569820
2026-01-14 17:06:04.241,3504456,24772910,-76735580,-58729910,-10634770,64208980,26586910
2026-01-14 17:06:04.251,3331824,24462170,-76752850,-58850760,-10029300,62316900,33789060
2026-01-14 17:06:04.261,3150560,-21256360,-31345060,-58997500,-9086914,36132810,4008789
2026-01-14 17:06:04.271,30775630,-21437630,-31491810,-31337900,-7597656,29815670,50146480
2026-01-14 17:06:04.281,272760,5,2344363,-7670106,-5936866,-6113281,18234250,5722656
2026-01-14 17:06:04.291,2503184,-21815690,-31787010,-59575820,-49487300,2094,507,6586914
2026-01-14 17:06:04.301,2252866,-22002140,-31928570,-59808870,-34155270,-13412480,73779300
2026-01-14 17:06:04.311,2002544,22243830,-76519790,-60076450,-22949220,-30426020,8125
2026-01-14 17:06:04.321,174356,5,21803610,-76442110,-6035266,-101501500,-9448242,89941410
2026-01-14 17:06:04.331,1467380,-22615850,-32385180,-60646140,30960080,-10595700,94921870
2026-01-14 17:06:04.341,1191168,-22817830,-32528470,-60956890,105163600,-11529540,94140620
2026-01-14 17:06:04.351,906326,-2303015,-3267866,-61276260,21569820,-17297360,9277344
2026-01-14 17:06:04.361,28067610,-23252000,-32836620,-34166760,27905270,-2052002,10097660
2026-01-14 17:06:04.371,-27700770,4477165,-5041846,-33929390,3244629,-22314450,10185550
2026-01-14 17:06:04.381,28063300,1881707,-7568254,-34291920,37158200,-20410160,95458980
2026-01-14 17:06:04.391,-28360230,-28153670,-29091590,-34599210,41308590,6262207,9980469
2026-01-14 17:06:04.401,-28702050,-24169550,-33472770,-34947920,52978520,-2548828,66064450
2026-01-14 17:06:04.411,-89769,5,1711662,-7515599,-6340828,46948240,-20507810,6748047
2026-01-14 17:06:04.421,-1199806,16512390,-74983350,-63779440,45776370,10998540,72021490
2026-01-14 17:06:04.431,-1519174,1588231,-7478483,-64167860,34399420,13623050,8588867
2026-01-14 17:06:04.441,-1847180,41933540,-47870400,-64547660,24523930,11437990,83740230
2026-01-14 17:06:04.451,-30422330,1453576,-7437049,-36697560,18041990,15979000,6064453
2026-01-14 17:06:04.461,-252909,5,-25760370,-34557770,-6533316,10455320,2310791,2800293
2026-01-14 17:06:04.471,27988200,-26040030,-34744220,-34850380,59814450,2878418,50582890
2026-01-14 17:06:04.481,27967490,-26293810,-34904770,-34905630,11543270,22387700,-25585940
2026-01-14 17:06:04.491,-359942,-26547580,-35065320,-6652433,-4220581,18151860,-39501950
2026-01-14 17:06:04.501,-395332,3,-26775450,-35199970,-6693002,-12164310,6500244,-48608400
2026-01-14 17:06:04.511,27941590,10487490,-72808180,-35104160,-12524410,41931150,-56884770
2026-01-14 17:06:04.521,27939860,38058780,-44321920,-35174940,-11175540,24276730,-5957031
2026-01-14 17:06:04.531,-33377830,-27380530,-35527110,-39697940,-9454346,7987976,-61572260
2026-01-14 17:06:04.541,-5239428,37126560,-43441490,-68526860,-7116699,4940796,-49926760
2026-01-14 17:06:04.551,-5524278,8165568,-71522050,-68932550,-1789856,83618160,-33325200
2026-01-14 17:06:04.561,-5791856,-27831100,-35715280,-69303710,11608890,16149900,-14538570
2026-01-14 17:06:04.571,28039990,-27949360,-35752400,-35609980,27905270,26464840,1194458
2026-01-14 17:06:04.581,-6249332,668094,8,-7053805,-70020140,4572754,3618164,4165039
2026-01-14 17:06:04.591,28104730,-28183280,-35829220,-35786920,6567383,5551758,59716800
2026-01-14 17:06:04.601,28129760,-28290310,-35860290,-35865470,8569336,7036133,6225586
2026-01-14 17:06:04.611,28155660,-28413740,-35909490,-35943160,9819336,8388672,6308594
2026-01-14 17:06:04.621,28165150,4876896,-69355500,-36002720,11074220,92626950,6621094
2026-01-14 17:06:04.631,-732831,33528880,-39995720,-7153068,11904300,86816410,62597660
2026-01-14 17:06:04.641,28143570,395332,3,-6884625,-36076080,12285160,7363281,5698242
2026-01-14 17:06:04.651,-778580,3461300,-68613180,-7198817,12666020,60058590,6464844
2026-01-14 17:06:04.661,-36904720,-29163840,-36298780,-43318060,13095700,4404297,66308590
2026-01-14 17:06:04.671,-832095,5,32020920,-38603440,-7235069,13183590,28564450,5102539
2026-01-14 17:06:04.681,27890670,-29607500,-36597440,-36000990,13066410,20910640,21398930
2026-01-14 17:06:04.691,-37563320,-29841420,-36760570,-43936950,12412110,949707,-68603520
2026-01-14 17:06:04.701,-915823,8,759588,-67758640,-7272186,12041020,-121521000,-23608400
2026-01-14 17:06:04.711,-941717,-30313580,-37099800,-7280819,11611330,-29492190,-3330078
2026-01-14 17:06:04.721,-965887,5,-284844,-67542850,-7285997,11191410,-3947754,-46948240
2026-01-14 17:06:04.731,-38237460,-768218,-67456540,-44540300,11181640,-48510740,-55322260
2026-01-14 17:06:04.741,-41186820,29662750,-36524930,-41815370,11347660,-54785160,-640625
2026-01-14 17:06:04.751,-38453250,-1640020,-67361580,-44721570,11865230,-6347656,-6928711
2026-01-14 17:06:04.761,-10383910,29193190,-36131330,-72911760,12431640,-6513672,-62841800
2026-01-14 17:06:04.771,27008510,-240822,-6737024,-35346710,12314450,-50634770,-53125
2026-01-14 17:06:04.781,-10608330,-2762136,-67396110,-72808180,11621090,-4465332,-47558590
2026-01-14 17:06:04.791,26841920,-3098770,-67456540,-35185300,11259770,-5151367,-46142580
2026-01-14 17:06:04.801,-10780970,28511290,-35604790,-72635540,10458980,-6176758,-36669920
2026-01-14 17:06:04.811,26663240,28398210,-35527970,-35001440,98779300,-76220700,-3828125
2026-01-14 17:06:04.821,26580380,-3927410,-67732750,-34911670,88964850,-89160160,-49853520
2026-01-14 17:06:04.831,26499240,28260100,-35458920,-34820180,84765620,-10429690,-59472660
2026-01-14 17:06:04.841,26418960,-4307206,-68008960,-34727820,80322260,-12109380,-5004883
2026-01-14 17:06:04.851,-1096224,28219530,-35482220,-7195363,82910160,-13408200,-35864260
2026-01-14 17:06:04.861,2627222,-460068,3,-6833697,-3454655,8613281,-13496090,-3779297
2026-01-14 17:06:04.871,-40973440,-33434790,-39813600,-41579900,92333980,-12353520,-49682620
2026-01-14 17:06:04.881,-1093636,-4833736,-68708130,-7140985,10410160,-10732420,-6386719
2026-01-14 17:06:04.891,26052980,-4911424,-68906660,-34265160,11601560,-8701172,-69677740
2026-01-14 17:06:04.901,25987380,-4945950,-69113820,-34175390,12978520,-62060550,-70996100
2026-01-14 17:06:04.911,-10780960,-33923340,-40360850,-70822890,14335940,-29345700,-74121100
2026-01-14 17:06:04.921,25903650,28593290,-36040690,-34034690,16035160,3994751,-80566410
2026-01-14 17:06:04.931,-10565170,-4859632,-69787090,-70417200,17197270,37329100,-8354492
2026-01-14 17:06:04.941,-10409800,28888490,-36366970,-70210040,17724610,73046870,-8300781
2026-01-14 17:06:04.951,-10237170,-4643842,-70279100,-69985620,17167970,10048830,-8154297
2026-01-14 17:06:04.961,-10030000,29264830,-36767480,-69778460,15830080,11474610,-8251953
2026-01-14 17:06:04.971,25905380,29467680,-36978960,-33843070,13974610,11630860,-89453130
2026-01-14 17:06:04.981,-955527,8,29687780,-37207700,-6933823,10927730,10429690,-95751950
2026-01-14 17:06:04.991,-9279052,29919110,-37442470,-69131080,80322260,8828125,-10419920
2026-01-14 17:06:05.001,26075420,30177200,-37702290,-33862920,4934082,7182617,-11484380
2026-01-14 17:06:05.011,26163470,30445640,-37969010,-33895720,1763916,55566410,-12197270
2026-01-14 17:06:05.021,-8269148,30741710,-38259900,-68466450,-100097700,31176760,-11503910
2026-01-14 17:06:05.031,29813030,31066260,-38574090,-30574170,-28564450,25283810,-9321289
2026-01-14 17:06:05.041,26514780,31408940,-38904680,-34062320,-42919920,-18017580,-6621094
2026-01-14 17:06:05.051,-34362700,-1890336,-72911750,-40439390,-5151367,-3178711,-41064450
2026-01-14 17:06:05.061,26780630,-143284,5,-7317935,-34193510,-5361328,-32104490,-23095700
2026-01-14 17:06:05.071,26910110,-33577210,-40827820,-34253940,-5961914,-3022461,-32440190
2026-01-14 17:06:05.081,-33314810,32914300,-40334080,-39450200,-5551758,-23327640,17919920
2026-01-14 17:06:05.091,27141440,1727,5,-7399073,-34350610,-5444336,-3765869,43823240
2026-01-14 17:06:05.101,30440550,46612,25,-7424968,-31155080,-6645508,1274414,7363281
2026-01-14 17:06:05.111,-32350650,34013110,-41375930,-38515400,-75683590,24963380,10185550
2026-01-14 17:06:05.121,-32083070,125161,-7475892,-38247810,-7397461,25976560,12216800
2026-01-14 17:06:05.131,-31844840,34600070,-41945620,-38002680,-75634770,30249020,13398440
2026-01-14 17:06:05.141,-398785,3,34841760,-42187310,-6544535,-71533200,28295900,11533200
2026-01-14 17:06:05.151,-3884254,-32863370,-40609440,-65186400,-6435547,31054690,7963867
2026-01-14 17:06:05.161,-3815202,219247,5,-7568253,-64944720,-55078120,31933590,49780270
2026-01-14 17:06:05.171,-375478,3,239098,-7588105,-6469440,-47460940,30688480,45361330
2026-01-14 17:06:05.181,-31048140,35651410,-43000410,-37124830,-3618164,30493160,61279300
2026-01-14 17:06:05.191,-3685730,-32821940,-40719920,-64245550,-15466310,34033200,734375
2026-01-14 17:06:05.201,-3685724,283121,8,-7644211,-64021130,48065180,3918457,7685547
2026-01-14 17:06:05.211,-3694360,-36853280,-36861230,-63788070,19628910,43969730,76464850
2026-01-14 17:06:05.221,-3720254,-3292808,-4090723,-63572280,17492680,59033200,80810540
2026-01-14 17:06:05.231,-30579430,-32969550,-40969380,-36540460,17102050,6665039,6845703
2026-01-14 17:06:05.241,-30505200,3081504,-77141270,-36442070,20397950,77197260,5258789
2026-01-14 17:06:05.251,-3832466,39852880,-40594330,-62959430,21716310,80908200,3828125
2026-01-14 17:06:05.261,-30364510,36633690,-44055200,-36254760,16760250,8076172,32885740
2026-01-14 17:06:05.271,-3875624,333185,-7759876,-62571010,15161130,7207031,31445310
2026-01-14 17:06:05.281,-3892884,344407,-7774550,-62381110,13781740,6645508,26293940
2026-01-14 17:06:05.291,-3892886,357354,3,-7789223,-62208480,8416748,55908200,24914550
2026-01-14 17:06:05.301,-3901520,37146420,-44578280,-62027210,52001950,5019531,24560550
2026-01-14 17:06:05.311,25687860,37267250,-44699120,-32265200,14213560,4729004,23632810
2026-01-14 17:06:05.321,-29919110,394469,3,-7826338,-35698880,-5206299,3935547,21923830
2026-01-14 17:06:05.331,-3910150,407417,8,-7837560,-61552470,-9197998,29785160,20788570
2026-01-14 17:06:05.341,-29795680,420364,-7847054,-35546100,-13659670,21118160,25610350
2026-01-14 17:06:05.351,-3918780,431586,8,-7856550,-61302150,-15014650,15454100,37231440
2026-01-14 17:06:05.361,-3927410,37824860,-45246370,-61189940,-1171875,9082031,44311520
2026-01-14 17:06:05.371,-29657570,4540256,-78703610,-35373470,-40252690,46081540,47338870
2026-01-14 17:06:05.381,25288210,4652476,-78764030,-31784410,4385376,13671880,43408200
2026-01-14 17:06:05.391,-29605780,-32852150,-41207620,-35304420,60791020,-14518740,48046880
2026-01-14 17:06:05.401,-3987832,483376,8,-7884171,-60887830,10638430,4043579,5151367
2026-01-14 17:06:05.411,-4013732,-32779650,-41159280,-60861940,24035640,37323000,50390620
2026-01-14 17:06:05.421,-4039628,5006368,-78876240,-60836040,3154297,59265140,515625
2026-01-14 17:06:05.431,-406552,-3647193,-3731162,-6082742,37304690,41381840,52490230
2026-01-14 17:06:05.441,-4100048,-32646720,-41050520,-60827410,46704100,18493650,49853520
2026-01-14 17:06:05.451,-4134572,523082,3,-7884171,-60844670,5180664,10192870,51220700
2026-01-14 17:06:05.461,-4169104,5291216,-78815820,-60879200,5566406,-6530762,5390625
2026-01-14 17:06:05.471,25106950,5351636,-78772660,-31620410,55126950,-20324710,50341800
2026-01-14 17:06:05.481,25101770,38396280,-45728020,-31625590,4663086,-35083010,5473633
2026-01-14 17:06:05.491,-4315840,38392820,-45714210,-61060460,2861328,-5546875,65185550
2026-01-14 17:06:05.501,25112990,38372110,-45683140,-31666160,1038208,-70654300,6953125
2026-01-14 17:06:05.511,-4462578,38352260,-45651200,-61258990,-26138310,-75927740,6713867
2026-01-14 17:06:05.521,-30115050,38323770,-45610630,-35796420,-5493164,-7060547,55126950
2026-01-14 17:06:05.531,25118170,-32161620,-40551600,-31730030,-4598999,-5683594,50878900
2026-01-14 17:06:05.541,-4721528,-32077890,-40462700,-61604260,10368350,-34106440,56640620
2026-01-14 17:06:05.551,-4807844,5722800,-78090760,-61725100,18603520,-10719300,64941410
2026-01-14 17:06:05.561,-30523330,38270260,-45491510,-36216780,5024414,49072260,7910156
2026-01-14 17:06:05.571,-30626910,38250410,-45459580,-36320360,79541020,10947270,89746100
2026-01-14 17:06:05.581,-511858,5,580048,5,-7780591,-6205311,8310547,17802730,94970700
2026-01-14 17:06:05.591,-523081,3,-31812900,-40158000,-6216534,6796875,2328125,89453130
2026-01-14 17:06:05.601,-30972170,-3184137,-4016403,-36665630,40454100,25273440,6069336
2026-01-14 17:06:05.611,-5472484,37872340,-45078060,-62424270,26977540,22207030,8087158
2026-01-14 17:06:05.621,-5610586,528261,-7739159,-62579640,-39892580,14384770,-625
2026-01-14 17:06:05.631,25079320,5118580,-77262110,-31924250,-5942383,6308594,-13222660
2026-01-14 17:06:05.641,25094010,499775,5,-7715854,-31961370,-51953120,10675050,-19541020
2026-01-14 17:06:05.651,25119890,-31963950,-40162320,-32004520,-52197260,-2980957,-23691410
2026-01-14 17:06:05.661,25174270,4937316,-76960020,-32070990,-6352539,-7475586,-22832030
2026-01-14 17:06:05.671,-5826382,498913,3,-7687369,-63209750,-6791992,-11054690,-18662110
2026-01-14 17:06:05.681,-31651490,37363070,-44534260,-37401910,-5605469,-12910160,-14550780
2026-01-14 17:06:05.691,-31645440,-3166097,-3986106,-37407950,-41015620,-13203130,-10244140
2026-01-14 17:06:05.701,-5653750,541209,-7670970,-63382380,-17504880,-12919920,-53759770
2026-01-14 17:06:05.711,25439270,561060,3,-7668381,-32341160,16699220,-11972660,-20056150
2026-01-14 17:06:05.721,-5610590,-31298450,-39550330,-63391020,3947754,-11005860,6665039
2026-01-14 17:06:05.731,-31587610,-31174160,-39450200,-37362200,4729004,-10732420,25390620
2026-01-14 17:06:05.741,-561922,5,630976,-7672695,-6329607,57910160,-9741211,30297850
2026-01-14 17:06:05.751,-5662378,-30947140,-39280160,-63201120,59228520,-8808594,20251460
2026-01-14 17:06:05.761,25251960,6793124,-76847790,-32131410,51953120,-79296870,16796880
2026-01-14 17:06:05.771,25151830,-30760700,-39155860,-32024380,53515620,-7241211,11639400
2026-01-14 17:06:05.781,-5843644,-30684740,-39110980,-62795430,57421880,-57666020,-4827881
2026-01-14 17:06:05.791,-592997,8,-30615680,-39076450,-6262281,5439453,-4050293,-24291990
2026-01-14 17:06:05.801,-5999016,38987550,-45948120,-62432900,39501950,-3071289,-33569340
2026-01-14 17:06:05.811,-6076704,7872088,-77408860,-62234370,2084961,-29736330,-39257810
2026-01-14 17:06:05.821,24524310,3934750,-4629599,-31339880,19519040,-2199707,-4350586
2026-01-14 17:06:05.831,-6214806,827780,3,-7771096,-61785520,15490720,-11413570,-51416020
2026-01-14 17:06:05.841,24248100,849358,5,-7787498,-31029140,-20828250,12252810,-5498047
2026-01-14 17:06:05.851,24119490,-30327390,-39002220,-30881540,-15014650,39794920,-54589840
2026-01-14 17:06:05.861,-6352918,8925152,-78202970,-61060460,-11505130,28961180,-5908203
2026-01-14 17:06:05.871,-30872910,-30228120,-38980640,-36316050,-7409668,-7549286,-6430664
2026-01-14 17:06:05.881,-30766740,9417156,-78539600,-36180530,-33081060,3137207,-59765620
2026-01-14 17:06:05.891,-6413336,-34517630,-34518510,-60274980,-28915400,3213501,-51660160
2026-01-14 17:06:05.901,23480740,9935056,-78884870,-30121950,-16479490,26535030,-52490230
2026-01-14 17:06:05.911,-639609,41200710,-48085330,-5972254,-8496094,-11001590,-5571289
2026-01-14 17:06:05.921,-6370178,41439810,-48312340,-59437710,-20532230,-7019043,-4753418
2026-01-14 17:06:05.931,-6335650,41678040,-48540220,-59161500,-3071289,-13146970,-37768560
2026-01-14 17:06:05.941,-6283862,44999680,-45684690,-58885280,-47265620,-19152830,-25048830
2026-01-14 17:06:05.951,-29792220,1137656,-7975666,-35031650,-7402344,-19213870,-17102050
2026-01-14 17:06:05.961,-6145756,-33663100,-34578920,-58332860,-84521490,-1706543,-12976070
2026-01-14 17:06:05.971,22791930,11954870,-80076050,-29205270,-90478510,-16174320,-9552002
2026-01-14 17:06:05.981,22722880,-29377040,-38623290,-29101690,-9785156,-109314000,6762695
2026-01-14 17:06:05.991,-5886804,12498660,-80395420,-57538740,-10810550,-16687010,17077640
2026-01-14 17:06:06.001,25424160,12757620,-80533520,-26055140,-11660160,-26245120,24633790
2026-01-14 17:06:06.011,-5731434,1299069,-8068026,-57038100,-11796880,-3449707,18005370
2026-01-14 17:06:06.021,-5653746,-2910857,-3851194,-56787780,-11835940,-42236330,96069340
2026-01-14 17:06:06.031,-5576062,-29048170,-38486040,-56554740,-12480470,-46484380,1517334
2026-01-14 17:06:06.041,-2836888,-28996380,-38468780,-3345121,-13642580,-57128900,17016600
2026-01-14 17:06:06.051,22257640,1381933,-8121544,-28410290,-146875,-671875,10620120
2026-01-14 17:06:06.061,-5368908,14009200,-81336270,-55881460,-14267580,-72021490,54626460
2026-01-14 17:06:06.071,-5291218,47483100,-48155850,-55665660,-14199220,-73291020,12188720
2026-01-14 17:06:06.081,-27828520,1435449,-8157794,-32852150,-13876950,-62646480,22509770
2026-01-14 17:06:06.091,22028030,-28784910,-38404050,-28070210,-13466800,-4897461,1796875
2026-01-14 17:06:06.101,-5101324,14647960,-81802380,-55061450,-12958980,-38745120,758667
2026-01-14 17:06:06.111,-5049530,-28724480,-38395410,-54871550,-12998050,-3359375,7574463
2026-01-14 17:06:06.121,-5006370,-28696000,-38389370,-54690290,-13095700,-28027340,15100100
2026-01-14 17:06:06.131,-497188,15036380,-82104490,-5451765,-12617190,-2578125,78308100
2026-01-14 17:06:06.141,-27178550,1513997,-8219079,-32121050,-12919920,-20996090,-4421997
2026-01-14 17:06:06.151,-492007,8,45390520,-52095610,-5422416,-12167970,-18664550,-13708500
2026-01-14 17:06:06.161,-488556,3,15312590,-82346180,-5408607,-11582030,-20617680,-15332030
2026-01-14 17:06:06.171,-4868264,-28626940,-38406630,-53965230,-12246090,-16040040,23620600
2026-01-14 17:06:06.181,-4842372,45597680,-52302760,-53853010,-12177730,-19921880,16711430
2026-01-14 17:06:06.191,-4833738,-28643350,-38442020,-53758070,-11416020,-18334960,16394040
2026-01-14 17:06:06.201,-26802220,-28665790,-38471370,-31686020,-11435550,-124572800,21018980
2026-01-14 17:06:06.211,-4825106,1546798,-8263965,-53594060,-10859380,-80566410,-20043940
2026-01-14 17:06:06.221,-4825110,-28695140,-38511080,-53525020,-9399414,26992800,-2364502
2026-01-14 17:06:06.231,-4833740,15476590,-82717340,-53464590,-8911133,21582030,-22094730
2026-01-14 17:06:06.241,-4851004,-28734840,-38557690,-53395540,-69970700,21484380,-17443850
2026-01-14 17:06:06.251,-488553,3,1545933,-8280365,-5332649,-6196289,27246090,-27685550
2026-01-14 17:06:06.261,-4928692,15442060,-82855440,-53266060,-61621100,25170900,-22631840
2026-01-14 17:06:06.271,-26678780,-28825480,-38656960,-31498710,-1743164,-6866455,-23596190
2026-01-14 17:06:06.281,-5049534,15390280,-82976290,-53058900,9991455,2722168,-6640625
2026-01-14 17:06:06.291,20981870,45822110,-52596240,-26785810,38549800,28735350,4901123
2026-01-14 17:06:06.301,20838580,15278060,-83209340,-26635620,7763672,62109380,-19689940
2026-01-14 17:06:06.311,20662500,1520039,-8335609,-26449180,99072260,9199219,-5888672
2026-01-14 17:06:06.321,-26555350,45902380,-52740390,-31225080,10371090,7871094,-93847660
2026-01-14 17:06:06.331,20240410,15079530,-83684080,-26008100,12480470,28027340,-10380860
2026-01-14 17:06:06.341,-26492340,15062270,-83873980,-31063670,14550780,-20275880,-8745117
2026-01-14 17:06:06.351,19684530,15027750,-84098400,-25424600,15703130,-29003910,-42944340
2026-01-14 17:06:06.361,-26375810,46206220,-53144350,-30817670,16943360,-6329346,-23962400
2026-01-14 17:06:06.371,18971550,14941430,-84650830,-24670190,17431640,28759770,-14233400
2026-01-14 17:06:06.381,18551190,-30035640,-40019030,-24227390,16962890,46606440,-8026123
2026-01-14 17:06:06.391,-26184180,1483786,-8525504,-30370540,16972660,19677730,-1303711
2026-01-14 17:06:06.401,-7733982,46625720,-53708870,-48596320,17988280,-24967190,-11834720
2026-01-14 17:06:06.411,-8139668,1465660,-8593695,-47948950,17705080,-15930180,-3375244
2026-01-14 17:06:06.421,-25964080,46838920,-54013570,-29831070,17939450,-12841800,37506100
2026-01-14 17:06:06.431,15966010,-31067120,-41179990,-21512720,16240230,6122589,2631836
2026-01-14 17:06:06.441,-25740520,-35884120,-36898160,-29364090,15234380,5508423,50146480
2026-01-14 17:06:06.451,14734270,-3615912,-3717560,-20206750,14101560,25146480,6113281
2026-01-14 17:06:06.461,-25483290,-36460020,-37478900,-28844470,1125,20166020,4777832
2026-01-14 17:06:06.471,13436930,1376753,-8832793,-18828270,10576170,23132320,24914550
2026-01-14 17:06:06.481,12778330,1355174,-8873362,-18123060,91748050,2319336,14111330
2026-01-14 17:06:06.491,-25005100,-32777920,-43025440,-27958860,6904297,18359380,27416990
2026-01-14 17:06:06.501,-12118870,13111510,-89553620,-40309920,44262700,2734375,48876950
2026-01-14 17:06:06.511,-12533190,-33399400,-43681450,-39360440,1652832,22973630,38842770
2026-01-14 17:06:06.521,-12921620,47592470,-55366150,-38402320,-22753910,25341800,29663090
2026-01-14 17:06:06.531,-13310050,12360560,-90718900,-37478730,-5859375,21740720,-19485470
2026-01-14 17:06:06.541,-13655310,1211889,-9108143,-36546510,-7885742,23999020,13879400
2026-01-14 17:06:06.551,-13991950,47675320,-55628550,-35640180,-12314450,3088379,45458980
2026-01-14 17:06:06.561,-14311320,1167004,-9173742,-34751120,-18193360,43530270,66015620
2026-01-14 17:06:06.571,-14604790,1142835,-9203090,-33922480,-21191410,46118160,77734380
2026-01-14 17:06:06.581,6730979,1122118,-9228986,-11533640,-21660160,20288090,6582031
2026-01-14 17:06:06.591,-15122700,47696040,-55849520,-32420570,-23085940,-641,8228,6425781
2026-01-14 17:06:06.601,-1534716,10789600,-92755970,-3174729,-25566410,-12286380,69677740
2026-01-14 17:06:06.611,-15554280,10582440,-92945870,-31160350,-25058590,-45214840,58496100
2026-01-14 17:06:06.621,-15718280,4760974,-5588404,-30616550,-23867190,-7290039,3786621
2026-01-14 17:06:06.631,-15873650,10202640,-93273870,-30133170,-23125,-88623050,12597660
2026-01-14 17:06:06.641,4567880,-36510260,-46854460,-9139219,-21679690,-8051758,13635250
2026-01-14 17:06:06.651,6384761,-36650090,-46990830,-6838964,-20566410,-71191410,26416020
2026-01-14 17:06:06.661,-16184390,9745164,-93627780,-29011060,-18037110,-92333980,13696290
2026-01-14 17:06:06.671,39999170,9589792,-93714080,-84987460,-16171880,-8198242,16589360
2026-01-14 17:06:06.681,3854905,942579,5,-9379177,-8333019,-14658200,-7348633,14575200
2026-01-14 17:06:06.691,37418300,47334380,-55796880,-82044060,-13310550,-6723633,-60577390
2026-01-14 17:06:06.701,3645156,909779,-9392988,-8093921,-12792970,-34643560,-8099365
2026-01-14 17:06:06.711,3573513,895968,5,-9398167,-8010194,-10908200,-4580078,-32617190
