Timestamp,Rotation X,Rotation Y,Rotation Z,Rotation W,Acceleration X,Acceleration Y,Acceleration Z
2026-01-14 17:05:52.591,-23044840,-26990380,-34398080,-31800820,-10437010,-1399231,12030030
2026-01-14 17:05:52.601,-23061240,630113,5,-6770684,-31818940,-10687260,-2557373,9020996
2026-01-14 17:05:52.751,16167130,-27165600,-34499080,-71496160,-6652832,-4248047,-16311650
2026-01-14 17:05:52.761,-23280490,-27166470,-34498210,-32048550,13641360,-19927980,-19424440
2026-01-14 17:05:52.771,-23288260,33567720,-39732460,-32058040,-31,70967,-806427,-20935060
2026-01-14 17:05:52.781,16184390,581778,3,-6746518,-71530690,17211910,-20935060,5702,972
2026-01-14 17:05:52.851,1633974,-27088780,-34403260,-7163428,-62072750,57769780,78186030
2026-01-14 17:05:52.861,16365660,33490900,-39636650,-71642900,-42266850,7800293,58532720
2026-01-14 17:05:52.891,-27197890,5869542,-67206220,-28079350,-6567383,16494750,9454346
2026-01-14 17:05:52.901,16451970,5886808,-67188950,-71729220,-9106445,8319092,8679199
2026-01-14 17:05:52.911,16477860,5904066,-67154420,-71755110,-10949710,11907960,9954834
2026-01-14 17:05:52.921,1648648,-26948090,-34250490,-7178102,-11639400,9802246,11553960
2026-01-14 17:05:52.951,-23252870,-26864360,-34161580,-32093430,-11517330,-10217290,6976318
2026-01-14 17:05:52.961,-23251140,-26838460,-34135680,-32095160,-14685060,-64819340,7745361
2026-01-14 17:05:52.971,41469150,6016280,-66938630,-47005510,-12976070,10375980,1161499
2026-01-14 17:05:52.981,-23264960,6042174,-66912740,-32115870,-13256840,11512760,1015625
2026-01-14 17:05:53.011,-23287400,6111228,-66843680,-32145220,-11956790,-49621580,5065918
2026-01-14 17:05:53.021,16572810,6137124,-66817790,-72022690,-11468510,-40161130,7006836
2026-01-14 17:05:53.031,41524400,36174230,-36780690,-47071110,-10192870,-16555790,625
2026-01-14 17:05:53.041,-23311560,-26657200,-33954420,-32172840,-95336910,54870600,42907720
2026-01-14 17:05:53.051,-27307680,-26631300,-33928520,-28193980,-91674810,5810547,13763430
2026-01-14 17:05:53.061,-2333661,-26614040,-33911260,-3219961,-7727051,54992680,-36354060
2026-01-14 17:05:53.071,16546920,-26596780,-33894000,-72100380,-3540039,5380249,-16021730
2026-01-14 17:05:53.081,-23352130,-26570880,-33868100,-32218590,-40649420,10856630,28839110
2026-01-14 17:05:53.091,1653828,-26553620,-33850840,-7212628,-41870120,-11328130,1889038
2026-01-14 17:05:53.101,-23368530,-26544990,-33842200,-32236720,-35308840,-15979000,-9170532
2026-01-14 17:05:53.111,-23377170,630977,-6666241,-32245350,-44769290,-16516110,-24612430
2026-01-14 17:05:53.121,-23377170,-26518230,-33817180,-32245350,8979797,-4135132,-34942630
2026-01-14 17:05:53.131,-23377170,6344282,-66662420,-32245350,23422240,64331060,2538681
2026-01-14 17:05:53.141,16538290,33488310,-39518400,-72160800,-105896,14579770,-8522034
2026-01-14 17:05:53.151,16529650,6361550,-66645160,-72169430,-4840088,11627200,-11138920
2026-01-14 17:05:53.161,16538280,6361550,-66645160,-72178060,-8308411,3375244,-15464780
2026-01-14 17:05:53.191,-23400470,-26466440,-33765380,-32273830,-37139890,-36132810,-35827640
2026-01-14 17:05:53.201,-23400470,-26457810,-33756750,-32273830,-38513180,-36254880,-3137207
2026-01-14 17:05:53.231,1651238,-26430190,-33732580,-7222123,-2619934,-60455320,-66589360
2026-01-14 17:05:53.241,41572740,-26421550,-33723950,-47143620,-3845215,-3375244,-40618900
2026-01-14 17:05:53.251,16495130,-26420690,-33724810,-72221220,-2758789,-35247800,-10726930
2026-01-14 17:05:53.261,16486500,33522840,-39535660,-72212590,-3189087,-34362790,-362854
2026-01-14 17:05:53.271,-23437590,33531470,-39544290,-32305770,-126953100,-3591919,-40618900
2026-01-14 17:05:53.281,-23437590,648240,3,-6661062,-32305770,-20553590,-50354000,-597229
2026-01-14 17:05:53.291,41535620,-26399980,-33711010,-47111680,-124435400,11425020,-8416748
2026-01-14 17:05:53.301,-2344882,-26398250,-33712730,-3231182,21972660,345459,-89538580
2026-01-14 17:05:53.311,1642606,-29689680,-30421300,-7218671,23025510,-149383600,-5633545
2026-01-14 17:05:53.321,41509720,33583260,-39596080,-47085780,4005432,-30090330,-4171753
2026-01-14 17:05:53.371,-23421190,-26434500,-33762790,-32270380,7788086,18844600,-5316162
2026-01-14 17:05:53.381,16391550,-26443130,-33771420,-72083120,12524410,9509277,-6518555
2026-01-14 17:05:53.391,16400180,6534184,-66766000,-72074480,9466553,-6744385,-6768799
2026-01-14 17:05:53.401,1640018,653417,8,-6678327,-7205722,66711420,-57800290,-33081060
2026-01-14 17:05:53.411,-23397020,-26475930,-33807680,-32242760,8148193,5001831,1713562
2026-01-14 17:05:53.421,-23379760,33635050,-39665140,-32225490,7897949,3414917,37872310
2026-01-14 17:05:53.451,41460520,-26520820,-33849110,-47014140,10192870,4736328,13427730
2026-01-14 17:05:53.461,-23334870,-26538940,-33865510,-32184060,770874,37750240,1876831
2026-01-14 17:05:53.471,-23326240,33603110,-39645280,-32175430,62438960,53588870,51086420
2026-01-14 17:05:53.481,-23316740,33594480,-39636650,-32167660,5984497,47088620,7702637
2026-01-14 17:05:53.491,41489870,-26558800,-33880180,-47036590,36071780,4562378,10827640
2026-01-14 17:05:53.501,41498500,-26568290,-33887950,-47045220,40283200,-16298290,892334
2026-01-14 17:05:53.571,-23296030,-26588150,-33902630,-32153850,5883789,-40397640,36029820
2026-01-14 17:05:53.581,-23287390,633566,3,-6680915,-32145220,59539800,26184080,-67749020
2026-01-14 17:05:53.591,16581450,633568,-6680917,-72014060,41656500,45440670,8171082
2026-01-14 17:05:53.601,16581450,-26570880,-33885360,-72014060,2104187,41015620,3289795
2026-01-14 17:05:53.611,-23285670,-26562250,-33876730,-32146950,4208374,4586792,2935791
2026-01-14 17:05:53.621,-23285670,636155,8,-6678325,-32146940,39031980,3515625,-19760130
2026-01-14 17:05:53.651,-2330207,-2651823,-3383444,-3216508,793457,10177610,-2432251
2026-01-14 17:05:53.661,16581450,-29793260,-30524880,-72065860,25730130,9628296,-9,49502
2026-01-14 17:05:53.671,16572820,642199,8,-6672285,-72074480,11917110,26397700,-26489260
2026-01-14 17:05:53.681,-23326240,-26484560,-33799040,-32192690,10108950,129852300,-15525820
2026-01-14 17:05:53.691,1657281,644786,-6669695,-7210901,22659300,-27191160,-14167790
2026-01-14 17:05:53.701,-23342640,6447862,-66679680,-32210820,2532,005,-4159546,-27664180
2026-01-14 17:05:53.731,-23365940,33528880,-39546880,-32239300,-19897460,3704834,-21865840
2026-01-14 17:05:53.741,-23373710,33520240,-39538240,-32248800,-28381350,23162840,-29296880
2026-01-14 17:05:53.771,-23406510,-26406020,-33704960,-32285050,-23757940,56518560,-26855470
2026-01-14 17:05:53.781,-23422910,6430600,-66524310,-32303180,-16586300,7965088,-3302002
2026-01-14 17:05:53.791,41621930,-2639219,-3368427,-47198000,-3375244,8215332,-32836910
2026-01-14 17:05:53.801,-23455710,-26384440,-33674750,-32339430,-56274420,3692627,-43762210
2026-01-14 17:05:53.831,41647830,-26346460,-33626420,-47241160,-6585693,5947113,-82336420
2026-01-14 17:05:53.841,-23537720,6421968,-66360310,-32430060,-66101070,-4598999,-9472656
2026-01-14 17:05:53.851,-23563610,-26314520,-33589300,-32455960,-47943120,-52886960,-11395260
2026-01-14 17:05:53.861,1645195,-26298120,-33571170,-7250608,-7885742,-58502200,-91552740
2026-01-14 17:05:53.911,16408810,-26191080,-33453780,-72652810,-87646480,-29891970,-9222412
2026-01-14 17:05:53.921,-23685320,33324300,-39285340,-32593200,-11627200,-51513670,-8135986
2026-01-14 17:05:53.931,16400180,6516920,-66075460,-72713230,-12963870,-4421997,-8087158
2026-01-14 17:05:53.941,-2371727,-26133260,-33390770,-3263033,-15100100,-4876709,-6341553
2026-01-14 17:05:54.031,-23805300,6637760,-65851040,-32732170,-7446289,-31799320,-440979
2026-01-14 17:05:54.041,16365660,33284600,-39204200,-72920380,-748291,-34606940,-2810669
2026-01-14 17:05:54.051,-23812200,663777,3,-6583377,-32742530,-692749,34088140,14350890
2026-01-14 17:05:54.061,1636564,-25966670,-33212090,-7293766,-66833500,26306150,-2218628
2026-01-14 17:05:54.151,16279340,33261300,-39158460,-73058500,-17881390,-6816864,-6274414
2026-01-14 17:05:54.161,41828230,6749974,-65687040,-47509600,-5645752,-41015620,-8343506
2026-01-14 17:05:54.171,16253440,33273380,-39163630,-73084390,14602660,24353030,-74157710
2026-01-14 17:05:54.181,16244810,-25811290,-33056720,-73093020,17251970,44708250,-7330322
2026-01-14 17:05:54.191,41825640,-25793160,-33040320,-47512190,383,8539,4837036,-66101070
2026-01-14 17:05:54.201,16218920,684495,3,-6562663,-73118910,-51345820,60791020,-56671140
2026-01-14 17:05:54.211,16218910,6870816,-65617980,-73136180,-7865906,4119873,-5303955
2026-01-14 17:05:54.221,16201650,6896712,-65592090,-73153440,-146484400,41229250,-52001950
2026-01-14 17:05:54.251,-24040940,697440,8,-6553166,-32979900,-27572630,-8496094,-41046140
2026-01-14 17:05:54.261,41851540,700030,8,-6550580,-47555350,-127334600,-4196167,-5670166
2026-01-14 17:05:54.271,16175760,-25609310,-32861650,-73231140,4260254,5596924,-6500244
2026-01-14 17:05:54.281,16167130,35978120,-36562480,-73239760,22888180,-8526611,-61065670
2026-01-14 17:05:54.291,-24065110,-25573060,-32828850,-33007520,9750366,-5316162,-32287600
2026-01-14 17:05:54.301,-24073740,-25555800,-32811580,-33016160,70610050,13298040,-1247406
2026-01-14 17:05:54.331,1619299,7129764,-65410830,-7330018,17349240,3604126,-5203247
2026-01-14 17:05:54.341,1620163,7147026,-65393570,-7330882,8766174,12741090,-4135132
2026-01-14 17:05:54.371,-24084100,719020,3,-6533313,-33040320,-20858760,-3780365,33359530
2026-01-14 17:05:54.381,16227550,-25436680,-32689010,-73351970,-14083860,-66223140,15878680
2026-01-14 17:05:54.391,-28114140,721609,3,-6530724,-29010280,-44799800,-9362793,1953125
2026-01-14 17:05:54.401,16253440,-25410780,-32663120,-73377860,-21408080,-4638672,21759030
2026-01-14 17:05:54.411,41968930,-25402150,-32654490,-47679640,-9140015,-66566470,20999910
2026-01-14 17:05:54.421,41968930,724199,5,-6528138,-47679640,-9902954,6664276,-17944340
2026-01-14 17:05:54.431,1627932,-25384890,-32637220,-7338651,-8293152,-11703490,-9056091
2026-01-14 17:05:54.441,1628796,-25376260,-32628590,-7339514,-9750366,-1071167,6361,008
2026-01-14 17:05:54.451,-24060790,-25367630,-32619960,-33029100,-4497528,44670100,-37651060
2026-01-14 17:05:54.461,16305230,33371780,-39168810,-73395130,-10108950,70381170,-1247406
2026-01-14 17:05:54.471,-24059070,7293766,-65246820,-33030830,-1687622,-7537842,-35629270
2026-01-14 17:05:54.481,-24059070,7302400,-65238190,-33030830,-14829640,14343260,45814510
2026-01-14 17:05:54.491,-24058200,33374370,-39166220,-33031690,-17690660,3488159,-13122560
2026-01-14 17:05:54.501,-24058210,7319662,-65220930,-33031690,-28076170,16342160,-22872920
2026-01-14 17:05:54.571,-24055620,-25278720,-32536230,-33034280,18310550,14579770,-30090330
2026-01-14 17:05:54.581,-24055610,738873,-6518639,-33034280,69885260,14480590,-22735600
2026-01-14 17:05:54.591,16365650,738874,8,-6518641,-73438280,-7333,755,7507324,-36888120
2026-01-14 17:05:54.601,16357020,-25262320,-32518110,-73446920,-7270813,2909851,-30937200
2026-01-14 17:05:54.611,16357020,-25262320,-32518110,-73446920,17349240,13458250,-17486570
2026-01-14 17:05:54.621,16365660,-25253690,-32509480,-73455550,6729126,29006960,-4522705
2026-01-14 17:05:54.631,42055250,740599,3,-6515190,-47765960,10635380,20122530,-501709
2026-01-14 17:05:54.641,42055250,-25236420,-32492210,-47765960,-5191803,-7774353,-35949710
2026-01-14 17:05:54.671,-24070290,7423244,-65117350,-33054130,-19931790,-17486570,-9429932
2026-01-14 17:05:54.681,-28112930,7423244,-65117350,-29011490,10614400,-41259770,-12168880
2026-01-14 17:05:54.691,-28121560,-25220890,-32473220,-29020120,-8262634,-20736690,-35003660
2026-01-14 17:05:54.701,16365650,-25220880,-32473220,-73507340,13328550,20889280,-23384090
2026-01-14 17:05:54.711,16365650,-25221750,-32472360,-73507340,16717910,6679535,-15609740
2026-01-14 17:05:54.721,-24076330,7397348,-65091450,-33065350,-27275080,30532840,-16067510
2026-01-14 17:05:54.771,42104440,7354192,-65065560,-47820340,-5039215,12199400,-16403200
2026-01-14 17:05:54.781,42104440,-25235560,-32475810,-47820340,-10971070,-15457150,1291275
2026-01-14 17:05:54.791,1639153,-25245060,-32483580,-7355051,-10131840,-35369870,11520390
2026-01-14 17:05:54.801,1639153,33296680,-39071280,-7355048,123,1432,-40405270,-11222840
2026-01-14 17:05:54.831,-24072880,33268200,-39047970,-33068810,15335080,14884950,15235900
2026-01-14 17:05:54.841,-24072880,33259570,-39039340,-33068810,23513790,34118650,-39711
2026-01-14 17:05:54.851,1640015,7241974,-65056930,-7355913,39154050,10139470,-25878910
2026-01-14 17:05:54.861,1639152,7233342,-65065560,-7355049,32806400,7848,74,-30303960
2026-01-14 17:05:54.871,1639153,-25302030,-32530190,-7355051,3768921,-8163452,-76026920
2026-01-14 17:05:54.881,1639153,-25310660,-32538820,-7355051,51239020,9788513,-10421750
2026-01-14 17:05:54.891,1639154,720745,-6507419,-7355050,54229740,16906740,-41656500
2026-01-14 17:05:54.901,1639154,719881,8,-6506556,-7355050,4849243,-34088140,-53375240
2026-01-14 17:05:54.931,1639153,-25328790,-32555220,-7355051,5078125,33294680,-12908940
2026-01-14 17:05:54.941,-24073740,7181554,-65065560,-33067940,4159546,-6329346,11034010
2026-01-14 17:05:54.951,-24072880,-25339140,-32562130,-33068810,3225708,-11248780,15777590
2026-01-14 17:05:54.961,-24064240,715567,5,-6507418,-33060170,4434204,-23468020,4524231
2026-01-14 17:05:55.011,16460600,7052082,-65074190,-73533230,26306150,8154297,55511480
2026-01-14 17:05:55.021,-24035760,-25422870,-32633770,-33036870,35186770,85510260,25726320
2026-01-14 17:05:55.031,-24035760,7000290,-65074190,-33036870,2545166,287323,18661500
2026-01-14 17:05:55.041,-24034900,698304,-6507418,-33037730,17150880,-39787290,14129640
2026-01-14 17:05:55.071,16486500,692263,8,-6506557,-73559130,70152280,1838684,-1663208
2026-01-14 17:05:55.081,16486500,692263,8,-6506557,-73559130,10505680,3282547,-9384155
2026-01-14 17:05:55.131,-24060790,-25454810,-32653620,-33063630,29556270,501709,-8111572
2026-01-14 17:05:55.141,-24069420,695714,5,-6504829,-33072260,20446780,4031372,-59173580
2026-01-14 17:05:55.191,-24084960,33141310,-38933160,-33091250,-40405270,2684021,-12016300
2026-01-14 17:05:55.201,-24084100,7095238,-64979240,-33092110,-50079340,-8270264,-4837036
2026-01-14 17:05:55.211,-24092730,7112502,-64961980,-33100750,-53985600,-17425540,-25558470
2026-01-14 17:05:55.221,-24092730,-25302890,-32512060,-33100750,-6726074,-7763672,-6726074
2026-01-14 17:05:55.231,16443340,-25284760,-32495670,-73654080,-22079470,2178955,-57037350
2026-01-14 17:05:55.241,-24101360,33175840,-38950430,-33109380,761,9858,-29174800,-68847660
2026-01-14 17:05:55.271,16443340,-2522949,-3244733,-73654080,-32440190,-29464720,-12908940
2026-01-14 17:05:55.281,16460600,7267872,-64927450,-73654080,-17959600,2872467,-20370480
2026-01-14 17:05:55.451,-23802710,34019160,-39695340,-32786550,-19250490,-27197270,-35003660
2026-01-14 17:05:55.461,16659130,8605784,-65264090,-73162080,-21252440,-3100586,-54740900
2026-01-14 17:05:55.471,16693660,873529,-6530726,-73110280,-22546390,-29296880,-42877200
2026-01-14 17:05:55.481,-23675820,-24532940,-31952730,-32654490,-2052002,-7849121,-119628900
2026-01-14 17:05:55.551,-23457440,986602,-6533313,-32441290,-32543940,-16765590,-16137700
2026-01-14 17:05:55.561,17004400,1000414,-6529862,-72868590,-28686520,-12023930,-10882570
2026-01-14 17:05:55.571,17056190,1015088,-6527273,-72868590,-28198240,-25,-43144220
2026-01-14 17:05:55.581,1709070,-23706030,-31260470,-7285134,-29760740,-32226560,3463745
2026-01-14 17:05:55.691,1735828,-23268400,-31007560,-7208313,34545900,15783690,-13342290
2026-01-14 17:05:55.701,17358300,1172185,-6591147,-71979540,3972168,95458980,-20300290
2026-01-14 17:05:55.711,17358300,36241820,-41650420,-71875950,42797850,6976318,-2709961
2026-01-14 17:05:55.721,-2275914,1210161,-6606684,-3167220,4326172,-22506710,-31933590
2026-01-14 17:05:55.731,-22712530,-22991330,-30835790,-31615240,40698240,-7128906,-27270510
2026-01-14 17:05:55.741,-22657290,-22908460,-30780550,-31549640,40429690,-6573486,-20568850
2026-01-14 17:05:55.751,-22608950,36821000,-42176090,-31494390,38891600,-14782720,-13586430
2026-01-14 17:05:55.761,41685810,-22743600,-30669210,-47082340,43920900,-16394040,-5114746
2026-01-14 17:05:55.891,18394100,14363110,-66964530,-70253200,19470220,40063480,-20996090
2026-01-14 17:05:55.901,18454520,-22161820,-30301490,-70244570,121276900,16247560,-25439450
2026-01-14 17:05:55.911,-21432450,-22079820,-30228120,-30305810,54626460,-87402340,-2578125
2026-01-14 17:05:55.921,1854082,38168400,-43383660,-7024455,-47424320,-1899414,-2401123
2026-01-14 17:05:55.931,-21383250,14811960,-66809160,-30268690,-109191900,-24328610,-25756840
2026-01-14 17:05:55.941,-21354760,-21836410,-30005430,-30245390,-17492680,-2253418,-28393560
2026-01-14 17:05:55.971,-21258950,1522628,-6663652,-30168560,-23815920,-32226560,-34033200
2026-01-14 17:05:55.981,-21221840,-21539480,-29732660,-30136630,-2541504,-20288090,-31347660
2026-01-14 17:05:55.991,-21175230,-21476470,-29674830,-30096930,-26416020,-12158200,-25048830
2026-01-14 17:05:56.001,19050110,1549389,-6654159,-70235940,-28466800,-60539250,-20397950
2026-01-14 17:05:56.071,19645690,15813230,-66377580,-70158250,-3659668,10119630,25802610
2026-01-14 17:05:56.081,19714740,15839130,-66351680,-70158250,-2890625,17358400,14595030
2026-01-14 17:05:56.091,19775160,15865020,-66325780,-70149620,-22521970,5508423,9422302
2026-01-14 17:05:56.101,42481650,15882290,-66308520,-47512190,-20666500,-12036130,10772710
2026-01-14 17:05:56.131,42580050,15908180,-66282630,-47586420,-34362790,-20483400,71777340
2026-01-14 17:05:56.141,20129060,15908180,-66282630,-70089200,5456543,-11932370,5581665
2026-01-14 17:05:56.171,20344850,38603440,-43639160,-69994250,21936040,-12011720,-101867700
2026-01-14 17:05:56.181,2041390,-21055240,-29284680,-6995973,2434082,-14289860,-12451170
2026-01-14 17:05:56.291,-19914140,-21003450,-29250150,-28975670,3400879,-5527344,18139650
2026-01-14 17:05:56.301,20880020,1608084,-6643801,-69683500,34106440,-32006840,17272950
2026-01-14 17:05:56.311,-19825230,16029020,-66524310,-28874680,20703120,20446780,2644043
2026-01-14 17:05:56.321,20914550,38744140,-43809200,-69545410,-6347656,98876950,5205078
2026-01-14 17:05:56.331,20940450,3869238,-4377469,-69519500,-31835940,16484380,76123050
2026-01-14 17:05:56.341,-19773440,38606030,-43705620,-28822880,-46118160,1734375,8588867
2026-01-14 17:05:56.371,-19938310,-21704340,-29861270,-29003290,2290039,-23864750,-17285160
2026-01-14 17:05:56.381,2078506,-21799290,-29938960,-6986478,43017580,-94677740,-37548830
2026-01-14 17:05:56.391,-20045340,-21908050,-30037360,-29103420,72314460,-39733890,-1237793
2026-01-14 17:05:56.401,-20058290,-22023720,-30146120,-29107730,12041020,14880370,-19873050
2026-01-14 17:05:56.411,-20053110,1439765,-6679189,-29095650,5439453,-40390620,42822260
2026-01-14 17:05:56.421,-19915000,-22377610,-30500020,-28940280,44580080,-3359375,13710940
2026-01-14 17:05:56.431,2079369,-22696990,-30819390,-6928647,10507810,-15761720,11357420
2026-01-14 17:05:56.441,-19544700,13551730,-67706850,-28533730,87939460,-32382810,65771480
2026-01-14 17:05:56.451,-19305600,-23355580,-31490070,-28272190,7294922,-18710940,4086914
2026-01-14 17:05:56.461,2117347,12964780,-68466440,-6826791,5053711,14501950,31323240
2026-01-14 17:05:56.471,2125981,1274036,-6874266,-6800897,2614746,36875,-34729000
2026-01-14 17:05:56.481,-18848130,12610880,-68889390,-27762920,2932129,50625,-34887700
2026-01-14 17:05:56.491,2119939,1259362,-6888940,-6789676,45898440,55195310,-42919920
2026-01-14 17:05:56.501,-23032500,12662670,-68768540,-23923810,44970700,39316410,-14819340
2026-01-14 17:05:56.531,-19530890,12964780,-68242020,-28461220,29785160,-19970700,11699220
2026-01-14 17:05:56.541,-19642240,1296479,-6815569,-28574300,8728027,-19296880,15673830
2026-01-14 17:05:56.551,-19719930,12878460,-68103900,-28651980,-14709470,-15996090,18095700
2026-01-14 17:05:56.561,2040525,12705820,-68103910,-6889802,-28222660,-11855470,16875
2026-01-14 17:05:56.571,44618710,-23781130,-31841390,-44667330,-29467770,-6328125,13554690
2026-01-14 17:05:56.581,-19912410,-23931320,-31967400,-28839290,-23901370,18310550,8979492
2026-01-14 17:05:56.691,1846315,3673900,-4236167,-7009783,20111080,-2619629,-31518560
2026-01-14 17:05:56.701,-21487690,-24187680,-32090840,-30336880,16880040,-55389400,-51904300
2026-01-14 17:05:56.751,41490730,-24185090,-32058900,-46759510,-19946290,-19494630,-32739260
2026-01-14 17:05:56.761,17703560,11203920,-67447900,-70546680,-9429932,-3317871,-3359375
2026-01-14 17:05:56.791,-22148880,36387690,-42022440,-30970450,1965332,-29589840,-4111328
2026-01-14 17:05:56.801,-22175640,10970860,-67387480,-30995480,-170,3203,-34521480,-4116211
2026-01-14 17:05:56.831,41401820,10763700,-67422010,-46727570,-10467530,-7897949,-35375980
2026-01-14 17:05:56.841,-22231740,10694650,-67439270,-31042950,-7733154,8130,074,-3161621
2026-01-14 17:05:56.851,-22249870,10616960,-67447900,-31059350,-736084,7287598,-2980957
2026-01-14 17:05:56.861,-22267130,-24558840,-32358420,-31076620,-6781006,25497440,-28710940
2026-01-14 17:05:56.871,17341030,1047026,-6745655,-70736570,-7775879,-12805180,-24621580
2026-01-14 17:05:56.881,41357800,-24634800,-32420570,-46702540,-15466310,-2614746,-109375
2026-01-14 17:05:56.891,-22338780,36027750,-41743640,-31143080,-17297360,-31176760,3353882
2026-01-14 17:05:56.901,17237450,1020267,-6748244,-70771100,-16540530,-3491211,8074951
2026-01-14 17:05:57.091,1739281,-26975710,-34827080,-6833698,1505127,52441410,4152832
2026-01-14 17:05:57.101,-21050930,814831,5,-7031361,-29617000,105773900,59228520,37109380
2026-01-14 17:05:57.111,17591350,793253,5,-7044310,-68034860,7043457,5942383,25756840
2026-01-14 17:05:57.121,1768629,-27497060,-35324260,-6792266,368042,7138672,14245610
2026-01-14 17:05:57.131,-20760040,3592936,-4223909,-29320940,-12931820,9291992,58380130
2026-01-14 17:05:57.141,17815770,7336924,-70676150,-67810430,-56793210,98046870,-10986330
2026-01-14 17:05:57.151,-20679770,-27863040,-35648810,-29245840,-13256840,89404300,-3463745
2026-01-14 17:05:57.161,-20668550,700893,3,-7067614,-29239800,-1965332,7260742,-9712219
2026-01-14 17:05:57.171,-20673730,35558180,-41936990,-29251880,-22888180,5126953,-16708370
2026-01-14 17:05:57.181,17953880,-28081420,-35810230,-67914020,-24646000,35253900,-13710020
2026-01-14 17:05:57.191,17971140,6551448,-70529410,-68000340,-2590332,2614746,-66101070
2026-01-14 17:05:57.201,-20746230,6404704,-70451730,-29352010,-30737300,2565918,-113586400
2026-01-14 17:05:57.211,-20792840,-28226440,-35889640,-29408980,-3659668,23962400,-2084961
2026-01-14 17:05:57.221,40617210,-28254920,-35895680,-45647750,-42114260,1616211,-28344730
2026-01-14 17:05:57.351,40817460,-28437910,-35833530,-46086240,-48608400,-19848630,-23205570
2026-01-14 17:05:57.361,-22097090,-28487110,-35870650,-30780550,-39331060,-5102539,-34399420
2026-01-14 17:05:57.371,-22196350,4635214,-69079290,-30871180,-31420900,925293,-5078125
2026-01-14 17:05:57.381,-22305110,-28576020,-35937110,-30969590,-23120120,16491700,-56152340
2026-01-14 17:05:57.611,13284150,785480,-69769820,-70132350,3100586,-14221190,-25170900
2026-01-14 17:05:57.621,-24295580,595588,-69838880,-32621690,31103520,-21691900,-2541504
2026-01-14 17:05:57.631,-24320610,397060,-69916560,-32631180,30664060,-20031740,-18847660
2026-01-14 17:05:57.641,1299065,31616100,-38593940,-6997697,31103520,-19018560,-10949710
2026-01-14 17:05:57.651,1291296,17264,-70071940,-6989930,31103520,-15795900,-8453369
2026-01-14 17:05:57.661,1285253,-181264,-70149620,-6983888,31469730,-13137820,-9820557
2026-01-14 17:05:57.711,-24332690,-32306630,-39249950,-32550050,26879880,4108429,10723880
2026-01-14 17:05:57.721,12619510,-1225696,-70555310,-69467710,24450680,-4748535,17321780
2026-01-14 17:05:57.731,-2430681,31012740,-38213290,-3250687,24853520,-76660160,18518070
2026-01-14 17:05:57.741,38110570,-154505,5,-7068480,-43786760,22619630,-81848140,18347170
2026-01-14 17:05:57.751,12541820,30911750,-38158900,-69251920,234375,24459840,23254400
2026-01-14 17:05:57.761,-24244650,30857380,-38126970,-32413660,18969730,6567383,28344730
2026-01-14 17:05:57.771,-24215300,30802130,-38095900,-32373960,19824220,11755370,32202150
2026-01-14 17:05:57.781,-24194590,-2183812,-70995520,-32342880,18786620,41809080,33764650
2026-01-14 17:05:57.851,12274240,30365370,-37876650,-68293810,28833010,-40625,31591800
2026-01-14 17:05:57.861,-23937360,30315310,-37857660,-31978630,25683590,-30395510,29882810
2026-01-14 17:05:57.871,-23884710,-3806568,-71927740,-31910440,30371090,5758667,1607666
2026-01-14 17:05:57.881,-23832920,-3987836,-72039950,-31841380,3076172,17932130,5496216
2026-01-14 17:05:57.891,12179290,-4151836,-72169420,-67750020,2824707,81848140,-3738,403
2026-01-14 17:05:57.901,-23736240,3016168,-3782140,-31713630,22937010,1619873,-37174220
2026-01-14 17:05:57.911,12144760,-4453944,-72402490,-67491070,15856930,20141600,27389530
2026-01-14 17:05:57.921,-23637840,30092610,-37804140,-31587610,13476560,15551760,9893799
2026-01-14 17:05:57.951,-23467800,30020960,-37806730,-31377860,17456060,-4296875,118637100
2026-01-14 17:05:57.961,12118870,-5135848,-72980810,-66809160,1060791,-30566410,4324341
2026-01-14 17:05:58.011,-23112170,29999390,-37931890,-30922110,5328369,13110350,-12878420
2026-01-14 17:05:58.021,36276340,33970300,-33978250,-41667680,7354736,54656980,-14404300
2026-01-14 17:05:58.031,-22997370,29994200,-37971600,-30777960,8721924,29467770,-24267580
2026-01-14 17:05:58.041,12006660,-36591400,-43389700,-65661150,10687260,50634770,-35302740
2026-01-14 17:05:58.051,-22882570,-36675120,-43478610,-30633810,9161377,5551758,-38061520
2026-01-14 17:05:58.061,11980760,30036500,-38067410,-65393570,-39978030,77441410,-27075200
2026-01-14 17:05:58.071,11972130,-6137120,-74310090,-65281360,-14453130,12255860,-21398930
2026-01-14 17:05:58.081,-22762590,33718340,-34523680,-30477580,-33007810,15371090,-29345700
2026-01-14 17:05:58.091,-2274793,30119360,-38174440,-3045771,-39892580,14521480,-4050293
2026-01-14 17:05:58.101,1190305,-6076700,-74422300,-6516052,-37231440,7363281,-32421880
2026-01-14 17:05:58.191,35905180,-36285830,-43177360,-41296520,4147339,-10058590,8964844
2026-01-14 17:05:58.201,-23115630,-36257350,-43154060,-30832340,26397700,-12431640,12050780
2026-01-14 17:05:58.211,11575070,-5213532,-74197870,-65557570,36712650,-76660160,10107420
2026-01-14 17:05:58.221,-23146700,30519880,-38464470,-30853050,5984497,-7573242,73779300
2026-01-14 17:05:58.231,-23168280,30525920,-38475690,-30866000,95947260,-13652340,7675781
2026-01-14 17:05:58.241,11411070,-5273952,-74310090,-65445360,14648440,-12636720,52441410
2026-01-14 17:05:58.251,38089080,30569080,-38536110,-38629240,19885250,-11982420,19604490
2026-01-14 17:05:58.261,1130748,30598420,-38575820,-6527271,13378910,-12861330,5380249
2026-01-14 17:05:58.291,-23027580,30670070,-38676800,-30661430,-26635740,37475580,-49853520
2026-01-14 17:05:58.301,-22984430,-5377532,-74724400,-30618280,-29541020,33789060,-6767578
2026-01-14 17:05:58.351,11670020,-5118584,-74517250,-65186410,-30249020,6660156,-1628418
2026-01-14 17:05:58.361,11721820,-36262530,-43200660,-65289980,-26342770,10797120,19348140
2026-01-14 17:05:58.371,11764970,30715820,-38648320,-65367670,-2734375,-15454100,4206543
2026-01-14 17:05:58.381,11808130,-4945944,-74275560,-65445360,-33374020,-16882320,6020508
2026-01-14 17:05:58.391,1184266,-494594,8,-7420651,-6551441,-37670900,5078125,6176758
2026-01-14 17:05:58.401,1186854,30632090,-38542150,-6559208,-32250980,-19165040,5395508
2026-01-14 17:05:58.411,-23029310,-4971844,-74077020,-30780550,-25439450,-43115230,48583980
2026-01-14 17:05:58.421,11834020,-500634,3,-7402524,-65712940,-16430660,-23706060,3857422
2026-01-14 17:05:58.431,1179950,-502363,-7399071,-6576473,-12414550,117126500,28442380
2026-01-14 17:05:58.441,-23147560,30488800,-38391960,-30903980,-14489750,63378900,2286377
2026-01-14 17:05:58.451,-23199350,-511856,8,-7391302,-30955770,-10241700,57958980,11437990
2026-01-14 17:05:58.461,-23259770,-514446,3,-7386986,-31016190,17959600,-14685060,-26992800
2026-01-14 17:05:58.471,-23321920,-517035,8,-7384396,-31074890,16796880,-5439453,-16259770
2026-01-14 17:05:58.481,11488750,-5170376,-73826710,-65989160,27441410,-4892578,-23962400
2026-01-14 17:05:58.491,1140241,-5170376,-73826710,-6600642,35595700,-44091800,-41064450
2026-01-14 17:05:58.501,-23468660,-36064860,-42932220,-31204370,4362793,-52197260,-51171880
2026-01-14 17:05:58.551,1137653,30572530,-38463610,-6585967,39916990,-79003900,-25854490
2026-01-14 17:05:58.561,11514660,-36018250,-42927040,-65790620,1998291,-10302730,26171880
2026-01-14 17:05:58.571,3599493,30601880,-38503310,-4139663,3668213,-10634770,62841800
2026-01-14 17:05:58.581,1190307,30569940,-38483460,-6562661,-8465576,-9555664,8959961
2026-01-14 17:05:58.591,12118870,-36196930,-43093630,-65531680,-18151860,-62890620,9501953
2026-01-14 17:05:58.601,-22660740,-36289280,-43173910,-30441330,-19921880,-57739260,7685547
2026-01-14 17:05:58.631,-22303380,30241940,-38224510,-30125400,-21679690,12744140,9881592
2026-01-14 17:05:58.641,-22245550,-36511120,-43349140,-30079660,-17822270,12207030,-111572300
2026-01-14 17:05:58.651,1308562,-575732,5,-7408566,-6535904,-140625,11816410,-29467770
2026-01-14 17:05:58.661,13137410,30166840,-38144230,-65393570,-89538580,10585940,-36523440
2026-01-14 17:05:58.671,-22214480,-566236,3,-7399070,-30076200,-8618164,85253900,-2770996
2026-01-14 17:05:58.681,13171930,30206550,-38156320,-65531670,-4019165,7290039,-17248540
2026-01-14 17:05:58.691,-22274900,30232440,-38164940,-30153890,440979,72509770,-3793335
2026-01-14 17:05:58.701,36812370,30258340,-38173580,-42063880,48614500,6743164,8441162
2026-01-14 17:05:58.731,36915940,-5153112,-73550500,-42201980,81726070,52734380,21118160
2026-01-14 17:05:58.741,-22539030,33788600,-34574260,-30459450,7940674,4206543,20935060
2026-01-14 17:05:58.751,1305971,30233300,-38077770,-6621357,9106445,34521480,18444820
2026-01-14 17:05:58.761,37004850,-5023636,-73282910,-42337500,82214350,34057620,14990230
2026-01-14 17:05:58.771,37022110,-5006368,-73179340,-42372030,11236570,2055664,16638180
2026-01-14 17:05:58.781,-22880840,-4980476,-73084380,-30825430,13220220,1340332,1361084
2026-01-14 17:05:58.791,-22973200,-4971844,-72989440,-30922970,16796880,41168210,12182620
2026-01-14 17:05:58.801,-23075060,-35524520,-42315920,-31028280,1977539,-64331060,8959961
2026-01-14 17:05:58.831,12446880,2993122,-3768935,-67188960,28686520,-21875,10003660
2026-01-14 17:05:58.841,37070460,-3538035,-4213208,-42565380,2849121,-13366700,6591797
2026-01-14 17:05:58.851,-23595550,-502361,8,-7241974,-31560850,26904300,17593380,748291
2026-01-14 17:05:58.861,1215340,-3533203,-4205956,-6751696,25195310,1262207,284729
2026-01-14 17:05:58.871,-23819110,29711090,-37443340,-31786140,2524414,25097660,-114868200
2026-01-14 17:05:58.881,-23948580,-5118584,-72134900,-31915620,21386720,33813480,-21386720
2026-01-14 17:05:58.891,-24095320,29590250,-37305230,-32062350,22595220,30932620,-26513670
2026-01-14 17:05:58.901,3701176,-514447,5,-7190185,-4265860,21643070,22351070,-2479248
2026-01-14 17:05:58.911,-24406060,-35122280,-41785940,-32373100,2052002,19836430,-24438480
2026-01-14 17:05:58.921,-24578690,-512720,3,-7164289,-32545730,19396970,17980960,-24267580
2026-01-14 17:05:58.931,-24751330,29357190,-37020390,-32718360,18408200,15808110,-2770996
2026-01-14 17:05:58.941,-24923960,29304540,-36952200,-32890990,16491700,13024900,-28808590
2026-01-14 17:05:58.951,-25113860,-509267,5,-7121130,-33080890,15222170,20874020,-3059082
2026-01-14 17:05:58.961,36915940,29175060,-36788200,-42771670,11779790,-11437990,-3010254
2026-01-14 17:05:58.971,10383900,-34696740,-41279260,-69303710,1394043,-16430660,-3173828
2026-01-14 17:05:58.981,10211270,-5066790,-70736570,-69493620,13134770,-2578125,-33154300
2026-01-14 17:05:58.991,-25827700,28973940,-36540460,-33799910,14953610,-33154300,-29296880
2026-01-14 17:05:59.001,-25983070,-508404,-7044308,-33955280,16015630,-3996582,-2932129
2026-01-14 17:05:59.011,974514,5,28830660,-36373010,-6999424,16442870,-453125,-2956543
2026-01-14 17:05:59.021,-26275680,-5144478,-70192780,-34249620,1607666,-47509770,-2607422
2026-01-14 17:05:59.031,947754,8,-5179002,-70089200,-7024457,15197750,-48950200,-24230960
2026-01-14 17:05:59.041,936535,3,28615730,-36139100,-7035677,1616211,-41088870,-25634770
2026-01-14 17:05:59.051,9253152,-34378240,-40838180,-70451730,16210940,-30297850,-31152340
2026-01-14 17:05:59.061,9149574,28462090,-35982000,-70538040,14282230,-24560550,-30615230
2026-01-14 17:05:59.071,-26788400,-5463852,-69752560,-34755440,14685060,-27563480,-28198240
2026-01-14 17:05:59.081,897692,5,28313620,-35836980,-7067614,14562990,-30688480,-24694820
2026-01-14 17:05:59.091,8899256,-5636484,-69631710,-70736580,17553710,-16748050,-23620600
2026-01-14 17:05:59.101,-27007650,-573141,8,-6958855,-34967780,21081540,-7086182,-23181150
2026-01-14 17:05:59.111,8752520,-580908,5,-6954541,-70831520,19677730,-23388670,-20385740
2026-01-14 17:05:59.121,-31095950,-589542,-6951086,-31103900,23010250,-18225100,-14929200
2026-01-14 17:05:59.131,-27176830,-34554320,-40903780,-35126600,25732420,-103759800,-1274414
2026-01-14 17:05:59.141,8528094,27910520,-35463240,-70935100,2697754,-7006836,-124816900
2026-01-14 17:05:59.151,8459044,27846650,-35406260,-70952370,2788086,-12487790,-10394290
2026-01-14 17:05:59.161,-27320980,-625795,-6940728,-35258660,2944336,-13122560,-89782710
2026-01-14 17:05:59.171,-27366730,-6344280,-69390030,-35299240,2956543,-35064700,-11682130
2026-01-14 17:05:59.181,826051,-643059,3,-6935551,-7101279,30297850,18508910,-1237793
2026-01-14 17:05:59.191,8200086,-6516912,-69338240,-71038680,2783203,-46966550,-7336426
2026-01-14 17:05:59.201,813100,5,-6594600,-69312340,-7105595,28881840,-6378174,-40618900
2026-01-14 17:05:59.211,-27539360,-6680916,-69295090,-35454600,27929690,-10003660,30441280
2026-01-14 17:05:59.221,8018826,-34888370,-41139420,-71099100,29418940,-103271500,95458980
2026-01-14 17:05:59.231,7949766,-6844918,-69251920,-71116370,2939453,-60638430,13842770
2026-01-14 17:05:59.241,-27674870,-693984,5,-6922601,-35578040,27026370,-4876709,16394040
2026-01-14 17:05:59.251,-27720620,-704343,-6920875,-35618610,22619630,-6707764,20922850
2026-01-14 17:05:59.261,7751244,-714699,3,-6919150,-71176780,21911620,-9057617,23620600
2026-01-14 17:05:59.271,-27812980,-725059,3,-6917423,-35698880,2019043,-9613037,3010254
2026-01-14 17:05:59.281,758722,8,27066340,-34719180,-7120267,18457030,-11444090,34643560
2026-01-14 17:05:59.291,7500926,-750089,3,-6914835,-71202680,18151860,-47973630,36401370
2026-01-14 17:05:59.301,-27971810,26907520,-34584530,-35833540,1652832,8129883,2619629
2026-01-14 17:05:59.311,36070040,-7785768,-69122450,-42460940,17810060,14624020,17602540
2026-01-14 17:05:59.321,-28084020,-35455470,-41573600,-35928480,12817380,21716310,75805660
2026-01-14 17:05:59.331,7103866,-8053350,-69079290,-71254480,13012700,30200200,-1360321
2026-01-14 17:05:59.341,-28230760,-38296410,-38905290,-36057960,619812,2626953,-8709717
2026-01-14 17:05:59.351,6862174,-8251880,-69001610,-71323530,12626650,25073240,-1270752
2026-01-14 17:05:59.361,6749966,-8346830,-68958450,-71366690,1411438,21618650,-14379880
2026-01-14 17:05:59.371,6637758,-842448,-6889803,-71427100,-36621100,15661620,-19250490
2026-01-14 17:05:59.381,35758440,-848491,5,-6883762,-42254640,-4852295,10308840,-21032720
2026-01-14 17:05:59.391,642194,8,-35640180,-41665100,-7155660,-78430180,32043460,-19921880
2026-01-14 17:05:59.401,38645470,26208360,-33937160,-39298540,-82458500,-36315920,-1394043
2026-01-14 17:05:59.411,-28835840,26167790,-33891400,-36626780,-7696533,64086910,-1640625
2026-01-14 17:05:59.421,-28915250,-8614410,-68587290,-36702750,-91674810,803833,-11505130
2026-01-14 17:05:59.431,604216,8,-863166,8,-6851823,-7181553,-9295654,43273930,-8654785
2026-01-14 17:05:59.441,5955856,29523260,-30294240,-71884580,-113098100,-4232788,-53955080
2026-01-14 17:05:59.451,5869534,-8640306,-68388760,-71953640,-970459,-8782959,-19744870
2026-01-14 17:05:59.461,-29220810,25990840,-33688560,-37001400,-11633300,-8203125,-18569950
2026-01-14 17:05:59.471,-29299360,-8640304,-68267910,-37078220,-11767580,-42053220,-4058838
2026-01-14 17:05:59.481,5619216,-8631676,-68207490,-72152170,-11663820,-3793335,-1071167
2026-01-14 17:05:59.491,-29447820,25923510,-33600520,-37223240,-13024900,-7545471,8079529
2026-01-14 17:05:59.501,-29526370,25901930,-33570310,-37300050,-12451170,1161499,-1864624
2026-01-14 17:05:59.511,5360272,2588901,-3354873,-72359330,-80200190,22766110,-61340330
2026-01-14 17:05:59.521,-29692100,-8545356,-67948540,-37462330,-892334,26342770,-11315920
2026-01-14 17:05:59.531,517034,3,-8493568,-67879490,-7251470,-97351070,17565920,-14892580
2026-01-14 17:05:59.541,38496320,25881210,-33504710,-39171490,-10461430,40527340,-1496582
2026-01-14 17:05:59.551,35440790,-8346832,-67732750,-42209750,-10961910,-625,-13635250
2026-01-14 17:05:59.561,488551,3,25895890,-33490030,-7274774,-12634280,-27618410,-1673584
2026-01-14 17:05:59.571,479919,5,25912290,-33490900,-7283406,-14318850,7287598,-15429690
2026-01-14 17:05:59.581,-30213450,-8105142,-67525580,-37976780,-15209960,8129883,-15112310
2026-01-14 17:05:59.591,4652472,-34757170,-40700940,-72998070,-17370600,-45547480,-16027830
2026-01-14 17:05:59.601,38491400,-7906612,-67378850,-39176410,-19030760,-395813,-1907959
2026-01-14 17:05:59.611,-30435280,-781164,5,-6730115,-38203790,-19335940,-6112671,-15686040
2026-01-14 17:05:59.621,4479840,26015010,-33509020,-73239760,-21313480,-4071045,-1640625
2026-01-14 17:05:59.631,-30552680,26040900,-33517650,-38328090,-25268560,-4034424,-11138920
2026-01-14 17:05:59.641,-30610510,26058160,-33517650,-38391100,-23962400,-23803710,-5783081
2026-01-14 17:05:59.651,-30659710,-740595,8,-6701631,-38445480,-29882810,26416780,12924190
2026-01-14 17:05:59.661,-30708910,26101320,-33526290,-38499860,-30786130,10290530,35064700
2026-01-14 17:05:59.671,4333100,26117720,-33527150,-73628180,-33129880,17956540,7525635
2026-01-14 17:05:59.681,-30797820,-7147030,-66791900,-38600850,-33447270,17175290,8050537
2026-01-14 17:05:59.691,42984,28,26133260,-33511610,-737834,3,-39086910,12512210,1394043
2026-01-14 17:05:59.701,4272680,26141030,-33503840,-73861240,-44604490,45043940,22106930
2026-01-14 17:05:59.711,-30937650,-36438090,-37034720,-38754490,-50390620,-59295660,33813480
2026-01-14 17:05:59.721,-30996340,26172970,-33506430,-38816640,-5776367,-57403560,50878900
2026-01-14 17:05:59.731,-31056760,26188500,-33508160,-38877060,-62353520,-42114260,6152344
2026-01-14 17:05:59.741,404822,5,-6672286,-66403470,-7412019,-6557617,-48187260,6269531
2026-01-14 17:05:59.751,3961936,-6603230,-66351680,-74171980,-66748050,-2670288,5698242
2026-01-14 17:05:59.761,35514160,-653415,5,-6631717,-42550700,-67089840,-15975950,4814453
2026-01-14 17:05:59.771,3746140,-6482388,-66282630,-74266930,-66845700,-4171753,37158200
2026-01-14 17:05:59.781,-31441740,-33338980,-39322460,-39234410,-65478520,-15722660,25585940
2026-01-14 17:05:59.791,35379510,26305890,-33563400,-42460930,-59228520,-23779300,18127440
2026-01-14 17:05:59.801,35338940,26335240,-33585840,-42432450,-5229492,-27563480,11517330
2026-01-14 17:05:59.811,-31635090,26363730,-33609150,-39403590,-5229492,-3894043,12371830
2026-01-14 17:05:59.821,35243130,26400840,-33641090,-42355630,-49658200,-48950200,9899902
2026-01-14 17:05:59.831,316780,8,26436230,-33674750,-7434460,-4411621,-48388670,101745600
2026-01-14 17:05:59.841,-31724860,-610257,5,-6628261,-39469190,-3491211,-31176760,13720700
2026-01-14 17:05:59.851,-31727440,-606804,8,-6631714,-39466600,-32055660,-12017820,1385498
2026-01-14 17:05:59.861,309877,3,-605080,-6635168,-7425830,-2915039,-15304570,12963870
2026-01-14 17:05:59.871,-3169554,-6024910,-66394840,-3942949,-27563480,-20248410,56427000
2026-01-14 17:05:59.881,-3166963,-33188790,-39230960,-3940361,-29125980,-7824707,33996580
2026-01-14 17:05:59.891,317644,3,26633890,-33874140,-7418060,-3125,69084170,-1966858
2026-01-14 17:05:59.901,3228240,-5878170,-66489790,-74146080,-3010254,9063721,-16036990
2026-01-14 17:05:59.911,331453,3,-5791854,-66524310,-7412882,-31982420,3781128,22857670
2026-01-14 17:05:59.921,-31462450,-5688272,-66558840,-39213690,-3395996,-13684080,27008060
2026-01-14 17:05:59.931,3538984,26904930,-34121010,-74059770,-3569336,-26391600,-2859497
2026-01-14 17:05:59.941,3694360,-541202,8,-6664516,-74025240,-36694340,-31518560,-9063721
2026-01-14 17:05:59.951,3875620,30377720,-31097080,-73964820,-3269043,-39794920,-15258790
2026-01-14 17:05:59.961,-31006700,-502361,5,-6677462,-38806280,-3173828,-4970703,105529800
2026-01-14 17:05:59.971,3560995,-4799212,-66860950,-4255847,-2775879,-46679690,23400880
2026-01-14 17:05:59.981,4626580,27627400,-34779600,-73731760,-22363280,-38891600,2602539
2026-01-14 17:05:59.991,-33961240,27825070,-34961730,-34746890,-21435550,-40014650,26367190
2026-01-14 17:06:00.001,5256692,-32436970,-38757080,-73515970,-20397950,-3527832,27978520
2026-01-14 17:06:00.011,5610592,28274780,-35375190,-73386500,-14978030,-21740720,31079100
2026-01-14 17:06:00.021,5964484,28536320,-35614290,-73257020,-13684080,-15856930,38208010
2026-01-14 17:06:00.031,634428,-293476,5,-6760327,-7310166,-12963870,-18554690,48388670
2026-01-14 17:06:00.041,6732700,-2520450,-67741380,-72954910,-13317870,-3095703,609375
2026-01-14 17:06:00.051,7129758,-2097496,-67888120,-72799540,-72265620,-2861328,6982422
2026-01-14 17:06:00.061,7526814,-1648650,-68043490,-72626910,-53749080,-14697270,7260742
2026-01-14 17:06:00.071,-28237660,-1199804,-68198860,-36275480,58166500,-15844730,77978510
2026-01-14 17:06:00.081,-27942460,-73367,75,-6835422,-36000990,35888670,-15612790,84375
2026-01-14 17:06:00.091,8717988,-250320,-68509600,-72074480,7147217,-9631348,86816410
2026-01-14 17:06:00.101,9106414,31017920,-37862840,-71875950,113586400,2229309,94140620
2026-01-14 17:06:00.111,-27040450,-33713160,-34408010,-35159400,10369870,10687260,10585940
2026-01-14 17:06:00.121,9874632,-30392990,-37400180,-71504790,79833980,8154297,11679690
2026-01-14 17:06:00.131,-26469030,1570964,-69053390,-34625960,10253910,1920166,11894530
2026-01-14 17:06:00.141,-29871120,199392,8,-6916559,-30688710,12017820,30737300,11601560
2026-01-14 17:06:00.151,-25932140,2416872,-69260550,-34127060,9887695,20239260,11289060
2026-01-14 17:06:00.161,-25681820,-29658430,-36874510,-33894000,62408450,55511480,11640630
2026-01-14 17:06:00.171,-25449630,-29470260,-36734680,-33677340,-758,1711,-18600460,11464840
2026-01-14 17:06:00.181,11859920,-29291580,-36602620,-70572580,-56671140,3338623,11191410
2026-01-14 17:06:00.191,-25029270,-29105140,-36461050,-33286330,-9234619,40924070,10820310
2026-01-14 17:06:00.201,-24841960,33733450,-40257260,-33111100,-1850586,-699234,10683590
2026-01-14 17:06:00.211,12610870,4747422,-69657620,-70218670,-24975590,-47821040,10761720
2026-01-14 17:06:00.221,-24501870,-28551850,-36030330,-32795180,-33496090,-119384800,10419920
2026-01-14 17:06:00.231,-24357720,-28378350,-35893090,-32663120,-3869629,-84106450,10322270
2026-01-14 17:06:00.241,-24214440,-28214350,-35763610,-32530190,-38208010,11022950,89990230
2026-01-14 17:06:00.251,-24079780,-28051210,-35633280,-32405900,-33984380,20751950,81396480
2026-01-14 17:06:00.261,13560360,637020,5,-6976120,-69804350,-35424800,9527588,68310540
2026-01-14 17:06:00.271,1372433,6655024,-69787090,-6972667,-33203120,24646000,5786133
2026-01-14 17:06:00.281,1387971,6922606,-69812980,-6964035,-2524414,83496100,5073242
2026-01-14 17:06:00.291,14035100,7190190,-69838880,-69554030,-20947270,13017580,36328120
2026-01-14 17:06:00.301,14173200,7449142,-69856140,-69484980,-26367190,10742190,28198240
2026-01-14 17:06:00.311,-27125040,-2720357,-3496172,-27962310,-33544920,9506836,30371090
2026-01-14 17:06:00.321,-23241650,7941142,-69899300,-31621270,-33154300,13730470,36132810
2026-01-14 17:06:00.331,1460478,35944880,-42119980,-6926055,-3112793,17158200,34179690
2026-01-14 17:06:00.341,-23035350,-26858310,-34685520,-31430520,-31225590,13505860,21789550
2026-01-14 17:06:00.351,14881010,-26746100,-34590570,-69174240,-39086910,42797850,10620120
2026-01-14 17:06:00.361,-22853220,-26633030,-34496480,-31267380,-3774414,-12695310,7678223
2026-01-14 17:06:00.371,-22755690,8933784,-69890660,-31175020,-2993164,-114746100,55908200
2026-01-14 17:06:00.381,-22657280,-26450040,-34351470,-31083520,-21228030,-22781370,42633060
2026-01-14 17:06:00.391,39470920,9279050,-69942460,-44826020,-15527340,-11785890,19165040
2026-01-14 17:06:00.401,-22455300,-26291210,-34234080,-30888450,-84350580,-31591800,8560181
2026-01-14 17:06:00.411,-22351720,36796830,-42839000,-30784860,-1914978,-52246100,57373050
2026-01-14 17:06:00.421,1570098,9771056,-70106460,-6861318,32226560,-7128906,91308590
2026-01-14 17:06:00.431,15813230,9917798,-70184140,-68483710,6756592,-8198242,1015625
2026-01-14 17:06:00.441,-21993510,-26089230,-34125320,-30418020,10461430,-9501953,9710693
2026-01-14 17:06:00.451,-21857990,-26068520,-34128780,-30277330,13110350,-9448242,6793213
2026-01-14 17:06:00.461,16132600,10332120,-70529410,-67991700,17736820,-80859380,56152340
2026-01-14 17:06:00.471,16244810,-26043490,-34153810,-67810430,22033690,-56933590,14579770
2026-01-14 17:06:00.481,39437260,1059108,-7077112,-44566200,26245120,-32836910,-9069824
2026-01-14 17:06:00.491,16460600,10720540,-70883310,-67473800,29882810,-13781740,-15234380
2026-01-14 17:06:00.501,16564180,37916360,-43929180,-67318420,29516600,27359010,-22741700
2026-01-14 17:06:00.511,-21055250,-25924370,-34134820,-29440050,30737300,19006350,-28320310
2026-01-14 17:06:00.521,16779980,-25869130,-34103740,-67033580,2944336,32836910,-35205080
2026-01-14 17:06:00.531,-20834280,11376550,-71228580,-29212180,31689450,3972168,-3996582
2026-01-14 17:06:00.541,3939754,-25697360,-33982040,-4438149,28442380,38452150,-4284668
2026-01-14 17:06:00.551,17056190,1180816,-7129764,-66705580,24853520,37524420,-45117190
2026-01-14 17:06:00.561,-20549430,1206710,-7131488,-28927330,24401860,32202150,-46679690
2026-01-14 17:06:00.571,-20471750,12326030,-71314890,-28849650,1854248,3474121,-46411130
2026-01-14 17:06:00.581,17323770,3902469,-4489249,-66489790,16723630,33666990,-4663086
2026-01-14 17:06:00.591,-20329320,12912980,-71263100,-28715860,13244630,30786130,-45385740
2026-01-14 17:06:00.601,1750501,13232360,-71219940,-6641210,123535200,25854490,-4638672
2026-01-14 17:06:00.611,1759997,-28371710,-29218820,-6638623,103637700,22912600,-4560547
2026-01-14 17:06:00.621,1770355,-24348230,-32845250,-6636896,748291,10784910,-41918940
2026-01-14 17:06:00.631,-20055700,14225000,-71004150,-28471580,43914800,80078130,-39013670
2026-01-14 17:06:00.641,1793661,-23908010,-32456820,-6632580,32562260,15283200,-36206060
2026-01-14 17:06:00.651,-19906370,-23688760,-32261740,-28344690,14175420,9326172,-3701172
2026-01-14 17:06:00.661,-19831270,1520903,-7074520,-28281680,-46173100,-5722046,-36450200
2026-01-14 17:06:00.671,18342310,-2325198,-3186988,-66299890,-6347656,-105529800,-33032230
2026-01-14 17:06:00.681,18489040,-23033620,-31673930,-66274000,-6451416,-106933600,-3034668
2026-01-14 17:06:00.691,4006908,40589590,-46020640,-4483204,-67993170,-12573240,-3190918
2026-01-14 17:06:00.701,1878251,-22624480,-31306220,-6623948,-670166,-18249510,-33422850
2026-01-14 17:06:00.711,1892924,40834730,-46189820,-6621356,-8459473,-23022460,-30639650
2026-01-14 17:06:00.721,-19292660,-22232600,-30955770,-27819030,-7904053,-23364260,-28881840
2026-01-14 17:06:00.731,19222730,17297880,-70123720,-66161780,-101257300,-26464840,-25610350
2026-01-14 17:06:00.741,19369470,17565460,-70046030,-66135890,-8685303,-28198240,-23498540
2026-01-14 17:06:00.751,-19016440,1782442,-6997697,-27577340,-5316162,-20178220,-23388670
2026-01-14 17:06:00.761,4053606,-21512720,-30311850,-4517647,-32409670,-23498540,-20483400
2026-01-14 17:06:00.771,40587850,41514900,-46666280,-45210980,-546875,-3005371,-19470220
2026-01-14 17:06:00.781,1991324,18566730,-69787090,-6597188,-56610110,-2154541,-16479490
2026-01-14 17:06:00.791,2003409,18808420,-69735300,-6592009,-17089840,-15429690,-19921880
2026-01-14 17:06:00.801,40725960,-20880020,-29753380,-45297300,-23284910,-20129400,-17736820
2026-01-14 17:06:00.811,20275800,-20741910,-29632540,-65816520,15686040,-24658200,-17858890
2026-01-14 17:06:00.821,20388020,-20603810,-29511700,-65756100,3213501,-24609380,-16491700
2026-01-14 17:06:00.831,-18296560,-20474330,-29399480,-26916150,8459473,-27685550,-17749020
2026-01-14 17:06:00.841,-18207660,42220110,-47186780,-26832420,1307373,-26391600,-19470220
2026-01-14 17:06:00.851,-18118750,20060010,-69519500,-26748700,19067380,-27441410,-2421875
2026-01-14 17:06:00.861,20828230,-20148050,-29121550,-65505780,27026370,-30688480,-27807620
2026-01-14 17:06:00.871,-17934900,20388010,-69484980,-26570020,3684082,-28930660,-29541020
2026-01-14 17:06:00.881,40977150,-19969380,-28972220,-45408650,4165039,-2619629,-28881840
2026-01-14 17:06:00.891,21130340,-19892550,-28910930,-65255460,43969730,-19616700,-26367190
2026-01-14 17:06:00.901,-17656090,20828230,-69510870,-26296400,46899420,-13623050,-24743650
2026-01-14 17:06:00.911,2131160,2096634,-6952814,-6509146,5058594,-7208252,-3059082
2026-01-14 17:06:00.921,2139790,42894240,-47738340,-6500512,60009770,1385498,-3310547
2026-01-14 17:06:00.931,2148423,2122529,-6954540,-6491882,6850586,16809080,-38256840
2026-01-14 17:06:00.941,-21207510,21346130,-69562670,-22071710,7246094,22790530,-4116211
2026-01-14 17:06:00.951,-21129820,43110040,-47919600,-21994020,75390620,3330078,-41455080
2026-01-14 17:06:00.961,-21060770,43176500,-47973980,-21924970,77246100,40649420,-41430660
2026-01-14 17:06:00.971,21794970,43242970,-48028360,-64642610,73779300,5209961,-36450200
2026-01-14 17:06:00.981,-17032020,21838140,-69554030,-25677510,71240230,68408200,-34106440
2026-01-14 17:06:00.991,21950350,-19223600,-28371450,-64539030,7084961,7890625,-34716800
2026-01-14 17:06:01.001,-16916360,43409560,-48155250,-25568740,7421875,7871094,-43115230
2026-01-14 17:06:01.011,-16861980,-19077730,-28241110,-25519550,7441406,63964840,-46875
2026-01-14 17:06:01.021,-16816230,-19006080,-28174650,-25478980,7158203,50097660,-51904300
2026-01-14 17:06:01.031,-16778250,22356040,-69381390,-25447900,6777344,37426760,-55371100
2026-01-14 17:06:01.041,-16748900,43551110,-48238110,-25425460,62402340,31640620,-56933590
2026-01-14 17:06:01.051,22364670,-18766990,-27947640,-64487240,58935550,38110350,-58984380
2026-01-14 17:06:01.061,22433720,-18680670,-27861320,-64521770,58251950,3544922,-6279297
2026-01-14 17:06:01.071,-16682440,-18594350,-27775000,-25388350,6220703,23339840,-6845703
2026-01-14 17:06:01.081,-16676400,43585640,-48203580,-25394390,6074219,8392334,-7392578
2026-01-14 17:06:01.091,22632250,-18397550,-27574750,-64685770,6303711,-5041504,-7753906
2026-01-14 17:06:01.101,2270992,-18303470,-27478940,-6474620,61816410,-20751950,-7714844
2026-01-14 17:06:01.111,22796250,-18201610,-27373630,-64797980,6274414,-24646000,-78027340
2026-01-14 17:06:01.121,-16587490,-18107530,-27277820,-25362450,6142578,-21618650,-7294922
2026-01-14 17:06:01.131,23012040,23236470,-68431920,-64892920,6040039,-2052002,-7216797
2026-01-14 17:06:01.141,23141520,-17929710,-27093100,-64936080,60009770,-15722660,-73095700
2026-01-14 17:06:01.151,23262360,43566650,-48049940,-64970610,56591800,-5908203,-7084961
2026-01-14 17:06:01.161,-16382050,-17741540,-26901480,-25222610,54785160,-41168210,-69091800
2026-01-14 17:06:01.171,-16321640,23555840,-68008960,-25179460,54296880,-6414795,-7080078
2026-01-14 17:06:01.181,-16253450,23642160,-67905380,-25126800,5366211,20080570,-73779300
2026-01-14 17:06:01.191,-16184390,23745740,-67801810,-25075010,52246100,59814450,-74609380
2026-01-14 17:06:01.201,23961520,23857950,-67689590,-65100080,5209961,105773900,-74902340
2026-01-14 17:06:01.211,24099630,43593420,-47954130,-65134610,44458010,13098150,-72558590
2026-01-14 17:06:01.221,2422908,24091010,-67456540,-6516050,45825200,17236330,-6879883
2026-01-14 17:06:01.231,2436719,24229110,-67335700,-6519503,49389650,17041020,-73291020
2026-01-14 17:06:01.241,-15876240,-20957270,-21873090,-24848000,50439450,88012700,-7363281
2026-01-14 17:06:01.251,24626170,-16697110,-25857050,-65246820,53808590,-36346440,-78808590
2026-01-14 17:06:01.261,2474700,-16540010,-25703400,-6528137,57128900,-12335210,-8496094
2026-01-14 17:06:01.271,43062560,43737560,-47930820,-47103910,59277340,-20727540,-8623047
2026-01-14 17:06:01.281,-15638870,-16224960,-25396980,-24671050,6010742,-3071289,-89501950
2026-01-14 17:06:01.291,25144070,43829920,-47959310,-65315880,56884770,-35180660,-8510742
2026-01-14 17:06:01.301,-19563860,25446180,-66412100,-20469840,5336914,-48553470,-75878900
2026-01-14 17:06:01.311,25428910,-15721730,-24916190,-65307250,55322260,28955080,-68408200
2026-01-14 17:06:01.321,-15326400,25851860,-66161780,-24413830,58984380,11663820,-734375
2026-01-14 17:06:01.331,-15233180,-15385960,-24595960,-24334420,5776367,-9869385,-7426758
2026-01-14 17:06:01.341,-15140820,2625757,-6591146,-24254140,5727539,-34656520,-6772461
2026-01-14 17:06:01.351,26033130,26456080,-65799260,-65238190,52197260,3805542,-58984380
2026-01-14 17:06:01.361,2619710,26637350,-65687040,-6521229,49072260,-109680200,-57177740
2026-01-14 17:06:01.371,26369770,-14767070,-24006410,-65177780,47924800,-31274410,-5493164
2026-01-14 17:06:01.381,-14716140,-14634140,-23880390,-23884710,38964840,-35253900,-5053711
2026-01-14 17:06:01.391,44001680,27112090,-65384940,-47839330,35327150,-22180180,-45385740
2026-01-14 17:06:01.401,-14485680,-14397630,-23650790,-23683590,2878418,-12097170,-38842770
2026-01-14 17:06:01.411,27086190,27353780,-65195040,-65048300,28710940,-11590580,-36938480
2026-01-14 17:06:01.421,-14262980,-18354220,-19279880,-23491960,2861328,-6286621,-37060550
2026-01-14 17:06:01.431,4434434,27543670,-65005140,-4810086,29882810,19729610,-34716800
2026-01-14 17:06:01.441,44430680,-14017840,-23271000,-48169920,30566410,7946777,-31933590
2026-01-14 17:06:01.451,27768090,27681780,-64815250,-65005130,26953120,15098570,-2590332
2026-01-14 17:06:01.461,2791483,-13874550,-23120800,-6501378,25024410,-8453369,-19445800
2026-01-14 17:06:01.471,-13826220,-13808090,-23049160,-23134610,20568850,-96069340,-105773900
2026-01-14 17:06:01.481,28208310,2780265,-6455631,-65031030,12414550,-10272220,-44067380
2026-01-14 17:06:01.491,-13682070,2779400,-6447860,-23019810,6713867,-13476560,6374359
2026-01-14 17:06:01.501,28467260,27793990,-64409560,-65065560,7373047,-20812990,11695860
2026-01-14 17:06:01.511,-13563810,4422094,-4787903,-22930910,44036860,-171875,36468500
2026-01-14 17:06:01.521,2870029,27724940,-64288710,-6510871,7116699,-38391110,7080078
2026-01-14 17:06:01.531,-13464550,27673150,-64236920,-22857540,6311035,-27633670,7446289
2026-01-14 17:06:01.541,28898840,-13691560,-22872210,-65169140,5227661,-11236570,6549072
2026-01-14 17:06:01.551,28976530,4402243,-4768052,-65195040,3668213,-14318850,96069340
2026-01-14 17:06:01.561,29054210,4397064,-4762873,-65238190,-26229860,-5859375,16381840
2026-01-14 17:06:01.571,29123270,27448720,-64047030,-65272720,-52703860,11291500,14294430
2026-01-14 17:06:01.581,-13350610,27396930,-63995230,-22798840,-597229,-23345950,90270990
2026-01-14 17:06:01.591,45484610,-13734720,-22863580,-49101280,-6921387,-13635250,23864750
2026-01-14 17:06:01.601,-13358380,45418230,-45784040,-22825600,-8514404,-21960450,29174800
2026-01-14 17:06:01.611,29270010,-13726090,-22837690,-65488510,-21289060,-35546880,11816410
2026-01-14 17:06:01.621,2929587,27250200,-63779440,-6553166,-39331060,-52197260,22949220
2026-01-14 17:06:01.631,29304540,-13725220,-22821290,-65574830,-52978520,-52001950,34375
2026-01-14 17:06:01.641,45651190,27172520,-63736290,-49279960,-5605469,-3557129,35546880
2026-01-14 17:06:01.651,29304530,-13755440,-22842870,-65626620,-5288086,-14746090,3076172
2026-01-14 17:06:01.661,-13441250,43596860,-47260140,-22932630,-4729004,-11756900,22399900
2026-01-14 17:06:01.671,45608040,27094830,-63762180,-49254060,-41186520,-4486084,11651610
2026-01-14 17:06:01.681,29131900,2709485,-6377945,-65678410,-35083010,45043940,76293940
2026-01-14 17:06:01.691,-13597480,43620170,-47288630,-23069870,-27368160,34692380,-42999270
2026-01-14 17:06:01.701,45478570,-13785640,-22881710,-49159110,-2467041,5283203,-9307861
2026-01-14 17:06:01.711,-13752850,2718115,-6381396,-23207980,-19116210,5263672,-1328125
2026-01-14 17:06:01.721,28665790,45331920,-45697730,-65799260,-1307373,4958496,-15710450
2026-01-14 17:06:01.731,-13942740,-13711410,-22817830,-23380620,-11517330,49267580,-22546390
2026-01-14 17:06:01.741,2839819,43717700,-47363720,-6591145,-58654780,3491211,-24987790
2026-01-14 17:06:01.751,2828598,43720290,-47361130,-6597187,-34179690,1307373,-28955080
2026-01-14 17:06:01.761,45218750,45359020,-45722410,-49004610,-115356400,-9637451,-32763670
2026-01-14 17:06:01.771,-14288880,43726340,-47355090,-23707760,-18875120,-22937010,-3942871
2026-01-14 17:06:01.781,-14340670,2741421,-6364996,-23759550,33569340,-8917236,-42651370
2026-01-14 17:06:01.791,-14383830,27414200,-63615440,-23802700,4208374,-14489750,-42871100
2026-01-14 17:06:01.801,27992520,-13524970,-22624480,-66230840,-35339360,-2849121,-41845700
2026-01-14 17:06:01.811,-1441404,-13518930,-22613260,-2384155,-6719971,-32666020,-35205080
2026-01-14 17:06:01.821,28052940,2738833,-6350324,-66291260,-9082031,-32348630,-2692871
2026-01-14 17:06:01.831,-14371740,-13524970,-22607220,-23814790,-13098150,-31591800,-13964840
2026-01-14 17:06:01.841,28216940,43559750,-47176420,-66317150,-19543460,-17578120,-4724121
2026-01-14 17:06:01.851,2833776,27207030,-63425540,-6631714,-23632810,-7141113,41046140
2026-01-14 17:06:01.861,2846723,27103460,-63408280,-6632578,-25048830,-6359863,93322750
2026-01-14 17:06:01.871,28605360,26999880,-63391020,-66325780,-31933590,-34618380,10534670
2026-01-14 17:06:01.881,-14037700,26896300,-63373760,-23544620,-36083980,14489750,13696290
2026-01-14 17:06:01.891,-13971230,-13765790,-22780710,-23490240,-3635254,22497560,1953125
2026-01-14 17:06:01.901,45797070,2668916,-6332198,-49531140,-4321289,9320068,19165040
2026-01-14 17:06:01.911,2912326,-13856430,-22845450,-6634306,-4543457,11694340,2866211
2026-01-14 17:06:01.921,-13786510,-13897000,-22873940,-23346950,-45898440,22607420,3491211
2026-01-14 17:06:01.931,2933903,26412920,-63235650,-6638620,-47973630,-22201540,42358400
2026-01-14 17:06:01.941,-13688110,26317980,-63209750,-23272720,-44873050,-36499020,4765625
2026-01-14 17:06:01.951,46139750,26223030,-63183860,-49827210,-43310550,-5859375,5341797
2026-01-14 17:06:01.961,-13581940,-14049780,-22980110,-23188990,-43481440,-6459961,5761719
2026-01-14 17:06:01.971,-13524970,26024500,-63157960,-23142380,-4074707,-5175781,6201172
2026-01-14 17:06:01.981,29865600,-14164580,-23072470,-66412100,-41479490,-28271480,6274414
2026-01-14 17:06:01.991,29977810,2581737,-6315798,-66403470,-38793940,-13623050,6459961
2026-01-14 17:06:02.001,-17678620,25731020,-63140700,-18643470,-3635254,-107543900,60302740
2026-01-14 17:06:02.011,30193590,25644710,-63123440,-66412100,-3317871,-50598140,5551758
2026-01-14 17:06:02.021,3029717,-14332030,-23198490,-6641211,-25439450,-49224860,515625
2026-01-14 17:06:02.031,-13172800,-14344980,-23202800,-22855810,-16894530,-5117798,4506836
2026-01-14 17:06:02.041,-13115830,-14339800,-23190720,-22809200,-55267340,-22888180,40161130
2026-01-14 17:06:02.051,3060791,-14316490,-23162230,-6642938,-10917660,-35339360,3857422
2026-01-14 17:06:02.061,30711500,25506600,-62916280,-66429370,50109860,41412350,36157230
2026-01-14 17:06:02.071,-12936290,-14224140,-23064700,-22660730,67993170,35888670,3071289
2026-01-14 17:06:02.081,-12862920,2562745,-6277816,-22596000,12646480,109314000,23388670
2026-01-14 17:06:02.091,31048130,25731020,-62691860,-66386200,16552730,26953120,17578120
2026-01-14 17:06:02.101,47009820,-13945330,-22791070,-50528100,17553710,3671875,14086910
2026-01-14 17:06:02.111,31307090,-13813270,-22664190,-66351680,16308590,4440918,13549810
2026-01-14 17:06:02.121,31453820,26179870,-62363850,-66325780,14013670,48779300,16088870
2026-01-14 17:06:02.131,3160053,26369760,-62225740,-6631714,115722700,5854492,16870120
2026-01-14 17:06:02.141,31773200,-17312200,-18198510,-66299890,993042,62646480,20288090
2026-01-14 17:06:02.151,31954460,-13140860,-22007320,-66291260,11004640,53515620,17028810
2026-01-14 17:06:02.161,-12143040,-12941470,-21809650,-21986600,11102300,39916990,13000490
2026-01-14 17:06:02.171,-12012700,27181140,-61535210,-21875250,1138916,3371582,15319820
2026-01-14 17:06:02.181,3261909,-12532330,-21407420,-6623084,42022700,23376460,16906740
2026-01-14 17:06:02.191,32878040,27621360,-61146790,-66179050,61157230,8544922,19787600
2026-01-14 17:06:02.201,48000750,-12106790,-20987060,-51298050,-104599,-9295654,22058100
2026-01-14 17:06:02.211,-11318720,42775990,-46043940,-21274490,-9411621,-20654300,28857420
2026-01-14 17:06:02.221,33818900,28277370,-60542560,-65997780,-25463870,-22094730,39868160
2026-01-14 17:06:02.231,3417278,28484520,-60335400,-6592009,-37573240,-19543460,5102539
2026-01-14 17:06:02.241,34543960,-11287640,-20166180,-65842420,-4753418,-24658200,5390625
2026-01-14 17:06:02.251,34923760,-11090830,-19965930,-65756100,-5,-17614750,55615230
2026-01-14 17:06:02.261,35303540,29019690,-59696660,-65669780,-58740230,-12731930,6069336
2026-01-14 17:06:02.271,-9877228,42808790,-45838510,-20005630,-64746100,-11853030,6196289
2026-01-14 17:06:02.281,-9629496,-10538410,-19396230,-19787250,-7373047,-15649410,61621100
2026-01-14 17:06:02.291,-13974510,-10351970,-19202890,-14993390,-76953130,-2130127,609375
2026-01-14 17:06:02.301,36839980,29606650,-58816230,-65359040,-8154297,-77819820,6015625
2026-01-14 17:06:02.311,37211150,-10006700,-18840360,-65281360,-8486328,57434080,6088867
2026-01-14 17:06:02.321,37565040,29874230,-58358760,-65220930,-91552740,55633540,5864258
2026-01-14 17:06:02.331,37910310,29995070,-58134330,-65169140,-95166020,39215090,5854492
2026-01-14 17:06:02.341,38246950,-9487070,-18289650,-65125980,-10205080,36376950,5649414
2026-01-14 17:06:02.351,5181992,30236760,-57668220,-5184645,-10234380,6951904,52685550
2026-01-14 17:06:02.361,38894320,-9153024,-17933170,-65048300,-10478520,14172360,48999020
2026-01-14 17:06:02.371,-7702909,-8976940,-17746720,-18123070,-10966800,8081055,4597168
2026-01-14 17:06:02.381,-7526822,30616550,-56994940,-17971140,-11777340,-27561190,5048828
2026-01-14 17:06:02.391,-7360231,-8640306,-17392820,-17827000,-12851560,-14984130,49291990
2026-01-14 17:06:02.401,39999180,3087553,-5658065,-64875660,-1296875,42541500,44702150
2026-01-14 17:06:02.411,-7038270,31013610,-56407990,-17544740,-13017580,10333250,4267578
2026-01-14 17:06:02.421,40465290,-8172467,-16911180,-64754820,-13320310,1612854,41918940
2026-01-14 17:06:02.431,4067245,3130709,-5607999,-6468577,-13095700,10795590,38500980
2026-01-14 17:06:02.441,-6585968,-786948,9,-1660993,-17133870,-12285160,5432129,40283200
2026-01-14 17:06:02.451,41069500,31617830,-55821040,-64513140,-12324220,7476807,39941410
2026-01-14 17:06:02.461,-6301123,-7588104,-16338890,-16866290,-12480470,48309330,42016600
2026-01-14 17:06:02.471,-6159563,-7446545,-16204240,-16731640,-12099610,11192320,41723630
2026-01-14 17:06:02.481,-6018868,-11257690,-12134150,-16596120,-11455080,4058838,43701170
2026-01-14 17:06:02.491,41734140,-7187593,-15962560,-64072920,-10849610,99243170,4243164
2026-01-14 17:06:02.501,-10510790,-7052941,-15838260,-11569040,-10019530,18103030,43017580
2026-01-14 17:06:02.511,-5618360,32653620,-55303140,-16202510,-9165039,18615720,37353520
2026-01-14 17:06:02.521,-5488884,32852150,-55225450,-16073040,-88183590,19604490,3935547
2026-01-14 17:06:02.531,-5368039,-6646390,-15467960,-15952200,-8618164,18127440,37524420
2026-01-14 17:06:02.541,-5247197,33257840,-55095980,-15831350,-84521490,108947800,3540039
2026-01-14 17:06:02.551,4251099,-6347734,-15196930,-6333060,-8408203,-28930660,3227539
2026-01-14 17:06:02.561,-9759835,-10182440,-11068740,-10818080,-83154300,-101379400,3178711
2026-01-14 17:06:02.571,42752680,-6048212,-14926760,-63054380,-82958980,-9185791,30908200
2026-01-14 17:06:02.581,-4732750,34129640,-54811130,-15310000,-84228510,-15975950,3239746
2026-01-14 17:06:02.591,42994370,-5739199,-14648820,-62760900,-85302740,-36712650,32763670
2026-01-14 17:06:02.601,-4459123,-5575198,-14502080,-15031200,-8613281,-15966800,32299800
2026-01-14 17:06:02.611,43244690,-5419827,-14363970,-62441540,-8334961,24551390,29638670
2026-01-14 17:06:02.621,-4169099,-5256690,-14216370,-14734270,-79785150,5142212,2854004
2026-01-14 17:06:02.631,4350364,-5084057,-14061000,-6211354,-7871094,-35266880,23596190
2026-01-14 17:06:02.641,51875500,-4911421,-13905630,-53707140,-765625,8984375,23779300
2026-01-14 17:06:02.651,-3725434,35821450,-54293230,-14280240,-7739258,9979248,22351070
2026-01-14 17:06:02.661,43909330,36089030,-54198290,-61604260,-79345700,35308840,2163086
2026-01-14 17:06:02.671,-81560700,-4340866,-13388590,-92108600,-7651367,-4663086,21264650
2026-01-14 17:06:02.681,44211430,-82302160,-91367140,-61233100,-7524414,-546875,2529297
2026-01-14 17:06:02.691,-3067698,-8039370,-8947767,-13608700,-8076172,-6768799,24987790
2026-01-14 17:06:02.701,-76301420,-3751323,-12856010,-86837240,-8588867,-10144040,2758789
2026-01-14 17:06:02.711,51847880,-3543300,-12666980,-53441290,-9345703,-49957280,34277340
2026-01-14 17:06:02.721,-2523904,37806740,-53637220,-13047640,-96728510,-15625,38720700
2026-01-14 17:06:02.731,-23374580,4504359,-4659032,-128542900,-99609380,8117676,45996100
2026-01-14 17:06:02.741,45143660,38376430,-53464600,-59955610,-10419920,1463623,5488281
2026-01-14 17:06:02.751,-1973203,38652640,-53378270,-12476220,-10996090,24890140,6616211
2026-01-14 17:06:02.761,-65186410,-2586910,-11810720,-75682520,-11279300,6347656,79003900
2026-01-14 17:06:02.771,51751200,-24220480,-116648400,-53123640,-11132810,13447270,9194336
2026-01-14 17:06:02.781,-1458753,-2257183,-11518970,-11937610,-9970703,18955080,9663086
2026-01-14 17:06:02.791,45791040,-6677667,-6770480,-58911180,-9091797,14707030,88720700
2026-01-14 17:06:02.801,-5916236,3995603,-5304164,-6962222,-80810540,8129883,78466800
2026-01-14 17:06:02.811,45903240,-1700437,-11022650,-58574540,-63720700,6586914,7402344
2026-01-14 17:06:02.821,-10150850,4056892,-5289490,-114490500,-4880371,66796880,6513672
2026-01-14 17:06:02.831,45946400,-54786100,-64158380,-58237910,-31420900,6147461,56591800
2026-01-14 17:06:02.841,4591185,-52268240,-61669860,-5806530,-14697270,52783200,4885254
2026-01-14 17:06:02.851,45877350,-49490570,-58923270,-57892640,-692749,39916990,46069340
2026-01-14 17:06:02.861,-7708092,-46538530,-56005760,-111236400,30380250,25170900,43286130
2026-01-14 17:06:02.871,-723336,5,-43326690,-52830160,-11050270,7397461,6149292,41357420
2026-01-14 17:06:02.881,-676723,5,309014,5,-9234164,-10976040,17614750,-11248780,3935547
2026-01-14 17:06:02.891,4558388,4382302,-5202311,-5709853,2685547,-24279780,30395510
2026-01-14 17:06:02.901,-51851340,10936340,-85341360,-62086770,32470700,-28881840,25146480
2026-01-14 17:06:02.911,-51178060,4802321,-4868607,-61378970,3388672,-34228520,16320800
2026-01-14 17:06:02.921,-477333,-24057340,-33774880,-10640270,3239746,-32861330,15319820
2026-01-14 17:06:02.931,-418637,2429817,-7332608,-10543590,2685547,-26757810,13537600
2026-01-14 17:06:02.941,-3599412,-15120960,-24930000,-104469200,15612790,-21435550,9197998
2026-01-14 17:06:02.951,-302111,5,33818900,-64720300,-10349380,7147217,-1842041,11787420
2026-01-14 17:06:02.961,-260677,-5927371,-15824450,-10269970,-9307861,-12866210,-27313230
2026-01-14 17:06:02.971,44651650,-57178800,-67117310,-55044190,-7550049,-9069824,-4156494
2026-01-14 17:06:02.981,-46478980,-10547040,-20526980,-56410580,-123046900,-21618650,-13269040
2026-01-14 17:06:02.991,-45980930,34357520,24337870,-55872830,-16235350,-46044920,-24621580
2026-01-14 17:06:03.001,-114800,5,12452920,2393563,-9966994,-13769530,-62060550,-34887700
2026-01-14 17:06:03.011,-83727,16702290,6603231,-9894488,-11816410,-67041020,-42944340
2026-01-14 17:06:03.021,-44021,20778170,10641130,-9813350,-9387207,-6503906,-52246100
2026-01-14 17:06:03.031,-12947,5,24682270,14505530,-9740844,-18005370,-64990230,-5957031
2026-01-14 17:06:03.041,258956,74379140,-27768100,-96588430,9295654,-5961914,-60839840
2026-01-14 17:06:03.051,43460480,31798230,21545520,-52972590,16967770,-41625980,-63623050
2026-01-14 17:06:03.061,113936,5,51744300,-51145260,-9487934,32055660,-36938480,-61376950
2026-01-14 17:06:03.071,43201520,54923340,-48311480,-52420160,44433590,-50634770,-59716800
2026-01-14 17:06:03.081,2382340,8786185,-1570102,-92842290,4489746,-5415039,-60009770
2026-01-14 17:06:03.091,47439240,9077934,-1309427,-47440120,38305660,-4501953,-53515620
2026-01-14 17:06:03.101,4108676,9359328,-1055654,-90425420,36157230,-41625980,-48754880
2026-01-14 17:06:03.111,5084060,9613100,-826051,1,-89156560,31103520,-5463867,-48901370
2026-01-14 17:06:03.121,-36129600,9857374,-604215,2,-45526040,23547360,-65527340,-45996100
2026-01-14 17:06:03.131,-34932380,100748900,-4074152,-44306380,13562010,-59228520,-38134770
2026-01-14 17:06:03.141,843312,5,57521480,-47474210,-8508239,99121100,-5449219,-3347168
2026-01-14 17:06:03.151,-32449920,5778045,-4737062,-41782480,-36621100,-53759770,-2861328
2026-01-14 17:06:03.161,1066875,106247300,958115,8,-8248424,-14440920,-47729490,-21472170
2026-01-14 17:06:03.171,-30135760,10768880,227877,8,-39435530,-1920166,-38476560,-17199710
2026-01-14 17:06:03.181,12671300,61555060,51001970,-80170990,-21069340,-29589840,-13415530
2026-01-14 17:06:03.191,1354310,11031280,466110,8,-7914382,-24279780,-20495600,-8343506
2026-01-14 17:06:03.201,-27396940,11149540,572281,3,-36650090,-27783200,-18859860,-63964840
2026-01-14 17:06:03.211,-26799620,64853220,54263880,-36038960,-31152340,-22229000,-7141113
2026-01-14 17:06:03.221,-26375810,11350650,750957,3,-35599620,-33276370,-2529297,-8404541
2026-01-14 17:06:03.231,42968480,11451640,839860,-49114230,-2775879,-3178711,-1484375
2026-01-14 17:06:03.241,42899420,67546310,56922440,-49010640,-19799800,-20129400,-16186520
2026-01-14 17:06:03.251,42821730,53819360,-52557410,-48915690,-58441160,-100097700,-17443850
2026-01-14 17:06:03.261,42726790,11713180,1061694,-48838020,3643799,-7598877,-18041990
2026-01-14 17:06:03.271,1512270,117986400,11316120,-7623490,13659670,-6274414,-19128420
2026-01-14 17:06:03.281,1502775,7068220,6000137,-7614000,16931150,3024292,-19116210
2026-01-14 17:06:03.291,1501049,11952280,1254182,-7595010,22009280,78063970,-17541500
2026-01-14 17:06:03.301,42346990,60240460,-46895880,-48406420,2841797,113586400,-15454100
2026-01-14 17:06:03.311,1513996,120981600,13672580,-7538899,40844730,14282230,-16833500
2026-01-14 17:06:03.321,-25177730,121672100,14190480,-34208180,5786133,25463870,-14758300
2026-01-14 17:06:03.331,-24757370,54521980,-53149540,-33765380,7055664,24414060,-20715330
2026-01-14 17:06:03.341,-24165240,12332940,1546797,-33149080,73291020,13952640,-31933590
2026-01-14 17:06:03.351,1683180,75664400,64859270,-7276499,5942383,21777340,-34765620
2026-01-14 17:06:03.361,41949940,12523700,1701301,-47405150,47045900,32641600,-35888670
2026-01-14 17:06:03.371,-26226220,12626410,1788484,-27117530,44995120,31591800,-40161130
2026-01-14 17:06:03.381,-21535160,127291300,18756630,-30427510,47851560,17773440,-44335940
2026-01-14 17:06:03.391,18981050,12831850,1962842,-69735300,49438480,24157720,-3630371
2026-01-14 17:06:03.401,1965430,61923630,-46904520,-6885484,52246100,120788600,-35424800
2026-01-14 17:06:03.411,-19407450,81579680,70683060,-28239380,6435547,-21032720,-41015620
2026-01-14 17:06:03.421,-18468330,13163310,2252868,-27279540,7055664,-2763672,-42626950
2026-01-14 17:06:03.431,-17442030,62424270,-46818200,-26234250,6542969,-21911620,-3540039
2026-01-14 17:06:03.441,-16242220,84534300,73597970,-25017180,6816406,-21740720,-29223630
2026-01-14 17:06:03.451,2453986,8549069,7454055,-6303712,69970700,-23852540,-23327640
2026-01-14 17:06:03.461,-17430540,13577630,2615398,-18304590,71435540,-19091800,-19689940
2026-01-14 17:06:03.471,2720704,6306302,-4666283,-6000740,70703130,-17590330,-1854248
2026-01-14 17:06:03.481,-10494390,13796010,2811337,-19198570,63671880,8782959,-1697998
2026-01-14 17:06:03.491,30046860,89743520,78746770,-56805050,58154300,31323240,-13378910
2026-01-14 17:06:03.501,31427920,14058410,3049569,-55251350,70751950,17993160,-21569820
2026-01-14 17:06:03.511,32627730,92516880,81497680,-53861640,70410160,54656980,-21911620
2026-01-14 17:06:03.521,-4921781,14362240,3332689,-13550000,6459961,-5206299,-27539060
2026-01-14 17:06:03.531,35105020,64202400,-46196720,-50987300,67041020,-2084961,-29638670
2026-01-14 17:06:03.541,-2437587,64426820,-46093140,-11027830,7285156,-1928711,-31396480
2026-01-14 17:06:03.551,-11531920,64633980,-45989560,-97227180,7363281,-119384800,-32470700
2026-01-14 17:06:03.561,130338,8,10039850,8932574,-8416745,74658200,6210327,-32910160
2026-01-14 17:06:03.571,-25085370,15192610,4107814,-33610010,7553711,119384800,-36401370
2026-01-14 17:06:03.581,2610217,65315880,-45670190,-5890252,8774414,-5697632,-3696289
2026-01-14 17:06:03.591,42378930,65540310,-45566610,-42384100,11035160,-40600580,-5107422
2026-01-14 17:06:03.601,53481850,10698360,9586077,-31039500,1171875,-22351070,-53466800
2026-01-14 17:06:03.611,70624360,15865020,4730154,-13655310,11503910,-22491460,-53808590
2026-01-14 17:06:03.621,49949770,11018930,9904240,41545970,12246090,-3137207,-58251950
2026-01-14 17:06:03.631,48380540,16187840,5028812,-35433020,12480470,-42651370,-6352539
2026-01-14 17:06:03.641,50339930,16339760,5170371,-33249210,12304690,-37158200,-6010742
2026-01-14 17:06:03.651,14872370,66791900,-45005550,6534180,11884770,-25195310,-5673828
2026-01-14 17:06:03.661,17191710,16625470,5437091,8875950,1109375,7232666,-45581060
2026-01-14 17:06:03.671,56839580,16768750,5570016,-26110820,10507810,3095703,-32714840
2026-01-14 17:06:03.681,58962970,67352960,-44720710,-23745730,11679690,-64575200,-32128910
2026-01-14 17:06:03.691,61267620,17071730,5853999,-21216660,11699220,-20019530,-25634770
2026-01-14 17:06:03.701,43374160,57291880,-54971680,-38885690,1140625,-10491940,-109314000
2026-01-14 17:06:03.711,6587694,6792265,-4442723,-1615849,11152340,-16113280,-9773254
2026-01-14 17:06:03.721,6826789,68103900,-44332280,-1354307,11298830,-27124020,3878784
2026-01-14 17:06:03.731,33944920,17641420,6389165,25786260,11835940,-34472660,15356450
2026-01-14 17:06:03.741,36436890,17765710,6506555,28300670,12060550,-31176760,20117190
2026-01-14 17:06:03.751,75449470,68587290,-44073330,-5705538,12080080,-2602539,2709961
2026-01-14 17:06:03.761,41508860,68742660,-43987010,33414080,11572270,-18359380,24816900
2026-01-14 17:06:03.771,44002550,68880760,-43900700,35926760,10371090,-6903076,2956543
2026-01-14 17:06:03.781,46410780,18234410,6952813,38352260,10722660,-16113280,3125
2026-01-14 17:06:03.791,8501334,69122450,-43728060,458344,7,10644530,-10070800,36132810
2026-01-14 17:06:03.801,44850180,6923468,-4365040,-35424390,9555664,16906740,4501953
2026-01-14 17:06:03.811,8952770,57739000,-55163310,939128,7,8408203,5527344,55859380
2026-01-14 17:06:03.821,45160920,18610750,7318795,-34820180,7739258,9711914,6503906
2026-01-14 17:06:03.831,57767480,69528140,-43425960,49783190,7006836,10839840,6694336
2026-01-14 17:06:03.841,45428500,18785980,7488840,-34276380,60791020,11640630,6855469
2026-01-14 17:06:03.851,9752930,18872290,7575158,1796252,5258789,13339840,71875
2026-01-14 17:06:03.861,99203840,18950840,7651976,19740640,47851560,14208980,75927740
2026-01-14 17:06:03.871,10070580,19028530,7729664,2134614,5107422,12421880,72265620
2026-01-14 17:06:03.881,66456980,19106210,7807347,58529660,52197260,10527340,6455078
2026-01-14 17:06:03.891,45989560,70002880,-42951220,-33231940,48486330,8569336,58935550
2026-01-14 17:06:03.901,68870400,19232230,7940275,60949980,375,8442383,53564450
2026-01-14 17:06:03.911,46188080,57789060,-55061450,-33033410,32470700,77490230,51708980
2026-01-14 17:06:03.921,10610050,70080560,-42700890,2682728,3400879,57373050,46142580
2026-01-14 17:06:03.931,10657530,19366890,8099102,2721568,39038090,41186520,42626950
2026-01-14 17:06:03.941,10698100,19396240,8138807,2750052,40600580,31347660,42333980
2026-01-14 17:06:03.951,71394300,14364310,13239780,63432450,47973630,5432129,39941410
2026-01-14 17:06:03.961,107317600,69985620,-42329730,27509150,5341797,-27172850,3347168
2026-01-14 17:06:03.971,71327840,69916560,-42226150,63326290,4609375,-39233400,28930660
2026-01-14 17:06:03.981,40808830,69830260,-42139840,-39465740,35791020,-39135740,22851560
2026-01-14 17:06:03.991,10718810,19433350,8257060,2660283,2709961,-36791990,18664550
2026-01-14 17:06:04.001,10691190,19413500,8259650,2601588,2467041,-3479004,14208980
2026-01-14 17:06:04.011,10656670,6946772,-4184637,2532534,23596190,-35668940,11932370
2026-01-14 17:06:04.021,47336100,19347040,8239795,-34267740,17565920,-36694340,59417720
2026-01-14 17:06:04.031,64974930,19300420,8217351,64154920,11584470,-37353520,25344850
2026-01-14 17:06:04.041,10490070,6900161,-4155289,2250278,-34389500,-35253900,-14877320
2026-01-14 17:06:04.051,47698630,68811700,-41466560,-35130910,-29418940,-34643560,11131290
2026-01-14 17:06:04.061,65965840,68613180,-41388880,57639740,22613520,-41333010,20965580
2026-01-14 17:06:04.071,42462660,19020760,8048171,-41247320,69885260,-48950200,57861330
2026-01-14 17:06:04.081,10189690,18929260,7984300,1773810,9387207,-4753418,8416748
2026-01-14 17:06:04.091,10118050,18828270,7912656,1655555,58288580,-37597660,8502197
2026-01-14 17:06:04.101,10055040,18709150,7824614,1545933,-17684940,-23840330,9844971
2026-01-14 17:06:04.111,48492750,67430650,-41104040,-37081670,-39611820,-13867190,12988280
2026-01-14 17:06:04.121,9922110,18470920,7648526,1316331,-7904053,-76293940,10839840
2026-01-14 17:06:04.131,4382302,18351800,7560484,-4271815,-6573486,-14335630,13220220
2026-01-14 17:06:04.141,4894158,66645160,-40957290,-3806566,-17868040,44799800,15563970
2026-01-14 17:06:04.151,57889180,66394840,-40914140,49143580,2508545,13586430,15588380
2026-01-14 17:06:04.161,49217810,66135890,-40879610,-38687160,126571700,14135740,11755370
2026-01-14 17:06:04.171,9604465,17860660,7188458,770809,3,-7810,593,25878910,109436000
2026-01-14 17:06:04.181,95483580,17751040,7108179,6715440,-13298040,30737300,103149400
2026-01-14 17:06:04.191,49623500,17641420,7027908,-39558960,1953125,31079100,5621338
2026-01-14 17:06:04.201,9434418,54153400,-51705460,474744,3,7043457,24133300,25634770
2026-01-14 17:06:04.211,45485470,52904230,-52661160,-44508360,15209960,33520510,13000490
2026-01-14 17:06:04.221,93360190,64711660,-40560240,2969294,13476560,33911130,-18676760
2026-01-14 17:06:04.231,50158660,6448726,-4047395,-40646560,87402340,8557129,-13830570
2026-01-14 17:06:04.241,50305400,64262820,-40370340,-40914130,-987,0529,-5316162,-1829834
2026-01-14 17:06:04.251,5046940,17092440,6661928,-4116445,-11456300,-97473140,-27294920
2026-01-14 17:06:04.261,50642040,17014760,6618766,-41440670,-2154541,-61431880,-28271480
2026-01-14 17:06:04.271,50201820,52973440,-50623910,40948670,-22766110,-124572800,-26782230
2026-01-14 17:06:04.281,9163384,63296070,-39938760,-134651,8,-16723630,-34301760,-3010254
2026-01-14 17:06:04.291,51194460,16752360,6466849,-42234780,-1583252,-48046880,-2854004
2026-01-14 17:06:04.301,9148712,16655680,6408155,-240822,8,-1854248,-56640620,-30566410
2026-01-14 17:06:04.311,51608780,16550370,6340826,-42735420,-24780270,-6147461,-2626953
2026-01-14 17:06:04.321,47405600,16445070,6273499,-47404710,-36572260,-6386719,-22802730
2026-01-14 17:06:04.331,52049000,61923630,-39394960,-43227420,-4387207,-60839840,-18969730
2026-01-14 17:06:04.341,9188418,16207700,6113815,-384108,8,-42700200,-57470700,-122802700
2026-01-14 17:06:04.351,9210860,16093760,6037857,-406550,8,-3774414,-53027340,-4788208
2026-01-14 17:06:04.361,9231576,15980680,5961034,-427267,3,-36523440,-46972660,-2394104
2026-01-14 17:06:04.371,9252292,6079288,-3904107,-447983,8,-41430660,-4020996,-19638060
2026-01-14 17:06:04.381,9280776,15764030,5815159,-459204,3,-41601560,-38232420,-53344730
2026-01-14 17:06:04.391,53300590,15669080,5754736,-44479020,-33032230,-37841800,-5001831
2026-01-14 17:06:04.401,4907547,50471990,-48343420,-4906663,-26245120,-3569336,-6774902
2026-01-14 17:06:04.411,53680380,5983479,-3866993,-44807020,-19580080,-33276370,-8227539
2026-01-14 17:06:04.421,53870280,59627610,-38566320,-44945120,-10949710,-34985350,-8831787
2026-01-14 17:06:04.431,54051540,59437710,-38462740,-45057340,-94177250,-40454100,-107299800
2026-01-14 17:06:04.441,50544500,15342800,5580375,40605980,-15100100,-4350586,-17590330
2026-01-14 17:06:04.451,9601012,15311730,5576925,-365118,8,-26879880,-5283203,-21557620
2026-01-14 17:06:04.461,54664400,58962970,-38108840,-45255860,-34057620,-5307617,-2709961
2026-01-14 17:06:04.471,54871550,58816230,-37979370,-45290390,-4182129,-4951172,-3305664
2026-01-14 17:06:04.481,5396264,15244400,5592462,4392056,-5229492,-48461910,-32910160
2026-01-14 17:06:04.491,5501053,10899650,9937215,4494427,-57470700,-50390620,-3623047
2026-01-14 17:06:04.501,56143860,58401910,-37565050,46055160,-5708008,-50390620,-31762700
2026-01-14 17:06:04.511,10295860,5826380,-3744421,182991,7,-4963379,-4272461,-2685547
2026-01-14 17:06:04.521,104443300,48765500,-46683550,3107410,-40576170,-42529300,-23706060
2026-01-14 17:06:04.531,10610050,15160670,5641663,455753,2,-36328120,-46923830,-21154780
2026-01-14 17:06:04.541,10801680,57858110,-37073040,626662,1,-43408200,-37890620,-21142580
2026-01-14 17:06:04.551,110019300,15108880,5641658,8061984,-53027340,-45166020,-20227050
2026-01-14 17:06:04.561,11219450,57564640,-36848620,1003003,-56884770,3161621,-17602540
2026-01-14 17:06:04.571,57504220,5741792,-3671917,-44867440,-61865230,55566410,-20275880
2026-01-14 17:06:04.581,70384400,15032920,5648565,60126520,-67041020,73583980,-20935060
2026-01-14 17:06:04.591,52064530,5713308,-3643432,-50721440,-70458980,9638672,-20812990
2026-01-14 17:06:04.601,12036870,57012210,-36278930,1739285,-72265620,11464840,-20935060
2026-01-14 17:06:04.611,75592750,15044140,5740924,65276180,-73583980,11933590,-19750980
2026-01-14 17:06:04.621,12357100,56822310,-35950920,2023267,-7060547,11015630,-22265620
2026-01-14 17:06:04.631,78371290,56753260,-35795560,68021910,-71240230,82373050,-2734375
2026-01-14 17:06:04.641,7958577,15147730,5913561,6922431,-66796880,49047850,-30297850
2026-01-14 17:06:04.651,80800230,56641050,-35493450,70426690,-6401367,28881840,-30493160
2026-01-14 17:06:04.661,8210102,56589260,-35372600,7171543,-65478520,19396970,-30151370
2026-01-14 17:06:04.671,52753340,46958900,-44830330,-51189280,-64160160,19702150,-30249020
2026-01-14 17:06:04.681,13143450,15241810,6078426,2738831,-6328125,18981930,-24560550
2026-01-14 17:06:04.691,60128250,56425260,-35070490,-43987020,-58691410,7763672,-24206540
2026-01-14 17:06:04.701,60283620,15262530,6126761,-43900700,-5029297,-14411930,-22644040
2026-01-14 17:06:04.711,13524970,15265980,6140573,3099635,-43530270,-4296875,-22375490
2026-01-14 17:06:04.721,89546710,56287140,-34863340,79116200,-40942380,30288700,-20458980
2026-01-14 17:06:04.731,13770110,5625262,-3479429,3337868,-3310547,11730960,-26416020
2026-01-14 17:06:04.741,138831800,56243990,-34733870,34492170,-3088379,34838870,-25927730
2026-01-14 17:06:04.751,60939620,56252620,-34673440,-43417320,-31225590,42041020,-25561520
2026-01-14 17:06:04.761,61025940,56261250,-34595750,-43331010,-36743160,30859380,-29077150
2026-01-14 17:06:04.771,53062360,15425670,6343415,-51277320,-40307620,11755370,-25341800
2026-01-14 17:06:04.781,61172680,15483500,6406426,-43167000,-47827150,-14099120,-23425290
2026-01-14 17:06:04.791,6123309,56364830,-34371330,-4308930,-5673828,-57470700,-22839360
2026-01-14 17:06:04.801,14364830,15574990,6504831,3934318,-6347656,-9428711,-21228030
2026-01-14 17:06:04.811,61379840,15599160,6532449,-42908050,-6855469,-12382810,-14526370
2026-01-14 17:06:04.821,14544370,15606930,6541946,4117309,-72216800,-13447270,-9112549
2026-01-14 17:06:04.831,14656580,15587940,6526409,4229521,-7114258,-12080080,-28060910
2026-01-14 17:06:04.841,6169058,11467010,10561030,-4256278,-69970700,-9394531,8691406
2026-01-14 17:06:04.851,14897410,5625262,-3432818,4472071,-6176758,-61572260,19104000
2026-01-14 17:06:04.861,61940900,56174940,-34388600,-42295210,-5800781,-26782230,26049800
2026-01-14 17:06:04.871,15164990,5607999,-3444902,4739653,-5883789,91430660,33374020
2026-01-14 17:06:04.881,15294460,15262530,6213079,4869127,-55078120,38208010,37817380
2026-01-14 17:06:04.891,15424800,55890100,-34569860,4997742,-5234375,5361328,35620120
2026-01-14 17:06:04.901,6247607,15120100,6079289,-4182909,-50341800,64746100,37695310
2026-01-14 17:06:04.911,62588270,55708830,-34630280,-41751410,-45483400,7729492,38623050
2026-01-14 17:06:04.921,15732950,55622510,-34647540,5293808,-3569336,91259770,38232420
2026-01-14 17:06:04.931,6280407,14970780,5952403,-4163919,-31054690,87402340,33154300
2026-01-14 17:06:04.941,15876240,55510300,-34604380,5426737,-30639650,80371100,31933590
2026-01-14 17:06:04.951,62968060,14954380,5951537,-41561510,-25610350,71777340,29077150
2026-01-14 17:06:04.961,63028480,14967330,5973117,-41552880,-23803710,56152340,20385740
2026-01-14 17:06:04.971,63088910,1498892,600330,2,-41544250,-27490230,3413086,11859130
2026-01-14 17:06:04.981,16023840,15027740,6050804,5555346,-2956543,21362300,4562378
2026-01-14 17:06:04.991,16035060,15075220,6106909,5561388,-25195310,4815674,3894043
2026-01-14 17:06:05.001,16046280,5544124,-3415554,5567430,-20629880,-6713867,34240720
2026-01-14 17:06:05.011,53493080,55467140,-34060590,-51329980,-23730470,-2175293,12527470
2026-01-14 17:06:05.021,16067000,15227140,6282996,5581241,-34448240,-35913090,-25421140
2026-01-14 17:06:05.031,16078220,45759090,-43596000,5587285,-4350586,-47485350,-93444820
2026-01-14 17:06:05.041,16098070,15322090,6395207,5601957,-49365230,-5083008,-11853030
2026-01-14 17:06:05.051,6338237,45681410,-43501050,-4163055,-49829100,-33447270,-9100342
2026-01-14 17:06:05.061,6343418,15382510,6472893,-4163056,-4621582,-1104126,-38757320
2026-01-14 17:06:05.071,63485970,45601140,-43408690,-41630570,-50439450,-122680700,-82458500
2026-01-14 17:06:05.081,63537760,15424800,6534175,-41630560,-5307617,-1262207,-7885742
2026-01-14 17:06:05.091,63598180,55415350,-33404580,-41621940,-6064453,-18859860,-1270752
2026-01-14 17:06:05.101,63649970,15459330,6585965,-41621940,-6904297,-2866211,-1619873
2026-01-14 17:06:05.111,63710390,55354930,-33292370,-41630560,-69384770,-21191410,-13464360
2026-01-14 17:06:05.121,63762180,15459330,6603229,-41630560,-66845700,-26733400,-97229010
2026-01-14 17:06:05.131,63805340,15464510,6615314,-41639190,-76708980,35583500,-7470703
2026-01-14 17:06:05.141,63865760,15451560,6610997,-41647830,-85839840,-13282780,-8074951
2026-01-14 17:06:05.151,63900290,15439480,6605818,-41665100,-8964844,68603520,-5731201
2026-01-14 17:06:05.161,53930700,15410130,6583376,-51703730,-9458008,25878910,-73013300
2026-01-14 17:06:05.171,16428660,55070080,-33111100,5858319,-96533200,30419920,29697420
2026-01-14 17:06:05.181,16432120,15350570,6539356,5854864,-9902344,3486328,76828000
2026-01-14 17:06:05.191,64072920,15312590,6508281,-41785940,-9711914,46362300,52581790
2026-01-14 17:06:05.201,64098820,5486294,-3311113,-41811830,-10371090,375,47027590
2026-01-14 17:06:05.211,54103340,15237500,6445269,-51876360,-10683590,2524414,19165040
2026-01-14 17:06:05.221,64141970,15200380,6413331,-41889520,-10683590,24438480,49316410
2026-01-14 17:06:05.231,6417649,54673020,-33162890,-4190676,-10283200,36108400,95581060
2026-01-14 17:06:05.241,6420240,15101980,6321839,-4193267,-10273440,46044920,99853520
2026-01-14 17:06:05.251,64219660,54552180,-33231950,-41932670,-10537110,41015620,109069800
2026-01-14 17:06:05.261,16461460,54509020,-33275100,5842782,-11113280,33447270,5444336
2026-01-14 17:06:05.271,64254180,54457240,-33326900,-41949940,-11542970,21154780,27801510
2026-01-14 17:06:05.281,64262820,14903450,6123307,-41941300,-10917970,24694820,3579712
2026-01-14 17:06:05.291,64271450,14843890,6062023,-41932670,-10556640,15319820,29403690
2026-01-14 17:06:05.301,16487360,14794690,6007646,5868675,-1046875,-11260990,8796692
2026-01-14 17:06:05.311,54195690,14737720,5943769,-51956640,-11005860,-14587400,-25863650
2026-01-14 17:06:05.321,54172390,14672980,5870399,-51928150,-11748050,-33007810,-25314330
2026-01-14 17:06:05.331,64262820,14590990,5779767,-41768670,-11621090,-43945310,28961180
2026-01-14 17:06:05.341,16588350,45125530,-43107440,5992110,-11035160,-39868160,93566900
2026-01-14 17:06:05.351,16627190,54163760,-34190060,6039586,-10507810,-3659668,14929200
2026-01-14 17:06:05.361,16674670,54111970,-34362700,6095690,-94140620,-32958980,22583010
2026-01-14 17:06:05.371,64288710,14193060,5331782,-41397510,-82177740,-18139650,27954100
2026-01-14 17:06:05.381,64297340,14087760,5212665,-41285300,-7709961,1944,303,32202150
2026-01-14 17:06:05.391,16849030,5399113,-3491513,6301122,-7270508,-2729416,3239746
2026-01-14 17:06:05.401,16912040,13886640,4982201,6376218,-7080078,-8532715,3395996
2026-01-14 17:06:05.411,16975050,13799460,4879485,6451314,-7216797,-2890625,32763670
2026-01-14 17:06:05.421,17038930,5390481,-3541577,6525547,-6982422,-45361330,3256836
2026-01-14 17:06:05.431,17110570,45645160,-43813520,6609276,-6669922,-53808590,35327150
2026-01-14 17:06:05.441,17191700,45696940,-43882570,6700772,-63183590,-47973630,32250980
2026-01-14 17:06:05.451,64435450,13478360,4510047,-40370340,-6347656,-5024414,25708010
2026-01-14 17:06:05.461,64478610,13405850,4427182,-40223600,-64941410,-59033200,18774410
2026-01-14 17:06:05.471,12736810,53783960,-36089030,11690830,-65771480,-50341800,114990200
2026-01-14 17:06:05.481,17534380,13276380,4280447,7083153,-6401367,-30517580,6695557
2026-01-14 17:06:05.491,17616390,91681330,82678500,7173789,-5957031,6939697,57678220
2026-01-14 17:06:05.501,64651240,131710700,41613300,-39688430,-49902340,36791990,5343628
2026-01-14 17:06:05.511,6468575,53706280,-36460190,-3956757,-4272461,5385742,44433590
2026-01-14 17:06:05.521,64728920,13092520,4067241,-39438120,-30151370,11220700,13293460
2026-01-14 17:06:05.531,17934030,53714910,-36624200,7529412,-56884770,20253910,28515620
2026-01-14 17:06:05.541,18022070,46081920,-44378030,7631265,17663570,26855470,3540039
2026-01-14 17:06:05.551,18091130,8989715,8083735,7717580,2890625,240625,2697754
2026-01-14 17:06:05.561,64746190,13118420,4041346,-38799380,17126460,11777340,9777832
2026-01-14 17:06:05.571,18217150,13179700,4083643,7885035,111694300,501709,7299805
2026-01-14 17:06:05.581,18300880,132409900,41259410,7991210,20495600,-38256840,1463623
2026-01-14 17:06:05.591,18409640,87722940,86809530,8124137,26660160,-2680664,18078610
2026-01-14 17:06:05.601,64694400,13354930,4201896,-37901680,25732420,-41137700,19714360
2026-01-14 17:06:05.611,64703030,13407580,4235559,-37616840,2442627,-8227539,17736820
2026-01-14 17:06:05.621,18801510,54811130,-37098940,8595424,24963380,-98291020,17932130
2026-01-14 17:06:05.631,64772080,54931980,-37150730,-37029880,29467770,-88964850,1652832
2026-01-14 17:06:05.641,19128650,55044180,-37211150,8976082,359375,-734375,15551760
2026-01-14 17:06:05.651,64867040,55156400,-37271580,-36399770,3540039,-68359380,10876470
2026-01-14 17:06:05.661,19473060,55259980,-37340620,9374000,34204100,-5317383,6463623
2026-01-14 17:06:05.671,6495333,47285170,-45488060,-3576101,36865230,-33789060,-1889038
2026-01-14 17:06:05.681,64987880,47374080,-45571790,-35467540,40527340,-13232420,-113464400
2026-01-14 17:06:05.691,6501376,55613880,-37521890,-3518268,5131836,26489260,-18457030
2026-01-14 17:06:05.701,65022400,55734720,-37573680,-34915120,58935550,7678223,-22302250
2026-01-14 17:06:05.711,20157550,13807230,4457395,10191420,71191410,10772710,-25439450
2026-01-14 17:06:05.721,64979250,13876280,4509184,-34423120,7680664,17285160,-31176760
2026-01-14 17:06:05.731,6496199,13946200,4560114,-3419869,79345700,27124020,-34204100
2026-01-14 17:06:05.741,20405280,9801006,8860672,10513380,79345700,40698240,-37280270
2026-01-14 17:06:05.751,20462250,14117970,4699083,10594520,76464850,38232420,-40795900
2026-01-14 17:06:05.761,16072440,56666940,-37677260,15087910,74072260,30615230,-44750980
2026-01-14 17:06:05.771,64746190,14306140,4856178,-33499530,75927740,3701172,-4633789
2026-01-14 17:06:05.781,20559790,14408850,4943359,10755930,7138672,41381840,-49804690
2026-01-14 17:06:05.791,64599450,57167580,-37642740,-33249210,6455078,37280270,-57373050
2026-01-14 17:06:05.801,20567550,5733158,-3761685,10799950,58740230,24194340,-6323242
2026-01-14 17:06:05.811,64418180,57504220,-37599580,-33067940,6479492,3111267,-6147461
2026-01-14 17:06:05.821,64331870,5765097,-3759097,-32981630,7607422,-67871100,-57128900
2026-01-14 17:06:05.831,64245560,5780634,-3757371,-32895320,8725586,-53375240,-48388670
2026-01-14 17:06:05.841,64167870,14962150,5408605,-32800360,94091800,-435791,-484375
2026-01-14 17:06:05.851,6409019,5809980,-3757368,-3268815,10195310,-56610110,-47436520
2026-01-14 17:06:05.861,20556330,58237900,-37573680,10897490,10341800,-103515600,-47216800
2026-01-14 17:06:05.871,20581360,49024460,-46942500,10941510,10585940,-59143060,-45874020
2026-01-14 17:06:05.881,20614160,15284110,5673599,10995030,10693360,57128900,-4477539
2026-01-14 17:06:05.891,63848500,11029120,10066690,-32135730,10429690,39520260,-4831543
2026-01-14 17:06:05.901,20697030,58816230,-37565050,11119330,984375,-7836914,-45288090
2026-01-14 17:06:05.911,63744920,15529250,5877304,-31824990,10615230,-9680176,-37280270
2026-01-14 17:06:05.921,6370176,15605200,5939456,-3166098,10839840,-97351070,-29052730
2026-01-14 17:06:05.931,63667230,59239180,-37556420,-31488350,10683590,-140625,-22680660
2026-01-14 17:06:05.941,20905910,59377290,-37539150,11411080,10429690,-21447750,-20495600
2026-01-14 17:06:05.951,63606810,15831360,6127623,-31151710,97021490,-25073240,-18908690
2026-01-14 17:06:05.961,21025030,59610350,-37530520,11568170,890625,-3527832,-19152830
2026-01-14 17:06:05.971,21093220,11105190,11095470,11655350,8642578,-3762207,-1940918
2026-01-14 17:06:05.981,63555020,59808870,-37504630,-30668340,93066410,-21862790,-17297360
2026-01-14 17:06:05.991,63537750,5989520,-3750465,-30530230,98291020,-21850590,-15722660
2026-01-14 17:06:06.001,47139300,11734420,10759730,-46807840,10009770,-3161621,-15209960
2026-01-14 17:06:06.011,21323690,16166260,6414196,11942780,10195310,-35058590,-15576170
2026-01-14 17:06:06.021,63546390,16203380,6446132,-30159070,10361330,-41625980,-1282959
2026-01-14 17:06:06.031,63555020,16240500,6478068,-30046860,9760742,-43115230,-14526370
2026-01-14 17:06:06.041,21489420,60223190,-37435580,12139590,87841800,-5805664,-15283200
2026-01-14 17:06:06.051,63589540,16294880,6527269,-29839700,8071289,-51660160,-1665039
2026-01-14 17:06:06.061,63615440,16303510,6535901,-29744750,6845703,-33569340,-22705080
2026-01-14 17:06:06.071,21653420,16304370,6535040,12320850,6376953,-26733400,-23034670
2026-01-14 17:06:06.081,48349460,16295740,6526407,-44941680,59033200,-22912600,-24975590
2026-01-14 17:06:06.091,21744920,16278470,6509145,12419250,5444336,-1274414,-19934080
2026-01-14 17:06:06.101,6375355,16261210,6491883,-2950306,50927740,-13195800,-17675780
2026-01-14 17:06:06.111,63779440,16225820,6458216,-29459900,5029297,-22155760,-121154800
2026-01-14 17:06:06.121,63813970,16191300,6423690,-29425380,4873047,-20471190,-42877200
2026-01-14 17:06:06.131,63839860,16148140,6380531,-29399480,4946289,-18347170,3857422
2026-01-14 17:06:06.141,63874390,6005920,-3761686,-29364950,49072260,-19641110,13500980
2026-01-14 17:06:06.151,21952070,59998770,-37660000,12626420,4951172,-15820310,19165040
2026-01-14 17:06:06.161,21986600,59938350,-37720420,12660940,44628900,-4067993,1953125
2026-01-14 17:06:06.171,6399524,15939250,6175100,-2927863,3786621,4559326,18835450
2026-01-14 17:06:06.181,64029760,15886600,6124170,-29261380,3684082,2619934,17236330
2026-01-14 17:06:06.191,64064290,59757080,-37849890,-29244110,38549800,12597660,22021480
2026-01-14 17:06:06.201,22103130,5969666,-3789306,12768840,3881836,36669920,22668460
2026-01-14 17:06:06.211,64133340,15737270,5980021,-29226850,39648440,58984380,20593260
2026-01-14 17:06:06.221,22131610,49859140,-47696040,12792140,3461914,63671880,112854000
2026-01-14 17:06:06.231,64167860,59558550,-37996640,-29261370,27539060,5673828,47058100
2026-01-14 17:06:06.241,22109170,59515390,-38022530,12762800,26538090,66015620,10131840
2026-01-14 17:06:06.251,64159240,15596570,5844504,-29373590,15979000,79833980,-6933594
2026-01-14 17:06:06.261,64133340,15578450,5828104,-29468540,13574220,78222660,-5670166
2026-01-14 17:06:06.271,21946890,59420440,-38065680,12579800,21496580,7675781,-14015200
2026-01-14 17:06:06.281,64064290,11147460,10172770,-29710220,2890625,8989258,-14839170
2026-01-14 17:06:06.291,21766490,1551629,576940,2,12380410,2758789,96484380,-9918213
2026-01-14 17:06:06.301,21643060,15506800,5761642,12244890,2890625,7685547,-16003420
2026-01-14 17:06:06.311,6385714,15505080,5763369,-3024538,31225590,55615230,-16552730
2026-01-14 17:06:06.321,63770810,59325500,-38057060,-30469810,31567380,4013672,-17663570
2026-01-14 17:06:06.331,48855280,15501630,5766820,-45557980,37817380,18884280,-12817380
2026-01-14 17:06:06.341,63606810,15490400,5760776,-30979080,40551760,5050659,-118652300
2026-01-14 17:06:06.351,63520490,10621820,10612100,-31238030,36035160,11633300,-20288090
2026-01-14 17:06:06.361,20708250,15466230,5750421,11211680,3244629,8099365,-2644043
2026-01-14 17:06:06.371,20529570,59135600,-37936210,11010570,32348630,-1517334,-29077150
2026-01-14 17:06:06.381,20350900,1543170,573314,9,10809450,31445310,-2915039,-33007810
2026-01-14 17:06:06.391,63218380,15408400,5721934,-32472360,203125,-45336910,-38671880
2026-01-14 17:06:06.401,63149330,15366110,5695176,-32817630,11706540,-63427740,-4169922
2026-01-14 17:06:06.411,19764810,58755810,-37798100,10135310,90270990,-54248050,-37158200
2026-01-14 17:06:06.421,63037120,58617700,-37763580,-33585840,769043,-62353520,-32006840
2026-01-14 17:06:06.431,49935100,5844509,-3774633,-47033130,-5214691,-6855469,-33862300
2026-01-14 17:06:06.441,19161450,49018420,-46965810,9426654,-9283447,-6201172,-35083010
2026-01-14 17:06:06.451,62933540,14939700,5361993,-34794280,-12365720,-5629883,-33984380
2026-01-14 17:06:06.461,18759220,48787950,-46781950,8948458,-22717280,-5083008,-37841800
2026-01-14 17:06:06.471,50607500,14660040,5123760,-47879900,-35327150,-49023440,-40478520
2026-01-14 17:06:06.481,62855850,57305690,-37849900,-36028600,-5336914,-41723630,-5
2026-01-14 17:06:06.491,18143780,14302680,4807842,8217353,-5678711,-21057130,-47631840
2026-01-14 17:06:06.501,62769540,56744630,-38013900,-36874510,-6455078,-86242670,-4272461
2026-01-14 17:06:06.511,51265240,48208770,-46377130,-48724070,-7397461,-2619629,-3942871
2026-01-14 17:06:06.521,51414570,13664810,4220023,-48920020,-84716800,-4621582,-39453120
2026-01-14 17:06:06.531,62571000,134179400,39835180,-38057040,-88916020,-31591800,-3737793
2026-01-14 17:06:06.541,17085540,84889150,83946400,6996839,-91552740,-9564209,-33691410
2026-01-14 17:06:06.551,16896510,86368540,76942740,6788816,-9067383,-8538818,-3310547
2026-01-14 17:06:06.561,16714380,126039700,31747300,6591151,-87353520,944519,-30200200
2026-01-14 17:06:06.571,62130800,80763980,71326110,-39187800,-8417969,1439209,-26733400
2026-01-14 17:06:06.581,16375150,77835260,68385300,6239841,-9267578,25512700,-2553711
2026-01-14 17:06:06.591,61820060,74995440,65528220,-39515800,-1125,-56488040,-27563480
2026-01-14 17:06:06.601,16070450,54155120,-40706980,5940321,-12900390,-17089840,-26513670
2026-01-14 17:06:06.611,15921120,11176290,1667638,5796169,-13789060,-2331543,-24597170
2026-01-14 17:06:06.621,61293520,53766700,-41578780,-39852430,-13535160,-11126710,-21166990
2026-01-14 17:06:06.631,15641450,53576800,-42044890,5540674,-12714840,-5593872,-12384030
2026-01-14 17:06:06.641,60879200,10225950,632699,3,-39973290,-12167970,-5319214,-8416748
2026-01-14 17:06:06.651,1535661,98970780,2710348,529039,8,-12363280,-50598140,-5947876
2026-01-14 17:06:06.661,15215910,48785360,-47837600,5172102,-11953130,-11785890,-22258760
2026-01-14 17:06:06.671,15074360,4878450,3908594,5054708,-11806640,-1842041,19744870
2026-01-14 17:06:06.681,59895190,89087520,-8295042,-40025070,-11123050,-24523930,8929443
2026-01-14 17:06:06.691,14795560,41660780,31881090,4832877,-98339840,-1149292,13549810
2026-01-14 17:06:06.701,59351400,3814253,2832136,-39947390,-87109380,50476070,17382810
2026-01-14 17:06:06.711,14529700,79100660,-19542110,4632623,-7314453,9173584,18334960
2026-01-14 17:06:06.721,14399360,31367500,21458340,4538536,-5551758,7470703,22009280
2026-01-14 17:06:06.731,58488230,28108190,18157590,-39757490,-37060550,-24383540,2388916
2026-01-14 17:06:06.741,14173210,69994250,-29943280,4384894,-10974120,-15075680,2232666
2026-01-14 17:06:06.751,57953060,67370220,-33016160,-39533060,12445070,-28051760,24365230
2026-01-14 17:06:06.761,14019570,19628430,9546634,4314112,3479004,-3239746,28393560
2026-01-14 17:06:06.771,57461060,17319460,7194498,-39161900,39013670,-3642578,26391600
2026-01-14 17:06:06.781,57253900,15270300,5100455,-38902960,29638670,-23937990,19836430
2026-01-14 17:06:06.791,57072630,51902260,-50227720,-38618110,13549810,-11480710,8319092
2026-01-14 17:06:06.801,5690861,58091170,-44453120,-3829872,74646000,-7556152,46691900
2026-01-14 17:06:06.811,14136090,59528340,49230760,4663696,47729490,7745361,-7987976
2026-01-14 17:06:06.821,56623780,9571666,-767358,6,-37599580,4081726,18005370,16815190
2026-01-14 17:06:06.831,14336350,39716060,29337330,4964078,34255980,-19824220,1182251
2026-01-14 17:06:06.841,56399360,31969130,21547250,-36788200,-30929560,-30664060,18518070
2026-01-14 17:06:06.851,14627230,73032600,-31600560,5363726,-11566160,-2376709,18652340
2026-01-14 17:06:06.861,10654340,20790250,10283780,9733682,-18139650,10322570,16479490
2026-01-14 17:06:06.871,5614042,16495990,5946361,-3532080,-22241210,2006836,13305660
2026-01-14 17:06:06.881,56054090,62458800,-43469110,-34802900,-14672850,31469730,12512210
2026-01-14 17:06:06.891,15354020,14812820,4176867,6328744,-37597660,29248050,3692627
2026-01-14 17:06:06.901,11505250,11755220,10687140,10609110,-31402590,4345703,7525635
2026-01-14 17:06:06.911,55769250,20899010,10175020,-33223320,-10870360,62597660,35247800
2026-01-14 17:06:06.921,55665670,75414940,-32256570,-32688150,-20227050,5283203,70617680
2026-01-14 17:06:06.931,16082540,34751980,23943400,7309304,-21643070,23937990,13562010
2026-01-14 17:06:06.941,55475780,92220810,-16262070,-31669610,-43182370,9265137,16442870
2026-01-14 17:06:06.951,55389460,10190560,-695715,4,-31168980,17016600,6842041,20129400
2026-01-14 17:06:06.961,55320400,11329940,409138,6,-30651080,35009770,14135740,30786130
2026-01-14 17:06:06.971,43948170,12642820,1685764,-41436350,5161133,1694336,37939450
2026-01-14 17:06:06.981,17039790,14127460,3135885,8561758,55126950,27368160,42163090
2026-01-14 17:06:06.991,17260760,104131300,103028900,8841430,42822260,26538090,4645996
2026-01-14 17:06:07.001,17498990,17612070,6556619,9138354,3647461,13928220,48242190
2026-01-14 17:06:07.011,17747590,19611160,8528093,9442189,41992190,20239260,48046880
2026-01-14 17:06:07.021,14283610,71599740,-39489920,13458600,38330080,32836910,4729004
2026-01-14 17:06:07.031,55147770,73964820,-37366520,-26818610,33691410,48217770,44995120
2026-01-14 17:06:07.041,42169180,76407580,-35148180,-39279290,1517334,6567383,39770510
2026-01-14 17:06:07.051,18773030,79005710,-32739940,10678250,-33996580,73095700,28149410
2026-01-14 17:06:07.061,55225460,81681540,-30236760,-25273540,-2368164,72314460,203125
2026-01-14 17:06:07.071,19213240,34001030,22795390,11204780,-37524420,44580080,16503910
2026-01-14 17:06:07.081,55259980,87084960,-25109540,-24427630,-52978520,19543460,16455080
2026-01-14 17:06:07.091,55277240,59498130,-52817220,-24065110,-7626953,5053711,8123779
2026-01-14 17:06:07.101,19713020,9185828,-2056066,11809860,-10097660,6112671,-12768560
2026-01-14 17:06:07.111,55259980,43260220,32007970,-23495420,-12451170,78125,-23718260
2026-01-14 17:06:07.121,19885650,44819100,33556500,12034280,-12871090,-1932373,-27978520
2026-01-14 17:06:07.131,55147770,96761070,-15968600,-23141520,-12929690,-17150880,-28808590
2026-01-14 17:06:07.141,19908090,60542560,-52307940,12098160,-1296875,-9857178,-2866211
2026-01-14 17:06:07.151,19864940,9809898,-1488965,12072260,-12890630,-19006350,-23583980
2026-01-14 17:06:07.161,54785230,60732460,-52394260,-22986150,-12626950,-3647461,-20739750
2026-01-14 17:06:07.171,54621240,9807310,-1520904,-23029310,-11708980,-3330078,-12023930
2026-01-14 17:06:07.181,54439970,41395010,40260630,-23106990,-94921870,-25585940,29937740
2026-01-14 17:06:07.191,19384150,45643430,34285870,11638090,-50878900,-15966800,19812010
2026-01-14 17:06:07.201,19232230,9597558,-1777263,11496530,6561279,8842468,37841800
2026-01-14 17:06:07.211,53835750,4393437,3254225,-23417730,4975586,23059080,5522461
2026-01-14 17:06:07.221,18928400,43337910,31930290,11213410,10166020,31469730,7607422
2026-01-14 17:06:07.231,53464590,42999550,31578120,-23564470,14589840,2633667,8754883
2026-01-14 17:06:07.241,18727280,43004730,31572940,11034740,17041020,11376950,7939453
2026-01-14 17:06:07.251,53266060,43526080,32087380,-23590360,15927730,9394531,64453120
2026-01-14 17:06:07.261,53205640,9614823,-1829054,-23581730,13769530,11904300,54345700
2026-01-14 17:06:07.271,53171120,46205350,34759750,-23564470,13466800,7080078,53564450
2026-01-14 17:06:07.281,18646140,48189770,36745900,10977770,13144530,5341797,48120120
2026-01-14 17:06:07.291,18680670,61690580,-52713640,11012290,11601560,48291020,40405270
2026-01-14 17:06:07.301,18723830,10472810,-960706,2,11055450,11494140,3256836,3881836
2026-01-14 17:06:07.311,53309220,62165320,-52066260,-23409100,11142580,25634770,39404300
2026-01-14 17:06:07.321,18865390,59307370,47898030,11190100,93408200,24609380,3330078
2026-01-14 17:06:07.331,18955160,113860400,-94948,16,11272970,78515620,13220220,2878418
2026-01-14 17:06:07.341,19062190,11714050,335771,8,11373090,63623050,13189320,22131350
2026-01-14 17:06:07.351,19161450,63166590,-50426240,11463730,39624020,-12249760,13464360
2026-01-14 17:06:07.361,15801660,57355750,-56012660,15030680,19921880,-2590332,57678220
2026-01-14 17:06:07.371,19372930,76177980,64863580,11649310,37384030,-2939453,-34362790
2026-01-14 17:06:07.381,19475640,63822600,-49079700,11736490,33477780,-375,-41137700
2026-01-14 17:06:07.391,5448311,64003870,-48656750,-2308107,104003900,-54589840,-16298290
2026-01-14 17:06:07.401,19691440,13578490,2338320,11917750,11114500,-7558594,-24139400
2026-01-14 17:06:07.411,54880180,13815000,2602448,-23063830,-15830990,-6743164,-7940674
2026-01-14 17:06:07.421,5509599,140428700,28579470,-2305514,-22277830,-5942383,-23571780
2026-01-14 17:06:07.431,55303140,14227590,3070284,-23055200,-44140620,-5625,-43774420
2026-01-14 17:06:07.441,55510300,14395910,3264496,-23072470,-49609380,-3552246,-5214844
2026-01-14 17:06:07.451,16690640,14546960,3441448,15902570,-5522461,-10632320,-578125
2026-01-14 17:06:07.461,20299970,64530400,-46283040,12396810,-69433590,13256840,-6513672
2026-01-14 17:06:07.471,20337090,6454766,-4605863,12411480,-7709961,2354,384,-6533203
2026-01-14 17:06:07.481,56114510,14851660,3810018,-23348680,-74316410,-3671875,-5800781
2026-01-14 17:06:07.491,56235360,64495880,-45730620,-23469520,-6743164,-38549800,-5205078
2026-01-14 17:06:07.501,56321680,14912080,3904967,-23607630,-6767578,-54107660,-51904300
2026-01-14 17:06:07.511,20320690,64375030,-45557980,12307040,-69628900,14404300,-49365230
2026-01-14 17:06:07.521,41797160,14891370,3908420,-38546470,-7080078,24255370,-50878900
2026-01-14 17:06:07.531,16561160,64245550,-45514820,15755830,-7553711,28442380,-52490230
2026-01-14 17:06:07.541,20082450,64176500,-45532080,12010110,-8095703,3359375,-5600586
2026-01-14 17:06:07.551,19944350,14745490,3778083,11854740,-7211914,30859380,-46777340
2026-01-14 17:06:07.561,56269880,14675570,3709891,-24816060,-4230957,12237550,-31762700
2026-01-14 17:06:07.571,19601670,63943440,-45696080,11472360,-13549810,54473880,-13452150
2026-01-14 17:06:07.581,56088620,14527110,3564879,-25411650,15350340,49682620,-4525757
2026-01-14 17:06:07.591,19224460,14458050,3495826,11055450,89782710,-3527832,-37719730
2026-01-14 17:06:07.601,55881460,14370880,3410372,-26015870,16723630,6665039,8804321
2026-01-14 17:06:07.611,18830860,63615440,-45972300,10620420,20202640,13269040,20248410
2026-01-14 17:06:07.621,55674300,6352914,-4602412,-26637350,29516600,6317139,46325680
2026-01-14 17:06:07.631,55587980,141594000,32075300,-26948080,49414060,-19226070,103515600
2026-01-14 17:06:07.641,55510300,14095530,3150559,-27267460,7739258,-24707030,19909670
2026-01-14 17:06:07.651,18100620,14039420,3103086,9796950,8618164,-19995120,2467041
2026-01-14 17:06:07.661,17959060,63149330,-46093140,9627772,87841800,-31567380,26098630
2026-01-14 17:06:07.671,5547578,13947920,3039213,-2814789,9194336,-5258789,1237793
2026-01-14 17:06:07.681,17757940,139039000,30141810,9362783,79248050,-27929690,-7762909
2026-01-14 17:06:07.691,55596620,138771400,30064120,-28683050,5917969,22973630,-16308590
2026-01-14 17:06:07.701,17592220,89842780,78992770,9131452,41259770,34887700,-27929690
2026-01-14 17:06:07.711,42469160,90005060,79175760,-42466510,29663090,23657230,-37939450
2026-01-14 17:06:07.721,17417850,62519220,-45549350,8891490,23071290,-11428830,-38183590
2026-01-14 17:06:07.731,17340170,13902170,3119486,8779276,21459960,-3173828,-328125
2026-01-14 17:06:07.741,17271120,13915980,3157465,8675696,2536621,-4736328,-32739260
2026-01-14 17:06:07.751,17218460,13929800,3195445,8590242,23413090,-39672850,-31567380
2026-01-14 17:06:07.761,56140410,13935840,3223927,-30469810,10803220,-43798830,-27905270
2026-01-14 17:06:07.771,17121790,13932380,3244645,8427966,9086609,-5410156,-30297850
2026-01-14 17:06:07.781,56356200,13928930,3265360,-30892760,-15429690,-59765620,-32373050
2026-01-14 17:06:07.791,17067410,61776900,-44617130,8309715,-2998047,-4868164,-3684082
2026-01-14 17:06:07.801,56580630,13871100,3254139,-31307080,-41577150,-36035160,-32495120
2026-01-14 17:06:07.811,16994900,13833980,3239466,8175060,-3881836,-2944336,-30615230
2026-01-14 17:06:07.821,5678779,13796870,3224793,-3172140,-36450200,-1472168,-3251953
2026-01-14 17:06:07.831,5687409,61233100,-44280490,-3192854,-36621100,7220459,-27514650
2026-01-14 17:06:07.841,56925890,137088300,31747300,-32135720,-4194336,17651370,-26782230
2026-01-14 17:06:07.851,16774800,136656700,31488340,7842747,-50878900,25097660,-2244873
2026-01-14 17:06:07.861,16683300,13632870,3129844,7727075,-55126950,21960450,-19763180
2026-01-14 17:06:07.871,16582310,13600070,3110855,7603643,-6611328,17443850,-22692870
2026-01-14 17:06:07.881,56960420,13551730,3072874,-33016160,-7602539,18261720,-23474120
2026-01-14 17:06:07.891,16360470,60620250,-44081960,7342105,-8232422,21240230,-26464840
2026-01-14 17:06:07.901,12173600,13456780,2995191,11270030,-9277344,296875,-31079100
2026-01-14 17:06:07.911,16108430,86883850,76427430,7058987,-10068360,38134770,-31640620
2026-01-14 17:06:07.921,56753260,13323850,2869166,-33879320,-10087890,23901370,-28295900
2026-01-14 17:06:07.931,56658310,60283620,-44245960,-34077840,-9140625,-34973140,-2758789
2026-01-14 17:06:07.941,15693250,13159850,2705166,6610999,-7841797,-1381836,-2434082
2026-01-14 17:06:07.951,15566360,8351921,7305935,6478935,-6767578,-12176510,-24804690
2026-01-14 17:06:07.961,46544580,60041930,-44608500,-44364220,-50683590,-20507810,-19702150
2026-01-14 17:06:07.971,56252630,81281020,70809070,-34656170,-34423830,-15893560,-17675780
2026-01-14 17:06:07.981,56149040,12723090,2244233,-34759760,-1730957,-8013916,-12609860
2026-01-14 17:06:07.991,15143410,12624690,2135476,6055983,7891846,-22875980,-1134491
2026-01-14 17:06:08.001,15071770,59774350,-45221350,5989522,2932129,-4580078,5609131
2026-01-14 17:06:08.011,15017390,7698331,6647511,5940319,39282230,-45751950,69885260
2026-01-14 17:06:08.021,14980270,59670760,-45497560,5908384,37768560,-10076900,4559326
2026-01-14 17:06:08.031,14960420,75438240,64912780,5893711,2775879,690918,60821530
2026-01-14 17:06:08.041,5571746,12222450,1691808,-3489786,2319336,-32253260,34484860
2026-01-14 17:06:08.051,55674300,12190520,1654690,-34889230,19433590,58898930,2748108
2026-01-14 17:06:08.061,14918990,12167210,1626207,5866086,17150880,11462400,3555298
2026-01-14 17:06:08.071,14917260,59610340,-45834190,5867815,16369630,11920170,4937744
2026-01-14 17:06:08.081,55631140,12162030,1614121,-34828810,12585450,8123779,7501221
2026-01-14 17:06:08.091,14938840,12180160,1630522,5898024,703125,-19470220,9655762
2026-01-14 17:06:08.101,14971640,59688030,-45825560,5934279,-28381350,-7519531,10534670
2026-01-14 17:06:08.111,46219160,59713930,-45799670,-44119940,-10614010,-17297360,120666500
2026-01-14 17:06:08.121,15055370,12266470,1716839,6023182,-18151860,-2607422,1295166
2026-01-14 17:06:08.131,55743360,75622960,65073330,-34543960,-18981930,-21411130,17102050
2026-01-14 17:06:08.141,15190020,76053680,65505780,6164746,-16308590,-20739750,1953125
2026-01-14 17:06:08.151,55864190,59860660,-45601130,-34354060,-13012700,-9320068,20776370
2026-01-14 17:06:08.161,55933250,59921080,-45540710,-34233220,-17907720,11352540,20361330
2026-01-14 17:06:08.171,15448970,59990130,-45471660,6440958,-23632810,16088870,22229000
2026-01-14 17:06:08.181,56054100,78643180,68095280,-33939740,-31201170,17736820,18200680
2026-01-14 17:06:08.191,15663900,12698060,2148423,6674873,-39697260,25512700,14782720
2026-01-14 17:06:08.201,5616629,60266350,-45247240,-3360308,-42236330,42285160,13012700
2026-01-14 17:06:08.211,56218100,81408780,70853960,-33430470,-44360350,51220700,16015630
2026-01-14 17:06:08.221,15972910,60516670,-45065970,7021870,-4338379,21105960,12927250
2026-01-14 17:06:08.231,12056460,60646140,-44988290,11162740,-49780270,45806880,6878662
2026-01-14 17:06:08.241,56330300,13215960,2649059,-32903940,-4255371,-49934390,-33912660
2026-01-14 17:06:08.251,16271570,13312630,2742282,7361955,-60546880,11260990,-105163600
2026-01-14 17:06:08.261,16351850,134093100,28355050,7454321,-64746100,41333010,-12347410
2026-01-14 17:06:08.271,16414860,6109499,-4469482,7529409,-6035156,-80200190,-14404300
2026-01-14 17:06:08.281,16477870,13569860,2985696,7604505,-6201172,-20922850,-1862793
2026-01-14 17:06:08.291,12536130,13623370,3035760,11649830,-6953125,-12963870,-26171880
2026-01-14 17:06:08.301,56390730,6134533,-4459989,-32135720,-6870117,-23901370,-30517580
2026-01-14 17:06:08.311,16566780,89286040,78686340,7722763,-7026367,-28125,-32714840
2026-01-14 17:06:08.321,56321680,83986250,83986140,-32032140,-6821289,-2705078,-35107420
2026-01-14 17:06:08.331,16550380,89206620,78593120,7721900,-61621100,-2722168,-34179690
2026-01-14 17:06:08.341,16511530,61474780,-44746600,7691688,-5410156,-31958010,-32788090
2026-01-14 17:06:08.351,45271410,8861106,7798025,-42857990,-41601560,-34033200,-27294920
2026-01-14 17:06:08.361,16417450,13599200,2956348,7613137,-30297850,-35546880,-19348140
2026-01-14 17:06:08.371,55941880,13535330,2882114,-32014880,-17541500,-36767580,-14562990
2026-01-14 17:06:08.381,16296610,86729340,76064040,7509561,-80566410,-38378900,-10498050
2026-01-14 17:06:08.391,55726090,61457520,-45333560,-32040770,8868408,-31811520,-2381897
2026-01-14 17:06:08.401,55613880,13322130,2629206,-32049410,28027340,-31884770,9637451
2026-01-14 17:06:08.411,16117070,84246870,73540140,7361095,42089840,-4345703,17163090
2026-01-14 17:06:08.421,16077360,13162440,2443626,7331744,53271480,-4494629,23095700
2026-01-14 17:06:08.431,16046280,8261807,7188890,7311028,63134770,-3984375,29638670
2026-01-14 17:06:08.441,16033340,6134531,-4604999,7306713,66064450,-31274410,31176760
2026-01-14 17:06:08.451,55277240,129526900,22045300,-31919930,6479492,-14245610,3371582
2026-01-14 17:06:08.461,16051460,61302160,-46248520,7340379,60839840,-10241700,3659668
2026-01-14 17:06:08.471,16083400,12862920,2104401,7377492,5678711,919342,33691410
2026-01-14 17:06:08.481,5527725,12830120,2068149,-3173003,5600586,25854490,35595700
2026-01-14 17:06:08.491,55303140,61250360,-46403880,-31652350,5620117,45043940,3671875
2026-01-14 17:06:08.501,55337660,54577220,-53094300,-31566030,5727539,5932617,32617190
2026-01-14 17:06:08.511,55380820,61267630,-46403880,-31471090,55371100,703125,33032230
2026-01-14 17:06:08.521,55423980,61293520,-46377990,-31376130,50878900,6923828,3251953
2026-01-14 17:06:08.531,16439020,54585850,-53085660,7764194,49536130,64404300,3256836
2026-01-14 17:06:08.541,16522750,129440600,21786340,7853103,46923830,65185550,27563480
2026-01-14 17:06:08.551,55596620,81684990,70923020,-31065390,40600580,64453120,23303220
2026-01-14 17:06:08.561,16675530,13087340,2328825,8011058,3713379,6010742,1940918
2026-01-14 17:06:08.571,16752350,8332069,7256735,8089606,32958980,5395508,17822270
2026-01-14 17:06:08.581,55803780,132720600,25239020,-30806440,27001950,37329100,12768560
2026-01-14 17:06:08.591,55881460,13363560,2622300,-30728760,23498540,18530270,118652300
2026-01-14 17:06:08.601,16976780,13463690,2729335,8314028,19592280,-38391110,1005249
2026-01-14 17:06:08.611,17046690,61820060,-45437140,8382221,1616211,-15197750,7733154
2026-01-14 17:06:08.621,56123140,13636320,2919230,-30556130,15942380,-16699220,8679199
2026-01-14 17:06:08.631,5620945,61906370,-45178180,-3050431,1149292,-18554690,56365970
2026-01-14 17:06:08.641,56304420,89766820,79068730,-30478430,501709,-21142580,881958
2026-01-14 17:06:08.651,56382100,13854700,3166959,-30469810,-63171390,-22399900,-41015620
2026-01-14 17:06:08.661,17337580,13909940,3232561,8643758,-1739502,-15332030,-769043
2026-01-14 17:06:08.671,17368650,61958160,-44712070,8664478,-25577540,-72021490,-9527588
2026-01-14 17:06:08.681,44866580,139945300,33378680,-42261530,56854250,-105896000,-79589840
2026-01-14 17:06:08.691,56641060,92330430,81684130,-30607910,14929200,-15917970,-10626220
2026-01-14 17:06:08.701,56692840,92584210,81948260,-30676970,15112310,-13024900,-11975100
2026-01-14 17:06:08.711,17358300,14056680,3431089,8605780,12176510,-12243650,-14624020
2026-01-14 17:06:08.721,5677916,14067900,3454396,-3090139,8508301,-83618160,-18640140
2026-01-14 17:06:08.731,17280610,14069630,3469932,8493568,6427002,-6945801,-20935060
2026-01-14 17:06:08.741,56856840,61699220,-44159650,-31203500,28717040,-53344730,-22094730
2026-01-14 17:06:08.751,17162360,61630150,-44107860,8335610,5404663,-18566900,-23950200
2026-01-14 17:06:08.761,56900000,6155248,-4404746,-31574660,6463623,-26635740,-2130127
2026-01-14 17:06:08.771,17010440,92626500,82078590,8142262,3945923,-24768070,-22546390
2026-01-14 17:06:08.781,16935350,139764100,34423120,8044727,10047910,-28588870,-2548828
2026-01-14 17:06:08.791,56951790,92010200,81486460,-32161620,-18722530,-4663086,-25976560
2026-01-14 17:06:08.801,16757530,61189940,-43926600,7825478,-27275080,-57910160,-24511720
2026-01-14 17:06:08.811,16672080,61077730,-43917960,7721036,-1966858,-61572260,-19763180
2026-01-14 17:06:08.821,16596120,13755440,3266225,7624358,-62927250,-5151367,-15808110
2026-01-14 17:06:08.831,56986320,89570880,79092030,-32938460,-10809330,-3720703,-11804200
2026-01-14 17:06:08.841,56994940,13581080,3112579,-33119730,-14196780,-27539060,-8648682
2026-01-14 17:06:08.851,16375150,60533930,-44047430,7344695,-16064450,-12963870,-3366089
2026-01-14 17:06:08.861,16306960,86621440,76171940,7257516,-1796875,6439209,1171875
2026-01-14 17:06:08.871,16246540,60231820,-44176910,7179829,-15405270,25317380,6112671
2026-01-14 17:06:08.881,12106960,84282260,73850020,11198560,-11883550,52246100,9301758
2026-01-14 17:06:08.891,16142090,13007070,2581733,7042584,-814209,7675781,13208010
2026-01-14 17:06:08.901,57107160,59774340,-44392700,-34043320,-5420685,92529300,16577150
2026-01-14 17:06:08.911,16044560,76479220,75438250,6915701,3869629,9213867,19042970
2026-01-14 17:06:08.921,15990180,12719640,2316741,6849234,6274414,79589840,18127440
2026-01-14 17:06:08.931,57150320,12647130,2251139,-34397220,82336420,6948242,19763180
2026-01-14 17:06:08.941,57158950,59334130,-44556710,-34509430,6451416,5263672,2154541
2026-01-14 17:06:08.951,15878830,78561180,68177280,6701635,6036377,3173828,20458980
2026-01-14 17:06:08.961,15849480,124822600,21052650,6661933,61767580,12084960,17626950
2026-01-14 17:06:08.971,15835670,59118330,-44599860,6641213,26565550,-4626465,18017580
