Timestamp,Rotation X,Rotation Y,Rotation Z,Rotation W,Acceleration X,Acceleration Y,Acceleration Z
2026-01-14 17:05:52.901,37737680,-8757699,18829130,42778580,1739502,-13549810,-3250122
2026-01-14 17:05:52.911,15045010,-8766332,18837770,65471250,18811040,-93444820,-14518740
2026-01-14 17:05:52.921,15036380,-8766332,18837770,65462620,2310791,-7098389,8520508
2026-01-14 17:05:52.931,15036380,3654648,6416786,65462620,26660160,-13867190,15319820
2026-01-14 17:05:52.941,-21189030,3654650,6416788,29237210,24975590,-11437990,15258790
2026-01-14 17:05:52.951,1503638,3655514,6417650,6544536,20788570,-113464400,61523440
2026-01-14 17:05:52.961,-21172630,36555140,64193760,29219080,12731930,-15820310,14137270
2026-01-14 17:05:52.971,15036380,-8789636,18866250,65410830,14611820,-12207030,3567505
2026-01-14 17:05:52.981,1503639,-8788770,18867110,6539357,19750980,-11199950,982666
2026-01-14 17:05:52.991,-21149330,36572410,64228290,29190600,18725590,-14990230,13208010
2026-01-14 17:05:53.001,15036380,-8786184,18869700,65359040,19006350,-12609860,12988280
2026-01-14 17:05:53.011,-21125160,36606930,64262820,29162980,14331060,-11834720,-8514404
2026-01-14 17:05:53.021,15036380,-8792228,18880930,65307250,1303711,-15490720,-68359380
2026-01-14 17:05:53.031,-21111350,36615560,64305980,29142260,15429690,-13464360,-21255490
2026-01-14 17:05:53.041,-2110357,-8797402,18893010,2913276,1932373,-11627200,42053220
2026-01-14 17:05:53.051,-21097540,-8804308,18903370,29121540,19946290,-1274414,9020996
2026-01-14 17:05:53.061,-21090630,36650090,64375020,29111190,17041020,-10040280,11985780
2026-01-14 17:05:53.071,37576270,-8826752,18932710,42594720,115478500,-1550293,-64941410
2026-01-14 17:05:53.081,-21076820,49157390,51936790,29090470,14733890,-10638430,-26031490
2026-01-14 17:05:53.091,-21070780,-8858688,18969830,29079250,15917970,-5407715,3213501
2026-01-14 17:05:53.141,-21028480,3665871,6462535,29017960,17687990,-17807010,6213379
2026-01-14 17:05:53.151,14915540,36667350,64651240,64944720,16223150,-3338623,1328125
2026-01-14 17:05:53.161,1490691,-8932919,19068230,6491882,13708500,-29800420,14208980
2026-01-14 17:05:53.171,-24589740,36684620,64703030,25387660,39489740,-26031490,4107666
2026-01-14 17:05:53.181,14898270,-13510820,14524860,64858400,2458191,-38852690,18814090
2026-01-14 17:05:53.191,-20975830,36693240,64746190,28949780,8276367,7873535,1071167
2026-01-14 17:05:53.281,15036380,-13967020,14068660,64651240,12670900,-8300781,-32562260
2026-01-14 17:05:53.291,15053640,-8934649,19101030,64633980,6970215,-81726070,-11193850
2026-01-14 17:05:53.301,37366520,36814090,64867040,42321100,6530762,-48461910,-7714844
2026-01-14 17:05:53.311,-20772130,-8950184,19120020,28739160,5899048,-11196140,-11924740
2026-01-14 17:05:53.321,1508817,-8940688,19112250,6458219,4800415,-38757320,63964840
2026-01-14 17:05:53.331,-20754860,-8940690,19112260,28721900,24383540,-57861330,6317139
2026-01-14 17:05:53.341,-20737590,36831350,64901560,28704630,-3805542,-17150880,-67367550
2026-01-14 17:05:53.351,1512272,36831350,64901560,6454768,-25253300,12680050,-4071045
2026-01-14 17:05:53.361,15139960,49462080,52270830,64547660,-49316410,37841800,17730710
2026-01-14 17:05:53.371,15148590,49462080,52270830,64539030,-21972660,7537842,7897949
2026-01-14 17:05:53.381,15148590,49462080,52270830,64539030,-20462040,24520870,13366700
2026-01-14 17:05:53.391,37375150,-8947594,19122610,42312470,143585200,-4524231,11773680
2026-01-14 17:05:53.401,15165850,-8947596,19122610,64521770,5214691,309,2289,56152340
2026-01-14 17:05:53.411,15183110,-8947596,19122610,64521770,-4147339,-18722530,-16036990
2026-01-14 17:05:53.461,-20673720,36831350,64901560,28647670,447464,-40359500,5984497
2026-01-14 17:05:53.471,-20673720,36839980,64892930,28647670,-54016110,-48706060,56488040
2026-01-14 17:05:53.501,15217640,36848620,64884300,64539030,9777832,-13587950,12414550
2026-01-14 17:05:53.511,15217640,36857250,64875660,64539030,10632320,-4840851,9710693
2026-01-14 17:05:53.521,15217640,36857250,64875660,64539030,95336910,-13511660,-13893130
2026-01-14 17:05:53.531,15217640,36857250,64875660,64539030,101501500,-135269200,-50598140
2026-01-14 17:05:53.561,15209010,36865880,64867030,64547660,2055664,35572050,8062744
2026-01-14 17:05:53.571,15217640,3689175,6485840,64539030,1652832,-146484400,31158450
2026-01-14 17:05:53.581,37413130,-8877678,19054420,42343540,6341553,-26474000,8666992
2026-01-14 17:05:53.591,37413130,3692629,6484112,42343540,9002686,-37750240,43121340
2026-01-14 17:05:53.601,37413130,36952200,64832510,42343550,-17440800,-38116460,91918940
2026-01-14 17:05:53.611,37413130,36960830,64823870,42343550,-27046200,-5368042,9643555
2026-01-14 17:05:53.621,37413130,36978090,64806610,42343550,-20126340,-6677246,57678220
2026-01-14 17:05:53.631,37413130,36986720,64797980,42343550,-38116460,-6048584,-26245120
2026-01-14 17:05:53.641,1523493,49502650,52282050,6453905,-5581665,-48583980,-70617680
2026-01-14 17:05:53.651,1523493,37021250,64780720,6453905,14373780,-944519,-703,3348
2026-01-14 17:05:53.661,1523493,37029880,64772080,6453905,14007570,-45135500,6329346
2026-01-14 17:05:53.671,1523493,37038520,64763450,6453905,30349730,-8416748,18569950
2026-01-14 17:05:53.681,1523493,37047150,64754820,6453905,61950680,-9295654,-7232666
2026-01-14 17:05:53.691,1523491,-8754244,18936170,6453903,36956790,-6542969,-45532230
2026-01-14 17:05:53.701,1523491,-8754244,18936170,6453903,28701780,-4159546,-53985600
2026-01-14 17:05:53.711,-20654730,-8744751,18928400,28632120,73791500,-3994751,26229860
2026-01-14 17:05:53.721,15234910,-8736120,18919770,64521760,42541500,-6323242,22644040
2026-01-14 17:05:53.731,15234910,37107570,64746190,64521770,42022700,-81848140,5077362
2026-01-14 17:05:53.741,15243540,49545810,52307950,64513140,6414795,-7525635,-63056940
2026-01-14 17:05:53.751,1526081,-8708497,18895600,6451314,9391785,-29129030,-5718994
2026-01-14 17:05:53.761,-20628840,-8708498,18895600,28606230,9388,924,1666069,-3164673
2026-01-14 17:05:53.771,-20628840,-8691233,18878340,28606230,-17150880,16889570,11909490
2026-01-14 17:05:53.781,-24209950,-13266710,14285590,25007860,-9773254,-30075070,11306760
2026-01-14 17:05:53.791,-24209950,-13258080,14276960,25007860,-3237915,-53527830,10932920
2026-01-14 17:05:53.801,37444200,-13240820,14259700,42364260,-4421997,-4675293,-1184845
2026-01-14 17:05:53.811,-20600350,-13232190,14251070,28582930,-85754390,-56365970,-55603030
2026-01-14 17:05:53.821,15347120,-8648078,18835180,64513140,-62683100,-10093690,-24902340
2026-01-14 17:05:53.831,15347120,-862997,6,1881877,64513140,-26977540,-25177000,3552246
2026-01-14 17:05:53.841,15355750,-13206290,14225170,64504500,-15151980,-39855960,4776001
2026-01-14 17:05:53.851,15364380,-13197660,14216540,64513140,-30471800,-92163090,18341060
2026-01-14 17:05:53.861,1538165,-13189030,14207910,6451313,-1612854,-84106450,-11039730
2026-01-14 17:05:53.871,-20561510,-13189030,14207910,28552720,-53009030,-9240723,-8496094
2026-01-14 17:05:53.881,37510670,-13189030,14207910,42418640,-54229740,-9399414,-103393600
2026-01-14 17:05:53.891,-20533890,-8604918,18792020,28528550,-29205320,-91552740,-56732180
2026-01-14 17:05:53.901,-20524400,-13180400,14199280,28520780,-9506226,-68115230,8178711
2026-01-14 17:05:53.911,-20524400,-13163130,14182020,28520780,-29220580,-11273190,3111267
2026-01-14 17:05:53.921,37539150,-856954,4,1875834,42441940,-3591919,-9802246,-3627777
2026-01-14 17:05:53.931,-20505400,3727156,6459946,28505240,-56915280,-10974120,-31311040
2026-01-14 17:05:53.941,-20504540,3727156,6459946,28506100,-40008540,-68481450,-27664180
2026-01-14 17:05:53.951,15519750,3727155,6459945,64513140,-40222170,-8251953,-3753662
2026-01-14 17:05:53.961,15519750,-8561760,18748860,64513140,-5126953,-76416020,9552002
2026-01-14 17:05:53.971,15528380,-8561760,18748860,64504500,-17837520,-6750488,38146970
2026-01-14 17:05:53.981,15537020,-8553128,18740230,64513140,-6323242,-27923580,6707764
2026-01-14 17:05:53.991,-20484690,3729746,6457357,28491430,-12109380,-44158940,-31829830
2026-01-14 17:05:54.001,1556294,49563080,52290680,6452179,-13598630,-60455320,-7989502
2026-01-14 17:05:54.011,37603020,3728019,6455628,42498910,-12335210,-4638672,-87646480
2026-01-14 17:05:54.021,37603020,-8555718,18737640,42498910,-9527588,-1689148,-7763672
2026-01-14 17:05:54.031,-20482100,-8555716,18737640,28494020,-44647220,-11339190,-10566710
2026-01-14 17:05:54.041,-20482100,37254310,64547660,28494020,-16860960,-362854,3741455
2026-01-14 17:05:54.051,-20489870,37245680,64539030,28503520,-4675293,-6762695,9254456
2026-01-14 17:05:54.061,-20498500,-8566938,18743680,28512150,-52612300,-60516360,34118650
2026-01-14 17:05:54.071,15571540,-8566940,18743680,64582180,51727300,-11497500,42541500
2026-01-14 17:05:54.081,37625470,-8567802,18742820,42528260,19195560,-53482060,6237793
2026-01-14 17:05:54.091,37634100,-8567802,18742820,42536890,-23117060,-42938230,7019043
2026-01-14 17:05:54.101,1558020,37211150,64521760,6460811,-10412600,-8135986,32287600
2026-01-14 17:05:54.111,-20512310,-8560896,18732460,28532860,-10046390,-8782959,-21331790
2026-01-14 17:05:54.121,15588800,37185260,64495870,64633980,-6829834,-7501221,-619812
2026-01-14 17:05:54.131,-20519220,3716799,6449589,28543220,-30212400,-45166020,-34454340
2026-01-14 17:05:54.141,-20518350,-1315572,1417218,28544090,4095459,-42633060,-21499630
2026-01-14 17:05:54.151,1558881,-13621750,13723400,6466850,3567505,-61309820,-3466797
2026-01-14 17:05:54.161,37683300,-8591108,18754040,42591270,12901310,-71899420,-42114260
2026-01-14 17:05:54.171,15588810,37124830,64487240,64685780,-24353030,-84106450,-6756592
2026-01-14 17:05:54.181,-24147020,-8610096,18769580,24949940,10604860,-6317139,-1651001
2026-01-14 17:05:54.191,-24155650,-8619592,18777350,24958570,773,9067,-7342529,62217710
2026-01-14 17:05:54.201,1558883,37081680,64478610,6472032,-35705570,-9472656,35152440
2026-01-14 17:05:54.211,-20558920,-8629949,18784250,28589830,-59539800,-15792850,-26947020
2026-01-14 17:05:54.221,15571540,37038510,64469980,64754820,-7348633,-38604740,-231781
2026-01-14 17:05:54.231,37711790,49373180,52118050,42631840,-78186030,-9864807,23910520
2026-01-14 17:05:54.241,15554280,-8660163,18805830,64789340,-66345220,1675415,3845215
2026-01-14 17:05:54.251,15537010,36986720,64452710,64806620,-35705570,-19226070,81970220
2026-01-14 17:05:54.261,15528380,-8670520,18812730,64815240,19836430,15365600,6402588
2026-01-14 17:05:54.271,1552839,-13243230,14257280,6483251,28900150,23101810,33477780
2026-01-14 17:05:54.281,-20642650,36934940,64452710,28678740,4788208,-25421140,41046140
2026-01-14 17:05:54.291,-20651280,36934940,64452710,28687370,5886841,-57434080,1007843
2026-01-14 17:05:54.301,-20659910,-8699004,18836040,28696000,7757568,-47668460,-2048,016
2026-01-14 17:05:54.311,-20659910,-8708497,18843810,28696000,5697632,-6329346,-24841310
2026-01-14 17:05:54.321,1549386,-8717127,18852440,6486704,60424800,-30654910,-3036499
2026-01-14 17:05:54.331,-20677170,36874510,64461340,28713270,8337402,79574580,24154660
2026-01-14 17:05:54.341,-20685810,36857250,64461340,28721900,4788208,-19454960,34088140
2026-01-14 17:05:54.351,1547662,36857250,64461340,6490158,-17299650,-7305908,73913580
2026-01-14 17:05:54.361,1547660,-8736982,18867110,6490156,-19500730,-8502197,57006840
2026-01-14 17:05:54.371,-20702210,3683134,6445272,28740020,-8621216,-55755620,29556270
2026-01-14 17:05:54.381,-20719470,36814100,64452710,28757290,-10314940,-64697260,32470700
2026-01-14 17:05:54.391,1544209,36805460,64461340,6493611,32318120,-2128601,4310608
2026-01-14 17:05:54.401,-20737600,-8774099,18899050,28773690,53375240,-11817930,-10673520
2026-01-14 17:05:54.411,-20746230,-8783593,18906820,28782320,10461430,-209198,29697420
2026-01-14 17:05:54.421,1540755,-8792223,18915450,6495335,14868160,-1709938,24871830
2026-01-14 17:05:54.431,-20763490,36745040,64469980,28799580,14331060,-19866940,44403080
2026-01-14 17:05:54.441,-20772120,36736410,64478610,28808210,13842770,-30059810,50567630
2026-01-14 17:05:54.451,39923820,-8819846,18939620,40419800,11126710,-4510498,62438960
2026-01-14 17:05:54.461,39923820,-8819846,18939620,40419800,10119630,-8502197,4510498
2026-01-14 17:05:54.471,15364380,-8828478,18948250,64979240,6652832,-8178711,38360600
2026-01-14 17:05:54.481,15364380,-8828478,18948250,64979240,2545166,-97595220,41168210
2026-01-14 17:05:54.491,15347120,-8828478,18948250,64979240,56640620,-6536865,35705570
2026-01-14 17:05:54.501,15338480,3670185,6449586,64987880,54656980,-4434204,4727173
2026-01-14 17:05:54.511,-20809240,3670187,6449588,28840150,61187740,-22979740,21453860
2026-01-14 17:05:54.521,-20809240,-8845742,18965520,28840150,4824829,-35827640,-5607605
2026-01-14 17:05:54.531,-20809240,-8845742,18965520,28840150,59021000,-8911133,-26988980
2026-01-14 17:05:54.541,-2081873,-8854372,18974150,2884792,28198240,13877870,24230960
2026-01-14 17:05:54.551,-2081873,-8854372,18974150,2884792,30273440,-20401000,36224360
2026-01-14 17:05:54.561,15295330,-8863006,18982780,64979250,42388920,-37475580,3817749
2026-01-14 17:05:54.571,15286700,-8863868,18981910,64987880,5154419,-637207,43304440
2026-01-14 17:05:54.581,-20837730,-8871636,18991410,28863460,41290280,-41229250,40496820
2026-01-14 17:05:54.591,-20837730,-8880268,19000040,28863460,55725100,-28045650,28808590
2026-01-14 17:05:54.601,-20838590,-8880268,19000040,28862590,7196045,-23010250,52703860
2026-01-14 17:05:54.611,-20838590,36667350,64547660,28862600,56488040,-37628180,5319214
2026-01-14 17:05:54.621,15260800,36667350,64547660,64961980,4827881,-45440670,4916382
2026-01-14 17:05:54.631,15269430,-8878544,19001770,64953350,26870730,-46539310,-22964480
2026-01-14 17:05:54.641,37628060,-8878543,19001770,42594720,76026920,-4916382,-4638672
2026-01-14 17:05:54.651,1526944,-8877678,19002630,6493609,64208980,4234314,12077330
2026-01-14 17:05:54.661,1526944,-8877678,19002630,6493609,52490230,-10299680,44799800
2026-01-14 17:05:54.671,-20815280,36693250,64573560,28834110,3289795,-53375240,635376
2026-01-14 17:05:54.681,-20815290,-8875953,19004360,28834110,17578120,-40252690,13046270
2026-01-14 17:05:54.691,-20806650,-8875953,19004360,28825480,-15510560,-44128420,-38726810
2026-01-14 17:05:54.701,15269430,-8875092,19005220,64901560,1499939,-32318120,1309967
2026-01-14 17:05:54.711,15278060,-8866458,18996590,64892930,22140500,-19607540,736084
2026-01-14 17:05:54.721,15269430,36727780,64590820,64884300,-623703,-6561279,8673096
2026-01-14 17:05:54.731,-20800610,36736410,64599450,28814260,11116030,-4449463,27572630
2026-01-14 17:05:54.741,3758838,36736410,64599450,4254813,-3660202,-3933716,-15151980
2026-01-14 17:05:54.751,-20783340,-8863867,18999180,28796990,-9651184,-18722530,-3466797
2026-01-14 17:05:54.761,-20784210,-8854372,18991410,28796130,21255490,49743650,34698490
2026-01-14 17:05:54.771,-20775580,-8854372,18991410,28787500,3503418,4207611,6591797
2026-01-14 17:05:54.781,15269430,36779560,64608080,64832510,11985780,-5441284,6707764
2026-01-14 17:05:54.791,1526944,-13407240,14421280,6481524,13381960,-55480960,259,4292
2026-01-14 17:05:54.801,-20760040,-8843151,18985370,28768510,-21636960,-25314330,-42022700
2026-01-14 17:05:54.811,-20760040,-8843151,18985370,28768510,-2053833,-44036860,-60333250
2026-01-14 17:05:54.821,-20760040,36805460,64633980,28768510,-13717650,3571,51,14572140
2026-01-14 17:05:54.831,-20760900,36805460,64633980,28767650,4611969,-345459,34576420
2026-01-14 17:05:54.841,15260800,-8832796,18978460,64789350,-6828308,-66467280,45135500
2026-01-14 17:05:54.851,15260800,-8832796,18978460,64789350,2789,497,-46325680,57434080
2026-01-14 17:05:54.861,15252170,-8831932,18979330,64780720,15060430,-6652832,36712650
2026-01-14 17:05:54.871,15252170,3683997,6463398,64780720,2160,072,-56427000,26855470
2026-01-14 17:05:54.881,-20763490,49355910,52135310,28765060,37078860,-36346440,4043579
2026-01-14 17:05:54.891,-20764350,36865880,64642610,28764190,28366090,-4034424,29632570
2026-01-14 17:05:54.901,-20755720,36865880,64642610,28755560,-14030460,-56274420,-55351260
2026-01-14 17:05:54.911,-20755730,-8812076,18964650,28755560,-27694700,-43548580,-625
2026-01-14 17:05:54.921,1525217,-8812076,18964650,6474619,-5303955,-25817870,-6970215
2026-01-14 17:05:54.931,1525217,-8812076,18964650,6474619,-14877320,-16601560,-1637268
2026-01-14 17:05:54.941,15234900,-8803447,18956020,64746190,31852720,-4006958,2658081
2026-01-14 17:05:54.951,15234900,-8793952,18948250,64746190,-72135930,-59906010,33050540
2026-01-14 17:05:54.961,15234900,-8793952,18948250,64746190,-40130620,-66101070,-2748108
2026-01-14 17:05:54.971,37515850,-8793952,18948250,42465250,-61523440,-47210690,-9173584
2026-01-14 17:05:54.981,15234900,-8793952,18948250,64746190,-39093020,-18417360,-39215090
2026-01-14 17:05:54.991,-20757450,-8802582,18956890,28753840,1499176,23254400,-1244545
2026-01-14 17:05:55.001,-20766080,-8802582,18956890,28762470,-7896,423,-3955078,4486084
2026-01-14 17:05:55.011,1520039,-8802581,18956880,6474619,-8041382,-47210690,6939697
2026-01-14 17:05:55.021,-20784210,-8812076,18964650,28778870,4449463,-5001831,31143190
2026-01-14 17:05:55.031,-20784210,-8811213,18965520,28778870,8734131,55503840,4638672
2026-01-14 17:05:55.041,15174480,-8802584,18956880,64754820,95581060,35339360,6591797
2026-01-14 17:05:55.051,15183110,-8793952,18948250,64746190,6048584,-41542050,56274420
2026-01-14 17:05:55.061,-20784210,-8785319,18939620,28778870,67710880,-59906010,-2746582
2026-01-14 17:05:55.071,-20784210,-8776687,18930990,28778870,-35003660,-6304932,-25314330
2026-01-14 17:05:55.081,-20783350,-8777550,18930130,28779730,-24169920,-3829956,-4260254
2026-01-14 17:05:55.091,-20783350,-8777550,18930130,28779730,36132810,-5722046,-51483150
2026-01-14 17:05:55.101,-20791980,-8777550,18930130,28788360,45898440,-50323490,-10826110
2026-01-14 17:05:55.111,-20791980,-8768056,18922360,28788360,4421997,-4800415,14091490
2026-01-14 17:05:55.121,-20791980,-8759425,18913730,28788360,2696228,-4849243,472641
2026-01-14 17:05:55.131,3750205,-8750791,18905090,4246180,-11520390,-80200190,-738,1439
2026-01-14 17:05:55.141,3750205,-8751654,18904230,4246180,-74691780,-6652832,-4611206
2026-01-14 17:05:55.151,3750205,-8751654,18904230,4246180,-6652832,-6573486,-10784910
2026-01-14 17:05:55.161,39742560,-8751656,18904230,40238540,-8001709,-1889038,-1071167
2026-01-14 17:05:55.171,15183120,36926300,64582180,64797980,-15527340,34606940,-10272220
2026-01-14 17:05:55.181,15174490,36917670,64573550,64806620,-15637210,3250122,-58258060
2026-01-14 17:05:55.191,37507220,36917670,64573550,42473880,-14794920,25817870,-17593380
2026-01-14 17:05:55.201,15139960,-8754246,18901640,64841140,-10211180,24459840,4498291
2026-01-14 17:05:55.211,15122690,-8755110,18900780,64858400,-2708435,12535100,8148193
2026-01-14 17:05:55.221,1509681,-8746475,18892140,6486704,13633730,-15380860,7495117
2026-01-14 17:05:55.231,-20905050,36900410,64539020,28899710,37384030,-135650600,47851560
2026-01-14 17:05:55.241,-20913680,36900410,64539020,28908340,8874512,-1838684,31982420
2026-01-14 17:05:55.251,15036380,36891780,64547660,64892930,1026001,-8049011,-5466461
2026-01-14 17:05:55.261,-20941300,36900410,64539020,28932510,8850098,-63934330,-8857727
2026-01-14 17:05:55.271,1500188,36900410,64539020,6489295,8514404,-64819340,11352540
2026-01-14 17:05:55.281,14975960,-8746478,18892150,64901560,9667969,-13623050,10566710
2026-01-14 17:05:55.291,37432980,-8746476,18892140,42427270,12792970,-107299800,3583908
2026-01-14 17:05:55.301,-20987920,-8746476,18892150,28972220,105529800,-6762695,10595320
2026-01-14 17:05:55.311,-20997410,3692630,6454768,28979980,26977540,-6939697,39276120
2026-01-14 17:05:55.321,14906900,-8728352,18875750,64901560,-56549070,-59570310,2961731
2026-01-14 17:05:55.331,14889640,-8719720,18867110,64918820,-14367680,-9246826,9429932
2026-01-14 17:05:55.341,-2104229,-8711948,18857620,2902141,-22949220,-58166500,-5428314
2026-01-14 17:05:55.351,-21069060,-8711949,18857620,29046450,-3005371,-7672119,4840088
2026-01-14 17:05:55.361,14794690,36934930,64504500,64961980,-38232420,-8465576,18688960
2026-01-14 17:05:55.371,-21122570,36934930,64504500,29096510,-48168940,-64888,2565918
2026-01-14 17:05:55.381,1474293,36943560,64495870,6497927,-76708980,13232420,1496582
2026-01-14 17:05:55.391,-21157960,-8696414,18838630,29130170,-86279300,12658690,-51696780
2026-01-14 17:05:55.401,-21183850,36926300,64461340,29156070,-81689460,-7788086,-10333250
2026-01-14 17:05:55.411,-21209750,-8707634,18844670,29181970,-12724610,-2006836,-793457
2026-01-14 17:05:55.421,1457028,-8771508,18901640,6510009,-15644530,-1459961,2809143
2026-01-14 17:05:55.431,1443217,-8878541,19001770,6513462,-16123050,3463745,34350580
2026-01-14 17:05:55.441,-21492000,36511980,64651240,29434880,-18955080,44921880,40478520
2026-01-14 17:05:55.451,-21630110,36339350,64754820,29555720,-19873050,78125,47802740
2026-01-14 17:05:55.461,13784780,-9295453,19396240,65281350,-20976560,82666020,55322260
2026-01-14 17:05:55.471,-21977970,-13979430,14988470,29863870,-21367190,6542969,3791504
2026-01-14 17:05:55.481,36714830,35778290,65022400,41936990,-19765620,3190918,38513180
2026-01-14 17:05:55.491,1290438,35579760,65100090,6552306,-13125,826416,-6719971
2026-01-14 17:05:55.501,12559090,-9876364,19937440,65574830,-31420900,-6871,224,85876460
2026-01-14 17:05:55.511,-22807470,35243120,65333140,30588070,69384770,4482422,115722700
2026-01-14 17:05:55.521,36049330,-10112010,20167900,41428580,10703130,-3439331,17224120
2026-01-14 17:05:55.531,35830950,-10222490,20281840,41249910,13798830,-33496090,90026860
2026-01-14 17:05:55.541,1101403,-10340750,20405280,6561799,1953125,-5703125,-16143800
2026-01-14 17:05:55.551,10530640,-10484030,20555470,65566200,21425780,-93359380,-10412600
2026-01-14 17:05:55.561,-23950300,34751120,66101360,31499570,23222660,-10751950,-8013916
2026-01-14 17:05:55.571,9486212,34690700,66351680,65333140,24824220,-85791020,-14489750
2026-01-14 17:05:55.581,-24400020,-10904400,21032800,31809450,24238280,-79589840,-21716310
2026-01-14 17:05:55.591,-24611490,-11019200,21176950,31943240,21777340,-8642578,-6732178
2026-01-14 17:05:55.601,-24798800,-11104650,21298660,32049410,19873050,-5366211,11376950
2026-01-14 17:05:55.611,7259238,-11172840,21403100,64400920,12597660,-44458010,-8734131
2026-01-14 17:05:55.621,6629126,3494099,6774138,64116080,10800780,-54248050,-2529297
2026-01-14 17:05:55.631,595586,5,-11377410,21681900,6382260,11689450,-703125,-5258789
2026-01-14 17:05:55.641,5265322,-11515520,21854540,63511860,95996100,-8417969,-77685540
2026-01-14 17:05:55.651,4531630,-11661390,22036670,63192490,77246100,-5263672,-54248050
2026-01-14 17:05:55.661,3780674,-11819350,22223970,62907640,85058590,-87524420,-10058590
2026-01-14 17:05:55.671,2995192,-12013570,22444080,62622800,-2619629,-35351560,-25732420
2026-01-14 17:05:55.681,2071604,34863340,69769820,62268900,38745120,2454834,-19116210
2026-01-14 17:05:55.691,28456040,-12475360,22966300,34537920,71777340,-17791750,-25756840
2026-01-14 17:05:55.701,25898,34569860,70598460,61517940,10253910,16455080,-61279300
2026-01-14 17:05:55.711,26921330,3439721,7103003,33137860,12041020,39038090,-2626953
2026-01-14 17:05:55.721,-2175180,-13344570,23909740,60697940,11757810,48095700,2121582
2026-01-14 17:05:55.731,-3305926,33991540,71867330,60274980,13203130,56884770,9555664
2026-01-14 17:05:55.741,24457850,3377573,7227300,30888450,13554690,6953125,13955080
2026-01-14 17:05:55.751,23602450,33551320,72670060,30103830,13095700,92578130,16357420
2026-01-14 17:05:55.781,-9028728,-14945750,25623130,57970330,18884280,-10662840,8359375
2026-01-14 17:05:55.791,20292210,-15147730,25835460,27061160,19372560,-52886960,1078125
2026-01-14 17:05:55.801,-31884540,-15340210,26040040,36461060,54541020,32885740,13339840
2026-01-14 17:05:55.811,-32285050,-15541330,26253240,36699290,51708980,29516600,9428711
2026-01-14 17:05:55.821,-13525830,-15751950,26474210,56045460,62402340,61572260,4970703
2026-01-14 17:05:55.831,-14604790,-15953060,26687410,55501660,7607422,51708980,7977295
2026-01-14 17:05:55.861,14512440,-21438580,22513910,21671550,6621094,-15075680,-45703120
2026-01-14 17:05:55.871,13714870,31557410,75993260,20915410,7973633,-32983400,-66845700
2026-01-14 17:05:55.881,12910400,-17115750,27872540,20148920,98095700,-20599360,-8408203
2026-01-14 17:05:55.891,-20621060,51493120,56057550,52092160,10996090,13769530,-11181640
2026-01-14 17:05:55.901,-2157919,3058202,7693412,5141026,11113280,3659668,-10820310
2026-01-14 17:05:55.911,-22511400,-18165360,28911790,50736980,10527340,5703125,-8754883
2026-01-14 17:05:55.921,-23443620,29805170,77572860,50080980,71728510,13500980,-81152340
2026-01-14 17:05:55.931,8852647,-18893010,29617000,16231000,40649420,4260254,-64819340
2026-01-14 17:05:55.941,8090470,-19262440,29972620,15491270,11987310,26519780,27246090
2026-01-14 17:05:55.951,-26041760,-19631020,30329120,48121590,8453369,-16738890,26367190
2026-01-14 17:05:55.961,6584244,28087470,78772660,14010940,-944519,7702637,38745120
2026-01-14 17:05:55.971,5860047,50825030,55966050,13285010,1194458,22583010,24853520
2026-01-14 17:05:55.981,-28216940,-20694440,31371820,45963660,-33050540,5336914,61462400
2026-01-14 17:05:55.991,4515230,-20996550,31673930,11919480,-8483887,41064450,6921387
2026-01-14 17:05:56.001,39136010,-21278810,31961360,112954100,-3878784,81604000,-83862300
2026-01-14 17:05:56.011,33404580,-21541210,32234130,106946400,10992430,892334,-44702150
2026-01-14 17:05:56.041,17962520,50915660,56462370,90106060,99365230,-19128420,-15849610
2026-01-14 17:05:56.051,-30858240,-27515280,28590610,40698350,11152340,-4267578,-13222660
2026-01-14 17:05:56.061,-30979080,25472070,82251220,39886970,11298830,-4794922,-14765630
2026-01-14 17:05:56.071,4894164,53919240,53976690,75035150,5751953,-90026860,-13525390
2026-01-14 17:05:56.081,-31125820,51127140,56941430,38290110,-24978640,-75950620,-9013672
2026-01-14 17:05:56.091,28506110,24703860,83537340,35368290,-20288090,32226560,-8378906
2026-01-14 17:05:56.101,-5576058,-24330970,35175800,62199850,-45166020,21154780,-9692383
2026-01-14 17:05:56.111,-30944550,-24638250,35507260,35950920,-7441406,35888670,-8334961
2026-01-14 17:05:56.121,-30746020,51438740,57510260,35217230,-10498050,48242190,-5029297
2026-01-14 17:05:56.131,-12300130,51588060,57706190,52696380,-9863281,51708980,-2631836
2026-01-14 17:05:56.141,-13413620,24039210,85652110,50529820,-90478510,21643070,-25170900
2026-01-14 17:05:56.151,-14155940,-25481570,36493860,48682640,-12519530,28198240,-50231940
2026-01-14 17:05:56.161,13228910,24185950,86437580,19398820,-13125,47851560,4753418
2026-01-14 17:05:56.171,-14345840,24393110,86817380,46110410,-11386720,27001950,61865230
2026-01-14 17:05:56.181,-13853840,2468657,8719718,45273130,-8310547,3408203,1854248
2026-01-14 17:05:56.191,-12878450,-25615360,36877960,44815650,-4597168,3713379,-28076170
2026-01-14 17:05:56.201,-1142830,25489330,87930860,4474661,-1739502,5253906,-671875
2026-01-14 17:05:56.211,14878420,-25439270,36864160,20338810,1194458,65185550,-8100586
2026-01-14 17:05:56.221,-7483658,-25300300,36813220,45463030,34399420,4189453,-81689460
2026-01-14 17:05:56.231,-4859628,58019020,58025210,46291670,35595700,40234380,-11796880
2026-01-14 17:05:56.241,20236100,27673150,89286050,25166510,-8642578,265625,-14541020
2026-01-14 17:05:56.251,2266248,-24774630,36562050,2740124,-29541020,24475100,-13974610
2026-01-14 17:05:56.261,-22407820,-24572650,36453290,22960250,-4375,29638670,-17255860
2026-01-14 17:05:56.271,-18575360,-24344780,36318630,24703850,-61621100,8441162,-18076170
2026-01-14 17:05:56.281,13534470,-24082370,36149450,54655760,-8383789,16259770,-1640625
2026-01-14 17:05:56.291,18696210,5783565,6380188,57607800,-9086914,-10491940,-13349610
2026-01-14 17:05:56.301,42457570,-23371990,35634140,42823380,-7324219,-2956543,-11875
2026-01-14 17:05:56.311,-12326030,32679520,90926060,21820870,-46240230,-11419680,-11708980
2026-01-14 17:05:56.321,3686592,33663530,90977860,6844056,6821289,4013672,-17167970
2026-01-14 17:05:56.331,-8562616,34716590,90977850,20215380,21875,97021490,-37050780
2026-01-14 17:05:56.341,-6456492,-21242550,33913850,19352210,21386720,17890620,-42539060
2026-01-14 17:05:56.351,-4203621,36900400,90779310,18584000,1671875,3890625,-25039060
2026-01-14 17:05:56.361,-9121088,61712160,66934320,10731760,15039060,49453120,6591797
2026-01-14 17:05:56.371,-75363140,-18530480,31498710,93299770,19960940,45664060,50820310
2026-01-14 17:05:56.381,2952035,-17135600,30217770,16659130,35175780,49882810,88515620
2026-01-14 17:05:56.391,5308480,4399564,8806897,15666490,61523440,66796880,105
2026-01-14 17:05:56.401,-22951620,4666282,8673107,44893340,74882820,821875,825
2026-01-14 17:05:56.411,-4281308,49727080,85030630,26965360,63828120,596875,43359380
2026-01-14 17:05:56.421,15390280,-7369724,20993960,8312302,-19619140,-97421870,-104921900
2026-01-14 17:05:56.431,39422590,57685480,79281930,-36881420,-4125,-650,-918125
2026-01-14 17:05:56.441,51125410,-4895885,18513210,-23106990,-88875,-1054375,16921880
2026-01-14 17:05:56.451,13572450,64847180,68581240,13461960,-1628125,4128125,25953120
2026-01-14 17:05:56.461,-18894730,41337090,88776770,45497560,608125,630625,803125
2026-01-14 17:05:56.471,-27353780,-18171400,31115460,53438700,450,379375,6184375
2026-01-14 17:05:56.481,9520740,42372890,88207080,17237450,-10546880,94140620,5498047
2026-01-14 17:05:56.491,8873362,-14954380,28100420,17798510,-2475,-165,-1078125
2026-01-14 17:05:56.501,-43753960,-14236220,27437510,68975710,-4828125,84453130,41484380
2026-01-14 17:05:56.511,5757329,-12772290,26052980,18929260,8734375,1334375,75039060
2026-01-14 17:05:56.521,-57978960,-10942380,24309390,82889970,29433590,-36992190,-56601560
2026-01-14 17:05:56.531,4963216,65460030,68727980,20068650,-59492190,-127734400,-125390600
2026-01-14 17:05:56.541,4125944,51384360,82924500,20750550,-57617190,-108046900,-9453125
2026-01-14 17:05:56.551,3150563,-8834520,22256770,21518760,-19580080,-44335940,-58203120
2026-01-14 17:05:56.561,11288500,-14754550,16095050,13294500,-13232420,-39179690,-6640625
2026-01-14 17:05:56.571,1441494,51384360,82389340,23089730,-19267580,-56875,-83203130
2026-01-14 17:05:56.581,561062,50823300,82536060,23866580,-18408200,-45429690,-83359380
2026-01-14 17:05:56.591,-362530,-9751203,23031900,24652060,-11416020,-19921880,-68046870
2026-01-14 17:05:56.601,-12163750,64403510,67799220,14577180,-5175781,-36743160,-50898440
2026-01-14 17:05:56.611,-2278761,-10960500,24118620,26223030,-20214840,34423830,-37734380
2026-01-14 17:05:56.621,-3262770,-11501710,24595950,27017140,-3010254,2788086,-27714840
2026-01-14 17:05:56.631,-4246783,-11992850,25019770,27845780,-50927740,-1730957,-19238280
2026-01-14 17:05:56.641,-15769200,-12494350,25450490,18118750,-56933590,-33911130,-10126950
2026-01-14 17:05:56.651,-6119856,-13015700,25895890,29563490,-7680664,-34692380,-5136719
2026-01-14 17:05:56.661,9858238,62009080,65998640,13602660,-1046875,-19360350,-24121090
2026-01-14 17:05:56.671,-18410500,4314110,8402073,20760040,-10615230,18591310,48339840
2026-01-14 17:05:56.681,9749476,4222615,8408977,13832260,-84033200,5390625,15466310
2026-01-14 17:05:56.691,9731354,41337090,84115660,13971230,-56591800,8510742,34326170
2026-01-14 17:05:56.701,9733940,-15563770,28026180,14124010,-5830078,14677730,6582031
2026-01-14 17:05:56.711,9765014,6190153,6194572,14300100,-5859375,20820310,10351560
2026-01-14 17:05:56.721,-11221170,39308640,83830820,35579760,-6689453,24003910,12675780
2026-01-14 17:05:56.731,9964408,59025980,63474750,14791240,-62060550,20605470,12480470
2026-01-14 17:05:56.741,-12248350,3889431,8303671,37504630,-7348633,16162110,109375
2026-01-14 17:05:56.751,-1267993,3895475,8245839,3855769,-80908200,14257810,9082031
2026-01-14 17:05:56.761,10655810,39127380,81785120,15929760,-56396480,11855470,79248050
2026-01-14 17:05:56.771,-13396360,-14814540,26859180,40776030,-328125,671875,48364260
2026-01-14 17:05:56.781,11379140,-14303550,26299850,16932760,-29736330,51123050,23425290
2026-01-14 17:05:56.791,-13750250,39973290,79506350,43097950,-38598630,25927730,-1899414
2026-01-14 17:05:56.801,-13784780,57547380,61397100,44271860,-5214844,4243164,-38745120
2026-01-14 17:05:56.811,-13750260,-1283964,2467365,45480290,-68359380,36987300,-63720700
2026-01-14 17:05:56.821,-13681200,-12396810,24166960,46705990,-66503900,8843994,-48999020
2026-01-14 17:05:56.831,-13560360,40672450,76355790,47914430,-43139650,18518070,-29663090
2026-01-14 17:05:56.841,-13379100,56415760,59904680,49096970,9539795,6401367,-2290039
2026-01-14 17:05:56.851,15397180,-11275560,22836820,21736280,49926760,82714850,-22497560
2026-01-14 17:05:56.861,-12809400,-10932020,22420770,51410250,8881836,7314453,-38964840
2026-01-14 17:05:56.871,-12446870,-15743050,16884680,52532370,13310550,63134770,-2944336
2026-01-14 17:05:56.881,17511080,-15410040,16544420,24076330,16503910,8095703,-6567383
2026-01-14 17:05:56.891,-30956630,40741500,71988160,35265570,23613280,11396480,50811770
2026-01-14 17:05:56.901,-10979490,-9588930,20794570,55708820,29707030,16191410,65625
2026-01-14 17:05:56.911,19907230,-14107870,15222560,26600230,290625,6142578,6323242
2026-01-14 17:05:56.921,-9365368,-8600602,19694030,57650950,29199220,-23010250,10852050
2026-01-14 17:05:56.931,-8476298,41432040,68898020,58557280,3625,-4033203,-3005371
2026-01-14 17:05:56.941,-7552714,-7956680,18922360,59446340,43007810,110961900,-53759770
2026-01-14 17:05:56.951,23457440,54499060,54501710,30145260,46132810,5,-54248050
2026-01-14 17:05:56.961,-5671010,41104030,67258010,60982780,465625,1296875,-29785160
2026-01-14 17:05:56.971,-30307530,41112660,66662420,36018260,4609375,7895508,-19177250
2026-01-14 17:05:56.981,-3469932,41268040,65937360,62458800,53007810,-34155270,-47973630
2026-01-14 17:05:56.991,-2209708,41552880,65186400,63114810,56015620,-14091800,-83740230
2026-01-14 17:05:57.001,-837272,41898150,64495870,63624080,48984380,-21191410,-18876950
2026-01-14 17:05:57.011,63875,-5523408,16142090,6396071,41875,-17285160,-30292970
2026-01-14 17:05:57.021,2235604,-5055576,15660450,64193760,29667970,-16591800,-48242190
2026-01-14 17:05:57.031,31125820,-4577379,15171890,37167990,50097660,-2953125,-73632820
2026-01-14 17:05:57.041,555017,5,-4287353,14857700,6452177,-31835940,-43515620,-921875
2026-01-14 17:05:57.051,32936740,-4336555,14860290,38723420,-5609375,-4109375,-88046870
2026-01-14 17:05:57.061,-24951580,42390150,62243010,32241900,-5640625,-10605470,-59023440
2026-01-14 17:05:57.071,846770,41483830,62286160,6550580,-625,10898440,-18935550
2026-01-14 17:05:57.081,8916520,40473920,62312060,66058210,-60625,21230470,86376950
2026-01-14 17:05:57.091,35117970,39446750,62234380,40858040,-59492190,24257810,23808590
2026-01-14 17:05:57.101,962432,3,-6799170,16851620,6737022,-55507810,23535160,31894530
2026-01-14 17:05:57.111,-25181180,37461460,61889100,32979040,-47851560,23496090,38164060
2026-01-14 17:05:57.121,10202640,36572400,61621520,68742660,-33535160,28867190,45585940
2026-01-14 17:05:57.131,10556540,-7858279,17570640,69372770,-19375,33320310,48125
2026-01-14 17:05:57.141,-25447040,-7967900,17581860,33541820,-10488280,30859380,403125
2026-01-14 17:05:57.151,-2541162,34871960,60352670,3361176,-5048828,20,27167970
2026-01-14 17:05:57.161,38552510,3450942,5992107,44449670,-93688970,109375,11435550
2026-01-14 17:05:57.171,12507290,-8047314,17416130,71375310,1373291,55908200,-49121100
2026-01-14 17:05:57.201,-25245920,-8604918,17773480,33812000,32597660,-18615720,98535150
2026-01-14 17:05:57.211,13465410,-8753384,17866700,72626910,35625,-6113281,11787110
2026-01-14 17:05:57.221,-25318430,3192855,5873856,33963910,34414060,-11191410,12744140
2026-01-14 17:05:57.231,-25375390,31643720,58643590,34045050,3421875,-12705080,16210940
2026-01-14 17:05:57.281,-25372800,31324350,58496860,34082170,2265625,-6826172,2296875
2026-01-14 17:05:57.291,1392290,-9008016,18009130,7317070,17880860,-5185547,20019530
2026-01-14 17:05:57.321,14337210,32368780,58609070,72635540,6303711,-10015870,7050781
2026-01-14 17:05:57.331,-24633070,32748570,58643600,33319990,44799800,-17834470,48388670
2026-01-14 17:05:57.341,14570270,33145630,58695380,72160800,25610350,-21252440,3161621
2026-01-14 17:05:57.351,1467387,33568580,58755810,7190187,8068848,-13745120,1015625
2026-01-14 17:05:57.361,-24141070,-12374580,12467390,32776200,1652832,-18603520,2487793
2026-01-14 17:05:57.371,-23999510,-7589832,16924130,32607010,2298584,-22290040,48046880
2026-01-14 17:05:57.381,1474293,34846070,59032020,7103870,39978030,-4699707,42749020
2026-01-14 17:05:57.391,-27582600,-7215218,16660000,28436970,-56152340,15844730,32861330
2026-01-14 17:05:57.401,1464796,-7049489,16549510,7040857,49987790,16760250,3125
2026-01-14 17:05:57.411,-23526490,36132190,59437710,31992440,1138916,17016600,26660160
2026-01-14 17:05:57.421,3936907,3655514,5958445,4489334,31152340,18273930,111084000
2026-01-14 17:05:57.431,1445808,47235110,49508690,6940732,44506840,15930180,3338623
2026-01-14 17:05:57.441,39012580,-6336515,16071310,44472980,4892578,848999,-38635260
2026-01-14 17:05:57.451,1445806,-10541430,11521130,6864771,4580078,119018600,-15075680
2026-01-14 17:05:57.461,-26465320,38454110,60136880,27292750,44677740,17236330,-32592770
2026-01-14 17:05:57.471,14535740,-5699498,15620740,67844960,45166020,17913820,-7167969
2026-01-14 17:05:57.481,14561630,3940357,6039582,67456540,5942383,-36669920,-12080080
2026-01-14 17:05:57.491,1456164,-5339555,15376470,6707674,7290039,-6489258,-1296875
2026-01-14 17:05:57.501,1456164,-5223889,15319500,6666242,64404300,-37329100,-10117190
2026-01-14 17:05:57.511,-21784620,40612030,60948260,29867320,56933590,48754880,-59033200
2026-01-14 17:05:57.521,37665180,-4904519,15120970,42782030,33911130,88183590,-14257810
2026-01-14 17:05:57.531,1469112,4158741,6118131,6539357,19350050,69921870,21032720
2026-01-14 17:05:57.541,-21139830,4210530,6123311,29113770,-21166990,18530270,33374020
2026-01-14 17:05:57.551,-20942170,-4152700,14543510,28879860,-34936520,-10058590,36865230
2026-01-14 17:05:57.561,-20781620,43063420,61397100,28677880,-23913570,18762210,6123047
2026-01-14 17:05:57.571,-20631430,-3717663,14218960,28482800,1932373,5463867,11123050
2026-01-14 17:05:57.581,-23985440,44047430,61535210,24766260,43652340,79785150,14931640
2026-01-14 17:05:57.591,14647950,-79281060,89899750,63002590,43310550,11162110,15742190
2026-01-14 17:05:57.601,14673850,-75885370,86562740,62579640,38549800,13808590,13271480
2026-01-14 17:05:57.611,-19866660,5290698,5445380,27555760,25439450,13427730,81396480
2026-01-14 17:05:57.621,35935390,-19136420,127084100,40627560,-4050293,9272461,-13867190
2026-01-14 17:05:57.631,-19423860,-1482060,12328620,27049080,-99609380,52734380,-84814460
2026-01-14 17:05:57.641,14898270,-1087594,11980770,61025940,-11474610,31103520,-89941410
2026-01-14 17:05:57.651,-19138150,-56507260,67443580,26696040,-8100586,31958010,-6816406
2026-01-14 17:05:57.661,-19025070,-380658,11358420,26550170,-53125,35717770,-59765620
2026-01-14 17:05:57.671,-18919770,49537180,60620250,26413790,-39672850,22473140,-44311520
2026-01-14 17:05:57.681,1474293,50037820,60482140,5986932,-3010254,111450200,-54589840
2026-01-14 17:05:57.691,34894410,50512560,60352670,39389790,-40161130,-43060300,-7114258
2026-01-14 17:05:57.701,-18727280,5093550,6024046,26122900,-47705080,-41845700,-73095700
2026-01-14 17:05:57.711,14389000,-3870705,4985396,59204660,-6933594,-7192383,-81152340
2026-01-14 17:05:57.721,14216370,13396360,98332030,59032020,-8642578,-79541020,-9057617
2026-01-14 17:05:57.731,-18807550,51859100,60110980,26094420,-9140625,-63183590,-10625
2026-01-14 17:05:57.741,1369849,-34874550,46090550,5877306,-74609380,-4597168,-10537110
2026-01-14 17:05:57.751,1339640,16020380,96294960,5869539,-7128906,-4699707,-98828130
2026-01-14 17:05:57.761,13094250,-39488700,40613230,58634960,-93066410,-42749020,-11298830
2026-01-14 17:05:57.771,12774880,16141230,96415810,58609070,-10009770,-36987300,-11044920
2026-01-14 17:05:57.781,-19518800,-34851250,46113860,26626120,-9145508,-21508790,-10175780
2026-01-14 17:05:57.791,33075720,15416170,97244450,37721280,-93603520,-15454100,-10449220
2026-01-14 17:05:57.801,-19856300,1482057,9785730,26910110,-10625,-15917970,-11923830
2026-01-14 17:05:57.811,32810720,14035100,98625510,37520160,-12421880,-2310791,-12207030
2026-01-14 17:05:57.821,11376550,-37527070,48789680,58781700,-16113280,-34423830,-12275390
2026-01-14 17:05:57.831,32632050,56269450,56270330,37405370,-18720700,-31030270,-11767580
2026-01-14 17:05:57.841,-20541660,10988120,101448100,27536770,-18134770,-21203610,-890625
2026-01-14 17:05:57.851,10729170,978829,10249250,59187390,-14980470,-33081060,-49804690
2026-01-14 17:05:57.861,-20915410,857987,5,10352830,27905340,-13330080,-43432620,-2454834
2026-01-14 17:05:57.871,10375280,7276500,104641800,59558550,-12832030,-43115230,-42138670
2026-01-14 17:05:57.881,10228530,586951,10582430,59757080,-13037110,-50683590,-6591797
2026-01-14 17:05:57.891,10107700,4281312,107170900,59981510,-13730470,-64697260,-9589844
2026-01-14 17:05:57.901,32601840,5029675,6087918,37625470,-14736330,-58447260,-10458980
2026-01-14 17:05:57.911,32661390,5000328,6087919,37721280,-1421875,-42822260,-953125
2026-01-14 17:05:57.921,977108,5,49692550,60879200,6076701,-11972660,-36010740,-7285156
2026-01-14 17:05:57.931,965887,3,49364550,60861940,6106912,-94970700,-31591800,-57421880
2026-01-14 17:05:57.941,3287724,-4108680,113972600,3805792,-7529297,-26000980,-6254883
2026-01-14 17:05:57.951,946894,8,-5511929,6606943,6169057,-62402340,-3125,-7089844
2026-01-14 17:05:57.961,-22747050,-56692840,67603270,29888900,-57958980,-42260740,-6635742
2026-01-14 17:05:57.971,358208,8,-927041,5,11796050,358738,6,-5463867,-6064453,-55908200
2026-01-14 17:05:57.981,33313080,-59756220,70582060,38657810,-4633789,-54296880,-41577150
2026-01-14 17:05:57.991,33431340,47249790,60594360,38815780,-13269040,-48388670,-1665039
2026-01-14 17:05:58.001,3354874,-1448395,12189650,3897460,20495600,-48388670,48095700
2026-01-14 17:05:58.011,-23696540,-1616714,12314810,30976490,4128418,-38989260,20605470
2026-01-14 17:05:58.021,-23871760,46162200,60387200,31181060,5913086,-1184082,10803220
2026-01-14 17:05:58.031,-24029720,-1943854,12557360,31368370,69873050,-4727173,-1385498
2026-01-14 17:05:58.041,9020102,-2076784,12648860,64694400,48583980,-28930660,-5239258
2026-01-14 17:05:58.051,905463,-6948412,8001649,6498788,5987549,-6430664,-7792969
2026-01-14 17:05:58.061,9071890,-70970500,81464880,65264080,-20385740,-87939460,-78808590
2026-01-14 17:05:58.071,902010,5,-2575692,13030380,6554031,-18725590,-87402340,-55615230
2026-01-14 17:05:58.081,-24705580,44056060,60110980,32177160,-2116394,-6508789,-25976560
2026-01-14 17:05:58.091,877841,8,-3078918,13459370,6605820,25238040,-37890620,-619812
2026-01-14 17:05:58.101,8631676,-3338735,13682930,66291260,-17492680,-15002440,12780760
2026-01-14 17:05:58.111,8493566,-359684,8,1390821,66498420,-61083980,28030400,57739260
2026-01-14 17:05:58.121,8364094,4236423,6038720,66731470,-8618164,35180660,50720220
2026-01-14 17:05:58.131,8234620,-4170829,14404540,66981800,-9667969,4663086,7896423
2026-01-14 17:05:58.141,34708830,-4504873,14691970,40628430,-9189453,5673828,-748291
2026-01-14 17:05:58.151,34743360,-4857908,14994940,40714750,-64746100,8979492,5088806
2026-01-14 17:05:58.161,-26355950,-5204038,15287560,33910400,-947876,12675780,61328120
2026-01-14 17:05:58.171,744916,3,39645280,60689300,6821615,27416990,14824220,11787110
2026-01-14 17:05:58.181,34842620,-5760781,15749350,40960740,23034670,15722660,11503910
2026-01-14 17:05:58.191,7207450,-10439150,11433520,68768550,-2088623,10644530,7651367
2026-01-14 17:05:58.201,-27144890,38393690,60611620,34761480,-87646480,3251953,-36590580
2026-01-14 17:05:58.211,702620,8,37953480,60585720,6931237,-15146480,-54504400,-5986328
2026-01-14 17:05:58.221,681042,37426940,60594350,6961448,-13505860,17858890,-4831543
2026-01-14 17:05:58.231,-27881170,-11372580,12347270,35527110,-6171875,57910160,39331060
2026-01-14 17:05:58.241,621483,3,36339350,60577090,7024458,38842770,95410160,14970700
2026-01-14 17:05:58.251,-28484530,3588186,6053395,36132190,11455080,7661133,21035160
2026-01-14 17:05:58.261,-28732250,46736200,49230760,36385100,15712890,3269043,2109375
2026-01-14 17:05:58.271,5498380,35208600,60361300,71064580,20742190,11047360,21972660
2026-01-14 17:05:58.281,5343008,-12151850,13104440,71271740,23808590,-35133360,21660160
2026-01-14 17:05:58.291,35021290,-7878133,17378150,41645240,24707030,-5185547,20566410
2026-01-14 17:05:58.301,509269,5,-12137000,13084760,7160837,24824220,-9086914,17841800
2026-01-14 17:05:58.311,4971844,-7863460,17323770,71746480,26054690,-8364258,15517580
2026-01-14 17:05:58.321,35010070,34664810,59800240,41708250,26601560,-79248050,15703130
2026-01-14 17:05:58.331,-29742160,3464753,5971394,37412260,271875,-72265620,18486330
2026-01-14 17:05:58.341,4738788,3469067,5963624,71979540,27226560,-5488281,21445310
2026-01-14 17:05:58.351,4773316,-7679604,17110570,72014060,25039060,-74072260,2109375
2026-01-14 17:05:58.361,-29733520,34863330,59480870,37420900,22109380,-7416992,18837890
2026-01-14 17:05:58.371,-29658430,34992810,59403180,37357890,20039060,-44213870,15625
2026-01-14 17:05:58.381,5170374,35174070,59342760,71962270,17392580,-2944336,12675780
2026-01-14 17:05:58.391,5403430,3540710,5924782,71901850,11582030,-47192380,10742190
2026-01-14 17:05:58.401,5679644,-6996838,16481320,71815540,3840332,-77246100,89453130
2026-01-14 17:05:58.411,5990384,-6814710,16318180,71729220,-18603520,-76660160,55908200
2026-01-14 17:05:58.421,-28791810,-6642938,16161950,36584490,-64941410,-79296870,35766600
2026-01-14 17:05:58.431,6551444,36417030,58911180,71582480,-79052740,-6738281,33251950
2026-01-14 17:05:58.441,6853552,-6282999,15831350,71504790,-76220700,-4987793,41625980
2026-01-14 17:05:58.451,-28187600,-6049942,15615560,36049330,-7607422,-73046870,5102539
2026-01-14 17:05:58.461,-27913970,3735787,5852277,35805050,-77246100,-94189460,6772461
2026-01-14 17:05:58.471,36461920,-5492336,15102840,42776850,-6489258,-10185550,7138672
2026-01-14 17:05:58.481,-3124141,-5168646,14805050,3132096,-54833980,-10976560,6567383
2026-01-14 17:05:58.491,-26961030,38652640,58022120,34945340,-17285160,-32470700,4815674
2026-01-14 17:05:58.501,944305,5,-4523860,14224140,7067615,-13769530,32806400,-6386719
2026-01-14 17:05:58.511,-26270500,47749560,49563940,34306590,-39770510,-37109380,-89453130
2026-01-14 17:05:58.521,-25931270,-3904972,13669120,33989800,-46850580,-6723633,-67626950
2026-01-14 17:05:58.531,-29237290,-8038248,9017942,30045050,-1842041,-8339844,-32617190
2026-01-14 17:05:58.541,-25301160,-3363765,13191790,33394220,3022461,-12236330,18237300
2026-01-14 17:05:58.551,-24999060,-3098773,12956140,33109380,9765625,-16240230,734375
2026-01-14 17:05:58.561,-24678820,-2833780,12720500,32808130,15605470,-18867190,11660160
2026-01-14 17:05:58.571,-2430505,42096680,57081260,3245684,21582030,-20,15273440
2026-01-14 17:05:58.581,-23869170,-2195899,12149950,32046820,29296880,-17509770,16914060
2026-01-14 17:05:58.591,38290110,-1811791,11808990,43779850,37207030,-12802730,13369140
2026-01-14 17:05:58.601,38504170,43840270,56615150,43876530,4109375,-91015620,44067380
2026-01-14 17:05:58.611,38734640,-54162890,64263680,43974060,40273440,-88183590,-4013672
2026-01-14 17:05:58.621,-21302110,4535944,5623537,29607510,34746100,-7050781,-15810550
2026-01-14 17:05:58.631,-20500230,46170820,56028200,28838430,28203120,-83203130,-2140625
2026-01-14 17:05:58.641,-19665540,695712,9586339,28033090,203125,-9067383,-271875
2026-01-14 17:05:58.651,-18842940,-34706240,45050440,27232930,14101560,-76904300,-3140625
2026-01-14 17:05:58.661,1979246,48449590,55613880,6428011,97314460,-5229492,-3296875
2026-01-14 17:05:58.671,20638340,-27048220,37516710,63537750,54785160,-25439450,-35429690
2026-01-14 17:05:58.681,-16468370,23547210,81724700,24894610,-13427730,-13769530,-38476560
2026-01-14 17:05:58.691,-15714820,-21207160,31791320,24146240,-71533200,11224370,-39589840
2026-01-14 17:05:58.701,2293438,50745620,55648410,6137986,-86376950,67578130,-36699220
2026-01-14 17:05:58.711,-14319080,-17700110,28393030,22745320,-8876953,12871090,-3296875
2026-01-14 17:05:58.721,-17455140,31876770,75553040,18297250,-11845700,14814450,-29316410
2026-01-14 17:05:58.731,24807430,-15751950,26543260,59299600,-16455080,14541020,-25390620
2026-01-14 17:05:58.741,-12468450,-15383370,26221300,20867070,-18027340,15654300,-18984380
2026-01-14 17:05:58.751,2581737,33611740,75216410,5803076,-17636720,16259770,-11787110
2026-01-14 17:05:58.761,-11387770,-20342350,21434950,19755310,-16552730,15410160,-46118160
2026-01-14 17:05:58.771,-10878500,33784380,75906940,19228780,-16640630,146875,12939450
2026-01-14 17:05:58.781,2712076,33905220,76200420,5619222,-17451170,12568360,53564450
2026-01-14 17:05:58.791,-9860823,34026060,76493900,18174860,-19755860,97558590,7661133
2026-01-14 17:05:58.801,-9360188,-15602620,26692590,17656950,-21445310,6875,92285150
2026-01-14 17:05:58.811,28389580,34492170,76787380,54388180,-23378910,3244629,10390630
2026-01-14 17:05:58.821,28786640,34578490,77046330,53818490,-25,14282230,9824219
2026-01-14 17:05:58.831,29166430,34578490,77391600,53266070,-2671875,-18981930,80908200
2026-01-14 17:05:58.841,29511700,53930700,58332850,52748170,-30117190,-25048830,44555660
2026-01-14 17:05:58.851,29787910,33223320,79316460,52282060,-30996090,-31811520,26660160
2026-01-14 17:05:58.861,30029600,53939330,58842120,51867740,-25332030,-12097170,2866211
2026-01-14 17:05:58.871,-6521226,30262650,82743230,14695430,-18837890,1439209,30615230
2026-01-14 17:05:58.881,-6226890,2863989,8457314,14385550,-14736330,35961910,22583010
2026-01-14 17:05:58.891,30702870,-24110000,35448560,50745620,-13974610,39086910,14245610
2026-01-14 17:05:58.901,-5686543,25264910,88276140,13821040,-82958980,52685550,2578125
2026-01-14 17:05:58.911,3114309,2378890,8990752,5009824,-5180664,55615230,34204100
2026-01-14 17:05:58.921,31376140,-28663200,40044920,49778870,-48388670,515625,48583980
2026-01-14 17:05:58.931,31609190,53412800,60525300,49476760,-34277340,42773440,61328120
2026-01-14 17:05:58.941,-46317560,20344850,93714090,127351700,21377560,42236330,7314453
2026-01-14 17:05:58.951,-43840270,-36890660,38032280,124822600,42382810,55322260,8959961
2026-01-14 17:05:58.961,-77695420,-32180610,43605500,85788480,6323242,4411621,11640630
2026-01-14 17:05:58.971,-3870439,19369480,94982940,11960050,67285150,4440918,14169920
2026-01-14 17:05:58.981,-72261780,19947790,94525470,80346220,7451172,4831543,15068360
2026-01-14 17:05:58.991,33042050,53671750,60922360,47767690,8129883,39111330,14248050
2026-01-14 17:05:59.001,-3048704,22476880,92220820,11124500,4177246,11810300,10908200
2026-01-14 17:05:59.011,-2791483,2382342,9097785,10863830,50079340,-61584470,86279300
2026-01-14 17:05:59.021,-2561016,-32363040,32374530,10628180,8666992,71777340,7114258
2026-01-14 17:05:59.031,-2346951,-25409920,36910770,10410660,13671880,265625,41088870
2026-01-14 17:05:59.041,-58032470,2750049,8757700,66091000,-36029820,20593260,122802700
2026-01-14 17:05:59.051,-2023263,-28426690,29578160,10078340,-3818512,21313480,-2671814
2026-01-14 17:05:59.061,-18955150,54811130,60404460,99471420,14819340,28125,-1550293
2026-01-14 17:05:59.071,-1785029,-21253770,32780510,9833203,27612300,36035160,-24902340
2026-01-14 17:05:59.081,34509440,-20215380,31747300,45937770,28466800,33032230,-36279300
2026-01-14 17:05:59.091,-52343340,3273128,8262241,60386330,25097660,22827150,-46264650
2026-01-14 17:05:59.101,-1563194,-18400140,29937240,9606189,1328125,84350580,-5332031
2026-01-14 17:05:59.111,34682070,-17623290,29160380,45765140,9667969,61187740,-54345700
2026-01-14 17:05:59.121,-1508815,-17106250,28641620,9556989,16113280,10797120,-48339840
2026-01-14 17:05:59.131,34716600,55441240,59895190,45799670,32080080,13171390,-3552246
2026-01-14 17:05:59.141,34716600,-15986730,27516910,45851460,34155270,9942627,-31176760
2026-01-14 17:05:59.151,34707960,-15471410,26996420,45911880,24145510,26931760,-27441410
2026-01-14 17:05:59.161,-52502160,-15042420,26562250,60572780,11468510,55358890,-31323240
2026-01-14 17:05:59.171,34664810,37012620,78099380,46127670,-1335907,15548710,-2915039
2026-01-14 17:05:59.181,34638910,-14533150,26035720,46274410,-1586914,-13837810,-24047850
2026-01-14 17:05:59.191,-18868840,-20019740,20031230,99903000,-3239746,-75683590,-17248540
2026-01-14 17:05:59.201,3450945,-14113650,25592050,4666283,-49121100,-12225340,-22021480
2026-01-14 17:05:59.211,-21656870,37383780,77262120,102984500,-84716800,-2619629,-33544920
2026-01-14 17:05:59.221,34328180,37038510,77434750,47172100,-13222660,-2854004,-46289060
2026-01-14 17:05:59.231,-2579141,36253030,78030340,10748160,-171875,-33813480,-5078125
2026-01-14 17:05:59.241,40253820,57027260,57031680,41643520,-18085940,-26171880,-5175781
2026-01-14 17:05:59.251,-3171276,-17959930,29341650,11381730,-19599610,-21850590,-49804690
2026-01-14 17:05:59.261,-3548480,-19873570,31225950,11781370,-20117190,-2006836,-5800781
2026-01-14 17:05:59.271,-3967980,2872621,8448683,12225040,-21953120,-4489746,-6269531
2026-01-14 17:05:59.281,3279174,2570513,8716264,5000329,-23925780,-7182617,-83154300
2026-01-14 17:05:59.291,32317000,21803610,90684370,50685200,-27578120,-10712890,-11630860
2026-01-14 17:05:59.301,31747300,-33584980,44790620,51444780,-27890620,-11162110,-13300780
2026-01-14 17:05:59.311,-6459082,1065149,10093880,14792100,-16259770,-42773440,-88134770
2026-01-14 17:05:59.321,-7293760,4194996,106911900,15631960,-58044430,44433590,-9161377
2026-01-14 17:05:59.331,-8138807,-218382,11279010,16478730,9741211,7758789,6850586
2026-01-14 17:05:59.341,-8976938,48734430,61371210,17315140,11582030,78759770,10507810
2026-01-14 17:05:59.351,27733570,-1355176,12317400,55613880,14951170,70166020,12744140
2026-01-14 17:05:59.361,40179590,-18264630,127438000,43116080,14804690,43017580,13515630
2026-01-14 17:05:59.371,-11195280,-2245100,13119280,19516220,12714840,35864260,12392580
2026-01-14 17:05:59.381,25567020,-2610221,13444700,57556000,9013672,3071289,9838867
2026-01-14 17:05:59.391,24893750,45644300,62320690,58108440,5834961,21435550,7001953
2026-01-14 17:05:59.401,-13059720,45152290,62450160,21346130,39501950,2121582,48461910
2026-01-14 17:05:59.411,39575360,4469480,6254510,43133340,63964840,45043940,6430664
2026-01-14 17:05:59.421,22908460,-3803119,14496030,59627610,8105469,4675293,9458008
2026-01-14 17:05:59.431,-14756710,-4009414,14669530,22998230,20336910,47021480,42260740
2026-01-14 17:05:59.441,-15254760,-4180321,14809370,23484200,3881836,30838010,35595700
2026-01-14 17:05:59.451,21285710,-4315840,14915530,60905100,1932373,-13391110,-99105830
2026-01-14 17:05:59.461,20828230,-4450495,15022570,61258990,25959020,-15014650,-3034668
2026-01-14 17:05:59.471,-20185170,42899420,62562370,21005180,19897460,-119628900,-40722660
2026-01-14 17:05:59.481,38860660,-4657654,15177930,43053930,-9741211,-22729490,-5058594
2026-01-14 17:05:59.491,-17229690,-4764685,15260800,25410790,-2720642,-15185550,-57470700
2026-01-14 17:05:59.501,-17580990,-4870855,15344530,25750010,23742680,-46691900,-41333010
2026-01-14 17:05:59.511,-17915040,-4968393,15419630,26071970,29614260,-13659670,-4477539
2026-01-14 17:05:59.521,1842863,-5065067,15495580,6303712,44647220,-40771480,-8930664
2026-01-14 17:05:59.531,-18547740,-5197133,15605210,26682230,-1821289,-65234380,-14746090
2026-01-14 17:05:59.541,1765178,-10037260,11075820,6353776,-23535160,-81347660,-19169920
2026-01-14 17:05:59.551,17194300,-10262890,11299030,63788070,-9967041,-8730469,-20878910
2026-01-14 17:05:59.561,-19649140,5155871,5177970,27721490,26123050,-9086914,-196875
2026-01-14 17:05:59.571,1611535,-6224301,16528790,6431461,65625,-89697260,-15654300
2026-01-14 17:05:59.581,-20516630,-6585106,16858530,28528550,13916020,-5175781,-7451172
2026-01-14 17:05:59.591,15010480,-6908795,17156320,64797980,18164060,-29125980,-23486330
2026-01-14 17:05:59.601,-21245140,-7205724,17429080,29198360,16445310,-4794922,-3166504
2026-01-14 17:05:59.611,1413871,38419580,63606810,6513464,13671880,-45751950,-25830080
2026-01-14 17:05:59.621,-21797570,3806568,6377083,29699000,13125,-26489260,1694336
2026-01-14 17:05:59.631,13430890,3776355,6393481,65341780,13300780,-7421875,5966797
2026-01-14 17:05:59.641,-22200670,-8221672,18381150,30055490,10322270,-1239624,49023440
2026-01-14 17:05:59.651,-25883200,37237040,64254180,26666440,68896480,-24938960,34155270
2026-01-14 17:05:59.661,1264541,3698673,6443545,6545399,5600586,-17114260,32958980
2026-01-14 17:05:59.671,12438240,-8863005,19000040,65453990,48901370,-8956909,3425293
2026-01-14 17:05:59.681,-22709930,36520620,64797980,30478450,34960940,15365600,36254880
2026-01-14 17:05:59.691,12067080,-9273012,19401420,65410830,35766600,52642820,45141600
2026-01-14 17:05:59.701,1192037,36106300,65160510,6536769,32788090,12890630,5991211
2026-01-14 17:05:59.711,-22876530,-9626908,19755310,30588070,45947260,3046875,86621100
2026-01-14 17:05:59.721,11808130,-9735670,19870980,65203670,6928711,4580078,1125
2026-01-14 17:05:59.731,1186856,-9782276,19927950,6507420,7133789,51953120,10429690
2026-01-14 17:05:59.741,1200669,35950920,65661150,6491884,41308590,44555660,77783200
2026-01-14 17:05:59.751,-22453570,49418060,52383900,30147850,18103030,38452150,62890620
2026-01-14 17:05:59.761,-22280940,-9695098,19894290,29975220,46661380,35083010,60498050
2026-01-14 17:05:59.771,-22099670,36339350,65859680,29793950,-25405880,5527344,82910160
2026-01-14 17:05:59.781,-21902010,36494720,65928730,29594560,4699707,7207031,11181640
2026-01-14 17:05:59.791,-21693980,36684620,65980520,29388260,-44006350,6513672,12646480
2026-01-14 17:05:59.801,-21459210,3692630,6599780,29156930,-24267580,44360350,11181640
2026-01-14 17:05:59.811,-21205440,-9246251,19566280,28910070,-4013672,13989260,76464850
2026-01-14 17:05:59.821,-24421940,50310580,53165940,25192920,-53222660,-95581060,53564450
2026-01-14 17:05:59.831,1400921,-8951046,19326320,6314070,-5107422,-13146970,57373050
2026-01-14 17:05:59.841,36167580,38005260,66006410,41034120,-35375980,-16760250,7758789
2026-01-14 17:05:59.851,36216780,-8649802,19075140,41036710,-3017578,-27246090,7373047
2026-01-14 17:05:59.861,14777430,-8490980,18940480,62527850,-11212160,-2631836,7036133
2026-01-14 17:05:59.871,1503641,38808010,65945990,6232071,17346190,-1538086,8066406
2026-01-14 17:05:59.881,-19530890,-8162977,18664270,27270050,31860350,-11804200,91259770
2026-01-14 17:05:59.891,-19277980,39412220,65876940,27022320,43920900,-39367680,98779300
2026-01-14 17:05:59.901,15856390,51488800,54093840,61638790,51416020,-4812622,10742190
2026-01-14 17:05:59.911,16158490,-7515602,18103210,61388470,5161133,-541687,9741211
2026-01-14 17:05:59.921,36566360,40517080,65687040,41032400,32495120,-87646480,5986328
2026-01-14 17:05:59.931,-18180890,40879610,65617990,25944230,3778076,-9741211,28149410
2026-01-14 17:05:59.941,17013030,-6840604,17517980,60637510,-3842163,-7861328,21813960
2026-01-14 17:05:59.951,-17706150,-11480040,12550540,25469480,37288660,20187380,40112300
2026-01-14 17:05:59.961,17418720,41785940,65523040,60180040,11955260,16464230,55908200
2026-01-14 17:05:59.971,17591350,42044890,65505780,59955620,40016180,9246826,64746100
2026-01-14 17:05:59.981,38529030,4230382,6550576,38948880,-38513180,20446780,6533203
2026-01-14 17:05:59.991,-16931890,42562790,65505780,24672780,-30029300,-15100100,33740230
2026-01-14 17:06:00.001,-16763580,-5970530,16799830,24495830,-7636719,-47485350,-15344240
2026-01-14 17:06:00.011,38395850,-5917014,16767030,38805850,-94091800,-5522461,-21044920
2026-01-14 17:06:00.021,-16552100,-5908382,16775660,24258460,-81640620,-35131840,14147950
2026-01-14 17:06:00.031,18109250,43054790,65773360,58798970,-6176758,-109069800,5917969
2026-01-14 17:06:00.041,36338490,-5936867,16833490,40397100,-66259770,-7330322,79589840
2026-01-14 17:06:00.051,-16412270,-5964488,16874920,24070290,-5546875,4574585,9580078
2026-01-14 17:06:00.061,18022940,43175640,66049570,58419180,-51660160,72387700,93603520
2026-01-14 17:06:00.071,36146000,43227420,66118620,40175270,-6699219,54656980,7631836
2026-01-14 17:06:00.081,-16300920,4327058,6617906,23922690,-85058590,-4119873,64697260
2026-01-14 17:06:00.091,-1628881,43296480,66222210,2390026,-86572260,3250122,7338867
2026-01-14 17:06:00.101,17927990,43313740,66274000,58099810,-72998050,9741211,890625
2026-01-14 17:06:00.111,-16306100,-6016279,16978500,23900240,-66503900,4953003,88427740
2026-01-14 17:06:00.121,-19749700,53668300,55971230,20508430,-60839840,-21636960,70996100
2026-01-14 17:06:00.131,17729460,43270580,66368940,58073910,-57373050,-12036130,60302740
2026-01-14 17:06:00.141,17651770,-6112092,17072590,58099800,-4020996,-9436035,6699219
2026-01-14 17:06:00.151,1756549,43167000,66420730,5815161,-23400880,-17333980,8066406
2026-01-14 17:06:00.161,35805910,-6175101,17130420,39876610,-9313965,-8605957,9638672
2026-01-14 17:06:00.171,1741872,-11113890,12208900,5824654,-11853030,-16174320,90234380
2026-01-14 17:06:00.181,-16691070,43072060,66394840,24257600,-15942380,-30395510,70751950
2026-01-14 17:06:00.191,17306510,43046160,66368940,58376020,-24133300,-49365230,40063480
2026-01-14 17:06:00.201,1723748,43003000,66343050,5846235,-30273440,-6503906,1665039
2026-01-14 17:06:00.211,1715980,53452510,55789960,5855731,-3125,-70410160,14282230
2026-01-14 17:06:00.221,17073450,-6264872,17178760,58660860,-23095700,-7006836,265625
2026-01-14 17:06:00.231,35785200,-6313209,17216740,39966380,-10595700,-6855469,3581543
2026-01-14 17:06:00.241,-17238310,42640470,66256730,24815200,-37139890,-7182617,29907230
2026-01-14 17:06:00.251,16754080,42502360,66256730,59049290,-3930664,-76464850,15637210
2026-01-14 17:06:00.261,1663327,42338360,66265360,5920468,-54504400,-73095700,97961420
2026-01-14 17:06:00.271,35784340,42148470,66265370,40070820,8856201,-55566410,20385740
2026-01-14 17:06:00.281,-17793330,-6759465,17581860,25382300,18139650,-48876950,34057620
2026-01-14 17:06:00.291,35786920,41725510,66291260,40137290,23828120,-53564450,38061520
2026-01-14 17:06:00.301,16072180,41483830,66308520,59903820,21203610,-5439453,35107420
2026-01-14 17:06:00.311,-18279300,41224880,66325790,25880350,30249020,-40649420,35546880
2026-01-14 17:06:00.321,-18457970,52383900,54925070,26064210,38793940,-19384770,4128418
2026-01-14 17:06:00.331,-1863662,52228540,54804220,2624808,5283203,57250980,45922850
2026-01-14 17:06:00.341,35811960,-7712403,18389780,40336680,6303711,46044920,4309082
2026-01-14 17:06:00.351,15295330,40016440,66481160,60905100,64501950,8613281,2331543
2026-01-14 17:06:00.361,-19165770,39688440,66532940,26789270,5625,11269530,-12397770
2026-01-14 17:06:00.371,14984590,-8332158,18926670,61284890,40893560,13144530,-24853520
2026-01-14 17:06:00.381,-19516210,-8553992,19119160,27146610,22937010,14179690,-48901370
2026-01-14 17:06:00.391,35808500,-8784458,19320280,40512760,3237915,14169920,-62841800
2026-01-14 17:06:00.401,-19920180,-9033911,19536930,27554030,-23583980,12021480,-6855469
2026-01-14 17:06:00.411,1420776,50900120,53802090,6213082,-4008789,76708980,-54345700
2026-01-14 17:06:00.421,-20386290,50695550,53644130,28020140,-51953120,3034668,-29833980
2026-01-14 17:06:00.431,1371574,-9777098,20174810,6262280,-56347660,-103759800,15991210
2026-01-14 17:06:00.441,1345679,-14673680,15709820,6288174,-60791020,-42333980,3334961
2026-01-14 17:06:00.451,-21145880,36227140,67024960,28779730,-5830078,-51660160,61816410
2026-01-14 17:06:00.461,-21378930,35855980,67050850,29012790,-7128906,-49316410,57910160
2026-01-14 17:06:00.471,-21611990,-10650620,20906780,29245840,-7998047,-41455080,50097660
2026-01-14 17:06:00.481,-21819150,-10848290,21071640,29453000,-80859380,-26708980,36645510
2026-01-14 17:06:00.491,-2203405,34820170,67085370,2966967,-88623050,-9387207,17285160
2026-01-14 17:06:00.501,-25677250,-11226360,21384110,26440810,-9042969,-5706787,64331060
2026-01-14 17:06:00.511,-25893040,-11415390,21540350,26656600,-7885742,-5142212,8880615
2026-01-14 17:06:00.521,-2267279,33818900,67102640,3030842,-60839840,-118896500,10510250
2026-01-14 17:06:00.531,-22880840,-11767560,21826920,30514700,-46704100,-19628910,124694800
2026-01-14 17:06:00.541,11255700,-11928980,21958980,65065560,-25708010,-2614746,15258790
2026-01-14 17:06:00.551,1105719,-12081760,22082410,6524683,-8276367,-32983400,36895750
2026-01-14 17:06:00.561,10867280,32653620,67094000,65402200,5770874,-4104004,-856781
2026-01-14 17:06:00.571,-23628340,-12374370,22324970,31251840,16137700,-47314450,-125
2026-01-14 17:06:00.581,1049613,-12515930,22442350,6568704,32250980,-44384770,-16894530
2026-01-14 17:06:00.591,-23944260,31919930,67137170,31557400,41210940,-41552740,-19628910
2026-01-14 17:06:00.601,-24086690,31712770,67171690,31691200,4423828,-30297850,-26757810
2026-01-14 17:06:00.611,994371,8,31496980,67214850,6599780,39819340,-3125,-3647461
2026-01-14 17:06:00.621,-24374120,-13060590,22916230,31956190,34033200,-27978520,-4128418
2026-01-14 17:06:00.631,-24511360,31082660,67335700,32077890,2529297,-22509770,-38598630
2026-01-14 17:06:00.641,9330844,-13359240,23187270,66179050,17382810,-2265625,-33007810
2026-01-14 17:06:00.651,910642,8,-13512020,23327960,6621357,7489014,-21044920,-23632810
2026-01-14 17:06:00.661,-28636860,3044390,6759466,28711990,-83862300,-16125490,-28198240
2026-01-14 17:06:00.671,-25048250,-13833990,23627490,32542280,-23999020,-16223150,-39038090
2026-01-14 17:06:00.681,-25188090,47026230,50805170,32661390,-34375,-13220220,-39135740
2026-01-14 17:06:00.691,34349750,29796540,67914020,40158870,-38061520,-27709960,-296875
2026-01-14 17:06:00.701,798431,8,46881210,50725760,6631718,-3869629,5038452,-20629880
2026-01-14 17:06:00.711,776851,8,-14502940,24253280,6632578,-40356440,6890869,-23339840
2026-01-14 17:06:00.721,7561350,-14662630,24404330,66325790,-4272461,7537842,-2932129
2026-01-14 17:06:00.731,7371450,28967900,68345600,66325790,-46435550,1133728,-35717770
2026-01-14 17:06:00.741,-25905380,-14983720,24704720,33256120,-4333496,-42800900,-33813480
2026-01-14 17:06:00.751,-26008960,-15135640,24846280,33342430,-33154300,-6124878,-3359375
2026-01-14 17:06:00.761,-29396200,-15278930,24979200,30127820,-24536130,-19946290,-4086914
2026-01-14 17:06:00.771,6655028,28173790,68725390,66351680,-21313480,-29614260,-43652340
2026-01-14 17:06:00.781,33422710,27975260,68820340,39411360,-15039060,-32080080,-3112793
2026-01-14 17:06:00.791,-29657570,27776730,68898020,30384360,-7110596,-36767580,-20483400
2026-01-14 17:06:00.801,6163016,2758680,6898434,66377580,5,684793,-42456060,-18017580
2026-01-14 17:06:00.811,5999014,-1602128,2566973,66368940,1126709,-3935547,-25634770
2026-01-14 17:06:00.821,-26643380,27207040,69174240,33864650,17907720,-34643560,-32714840
2026-01-14 17:06:00.831,-26728840,27008510,69269190,33934570,23510740,-25170900,-3713379
2026-01-14 17:06:00.841,-26806530,-16458880,26078020,33994990,27124020,-15368650,-3017578
2026-01-14 17:06:00.851,5386170,26637350,69450450,66343060,24511720,-11895750,-22009280
2026-01-14 17:06:00.861,-26968800,-1674460,2634475,34126190,22277830,-5984497,-17333980
2026-01-14 17:06:00.871,509271,8,26274810,69640340,6632580,20812990,-35614020,-15466310
2026-01-14 17:06:00.881,32563860,-17020800,26603680,38699250,19628910,-39611820,-1817627
2026-01-14 17:06:00.891,-27181140,-17155450,26727980,34293640,14282230,22018430,-24084470
2026-01-14 17:06:00.901,-27247600,25756920,69882030,34348020,770874,24490360,-33447270
2026-01-14 17:06:00.911,-27313200,-17398000,26951540,34403260,4562378,105773900,-28295900
2026-01-14 17:06:00.921,4479842,-17516260,27057710,66317150,19714360,1829834,-18139650
2026-01-14 17:06:00.931,-30979070,-17616390,27147480,30979080,-36621100,13208010,-36889650
2026-01-14 17:06:00.941,4281312,2512678,7008057,66360310,-109191900,90148930,-63623050
2026-01-14 17:06:00.951,-27570430,-17818370,27325290,34629420,-14257810,19885250,-66308590
2026-01-14 17:06:00.961,410007,5,24807430,70123720,6643801,-19470220,24072270,-5996094
2026-01-14 17:06:00.971,-27722350,2466068,7013237,34770970,-21606440,22753910,-5019531
2026-01-14 17:06:00.981,32094300,24505320,70132350,38357440,-29125980,2220459,-5708008
2026-01-14 17:06:00.991,3823834,-18167090,27615320,66610630,-30517580,2376709,-74560540
2026-01-14 17:06:01.001,3720252,-18261170,27693860,66679690,-3239746,33691410,-81103520
2026-01-14 17:06:01.011,-28047760,-18356980,27770690,35084300,-34985350,4465332,-7753906
2026-01-14 17:06:01.021,32007980,23823420,70123720,38340180,-34350580,5180664,-74902340
2026-01-14 17:06:01.031,3392252,-18549470,27923470,66921380,-33520510,6088867,-73291020
2026-01-14 17:06:01.041,328004,8,-18655640,28007190,6701631,-30737300,7241211,-6748047
2026-01-14 17:06:01.051,31941520,23227840,70063300,38337590,-30859380,83154300,-60595700
2026-01-14 17:06:01.061,3055616,44183820,48882900,67223490,-3725586,87060540,-7104492
2026-01-14 17:06:01.071,296069,3,22848050,69994250,6733570,-45214840,74658200,-8823242
2026-01-14 17:06:01.081,284846,5,-19021620,28279960,6744790,-4951172,5913086,-93408200
2026-01-14 17:06:01.091,2727616,22425090,69899300,67586020,-50341800,5341797,-8227539
2026-01-14 17:06:01.101,2598140,-19221020,28425830,67715490,-49438480,3930664,-6201172
2026-01-14 17:06:01.111,2485920,2198485,6978710,67862220,-42895510,119262700,-61816410
2026-01-14 17:06:01.121,-29299360,2175181,6972669,36335900,-39135740,-1381836,-8652344
2026-01-14 17:06:01.131,-29437460,-19523980,28640760,36474000,-2866211,-20788570,-91308590
2026-01-14 17:06:01.141,-29584200,-23731760,24640150,36620740,-19702150,-22363280,-75341800
2026-01-14 17:06:01.151,192489,5,20966340,69545400,6844056,-9667969,-2088623,-62109380
2026-01-14 17:06:01.161,-29894940,-19875300,28893670,36931480,21362300,-18481440,-6489258
2026-01-14 17:06:01.171,1605492,-24038780,24937340,68742660,6976318,-13562010,-7314453
2026-01-14 17:06:01.181,31784420,20180860,69346870,38529210,1361084,-40222170,-77978510
2026-01-14 17:06:01.191,1251596,1991324,6928645,69027500,14953610,8984375,-70458980
2026-01-14 17:06:01.201,-30548360,-20347450,29232890,37572820,11383060,11340330,-6142578
2026-01-14 17:06:01.211,854536,19369480,69156980,69320980,11016850,15710450,-52490230
2026-01-14 17:06:01.221,-30899670,19101890,69079290,37912040,13562010,22302250,-53027340
2026-01-14 17:06:01.231,440220,41408730,46427190,69614460,15478520,16333010,-67578130
2026-01-14 17:06:01.241,224428,18549470,68941180,69761190,1451416,16784670,-7080078
2026-01-14 17:06:01.251,0,25,-2094131,2965757,6989930,1451416,20263670,-61376950
2026-01-14 17:06:01.261,-20715,75,1803157,6880308,7003741,31982420,18786620,-60302740
2026-01-14 17:06:01.271,-422948,17789880,68716760,70184140,-7244873,12939450,-7133789
2026-01-14 17:06:01.281,-647376,-21241690,29857830,70322250,-7891846,48797610,-859375
2026-01-14 17:06:01.291,-871796,-21344410,29927740,70460350,-6100464,26367190,-95751950
2026-01-14 17:06:01.301,-35517180,-21447980,29996800,36212030,-62683100,17196660,-890625
2026-01-14 17:06:01.311,-32594070,-21551570,30065850,39532210,-54992680,-50689700,-7714844
2026-01-14 17:06:01.321,-163137,5,-21655150,30134900,7089194,-2015686,-1628418,-70996100
2026-01-14 17:06:01.331,3092387,16244810,68207490,3821588,625,-27075200,-6743164
2026-01-14 17:06:01.341,30834940,16003120,68121180,38166680,15661620,-39111330,-70458980
2026-01-14 17:06:01.351,-33414940,-21956390,30334290,40299560,25268560,-3955078,-6796875
2026-01-14 17:06:01.361,-33622100,39111840,44356450,40489460,3642578,-33081060,-6645508
2026-01-14 17:06:01.371,-36911800,1526942,6788814,37596810,4663086,-2536621,-71484380
2026-01-14 17:06:01.381,-3314564,38774340,44055200,71608370,53222660,-1451416,-71533200
2026-01-14 17:06:01.391,-361666,3,-22373300,30625180,7170331,61376950,-79956060,-703125
2026-01-14 17:06:01.401,-34474040,-22483790,30704590,41260270,66064450,44281010,-6455078
2026-01-14 17:06:01.411,-425538,8,14250890,67646430,7187596,6850586,15625,-52734380
2026-01-14 17:06:01.421,-456614,3,-22722020,30880680,7196226,66064450,23181150,-38842770
2026-01-14 17:06:01.431,-35095520,13733000,67542850,41812700,57421880,20043940,-29589840
2026-01-14 17:06:01.441,29618730,13499940,67482430,37345800,45092770,9967041,-2298584
2026-01-14 17:06:01.451,-542929,3,13258250,67430640,7218670,32983400,-16586300,-17358400
2026-01-14 17:06:01.461,-5696904,-23151880,31193150,72264380,2631836,-96069340,-110839800
2026-01-14 17:06:01.471,29275190,-23252010,31265650,37102390,19873050,-16052250,-95336910
2026-01-14 17:06:01.481,-6180276,12602250,67275270,72402490,13830570,-19726560,-16845700
2026-01-14 17:06:01.491,-639605,8,-23442760,31402890,7246290,15039060,-16906740,-27148440
2026-01-14 17:06:01.501,28998980,12170660,67171690,36912490,18762210,-1899414,-33911130
2026-01-14 17:06:01.511,-6827650,11946240,67119900,72583760,2536621,-10247800,-23693850
2026-01-14 17:06:01.521,-703478,5,11739070,67085380,7263555,34472660,-22567750,15129090
2026-01-14 17:06:01.531,-7233338,11540550,67042220,72695970,4489746,-15022280,17907720
2026-01-14 17:06:01.541,-7405978,1134199,6699907,72747750,5600586,21942140,24572750
2026-01-14 17:06:01.551,28592420,11160760,66955900,36628510,63671880,32592770,37304690
2026-01-14 17:06:01.561,-770807,36149450,41742780,7284272,6879883,-17385480,5527344
2026-01-14 17:06:01.571,28487980,1082410,6687820,36560320,7416992,37902830,6064453
2026-01-14 17:06:01.581,28445680,1066873,6684367,36533560,76416020,6677246,7919922
2026-01-14 17:06:01.591,32058640,-27752560,28525960,32868810,82666020,77697750,97314460
2026-01-14 17:06:01.601,-811375,5,35783470,41418230,7300672,8354492,80200190,10761720
2026-01-14 17:06:01.611,28396480,1035799,6675736,36513710,77246100,31799320,10761720
2026-01-14 17:06:01.621,-8131036,1032345,6672285,73075760,6845703,-10536190,10673830
2026-01-14 17:06:01.631,-37352710,-24341320,32040780,43854080,625,-6817627,10917970
2026-01-14 17:06:01.641,28491430,1032347,6667104,36608660,59765620,-748291,10869140
2026-01-14 17:06:01.651,28546680,10366640,66645160,36657000,5493164,-11035160,10380860
2026-01-14 17:06:01.661,32257180,10461590,66619260,33067340,5595703,-76660160,10019530
2026-01-14 17:06:01.671,-770805,5,10582430,66602000,7318798,48217770,1386261,91503900
2026-01-14 17:06:01.681,-37087720,-24057340,31789590,43652970,36206060,52520750,8417969
2026-01-14 17:06:01.691,28893670,-23944270,31695510,36948740,17468260,680542,69873050
2026-01-14 17:06:01.701,-7147024,1114346,6655885,73196600,-28518680,-83862300,4230957
2026-01-14 17:06:01.711,29130180,-23681860,31474540,37143820,-22839360,-13183590,24389650
2026-01-14 17:06:01.721,29253610,1162685,6652430,37244810,-37670900,-12695310,22814940
2026-01-14 17:06:01.731,29377910,-23391840,31229400,37344940,-47851560,-15222170,16015630
2026-01-14 17:06:01.741,-625796,3,1212750,6648979,7318797,-49536130,-26904300,-28671260
2026-01-14 17:06:01.751,-6050804,-23109590,30993750,73187970,-45239260,-29345700,-12780760
2026-01-14 17:06:01.761,29703320,12602240,66463890,37606480,-40454100,-16174320,9552002
2026-01-14 17:06:01.771,-5679640,36964280,42326280,73144810,-35498050,-24307250,32177730
2026-01-14 17:06:01.781,29869910,-26676530,26684480,37733370,-27001950,29129030,3647461
2026-01-14 17:06:01.791,-5343000,13335940,66472520,73067120,-14904790,7385254,31347660
2026-01-14 17:06:01.801,30003700,1357761,6648977,37824000,-9790039,17102050,30664060
2026-01-14 17:06:01.811,-504088,3,37537420,42806200,7295493,-1217041,20227050,2980957
2026-01-14 17:06:01.821,-491139,3,14069630,66550210,7289450,-16210940,14294430,34643560
2026-01-14 17:06:01.831,30128000,1431130,6658472,37889600,-19677730,5505371,45166020
2026-01-14 17:06:01.841,-4687000,-21983150,30100370,72739120,-1965332,19958500,6142578
2026-01-14 17:06:01.851,30172880,1479467,6667104,37896500,-22961430,-18325810,74853520
2026-01-14 17:06:01.861,30199640,-25425810,26243400,37904270,-2722168,-9576416,70947260
2026-01-14 17:06:01.871,-4358996,-21619760,29825020,72497440,-35131840,-10064700,6166992
2026-01-14 17:06:01.881,-424675,5,15571540,66791900,7240249,-37402340,-6970215,5751953
2026-01-14 17:06:01.891,30272150,15839120,66817790,37918080,-38134770,10482790,5102539
2026-01-14 17:06:01.901,-34724360,-21220110,29516870,41545110,-3383789,12634280,56347660
2026-01-14 17:06:01.911,-3918776,16417450,66878220,72160800,-33984380,26391600,5864258
2026-01-14 17:06:01.921,33767540,-20902460,29264830,34526270,-4020996,3166504,51416020
2026-01-14 17:06:01.931,-366845,-20730690,29125860,7199679,-49951170,26757810,2878418
2026-01-14 17:06:01.941,-354761,5,1735830,6690411,7192775,-6040039,20959470,15686040
2026-01-14 17:06:01.951,30442190,39823960,44749190,37972460,-6713867,11437990,118652300
2026-01-14 17:06:01.961,30458590,39985370,44881260,37973320,-6845703,15068050,11193850
2026-01-14 17:06:01.971,30456860,-20084180,28598460,37957790,-6875,-1430664,23254400
2026-01-14 17:06:01.981,30453410,-19940900,28482800,37943980,-6640625,-3635254,-6591797
2026-01-14 17:06:01.991,-3236876,-19807970,28374040,71582480,-69873050,-47387700,-541687
2026-01-14 17:06:02.001,-3245508,1896376,6693864,71504780,-7480469,-5,-12481690
2026-01-14 17:06:02.011,-3262772,-19577500,28190190,71435740,-80078130,-50390620,25863650
2026-01-14 17:06:02.021,30292000,1939536,6695588,37760120,-8486328,-45654300,49957280
2026-01-14 17:06:02.031,30241080,19593900,66964530,37707470,-8354492,-36108400,37719730
2026-01-14 17:06:02.041,-3409512,1976651,6698180,71237210,-88134770,-29174800,-9942627
2026-01-14 17:06:02.051,-348718,8,-23095340,23964550,7117678,-8286133,-2310791,-11651610
2026-01-14 17:06:02.061,-33970820,20085900,66990420,40727700,-8588867,-24865720,-19042970
2026-01-14 17:06:02.071,-34002750,20206750,66990420,40747540,-89160160,-21801760,-18322750
2026-01-14 17:06:02.081,29913070,-18975880,27704220,37396730,-86376950,-20263670,-9967041
2026-01-14 17:06:02.091,-3866988,-18929260,27664520,71055950,-7675781,-22229000,-420,8088
2026-01-14 17:06:02.101,-3987834,-18884380,27623080,71055940,-70996100,-21313480,5871582
2026-01-14 17:06:02.111,-4108678,-22773560,23647600,71055940,-5600586,-19250490,13195800
2026-01-14 17:06:02.121,29648070,-22747660,23621700,37178350,-42895510,-18847660,19311520
2026-01-14 17:06:02.131,-34393770,-18798060,27536770,41064330,-31030270,-10070800,21313480
2026-01-14 17:06:02.141,-34486130,-18782520,27517780,41144600,-18566900,12084960,3713379
2026-01-14 17:06:02.151,-34578480,-18785110,27515190,41224880,-21316530,1385498,5317383
2026-01-14 17:06:02.161,-34670850,-18788570,27511740,41305150,413208,24597170,6904297
2026-01-14 17:06:02.171,-4963212,-22714340,23585960,71185420,15283200,3388672,77490230
2026-01-14 17:06:02.181,-510992,20379380,66696940,7122859,2626953,4555664,8496094
2026-01-14 17:06:02.191,29190600,2031894,6667104,36841710,29589840,6176758,9350586
2026-01-14 17:06:02.201,-35035960,-18840360,27529000,41630560,3400879,7915039,10351560
2026-01-14 17:06:02.211,-5472482,-18855030,27531590,71366690,3239746,8935547,11894530
2026-01-14 17:06:02.221,-555878,8,-18861070,27525550,7143573,2919922,9736328,12597660
2026-01-14 17:06:02.231,-5619218,-18867120,27519500,71513420,28564450,98339840,13457030
2026-01-14 17:06:02.241,-5662380,2002545,6637758,71591100,22021480,90185540,13994140
2026-01-14 17:06:02.251,29139670,-18836040,27464260,36875380,16015630,8154297,13984380
2026-01-14 17:06:02.261,29195780,-18798930,27415060,36940110,85632320,6118164,13935550
2026-01-14 17:06:02.271,29261380,19973690,66066830,37012620,-25436400,3671875,13662110
2026-01-14 17:06:02.281,-555014,5,40662960,45256730,7201408,-11364750,13586430,12216800
2026-01-14 17:06:02.291,29445230,-18600400,27182010,37208560,-10668950,-12805180,10136720
2026-01-14 17:06:02.301,29537590,20034120,65661150,37306100,-10412600,-37890620,7988281
2026-01-14 17:06:02.311,29629090,40505000,45052160,37404500,-11480710,-5385742,578125
2026-01-14 17:06:02.321,-5317112,-18395830,26937730,72523330,-10668950,-65234380,45703120
2026-01-14 17:06:02.331,-35604790,-18343170,26869540,42339220,-12536620,-74121100,4091797
2026-01-14 17:06:02.341,-5291212,19999590,65108720,72773650,-12207030,-7758789,3803711
2026-01-14 17:06:02.351,29882000,19947800,64987870,37704020,-14904790,-77685540,36572260
2026-01-14 17:06:02.361,29917380,19887380,64875660,37754940,-13964840,-7583008,39868160
2026-01-14 17:06:02.371,-5403428,40038890,44534260,73127550,-15856930,-7050781,3942871
2026-01-14 17:06:02.381,29943280,-18249090,26687410,37815370,-1730957,-64208980,35742190
2026-01-14 17:06:02.391,29942420,39840360,44335730,37833490,-20507810,-6376953,3149414
2026-01-14 17:06:02.401,29922570,-22443530,22527490,37836080,-2746582,-5678711,30786130
2026-01-14 17:06:02.411,-580908,8,19369480,64392290,7355050,-33740230,-4831543,26049800
2026-01-14 17:06:02.421,-595582,8,19222740,64314610,7364545,-38476560,-40283200,2541504
2026-01-14 17:06:02.431,-611121,5,-18414810,26746110,7373176,-4375,-33276370,24316410
2026-01-14 17:06:02.441,-6283856,18903370,64167860,73818080,-45922850,-29833980,17028810
2026-01-14 17:06:02.451,-646511,5,-18552060,26833290,7391302,-48388670,-2529297,15112310
2026-01-14 17:06:02.461,-665500,8,-18624560,26881620,7399934,-51220700,-17578120,2548828
2026-01-14 17:06:02.471,-685354,5,1834230,6398660,7407703,-51123050,-13098150,40771480
2026-01-14 17:06:02.481,29500470,38755360,43331870,37619420,-50146480,-115356400,4580078
2026-01-14 17:06:02.491,-7224712,38628470,43217070,74223770,-5126953,-670166,4831543
2026-01-14 17:06:02.501,-740596,3,-18921490,27085330,7428418,-47094730,-92285150,44873050
2026-01-14 17:06:02.511,29290720,-18993140,27134530,37483910,-41333010,-1784668,39770510
2026-01-14 17:06:02.521,-776849,5,-19063050,27185460,7440503,-36669920,-24304200,3630371
2026-01-14 17:06:02.531,29128450,-22788230,23598390,37369970,-3557129,-31030270,328125
2026-01-14 17:06:02.541,-38011300,-19212380,27295080,44645610,-35058590,-36645510,19360350
2026-01-14 17:06:02.551,-8372724,1701300,6364134,74525870,-3059082,-47558590,16918940
2026-01-14 17:06:02.561,28824610,-19359120,27407290,37138640,-32958980,-4543457,14196780
2026-01-14 17:06:02.571,28700320,37817090,42509270,37038520,-18945310,-5151367,45214840
2026-01-14 17:06:02.581,-38517980,-19520540,27539360,45071150,-25927730,-46655270,34204100
2026-01-14 17:06:02.591,28472440,37664310,42385840,36852080,-38354490,-37451170,20129400
2026-01-14 17:06:02.601,-9451678,16279340,63649970,74551780,-2607422,-45776370,3330078
2026-01-14 17:06:02.611,32016780,16141230,63667220,32858890,-30395510,-47314450,33544920
2026-01-14 17:06:02.621,-9883268,37468370,42236510,74517250,-3491211,-5004883,2434082
2026-01-14 17:06:02.631,-1011629,15856390,63727650,7449136,-31323240,-51708980,24499510
2026-01-14 17:06:02.641,27809530,-20065190,28013240,36289290,-25830080,-50439450,29248050
2026-01-14 17:06:02.651,-1060832,1551974,6383986,7439641,-18896480,-46655270,37963870
2026-01-14 17:06:02.661,-10875910,37191300,42047470,74335980,-18725590,-42919920,39672850
2026-01-14 17:06:02.671,27295080,15148590,63969340,35836990,-20153810,-40795900,47583010
2026-01-14 17:06:02.681,-11419700,-20597770,28499200,74206500,-22766110,-41796880,5
2026-01-14 17:06:02.691,-1167864,-20732420,28623500,7413744,-25195310,-38745120,4807129
2026-01-14 17:06:02.701,26765960,-24413400,25201470,35364830,-2626953,-37036130,48046880
2026-01-14 17:06:02.711,-39981050,-21000860,28872950,46163060,-2944336,-4230957,34033200
2026-01-14 17:06:02.721,-12403710,14225000,64375020,73913030,-32250980,-39233400,14074710
2026-01-14 17:06:02.731,-12645400,14026470,64452710,73843980,-36206060,-36621100,31318660
2026-01-14 17:06:02.741,-43026560,36644050,41714300,43635440,-57128900,-38793940,-20996090
2026-01-14 17:06:02.751,-13146040,-21596450,29416750,73705870,-9213867,-48217770,-4326172
2026-01-14 17:06:02.761,25746560,-21777720,29580750,34450740,-14296880,-54003900,-8178711
2026-01-14 17:06:02.771,-40632740,13042460,64780720,46616220,-19785160,-5966797,-15
2026-01-14 17:06:02.781,-1399194,1270582,6485840,7348145,-24335940,-578125,-17724610
2026-01-14 17:06:02.791,25204490,1236055,6492744,33974270,-24238280,-44311520,-15585940
2026-01-14 17:06:02.801,-14492580,-22633120,30330840,73412390,-18574220,9802246,-8540039
2026-01-14 17:06:02.811,-14682480,-22819560,30489660,73395120,-11230470,5239258,-2788086
2026-01-14 17:06:02.821,-14846480,1140241,6502242,73386500,-36010740,96777340,18688960
2026-01-14 17:06:02.831,24782400,-23138930,30757240,33619510,28588870,14091800,5161133
2026-01-14 17:06:02.841,-15114060,1093630,6507420,73360600,74609380,16757810,6894531
2026-01-14 17:06:02.851,-15217640,10789590,65117350,73326080,11337890,16435550,48217770
2026-01-14 17:06:02.861,-15303960,35177520,40625840,73291550,12773440,12265630,-11268620
2026-01-14 17:06:02.871,24490650,35108470,40574050,33358830,13564450,65527340,-16418460
2026-01-14 17:06:02.881,-1555427,1037527,6520366,7323113,12099610,16418460,39770510
2026-01-14 17:06:02.891,24263640,34975550,40482560,33154260,13046880,-37109380,29345700
2026-01-14 17:06:02.901,-15985860,-23908020,31438290,73075760,13388670,-5654297,7602539
2026-01-14 17:06:02.911,-16244810,-27799590,27874720,72989440,13339840,-68310540,12988280
2026-01-14 17:06:02.921,-16521020,9494842,65479880,72885860,12324220,-85302740,17324220
2026-01-14 17:06:02.931,23514410,927040,3,6556619,32470630,11513670,-79052740,19501950
2026-01-14 17:06:02.941,23316740,-24567470,32039050,32288500,11435550,-6645508,19550780
2026-01-14 17:06:02.951,23138070,8873360,65756100,32121910,11005860,-6635742,18466800
2026-01-14 17:06:02.961,22960260,-24843690,32298000,31954460,10107420,-59375,17558590
2026-01-14 17:06:02.971,-17729460,-24967120,32416250,72316170,8598633,-46606440,16757810
2026-01-14 17:06:02.981,-4235303,840724,8,6603231,4777891,6948242,-31982420,1578125
2026-01-14 17:06:02.991,22463930,-28544170,29288050,31484030,5883789,-15612790,15009770
2026-01-14 17:06:03.001,-18316410,34274660,40078590,71970900,55078120,41137700,14794920
2026-01-14 17:06:03.011,-1849766,-25408200,32838340,7187594,55126950,19812010,15263670
2026-01-14 17:06:03.021,-18661680,-25497110,32922070,71781000,51171880,2824707,15478520
2026-01-14 17:06:03.031,-18808420,-25577380,32997160,71703320,4777832,30566410,14892580
2026-01-14 17:06:03.041,21823460,-28985590,29727050,30881540,38452150,265625,13564450
2026-01-14 17:06:03.051,-19041470,761310,5,6646390,71591100,3088379,2109375,12558590
2026-01-14 17:06:03.061,-19136420,752678,8,6649843,71547950,22216800,12683110,11611330
2026-01-14 17:06:03.071,-1922273,-25847550,33244890,7149615,11395260,113098100,10498050
2026-01-14 17:06:03.081,21546390,-2590281,3329322,30623450,61187740,15930180,9399414
2026-01-14 17:06:03.091,-4280878,33943200,39874880,4801371,76942450,84228510,8852539
2026-01-14 17:06:03.101,21428130,7129766,66584740,30517280,23880000,53863520,7426758
2026-01-14 17:06:03.111,21382380,7008920,66584740,30476710,15026860,40100100,47631840
2026-01-14 17:06:03.121,21345270,6870810,66602000,30444780,17236330,-51330570,22424320
2026-01-14 17:06:03.131,21316780,33655760,39644420,30421480,21276860,-60760500,5065918
2026-01-14 17:06:03.141,-19688850,6542808,66584740,71409850,13903810,-8679199,-947876
2026-01-14 17:06:03.151,-19706110,-26462130,33752440,71444370,625,-14611820,-15856930
2026-01-14 17:06:03.161,-19714740,6128492,66532950,71487530,-18569950,-6665039,-22021480
2026-01-14 17:06:03.171,21358220,-26668420,33908670,30483620,-7952881,-82092290,-34643560
2026-01-14 17:06:03.181,21416050,5696906,66429370,30546630,-105163600,-26342770,-5620117
2026-01-14 17:06:03.191,2148339,-26860910,34044190,3061740,-1694336,-37646480,-86035150
2026-01-14 17:06:03.201,25688640,32696780,38808010,26602040,-10144040,-39794920,-14511720
2026-01-14 17:06:03.211,-19447160,488549,5,6623948,71927740,-22644040,-5107422,-17607420
2026-01-14 17:06:03.221,-1936082,4522992,66153150,7204859,-3828125,-60498050,-17871090
2026-01-14 17:06:03.231,21865760,-27460810,34480080,31011880,-57910160,-5839844,-18447270
2026-01-14 17:06:03.241,-43119530,-27651570,34617330,48428010,-68652340,-4880371,-15498050
2026-01-14 17:06:03.251,-19153680,3262768,65842420,72462910,-76708980,-55859380,-16416020
2026-01-14 17:06:03.261,22181680,2813924,65721570,31351970,-625,-6166992,-20351560
2026-01-14 17:06:03.271,-19024210,-28230760,35022160,72765020,-4736328,-5546875,-23691410
2026-01-14 17:06:03.281,-43259360,1795384,65445360,48650700,-37426760,-46362300,-23847660
2026-01-14 17:06:03.291,26574080,1242956,65289980,27494730,-36547850,-29907230,-21953120
2026-01-14 17:06:03.301,22492420,-28950640,35527970,31714500,-38891600,-30517580,-19580080
2026-01-14 17:06:03.311,22551980,34522,64944720,31793050,-31860350,-26367190,-18828120
2026-01-14 17:06:03.321,-19067370,28807350,35343260,73533230,-18664550,-25390620,-16396480
2026-01-14 17:06:03.331,22645200,-1251596,64556290,31924250,-64697260,-15429690,-16240230
2026-01-14 17:06:03.341,-1917092,-1916232,64357760,7382671,20532230,-22628780,-15498050
2026-01-14 17:06:03.351,22684040,27442680,34118420,32006250,35961910,19360350,-13554690
2026-01-14 17:06:03.361,22681450,-3288670,63952070,32026100,4416504,45703120,-10488280
2026-01-14 17:06:03.371,-1948166,-3970570,63736290,7420651,5175781,59765620,-76464850
2026-01-14 17:06:03.381,22658150,-4652472,63537750,32049410,59814450,6621094,-58740230
2026-01-14 17:06:03.391,-19714740,-5325746,63330600,74405040,69628900,7319336,-5058594
2026-01-14 17:06:03.401,22594270,25113850,32027830,32026970,8022461,7421875,-41552740
2026-01-14 17:06:03.411,22531260,-6689550,62950800,31986400,90527340,72802740,-35009770
2026-01-14 17:06:03.421,2244238,-7388712,62769540,3191993,94677740,69921870,-19763180
2026-01-14 17:06:03.431,22327550,-8096512,62596900,31827570,77197260,65234380,12634280
2026-01-14 17:06:03.441,22203260,-880432,6242426,31727450,57373050,4946289,49194340
2026-01-14 17:06:03.451,-20871380,-9477582,62251640,74577660,43066410,3293457,6894531
2026-01-14 17:06:03.461,21958120,-1012497,6210489,31523740,44677740,927124,76953130
2026-01-14 17:06:03.471,21828640,21975380,29244980,31411530,52490230,-13049320,7548828
2026-01-14 17:06:03.481,-21492870,24890460,25622090,74491350,5253906,-24841310,8334961
2026-01-14 17:06:03.491,21571420,21230460,28591560,31185380,5053711,-35791020,9404297
2026-01-14 17:06:03.501,-21889930,20889510,28293770,74387780,47607420,-40014650,10664060
2026-01-14 17:06:03.511,21308150,-3697673,3746284,30948000,46801760,-44628900,12089840
2026-01-14 17:06:03.521,25533440,-13353200,61466150,26498290,5107422,-47509770,12470700
2026-01-14 17:06:03.531,21085460,-35198240,39966380,30739120,5996094,-4399414,12265630
2026-01-14 17:06:03.541,20980150,19885650,27433190,30637270,70214850,-42871100,11347660
2026-01-14 17:06:03.551,20884340,19714740,27293350,30543180,7597656,-42651370,10175780
2026-01-14 17:06:03.561,-22692670,-1465661,6140574,73913020,92578130,-50634770,75634770
2026-01-14 17:06:03.571,-22830780,1944454,2708016,73792180,10566410,-6191406,4489746
2026-01-14 17:06:03.581,-2300339,-15183110,61483420,7365408,10029300,-6074219,41186520
2026-01-14 17:06:03.591,-2319328,-15433430,61526580,7349870,72753900,-5942383,5776367
2026-01-14 17:06:03.601,-45874760,19098440,26822070,50869040,56933590,-6333008,5888672
2026-01-14 17:06:03.611,-23607630,-15839130,61638790,73187970,5629883,-6484375,52441410
2026-01-14 17:06:03.621,19768270,-15994500,61725100,29449550,5917969,-63378900,4494629
2026-01-14 17:06:03.631,-45981800,18968970,26761650,50865600,69921870,-54248050,3244629
2026-01-14 17:06:03.641,-2422045,-16193020,61940900,7266143,8178711,-38476560,1842041
2026-01-14 17:06:03.651,-46048260,22499580,23282820,50850920,8569336,-2434082,12207030
2026-01-14 17:06:03.661,18942210,19000040,26851410,28635580,86279300,-11730960,11932370
2026-01-14 17:06:03.671,23079540,-1637430,6231205,24049400,83203130,-2494812,10424810
2026-01-14 17:06:03.681,-25187230,-1640021,6245881,71832800,84375,2545166,91796870
2026-01-14 17:06:03.691,18219740,-1642609,6260553,27925190,8286133,37963870,7318115
2026-01-14 17:06:03.701,-2573101,19190800,27109500,7137533,8027344,11756900,38146970
2026-01-14 17:06:03.711,17696660,19251220,27187180,27412470,80908200,-76904300,-46043400
2026-01-14 17:06:03.721,17417860,-16460600,63054380,27138850,82373050,15235900,-4031372
2026-01-14 17:06:03.731,-26637350,19382420,27349460,70624370,86279300,7671356,-52703860
2026-01-14 17:06:03.741,16833490,-1648651,6335648,26566570,90283200,14228820,-8502197
2026-01-14 17:06:03.751,16519300,19504130,27503970,26259280,89746100,43060300,-5340576
2026-01-14 17:06:03.761,-46635200,-16521030,63649970,50850920,82470700,11340330,2267456
2026-01-14 17:06:03.771,-46701670,-16529660,63796710,50853510,7167969,12658690,8721924
2026-01-14 17:06:03.781,-2837231,19678490,27726660,6925194,6010742,12011720,11834720
2026-01-14 17:06:03.791,15244400,19739780,27803490,25013730,5283203,10614010,11743160
2026-01-14 17:06:03.801,14921580,-16546920,64245550,24697810,47753900,15075680,10961910
2026-01-14 17:06:03.811,-2939948,-1653829,6439229,6841466,39868160,12854000,1138916
2026-01-14 17:06:03.821,14320810,19943480,28048630,24107410,36767580,80322260,13659670
2026-01-14 17:06:03.831,14024750,-1651240,6465987,23816520,31030270,11981200,14111330
2026-01-14 17:06:03.841,18154570,20078140,28207450,19134270,29248050,13586430,18701170
2026-01-14 17:06:03.851,-30616550,-1647790,6491883,67387480,32836910,19689940,2076416
2026-01-14 17:06:03.861,13223730,20215380,28363680,23029310,33520510,30517580,25170900
2026-01-14 17:06:03.871,12963050,20280120,28437050,22772090,27270510,52197260,40014650
2026-01-14 17:06:03.881,12718770,20354350,28518190,22532990,14526370,921875,51464840
2026-01-14 17:06:03.891,-31695510,-1633116,6535905,66481160,7684326,12910160,5654297
2026-01-14 17:06:03.901,16685980,20521810,28696000,17668090,14245610,16132810,46728520
2026-01-14 17:06:03.911,12058450,20606400,28784040,21881300,19250490,19550780,31591800
2026-01-14 17:06:03.921,-32360150,20690990,28872090,65885580,14379880,221875,15942380
2026-01-14 17:06:03.931,-4747421,-1607218,6579062,5078878,-11985780,23320310,-19241330
2026-01-14 17:06:03.941,-47508730,-16037650,65859680,50788770,-32250980,22460940,-16809080
2026-01-14 17:06:03.951,11329070,20865350,29060260,21160550,-48999020,19931640,-36376950
2026-01-14 17:06:03.961,-3305065,-16020390,65997780,6526408,-5366211,15410160,-62646480
2026-01-14 17:06:03.971,11061490,20892100,29102550,20892970,-73876950,11230470,-7709961
2026-01-14 17:06:03.981,-3328371,-16098080,66092730,6503103,-11542970,8334961,-6582031
2026-01-14 17:06:03.991,10881950,20882610,29112050,20709980,-14023440,54052740,-5253906
2026-01-14 17:06:04.001,15253120,-16236180,66196310,16235230,-12568360,20825200,-5522461
2026-01-14 17:06:04.011,10819810,-16313860,66239470,20634020,-11835940,-107421900,-5957031
2026-01-14 17:06:04.021,-33309630,-16391550,66265360,64763460,-12353520,-37817380,-5307617
2026-01-14 17:06:04.031,-33266470,24497290,25324730,64754820,-11337890,-58496100,-4753418
2026-01-14 17:06:04.041,15271590,20735870,29017100,16251290,-11396480,-63183590,-28076170
2026-01-14 17:06:04.051,-33180160,20697890,28986030,64772090,-12207030,-58203120,-72288510
2026-01-14 17:06:04.061,10942380,-16641870,66256730,20735870,-11748050,-53564450,21398930
2026-01-14 17:06:04.071,10995030,-38972010,43926590,20786800,-10732420,-43139650,39746100
2026-01-14 17:06:04.081,11054590,-1669367,6618768,20848080,-9448242,-32250980,5366211
2026-01-14 17:06:04.091,-32947100,-38943530,43886020,65005140,-8691406,-19128420,7006836
2026-01-14 17:06:04.101,-32886680,-1669369,6606685,65117350,-8203125,-12408450,82177740
2026-01-14 17:06:04.111,11316990,-38863250,43793660,21120840,-8208008,-8496094,9326172
2026-01-14 17:06:04.121,-3271402,-16650500,65885570,6539356,-7988281,-8659363,10410160
2026-01-14 17:06:04.131,11569900,-16598710,65781990,21385840,-8071289,10992430,12275390
2026-01-14 17:06:04.141,16142180,20463970,28684780,17124290,-7558594,21875,13798830
2026-01-14 17:06:04.151,11909990,2046569,2866579,21736280,-5913086,24511720,13994140
2026-01-14 17:06:04.161,12105920,-1632251,6545398,21937400,-3491211,3466797,1328125
2026-01-14 17:06:04.171,-31937190,20497630,28651120,66429370,-28442380,4465332,13583980
2026-01-14 17:06:04.181,12559090,-38169260,43089320,22399190,-32788090,57910160,14199220
2026-01-14 17:06:04.191,-3147971,-1584776,6510009,6695590,-25219730,56152340,13222660
2026-01-14 17:06:04.201,-31229390,20628840,28692550,67240740,-13793950,55566410,11699220
2026-01-14 17:06:04.211,-30961810,20679760,28710680,67525580,109069800,5234375,9604492
2026-01-14 17:06:04.221,13632000,20738460,28738300,23484200,24206540,47705080,6904297
2026-01-14 17:06:04.231,-30452550,-15079540,64608080,68086660,22558590,5415039,5415039
2026-01-14 17:06:04.241,14139550,20821320,28759010,23995190,2168274,6020508,45239260
2026-01-14 17:06:04.251,-29969170,-14717010,64349140,68621820,-87890620,62060550,24780270
2026-01-14 17:06:04.261,-2971021,20913690,28787500,6889804,-6359863,5410156,-6378174
2026-01-14 17:06:04.271,14922440,-1432859,6409881,24783260,-45074460,54248050,-39575200
2026-01-14 17:06:04.281,15172760,-14155950,63977970,25033580,-11053470,55615230,-6333008
2026-01-14 17:06:04.291,15414450,21044020,28829790,25275270,-25341800,52001950,-8129883
2026-01-14 17:06:04.301,15646640,2106645,2882461,25509190,-39526370,42529300,-96533200
2026-01-14 17:06:04.311,-28519050,-36158090,41147200,70123720,-49389650,35327150,-10039060
2026-01-14 17:06:04.321,-2832051,21075960,28780590,7035679,-60498050,33789060,-9267578
2026-01-14 17:06:04.331,-28113370,-38144500,38642890,70598460,-6777344,21496580,-7651367
2026-01-14 17:06:04.341,16530520,-3576363,4074754,26403430,-7006836,10131840,-68310540
2026-01-14 17:06:04.351,-2767313,21116530,28740020,7105595,-7133789,-5180359,-5859375
2026-01-14 17:06:04.361,16995770,21139830,28733980,26870400,-7163086,-2322998,-48242190
2026-01-14 17:06:04.371,17228820,-12843930,62769540,27103460,-70410160,-38671880,-29345700
2026-01-14 17:06:04.381,17470510,-35133500,40134700,27345140,-7788086,-43188480,31871800
2026-01-14 17:06:04.391,17720830,2132195,2881080,27595460,-7675781,-6118164,19885250
2026-01-14 17:06:04.401,17989280,21419500,28868630,27862180,-7104492,-6435547,2697754
2026-01-14 17:06:04.411,-26162610,21545520,28949770,72549220,-68115230,-5883789,28588870
2026-01-14 17:06:04.421,22976050,21681040,29038680,23963000,-62402340,-72216800,30639650
2026-01-14 17:06:04.431,-25584280,-11057180,62018580,73075760,-48510740,-7475586,38183590
2026-01-14 17:06:04.441,-46920060,-1066877,6190639,51722720,-28881840,-6689453,43579100
2026-01-14 17:06:04.451,19333230,-10271690,61802780,29194050,-10772710,-5683594,50927740
2026-01-14 17:06:04.461,-24798800,22333590,29490980,73792180,23727420,-43530270,60791020
2026-01-14 17:06:04.471,-2456574,-946032,6161289,7399071,13269040,-29345700,7011719
2026-01-14 17:06:04.481,-24341320,-9045998,61526580,74197870,22692870,-20227050,67089840
2026-01-14 17:06:04.491,-2413415,22909330,29916520,7437052,2836914,-17211910,609375
2026-01-14 17:06:04.501,-23935630,23107850,30063260,74551780,20727540,-15148930,65527340
2026-01-14 17:06:04.511,-23745730,-7759878,61293520,74724410,1381836,-14538570,6879883
2026-01-14 17:06:04.521,25169710,-7319662,61215830,26154230,18444820,-2915039,53515620
2026-01-14 17:06:04.531,-2340044,-6905340,61146780,7503514,1829834,-43554690,3713379
2026-01-14 17:06:04.541,-2325370,-6508282,61077730,7518188,42999270,-45922850,41870120
2026-01-14 17:06:04.551,-23115620,-6119860,61000040,75302730,-55236820,-4555664,49975580
2026-01-14 17:06:04.561,-46586870,-30575980,36095080,51831480,-91674810,-50878900,46606440
2026-01-14 17:06:04.571,-2285665,-5351640,60870570,7554442,-10522460,-42285160,46533200
2026-01-14 17:06:04.581,21544660,-30103830,35686800,31384770,-9057617,-37963870,3935547
2026-01-14 17:06:04.591,-22597720,-4592054,60749720,75768840,-23021700,-37719730,29589840
2026-01-14 17:06:04.601,21788940,-32172760,32737440,31623870,3366089,-27124020,3071289
2026-01-14 17:06:04.611,-2235602,25164780,31614370,7597602,10021970,-123168900,26757810
2026-01-14 17:06:04.621,21997820,28215900,28856720,31829300,20727540,-6750488,19934080
2026-01-14 17:06:04.631,-22148870,-3167828,60533930,76148630,3474121,-85632320,41229250
2026-01-14 17:06:04.641,22163550,-2857086,60499400,31991570,4609375,-11206060,-7800293
2026-01-14 17:06:04.651,-48877460,-258089,3,6044764,49420040,53808590,-1328125,-16638180
2026-01-14 17:06:04.661,22248140,-28462950,34272060,32079620,50146480,-11999510,-66833500
2026-01-14 17:06:04.671,-2199349,26017590,32263470,7635581,4736328,-124816900,33325200
2026-01-14 17:06:04.681,22269720,-1855812,60344040,32109830,40966800,-14624020,17956540
2026-01-14 17:06:04.691,22276630,-30677060,31263840,32120180,35717770,-1484375,2692871
2026-01-14 17:06:04.701,-22036660,-1406968,60274990,76433470,32006840,-14904790,2619629
2026-01-14 17:06:04.711,22273170,-27766370,33673890,32123640,25854490,-13708500,16479490
2026-01-14 17:06:04.721,-22079830,26570880,32694190,76459380,20214840,-10101320,10235600
2026-01-14 17:06:04.731,22243830,-785486,60240460,32101200,10089110,-15960690,14782720
2026-01-14 17:06:04.741,-22131610,-604220,60231830,76459380,7369995,927124,16760250
2026-01-14 17:06:04.751,22216200,29605520,30211980,32077030,-791626,17980960,15979000
2026-01-14 17:06:04.761,22215340,-233058,60223190,32077890,-15478520,21057130,15698240
2026-01-14 17:06:04.771,22215340,-51790,60214560,32077890,-23522950,2142334,13427730
2026-01-14 17:06:04.781,-2214886,-27029220,33064490,7645936,-23364260,2602539,1953125
2026-01-14 17:06:04.791,-22122980,302106,60223190,76468010,-20605470,24926760,1829834
2026-01-14 17:06:04.801,22261090,474738,60223190,32118460,-20690920,14355470,14782720
2026-01-14 17:06:04.811,-46548030,630110,60223200,51991170,-18493650,12565610,19299320
2026-01-14 17:06:04.821,-2201076,27532450,33476220,7649391,-20031740,-19946290,2253418
2026-01-14 17:06:04.831,-21950340,949482,60214560,76519790,-29296880,-3881836,28710940
2026-01-14 17:06:04.841,-2188991,27714580,33622100,7654570,-38208010,-5966797,39257810
2026-01-14 17:06:04.851,22460480,1320644,60188660,32298860,-45874020,-765625,47851560
2026-01-14 17:06:04.861,22524360,1536436,60180030,32355830,-45483400,-89941410,47680660
2026-01-14 17:06:04.871,-21605080,28051210,33889680,76640640,-44433590,-10068360,32788090
2026-01-14 17:06:04.881,-2148421,2028446,60154140,7667517,-42944340,-10830080,12756350
2026-01-14 17:06:04.891,22768640,2287392,60136870,32577670,-50927740,-10058590,14572140
2026-01-14 17:06:04.901,-21268440,28454310,34211640,76752850,-5986328,-8203125,-7861328
2026-01-14 17:06:04.911,22914510,2805296,60102350,32708010,-64990230,-515625,-27026370
2026-01-14 17:06:04.921,22978380,28731390,34435200,32764970,-69677740,-2783203,-31176760
2026-01-14 17:06:04.931,23033620,28866040,34542230,32813310,-61376950,-13511660,-5073242
2026-01-14 17:06:04.941,-20888650,-25068110,31434830,76839170,-5126953,3479004,-7426758
2026-01-14 17:06:04.951,-20810970,31690580,32252860,76847800,-46484380,5571289,-10029300
2026-01-14 17:06:04.961,23173460,-24773770,31194010,32932430,-5048828,7128906,-13701170
2026-01-14 17:06:04.971,-20698750,4358992,60085080,76856430,-59228520,7792969,-15976560
2026-01-14 17:06:04.981,23220070,-24508780,30975630,32972130,-64404300,7573242,-16376950
2026-01-14 17:06:04.991,23220940,4807840,60067820,32971270,-70751950,5654297,-19189450
2026-01-14 17:06:05.001,23220930,29762010,35269020,32971270,-828125,2626953,-21386720
2026-01-14 17:06:05.011,-20690120,5127210,60041930,76847800,-10400390,66101070,-221875
2026-01-14 17:06:05.021,23164820,523078,6000739,32923800,-13242190,-22583010,-24160160
2026-01-14 17:06:05.031,-2083684,29891490,35363970,7683918,-13964840,-5410156,-27226560
2026-01-14 17:06:05.041,-2095769,-24094450,30613090,7683916,-13066410,-63427740,-22539060
2026-01-14 17:06:05.051,-21104440,-2410916,3061570,76847790,-11669920,-5473633,-14199220
2026-01-14 17:06:05.061,22915370,5084056,59826140,32724410,-9355469,-5258789,-8671875
2026-01-14 17:06:05.071,-2134612,-24141070,30618280,7688232,-67333980,-58935550,-64208980
2026-01-14 17:06:05.081,22824740,29578160,35055820,32659670,-44262700,-7128906,-73046870
2026-01-14 17:06:05.091,-46464300,4833738,59644880,52005840,-22009280,-7963867,-7104492
2026-01-14 17:06:05.101,-21622340,29390850,34880600,76968640,-24291990,-7104492,-31835940
2026-01-14 17:06:05.111,-21743190,-2430511,3071324,76968640,993042,-5854492,-21594240
2026-01-14 17:06:05.121,22575280,4358994,59532660,32460270,4321289,-38745120,-97229010
2026-01-14 17:06:05.131,-46761230,4186358,59515400,52244080,76171870,-13513180,2919922
2026-01-14 17:06:05.141,22352590,-24567470,30916930,32268650,9580078,-3363037,81933590
2026-01-14 17:06:05.151,-22416460,3832458,59454980,76882340,9042969,-16796880,9902344
2026-01-14 17:06:05.161,2218341,-2472543,3103518,3212709,69873050,-35986330,10605470
2026-01-14 17:06:05.171,-2270992,-24803120,31095610,7684779,5107422,-32250980,14609380
2026-01-14 17:06:05.181,22008180,3374982,59411820,31974310,2088623,-30493160,17802730
2026-01-14 17:06:05.191,21952940,-24936040,31204360,31925970,1071167,-3618164,17998050
2026-01-14 17:06:05.201,-2299476,3193718,59403180,7678738,-19874570,-35009770,19228520
2026-01-14 17:06:05.211,-2308108,28449140,34078720,7675286,-119628900,-44384770,2125
2026-01-14 17:06:05.221,21789800,3064242,59429070,31778370,-7342529,-31689450,22246090
2026-01-14 17:06:05.231,-47287760,3029720,59446350,52632500,30456540,-23486330,209375
2026-01-14 17:06:05.241,21682770,3012454,59463610,31678250,-6939697,-29077150,18466800
2026-01-14 17:06:05.251,-2335729,3003820,59489500,7661475,-1628418,-2512207,18730470
2026-01-14 17:06:05.261,21567970,3012454,59515390,31568620,-17858890,-17077640,1859375
2026-01-14 17:06:05.271,-23521310,302105,5954130,76519790,-9112549,-14147950,178125
2026-01-14 17:06:05.281,21435040,3038348,59575820,31442600,3488159,-24621580,16044920
2026-01-14 17:06:05.291,-47418100,3055612,59610350,52692060,7470703,-26098630,15683590
2026-01-14 17:06:05.301,21294340,28530270,34187470,31307080,881958,-19104000,16484380
2026-01-14 17:06:05.311,21233060,3098770,59688020,31247520,43914800,-17504880,17001950
2026-01-14 17:06:05.321,21181270,-27980350,28608910,31195730,17061230,-25878910,15605470
2026-01-14 17:06:05.331,21138970,3176456,59782980,31151710,84472660,-47216800,11640630
2026-01-14 17:06:05.341,21078550,28690820,34354930,31091290,14355470,-50146480,11152340
2026-01-14 17:06:05.351,-24039210,3219608,59895190,76070940,19848630,-4482422,11875
2026-01-14 17:06:05.361,20950800,-25212260,31532370,30960090,16711430,-48876950,10517580
2026-01-14 17:06:05.371,-2416869,322824,5,6004193,7592421,70007330,-45776370,10859380
2026-01-14 17:06:05.381,20804060,-25275270,31607460,30813350,43121340,-49267580,11796880
2026-01-14 17:06:05.391,20735880,3228242,60180030,30743440,4119873,-5410156,1125
2026-01-14 17:06:05.401,-24367220,28886760,34590580,75691150,15380860,-57470700,10625
2026-01-14 17:06:05.411,20591720,-25384030,31740390,30594100,-6958008,-48413090,11357420
2026-01-14 17:06:05.421,-24479430,28963580,34686390,75509890,-18396000,-37280270,11279300
2026-01-14 17:06:05.431,20431170,-25470350,31843970,30426650,-26245120,-33251950,11630860
2026-01-14 17:06:05.441,-2460026,-25524720,31910440,7530272,-25927730,-35180660,10458980
2026-01-14 17:06:05.451,20280990,3219610,60758350,30266100,-28833010,-34545900,8959961
2026-01-14 17:06:05.461,-24686580,3219612,60879200,75078300,-36010740,-28271480,8588867
2026-01-14 17:06:05.471,-24721110,3236874,61000050,74974730,-43798830,-25952150,7685547
2026-01-14 17:06:05.481,-2473836,-25723250,32160760,7487113,-5708008,-26586910,67871100
2026-01-14 17:06:05.491,-24764270,3262770,61250360,74758940,-7089844,-2746582,6855469
2026-01-14 17:06:05.501,24431090,29421060,35230180,25425460,-7866211,-25732420,7080078
2026-01-14 17:06:05.511,-47189360,29484070,35305280,52161210,-78564460,-35351560,6855469
2026-01-14 17:06:05.521,19827820,29547080,35380370,29752520,-79296870,-36645510,6689453
2026-01-14 17:06:05.531,19772580,32249230,32833590,29686920,-8198242,-5073242,61621100
2026-01-14 17:06:05.541,19725970,-26008100,32531920,29629950,-7910156,-6142578,5341797
2026-01-14 17:06:05.551,-2483331,-26042630,32583710,7408565,-69140620,-55126950,4970703
2026-01-14 17:06:05.561,-24850590,343537,5,6216533,73964820,-50439450,-30151370,45874020
2026-01-14 17:06:05.571,23994590,3478566,62312060,24981530,-32739260,17242430,34057620
2026-01-14 17:06:05.581,-2491099,3513090,62450160,7369724,-10296630,54248050,3684082
2026-01-14 17:06:05.591,-2497142,-26220440,32837480,7353323,21154780,12597660,33740230
2026-01-14 17:06:05.601,19248640,3608038,62769540,29088740,59716800,17988280,-23635860
2026-01-14 17:06:05.611,19149370,30338610,36263390,28980850,83203130,1921875,-5214844
2026-01-14 17:06:05.621,23479110,374613,5,6306301,24461220,84765620,15507810,-12021480
2026-01-14 17:06:05.631,18967240,-26343870,33042050,28783180,68408200,98779300,-16582030
2026-01-14 17:06:05.641,-46687000,30568210,36517170,51437880,3239746,45507810,-17558590
2026-01-14 17:06:05.651,18717790,3746146,63391020,28532000,-65956120,11767580,-15585940
2026-01-14 17:06:05.661,18561550,30585470,36568950,28377490,-31860350,-116882300,-12294920
2026-01-14 17:06:05.671,-25791440,3547612,63589550,72402490,-51708980,-30322270,-95947260
2026-01-14 17:06:05.681,-25972710,3452664,63684500,72273010,-7294922,-45166020,-61328120
2026-01-14 17:06:05.691,-2614532,3357720,63762180,7213491,-69677740,-48828120,-421875
2026-01-14 17:06:05.701,17913320,3262776,63822600,27748250,-5644531,-51171880,-34057620
2026-01-14 17:06:05.711,17745000,-27013690,33718770,27588560,-39526370,-48535160,-29125980
2026-01-14 17:06:05.721,17568050,-27112090,33810270,27420240,-3317871,-44335940,-24230960
2026-01-14 17:06:05.731,17381610,2908874,64003860,27244150,-1796875,-4243164,-37670900
2026-01-14 17:06:05.741,17195160,2788030,64055660,27068070,-23132320,-16381840,-105896000
2026-01-14 17:06:05.751,16999220,-27373630,34049360,26884210,-26733400,-22167970,-53497310
2026-01-14 17:06:05.761,-2774219,30265240,36423080,7124586,-13830570,-20776370,-3048706
2026-01-14 17:06:05.771,-47399980,2434130,64167870,51708910,-4562378,-28320310,-2220459
2026-01-14 17:06:05.781,16366520,2313286,64219660,26291220,12988280,-3088379,-11413570
2026-01-14 17:06:05.791,-2858809,-27707670,34354060,7079698,25512700,-34375,-47576900
2026-01-14 17:06:05.801,15894370,30086560,36308270,25848420,37060550,-31054690,-22277830
2026-01-14 17:06:05.811,20122680,1976654,64349140,21119460,60546880,-20898440,-4243164
2026-01-14 17:06:05.821,15352300,1855812,64400920,25337420,65625,-62072750,-5078125
2026-01-14 17:06:05.831,-2995188,1726336,64461350,7007193,64208980,-1159668,-7241211
2026-01-14 17:06:05.841,14739450,29895800,36188300,24759100,7573242,-1895752,-94384770
2026-01-14 17:06:05.851,-30780550,29832790,36147730,69605820,8701172,-12670900,-8178711
2026-01-14 17:06:05.861,14020430,1217068,64625340,24079780,9375,-3873825,-6660156
2026-01-14 17:06:05.871,-3173863,1035800,64685770,6907929,90527340,30174260,-61328120
2026-01-14 17:06:05.881,-32230670,845902,64737560,68794450,8232422,-9466553,-5708008
2026-01-14 17:06:05.891,-3273993,-28813390,35354480,6850959,75341800,-19250490,-48168940
2026-01-14 17:06:05.901,12388180,-28960130,35483950,22535570,61865230,-2192688,-30273440
2026-01-14 17:06:05.911,11935880,-32043450,32694110,22107440,53222660,-19515990,-11987310
2026-01-14 17:06:05.921,11484440,-29253610,35742900,21678450,51171880,18945310,37628180
2026-01-14 17:06:05.931,11041640,29106870,35630690,21258090,47973630,27026370,28320310
2026-01-14 17:06:05.941,-35458920,-29492710,35952650,66912740,43310550,3527832,-5807495
2026-01-14 17:06:05.951,-35985450,-578322,65056940,66610630,23779300,46484380,-50476070
2026-01-14 17:06:05.961,9801268,28890210,35467550,20081590,-17499920,39770510,-1850586
2026-01-14 17:06:05.971,-36926300,28824610,35412310,66084100,-10443120,27954100,-33618160
2026-01-14 17:06:05.981,9072757,-923588,65039660,19394510,-8319092,44702150,-44702150
2026-01-14 17:06:05.991,-37824000,28685640,35292330,65600720,-13476560,51953120,-5263672
2026-01-14 17:06:06.001,8387398,-29875090,36260800,18750580,-2849121,6743164,-5019531
2026-01-14 17:06:06.011,8083566,-1234332,64953350,18467470,-35131840,5991211,-6176758
2026-01-14 17:06:06.021,7796994,-1303380,64901560,18201610,-3972168,48535160,-6665039
2026-01-14 17:06:06.031,-39377700,-1363804,64841140,64858400,-4309082,44360350,-6484375
2026-01-14 17:06:06.041,7285136,-1415598,64772090,17729460,-40014650,30737300,-76464850
2026-01-14 17:06:06.051,-40025080,28300670,34917720,64608080,-38891600,121521000,-81689460
2026-01-14 17:06:06.061,11577410,-1536438,64599450,12625810,-3305664,-30960080,-8305664
2026-01-14 17:06:06.071,-4059474,-1596858,64504500,6443545,-23864750,-60028080,-8491211
2026-01-14 17:06:06.081,-40853710,-1674546,64409560,64366400,-12561040,4058838,-7861328
2026-01-14 17:06:06.091,-4110402,27969210,34575900,6430599,-36315920,125,-80322260
2026-01-14 17:06:06.101,6191504,-1847180,64202400,16751490,44784540,11975100,-7573242
2026-01-14 17:06:06.111,6062028,-1942128,64090180,16639280,8123779,6061554,-6328125
2026-01-14 17:06:06.121,5949817,-2037076,63995240,16544330,16552730,-7110596,-5336914
2026-01-14 17:06:06.131,5839329,-29937240,36112340,16447650,27392580,-7507324,-5073242
2026-01-14 17:06:06.141,-5300881,-2270132,63813970,5322981,36132810,-11968990,-5
2026-01-14 17:06:06.151,-52092160,27362410,33974280,54284600,3798828,-3729248,-40551760
2026-01-14 17:06:06.161,-52161210,-30020970,36132190,54336390,38745120,-17913820,-26293940
2026-01-14 17:06:06.171,-52227670,-2649924,63555020,54390770,3408203,-6137085,-23144530
2026-01-14 17:06:06.181,-42605940,-30075350,36146870,64133340,28027340,-8312988,-14770510
2026-01-14 17:06:06.191,-52348510,26950670,33574630,54494350,24658200,-12878420,-18566900
2026-01-14 17:06:06.201,5356820,-2943400,63313330,16049740,28466800,-11529540,-16540530
2026-01-14 17:06:06.211,-42821740,-30124550,36149460,64193760,35424800,-35858150,-1965332
2026-01-14 17:06:06.221,5332652,-3081506,63192490,16039380,34155270,-3604126,-25439450
2026-01-14 17:06:06.231,-52501290,-3159196,63149330,54635040,26049800,13999940,-29248050
2026-01-14 17:06:06.241,5292082,26617490,33251800,16010900,21057130,17858890,-2915039
2026-01-14 17:06:06.251,-4297708,-3314562,63045750,6426282,15490720,3059082,-30004880
2026-01-14 17:06:06.261,-43020260,-3374986,63002600,64288710,-6713867,3720703,-19360350
2026-01-14 17:06:06.271,-4303752,-30203090,36157220,6432323,-52246100,31176760,-28393560
2026-01-14 17:06:06.281,5263597,26418970,33053270,16004850,-22735600,43701170,-31274410
2026-01-14 17:06:06.291,-43132470,-3469936,62855860,64349130,-11468510,6582031,-18005370
2026-01-14 17:06:06.301,-43201540,2932695,2998991,64349140,-22839360,8876953,-3555298
2026-01-14 17:06:06.311,5157427,26320560,32944510,15921120,-4609375,10263670,2310791
2026-01-14 17:06:06.321,5102185,-3487200,62700480,15872790,-6948242,10351560,40063480
2026-01-14 17:06:06.331,-43451850,-30082250,36001860,64340500,-8178711,9008789,54833980
2026-01-14 17:06:06.341,4996877,-337499,3,6257101,15788200,-93847660,7285156,67285150
2026-01-14 17:06:06.351,9774681,-328867,3,6248469,10855020,-11044920,7192383,80566410
2026-01-14 17:06:06.361,-43857540,-3167826,62381110,64331870,-12060550,8886719,9921875
2026-01-14 17:06:06.371,4749150,-29665340,35590120,15587080,-11503910,97998050,9716797
2026-01-14 17:06:06.381,-44220060,-2813928,62113530,64366400,-11210940,6713867,9511719
2026-01-14 17:06:06.391,4520410,-2615396,61949530,15401500,-10234380,58740230,10908200
2026-01-14 17:06:06.401,-44703440,-2399608,61785530,64366400,-8408203,4897461,11328130
2026-01-14 17:06:06.411,4209668,-217519,6161289,15142550,-7163086,34472660,12001950
2026-01-14 17:06:06.421,4031858,-1942124,61414360,14992360,-62060550,12097170,12480470
2026-01-14 17:06:06.431,3844550,-28468130,34422260,14834400,-52441410,-52490230,12705080
2026-01-14 17:06:06.441,-4594640,-138970,6100004,6426282,-36279300,-15368650,11054690
2026-01-14 17:06:06.451,3432819,-27932960,33904350,14486540,-22045900,-26611330,9291992
2026-01-14 17:06:06.461,31919930,26835870,32964360,142785200,16647340,-29516600,8041992
2026-01-14 17:06:06.471,2943404,-422952,60326780,14061000,29077150,-37426760,7998047
2026-01-14 17:06:06.481,2668915,-27115540,33116280,13817580,52246100,-6044922,64746100
2026-01-14 17:06:06.491,-4791440,181266,59929720,6384850,6582031,-5410156,62060550
2026-01-14 17:06:06.501,2079373,466114,59731180,13285010,7109375,-5625,5283203
2026-01-14 17:06:06.511,-48768960,-26393080,32423160,63546380,7104492,-60009770,359375
2026-01-14 17:06:06.521,-4920053,27276960,33110240,6339103,79785150,-51708980,1730957
2026-01-14 17:06:06.531,-49614860,-25918330,31965680,63235640,46679690,-8227539,19445800
2026-01-14 17:06:06.541,8717988,-25687870,31747300,121792900,5444336,-6010742,-122802700
2026-01-14 17:06:06.551,-50391710,-25466030,31537550,62907640,64990230,-54589840,-37817380
2026-01-14 17:06:06.561,-56136950,2114756,58738550,57335040,80615230,-40527340,-5371094
2026-01-14 17:06:06.571,-51090880,2339182,58617700,62553740,8417969,-43603520,-78515620
2026-01-14 17:06:06.581,-51392990,2546344,58531390,62372480,74902340,-21484380,-88623050
2026-01-14 17:06:06.591,-428128,5,2736244,58462330,10958780,69873050,-15844730,-10136720
2026-01-14 17:06:06.601,-5192813,2900244,58401910,6204448,5571289,-11029050,-11875
2026-01-14 17:06:06.611,-825186,-24585600,30726170,10578980,36938480,72021490,-12695310
2026-01-14 17:06:06.621,-983146,27998560,33510750,10426200,19506840,6402588,-13339840
2026-01-14 17:06:06.631,-52463320,3331826,58298340,61664690,6530762,-552063,-13173830
2026-01-14 17:06:06.641,-120236,7,3461302,58272430,1021386,-8166504,-7897949,-13544920
2026-01-14 17:06:06.651,-52661840,3573508,58263800,61517950,-2524414,-4840088,-11748050
2026-01-14 17:06:06.661,3814081,3685726,58272430,4955704,-33862300,-30471800,-10703130
2026-01-14 17:06:06.671,-1331002,3789302,58289700,10083520,-37329100,-35247800,-10859380
2026-01-14 17:06:06.681,-52670480,3866990,58315600,61440260,-56103520,-625,-9277344
2026-01-14 17:06:06.691,-52618690,-24092730,30321350,61440260,-5942383,-20373540,-82421870
2026-01-14 17:06:06.701,-52549630,3987832,58384650,61457520,-5385742,-24108890,-6845703
2026-01-14 17:06:06.711,-52463320,4039624,58436440,61492050,-6010742,-21606440,-53515620
2026-01-14 17:06:06.721,-11108960,-24070290,30326520,102777300,-7314453,-24987790,-47387700
2026-01-14 17:06:06.731,-52256160,410001,8,5853141,61578370,-6953125,-21118160,-30395510
2026-01-14 17:06:06.741,-52135320,-24098780,30367100,61630160,-7416992,-29370120,-12915040
2026-01-14 17:06:06.751,42738880,4108676,58626330,54108520,-64746100,-19628910,-38635260
2026-01-14 17:06:06.761,-735416,4108678,58678120,10627320,-515625,-14868160,7672119
2026-01-14 17:06:06.771,-56264700,4108674,58729920,57276340,-40429690,-19958500,14404300
2026-01-14 17:06:06.781,-51556990,4108676,58781710,61915000,-2998047,-1998291,20617680
2026-01-14 17:06:06.791,-361666,28734850,34207330,10978630,-34228520,-30786130,27978520
2026-01-14 17:06:06.801,-237370,5,410004,5887665,11096020,-3713379,-4321289,3371582
2026-01-14 17:06:06.811,-113074,5,410004,5892844,11213410,-32543940,-37402340,3305664
2026-01-14 17:06:06.821,25904,4091410,58971600,113221700,-43481440,-3005371,44799800
2026-01-14 17:06:06.831,127751,5,4100042,59014760,11438700,-35717770,-39135740,4074707
2026-01-14 17:06:06.841,234782,5,28844470,34339390,11538820,-20117190,-35009770,33569340
2026-01-14 17:06:06.851,333185,5,4125940,59109710,11630320,-7324219,-28881840,24194340
2026-01-14 17:06:06.861,-50383080,4117306,59170130,62519220,-69999700,-30297850,14880370
2026-01-14 17:06:06.871,-50270870,28896250,34408450,62562370,4083252,-27368160,51330570
2026-01-14 17:06:06.881,5757332,4039618,59247820,118538800,-41503900,-33569340,6318,092
2026-01-14 17:06:06.891,-50106860,3961934,59290980,62622800,-13549810,-26489260,8508301
2026-01-14 17:06:06.901,5729017,-24564880,30884990,6855966,-68725580,-24963380,7269287
2026-01-14 17:06:06.911,-50011920,3763406,59368660,62648700,-6317139,-34228520,9375
2026-01-14 17:06:06.921,704347,3633934,59411820,11966950,-13317870,-41064450,18737790
2026-01-14 17:06:06.931,714704,-24829010,31121500,11973860,-24719240,-49121100,25170900
2026-01-14 17:06:06.941,698304,-24930000,31210410,11955730,-28125,-4802246,26953120
