Timestamp,Rotation X,Rotation Y,Rotation Z,Rotation W,Acceleration X,Acceleration Y,Acceleration Z
2026-01-14 17:05:52.911,-32983360,9727894,-58704020,41525260,105651900,12878420,-3642578
2026-01-14 17:05:52.921,546382,5,9771058,-58695390,7995521,10827640,7763672,-36035160
2026-01-14 17:05:52.931,-3296524,-24093770,-24778770,4150885,1015625,1939392,-3544922
2026-01-14 17:05:52.941,5498376,-20974110,-27829380,79955200,64208980,-27236940,-2890625
2026-01-14 17:05:52.951,553289,3,31856920,-36730370,7995522,9692383,-20019530,-26611330
2026-01-14 17:05:52.961,5550168,31886260,-36752810,79955200,12976070,14701840,-24401860
2026-01-14 17:05:52.971,558466,8,10055900,-58634960,7995521,14501950,6793213,-203125
2026-01-14 17:05:52.981,5619220,10116320,-58626340,79955200,15319820,3829956,-20605470
2026-01-14 17:05:52.991,565373,5,31966540,-36810640,7995522,11566160,-18554690,-17980960
2026-01-14 17:05:53.001,569688,10237160,-58591810,7996384,50994870,-6304932,-1628418
2026-01-14 17:05:53.011,5731428,10288950,-58574540,79963830,637207,-3665161,-121398900
2026-01-14 17:05:53.021,5783220,10340740,-58557290,79963830,39031980,-58517460,-8935547
2026-01-14 17:05:53.031,39192980,32058900,-36873650,46605860,7972717,18548960,-7684326
2026-01-14 17:05:53.041,39221470,1043567,-5853141,46629170,-18997190,-44158940,-9753418
2026-01-14 17:05:53.051,592994,8,32099470,-36902140,7997249,21636960,-59692380,-64331060
2026-01-14 17:05:53.061,-32697640,32119320,-36916810,41293070,17175670,-33599860,-48461910
2026-01-14 17:05:53.071,-32669170,10573800,-58479590,41269760,21316530,12397770,-3326416
2026-01-14 17:05:53.081,-32640680,1061695,-5847095,41246460,31982420,-10635380,-41992190
2026-01-14 17:05:53.091,39353530,32171110,-36951340,46738790,-18188480,-55999760,-28121950
2026-01-14 17:05:53.101,616299,10694640,-58462330,7996384,-83618160,-6817627,-32440190
2026-01-14 17:05:53.111,620616,8,1072917,-5846233,7995520,-62805180,-6213379,-45135500
2026-01-14 17:05:53.121,-36426360,10763700,-58462330,37288140,1373291,2784729,20751950
2026-01-14 17:05:53.131,-32538820,-20369030,-27295080,41158410,9750366,61950680,28213500
2026-01-14 17:05:53.141,3941481,34409390,-34885690,4678111,-36376950,33359530,34454340
2026-01-14 17:05:53.151,6283852,10875910,-58470960,79929300,-10424810,-41656500,4751587
2026-01-14 17:05:53.161,39426030,32321300,-37077360,46787130,-9637451,-4675293,54992680
2026-01-14 17:05:53.171,-32487030,32349790,-37100660,41106620,-32226560,-3439331,6188965
2026-01-14 17:05:53.181,-32487030,32378270,-37123970,41106620,24032590,15701290,4977417
2026-01-14 17:05:53.191,-36365940,-20224880,-27180280,37227720,29129030,-12016300,10107420
2026-01-14 17:05:53.201,-3247928,-20196390,-27156980,4109712,16845700,-62286380,9197998
2026-01-14 17:05:53.211,629247,5,-20176540,-27142300,7986887,-27572630,-9729004,9881592
2026-01-14 17:05:53.221,39393240,32481850,-37210280,46750880,-7385254,-12841800,9259033
2026-01-14 17:05:53.231,-32490490,-23284890,-23982160,41103170,45776370,-9661865,9527588
2026-01-14 17:05:53.241,6249328,11255700,-58505490,79842990,75683590,-3237915,9753418
2026-01-14 17:05:53.251,623205,8,-20127340,-27105180,7984298,6896973,-22640230,12200930
2026-01-14 17:05:53.261,622341,8,32537100,-37258620,7983437,38726810,-29586790,11975100
2026-01-14 17:05:53.271,39338850,11290220,-58522750,46701670,3622055,-496521,10003660
2026-01-14 17:05:53.281,-32522420,-20124750,-27107770,41123020,-7461548,-4055786,11022950
2026-01-14 17:05:53.291,-32523290,-20133380,-27116400,41122160,23880000,-11663440,9838867
2026-01-14 17:05:53.301,42617420,11298860,-58548650,43354050,43823240,61950680,10083010
2026-01-14 17:05:53.311,613709,8,11290230,-58557280,7981711,19546510,8807373,9118652
2026-01-14 17:05:53.321,6111224,11290230,-58557280,79808460,43563840,58776860,61187740
2026-01-14 17:05:53.331,-32553490,32568170,-37296600,41143740,13641360,31204220,61340330
2026-01-14 17:05:53.341,-32563000,11281600,-58583180,41151510,4234314,16586300,435791
2026-01-14 17:05:53.351,39238730,11281600,-58583180,46611910,39642340,4916382,309906
2026-01-14 17:05:53.361,604214,5,11272970,-58591810,7979121,12451170,9698486,27618410
2026-01-14 17:05:53.371,-32592340,11281600,-58600440,41173950,10626220,10070800,27709960
2026-01-14 17:05:53.381,39210240,11281600,-58600440,46588600,56915280,64819340,32806400
2026-01-14 17:05:53.391,598173,3,32574210,-37307820,7978259,22857670,4269409,2897644
2026-01-14 17:05:53.401,5964488,32574210,-37307830,79782570,52520750,592041,13496400
2026-01-14 17:05:53.411,593857,5,32574210,-37307820,7979122,8276367,6311035,4798889
2026-01-14 17:05:53.421,593856,8,11264340,-58617700,7979121,13305660,76416020,-29449460
2026-01-14 17:05:53.431,-32657950,11255700,-58609070,41229190,14477540,8087158,-31204220
2026-01-14 17:05:53.441,42478110,11255700,-58609070,43217150,1508789,41656500,-26321410
2026-01-14 17:05:53.451,39151550,11255700,-58609070,46543720,11260990,-12504580,-18066410
2026-01-14 17:05:53.461,39142920,32565580,-37299200,46535080,7531738,24353030,-57250980
2026-01-14 17:05:53.471,-32686430,32565580,-37299190,41252500,7800293,7366943,-83618160
2026-01-14 17:05:53.481,584362,8,32556950,-37290560,7981711,6365967,8685303,-6945801
2026-01-14 17:05:53.491,-32713190,11264330,-58583180,41277530,24291990,6726074,-8312988
2026-01-14 17:05:53.501,39112700,11264330,-58583180,46513500,30395510,6854248,-8093262
2026-01-14 17:05:53.511,578321,-20167910,-27150930,7982572,703125,55267340,-9307861
2026-01-14 17:05:53.521,575730,11247070,-58565910,7983436,9277344,53894040,-108947800
2026-01-14 17:05:53.531,5731432,11238440,-58557280,79842990,6896973,72387700,-12695310
2026-01-14 17:05:53.541,42407850,11238440,-58557280,43149310,35369870,8538818,-140625
2026-01-14 17:05:53.551,-32813310,-20170500,-27148340,41367300,4207611,29800420,-13391110
2026-01-14 17:05:53.561,39041920,-20170500,-27148340,46463440,-1550293,35827640,-12524410
2026-01-14 17:05:53.571,561921,3,-20161870,-27139710,7986888,982,2845,53466800,-105529800
2026-01-14 17:05:53.581,-32868550,32516380,-37244810,41415640,59814450,12225340,-94055180
2026-01-14 17:05:53.591,39010850,-20144600,-27122450,46442720,37353520,10827640,-9509277
2026-01-14 17:05:53.601,-36740810,-20135970,-27113810,37595170,-51361080,5807495,-6939697
2026-01-14 17:05:53.611,-36749450,11281600,-58514120,37603800,-8728027,16845700,-9173584
2026-01-14 17:05:53.621,-32905670,32537100,-37258620,41447580,-9503174,-5962372,-947876
2026-01-14 17:05:53.631,552425,5,32545720,-37267250,7989480,-6088257,4494,19,-9008789
2026-01-14 17:05:53.641,552424,8,11307490,-58505490,7989479,-10795590,22567750,-11785890
2026-01-14 17:05:53.651,552424,8,11316120,-58496860,7989479,-54626460,57922360,-14025880
2026-01-14 17:05:53.661,552427,1133338,-5849686,7989478,-9680176,26000980,-10858150
2026-01-14 17:05:53.671,552427,1133338,-5849686,7989478,-9906006,-63056940,-12036130
2026-01-14 17:05:53.681,552424,8,11350650,-58496860,7989479,-9710693,11375430,-122802700
2026-01-14 17:05:53.691,38982360,11367910,-58496860,46419420,-8972168,-76942450,-11975100
2026-01-14 17:05:53.701,38982360,11385180,-58496860,46419420,-7067871,18371580,-92041020
2026-01-14 17:05:53.711,38973740,1140242,-5849688,46410780,-9515381,5609131,-73913580
2026-01-14 17:05:53.721,42320320,11428330,-58505490,43064200,-11401370,2798462,-6921387
2026-01-14 17:05:53.751,5463852,32640670,-37344940,79868880,-637207,11701580,2620697
2026-01-14 17:05:53.761,5463848,11488760,-58514120,79868880,-18661500,4928589,459671
2026-01-14 17:05:53.771,-32936740,-20003040,-27005060,41468290,-16281130,4638672,15945440
2026-01-14 17:05:53.781,-32937610,32669160,-37368250,41467420,-59692380,16342160,74310300
2026-01-14 17:05:53.791,-32937610,32677790,-37376880,41467420,-8984375,-40740970,3,08156
2026-01-14 17:05:53.801,5437952,11557810,-58531390,79842990,-7055664,-28182980,3859,997
2026-01-14 17:05:53.851,-3296005,1163550,-5855728,4147951,-45684820,-46661380,5609131
2026-01-14 17:05:53.861,536888,3,32758930,-37451110,7980848,-6210327,-48095700,6213379
2026-01-14 17:05:53.871,536887,5,11661390,-58565910,7980847,-42297360,-51208500,5822754
2026-01-14 17:05:53.881,5351632,11661390,-58565910,79808460,-10864260,-36376950,6323242
2026-01-14 17:05:53.891,-32971270,-19940030,-26964490,41485550,-15716550,-28579710,6903076
2026-01-14 17:05:53.901,532573,-19940030,-26964490,7979982,15914920,16113280,6311035
2026-01-14 17:05:53.931,529982,5,11678660,-58583180,7979121,-46295170,-22247310,66345220
2026-01-14 17:05:53.941,-33000620,32784820,-37477000,41508000,-3451538,1878357,7458496
2026-01-14 17:05:53.951,-33001480,32793460,-37485640,41507140,-72387700,39733890,6707764
2026-01-14 17:05:53.961,5256692,32793460,-37485640,79782560,-5319214,26611330,10498050
2026-01-14 17:05:53.971,5256688,11670020,-58609070,79782560,-53863520,8590698,10449220
2026-01-14 17:05:53.981,-33011840,11670020,-58609070,41514040,-4071045,-15136720,119506800
2026-01-14 17:05:53.991,523940,11661390,-58617700,7978257,-22735600,3900528,8538818
2026-01-14 17:05:54.001,523940,11661390,-58617700,7978257,37136080,49972540,8514404
2026-01-14 17:05:54.011,523940,11644130,-58617700,7978257,11199950,14503480,8074951
2026-01-14 17:05:54.021,-33011840,-19991820,-27016280,41514040,31143190,8192,063,6506348
2026-01-14 17:05:54.031,-33011840,-20000450,-27024910,41514040,-3271103,-18600460,43914800
2026-01-14 17:05:54.041,-33012700,11583700,-58643600,41513170,-30334470,-28274540,24017330
2026-01-14 17:05:54.051,-33012700,11575070,-58652230,41513170,-907135,-3414917,13748170
2026-01-14 17:05:54.061,5230796,11557810,-58669500,79756670,-49438480,154800400,-28572080
2026-01-14 17:05:54.071,-33014430,11549180,-58678120,41511440,-49743650,31051640,23223880
2026-01-14 17:05:54.081,-3302395,11549180,-58678120,4151922,39520260,10650640,3050232
2026-01-14 17:05:54.091,38739810,11540550,-58686760,46195860,-14755250,-17807010,6359863
2026-01-14 17:05:54.101,5170372,32755480,-37471830,79748050,-11520390,-24993900,52978520
2026-01-14 17:05:54.111,515308,5,11514650,-58695380,7974805,-3730774,-10124210,6021118
2026-01-14 17:05:54.121,513583,-20089360,-27108640,7974803,-90408330,-18753050,57037350
2026-01-14 17:05:54.131,-33070540,11471490,-58704020,41558920,9086609,-158844,37261960
2026-01-14 17:05:54.141,5118580,11436960,-58704020,79748040,-8430481,-181427,18478390
2026-01-14 17:05:54.151,5109952,-20153240,-27165610,79756670,182724,-22583010,8460999
2026-01-14 17:05:54.161,5109948,11367910,-58721290,79756670,22201540,21011350,1965332
2026-01-14 17:05:54.171,5109948,11324750,-58729920,79756670,-9277344,8294678,-75302130
2026-01-14 17:05:54.181,5118584,32645850,-37391550,79748040,-7409668,9429932,-3338623
2026-01-14 17:05:54.191,38702700,-20244730,-27246750,46163920,-5331421,80444340,-53497310
2026-01-14 17:05:54.201,38702700,11238440,-58764440,46163920,-16311650,703125,-7537842
2026-01-14 17:05:54.211,38703560,11229810,-58773070,46163060,-31585690,52978520,-680542
2026-01-14 17:05:54.221,38703560,32614780,-37370840,46163060,24,76573,6347656,-7672119
2026-01-14 17:05:54.231,38703560,11203910,-58781700,46163060,12939450,5999756,-7562256
2026-01-14 17:05:54.241,38703560,11186650,-58781700,46163060,-11711120,4031372,-10028080
2026-01-14 17:05:54.251,38703560,11178020,-58790340,46163060,15220640,16799930,-10076900
2026-01-14 17:05:54.261,5144476,3259403,-3735703,79722140,128,3884,2532959,-9680176
2026-01-14 17:05:54.271,5144476,-20325870,-27320980,79722140,-10528560,39764400,-68115230
2026-01-14 17:05:54.281,5144472,11134860,-58798970,79722140,-2609253,6506348,-8520508
2026-01-14 17:05:54.291,5144476,32574210,-37342350,79722140,13763430,6829834,-7531738
2026-01-14 17:05:54.301,5144476,-20354360,-27344280,79722140,5279541,47027590,-95336910
2026-01-14 17:05:54.311,-33044650,11083070,-58798970,41533030,7067871,2420044,-11663820
2026-01-14 17:05:54.321,-33044640,32554360,-37327680,41533030,725708,2079773,-111084000
2026-01-14 17:05:54.331,-33044640,32545730,-37319050,41533030,4949951,32928470,-8227539
2026-01-14 17:05:54.341,-33044650,11048540,-58798970,41533030,39154050,3994751,-99975580
2026-01-14 17:05:54.351,-33043780,11048540,-58798970,41533890,37384030,3564453,-8123779
2026-01-14 17:05:54.361,38731180,11048540,-58798970,46187230,24795530,56671140,-9375
2026-01-14 17:05:54.371,38732050,-20392330,-27375360,46186360,27832030,5822754,-11590580
2026-01-14 17:05:54.381,38740680,11014010,-58798970,46194990,4751587,36956790,-12915040
2026-01-14 17:05:54.391,38740680,32507750,-37287970,46194990,38482660,4574585,-14697270
2026-01-14 17:05:54.401,-3302395,10988120,-58807600,4151922,33813480,2935791,-15991210
2026-01-14 17:05:54.411,-3302394,-20420820,-27398660,4151921,55633540,17211910,-16760250
2026-01-14 17:05:54.421,-3302395,10962230,-58798970,4151922,21911620,3944397,-16564940
2026-01-14 17:05:54.431,38740680,10962220,-58798970,46194990,13595580,25817870,-16479490
2026-01-14 17:05:54.441,38740680,10962220,-58798970,46194990,19311900,45898440,-13146970
2026-01-14 17:05:54.451,38740680,10962220,-58798970,46194990,-10505680,50811770,-10809330
2026-01-14 17:05:54.461,38740680,10962220,-58798970,46194990,1908,541,3765869,-10632320
2026-01-14 17:05:54.471,-3302395,10962230,-58798970,4151922,3692627,59692380,-1015625
2026-01-14 17:05:54.481,-3302395,10953590,-58790340,4151922,4321289,6677246,-925293
2026-01-14 17:05:54.491,521351,10953590,-58790340,7975668,25985720,592041,-11187740
2026-01-14 17:05:54.501,-33014430,10953590,-58790340,41511440,-11940000,4144287,-14416500
2026-01-14 17:05:54.511,5230796,10953590,-58790340,79756670,6399,155,42785640,-1418457
2026-01-14 17:05:54.521,-33004080,10953590,-58790340,41504540,1361084,28778080,-12780760
2026-01-14 17:05:54.531,525666,5,10953590,-58790340,7974805,2746582,45776370,-118774400
2026-01-14 17:05:54.541,527392,8,10953590,-58790340,7974805,2603531,625,-14123540
2026-01-14 17:05:54.551,527392,8,10970860,-58790340,7974805,-48736570,30700680,-14208980
2026-01-14 17:05:54.561,5291212,10970850,-58790340,79748040,-29510500,8483887,-14685060
2026-01-14 17:05:54.571,5291216,1098809,-5879034,79748040,-15792850,17608640,-13537600
2026-01-14 17:05:54.581,5291216,-20403560,-27381400,79748040,30044560,52825930,-13012700
2026-01-14 17:05:54.591,5291212,11014010,-58781700,79748040,3741455,8001709,-99731450
2026-01-14 17:05:54.601,5291216,32519830,-37293150,79748040,4906,654,36895750,-9173584
2026-01-14 17:05:54.611,5291216,-20366440,-27349460,79748040,-22354130,23361210,-7086182
2026-01-14 17:05:54.621,5291212,11074440,-58773070,79748040,-12565610,13908390,-5343628
2026-01-14 17:05:54.651,-32975590,11108960,-58755810,41481240,22583010,40893560,-61065670
2026-01-14 17:05:54.661,530846,5,34702870,-35179170,7974806,-21438600,29296880,-657959
2026-01-14 17:05:54.671,530845,5,11134860,-58747180,7974805,-15060430,22449490,-46325680
2026-01-14 17:05:54.681,531710,-20302560,-27292490,7973940,-127334600,12634280,-5029297
2026-01-14 17:05:54.691,532571,8,11169390,-58747180,7974805,3878784,50231940,-53985600
2026-01-14 17:05:54.701,531708,5,11186650,-58729910,7975668,513916,8288574,-35095220
2026-01-14 17:05:54.711,531708,5,11203910,-58729910,7975668,3274536,61767580,-33233640
2026-01-14 17:05:54.721,531709,8,-20248180,-27243290,7975666,-10673520,14808660,-48583980
2026-01-14 17:05:54.731,531708,5,11238440,-58729910,7975668,-31021120,2079773,-21911620
2026-01-14 17:05:54.741,531708,5,11247070,-58721280,7975668,-6690979,22583010,-995636
2026-01-14 17:05:54.751,531709,3,32619960,-37365660,7975669,101623500,66223140,-11421200
2026-01-14 17:05:54.761,-32975590,11272960,-58712650,41481240,15075680,55480960,-25234220
2026-01-14 17:05:54.771,529119,3,11281600,-58704020,7976531,1146698,45959470,15007020
2026-01-14 17:05:54.781,529119,3,11290230,-58695380,7976531,-71258540,2746582,14945980
2026-01-14 17:05:54.871,-33000620,11350650,-58652230,41508000,-4321289,61187740,-38833620
2026-01-14 17:05:54.881,-33000620,11350650,-58652230,41508000,-42175290,26062010,9360,313
2026-01-14 17:05:54.891,-33010110,32637220,-37365660,41515760,-692749,-7633209,1838684
2026-01-14 17:05:54.901,525667,3,32637220,-37365660,7979985,-41656500,4119873,3440857
2026-01-14 17:05:54.911,38791610,32637220,-37365660,46247650,-23376460,18173220,9880066
2026-01-14 17:05:54.921,38791610,32637220,-37365660,46247650,107803300,35491940,-23174290
2026-01-14 17:05:54.931,5230792,32628590,-37357020,79808460,-25894160,1739502,-4270,077
2026-01-14 17:05:54.941,5230792,32628590,-37357020,79808460,-6695557,1575,947,6187439
2026-01-14 17:05:54.951,5230788,11342020,-58643600,79808460,-57556150,-22888180,12557980
2026-01-14 17:05:54.961,38791600,11342020,-58643600,46247650,-3640747,-66871640,19388200
2026-01-14 17:05:54.991,525667,5,-20161870,-27156970,7981708,-2897644,18051150,-84472660
2026-01-14 17:05:55.001,526530,8,-20161870,-27156970,7980845,-6329346,17074580,-10510250
2026-01-14 17:05:55.011,526529,5,11324760,-58643600,7980847,-52886960,18341060,-1184082
2026-01-14 17:05:55.021,524803,3,11324760,-58643600,7980847,-3463745,3665161,-8673096
2026-01-14 17:05:55.031,5230788,11333380,-58634970,79808460,-2293396,5291748,-46569820
2026-01-14 17:05:55.041,520487,3,11333390,-58634960,7981710,1776123,3604126,-15991210
2026-01-14 17:05:55.051,-33073120,1133337,-5861769,41573600,5895996,18630980,-7858276
2026-01-14 17:05:55.061,517036,-20135970,-27131080,7983435,30548100,-646,5912,-3375244
2026-01-14 17:05:55.071,38759670,-20127340,-27122450,46227800,-6034851,-16052250,-47668460
2026-01-14 17:05:55.081,5144480,-20135970,-27131080,79842990,-19744870,-37506100,-43426510
2026-01-14 17:05:55.091,512719,5,11333390,-58600440,7984300,-7751465,8720398,-51940920
2026-01-14 17:05:55.101,512719,5,11333390,-58600440,7984300,-60539250,47851560,-57739260
2026-01-14 17:05:55.111,511856,11324760,-58591800,7985163,-20751950,8129883,-4067993
2026-01-14 17:05:55.121,511856,8,32594060,-37322500,7985164,-5102539,12249760,-22079470
2026-01-14 17:05:55.131,-36950380,-20155820,-27145750,37799910,-61584470,16369630,-11871340
2026-01-14 17:05:55.141,-33126640,11290230,-58591810,41623660,-20462040,12286380,-5874634
2026-01-14 17:05:55.151,-33126640,11290230,-58591810,41623660,-26016240,10644530,-21347050
2026-01-14 17:05:55.161,5118588,32568170,-37296600,79868880,71144100,67871100,-16708370
2026-01-14 17:05:55.171,-33124920,11290230,-58557280,41625380,60028080,48034670,-16098020
2026-01-14 17:05:55.181,-33124050,-20133380,-27116400,41626250,8276367,4727173,-32348630
2026-01-14 17:05:55.191,-33122330,11281590,-58531380,41627970,76293940,5340576,-51208500
2026-01-14 17:05:55.201,-33121460,11281600,-58514120,41628840,61828610,6530762,-73913580
2026-01-14 17:05:55.211,-33120600,1128158,-5849685,41629700,5065918,4824829,-6958008
2026-01-14 17:05:55.221,5179008,1128156,-5849686,79929300,21499630,-2336502,-104003900
2026-01-14 17:05:55.231,-33118870,11281600,-58479590,41631420,49858090,-16662600,-13085940
2026-01-14 17:05:55.241,517898,11272970,-58470960,7994657,-49591060,-9803772,-12347410
2026-01-14 17:05:55.251,517899,5,-23241730,-23939000,7994656,21072390,-18510820,-11578370
2026-01-14 17:05:55.261,517898,8,32496530,-37212870,7996385,15052800,15022280,-10620120
2026-01-14 17:05:55.271,-33152540,11272960,-58419170,41666820,35369870,31799320,-8514404
2026-01-14 17:05:55.281,38838220,11272960,-58401910,46321880,9246826,7220459,-4736328
2026-01-14 17:05:55.291,38837350,-20072960,-27038720,46322740,16821290,14172360,-16021730
2026-01-14 17:05:55.301,-33176710,11281600,-58358750,41694440,19763180,19641110,-11901860
2026-01-14 17:05:55.311,38863250,11290230,-58350120,46348640,18481440,28320310,14854430
2026-01-14 17:05:55.321,-33137860,11290230,-58350120,41664230,-36712650,38110350,6585693
2026-01-14 17:05:55.331,534299,32468040,-37172310,8002427,187397,58691410,-10321050
2026-01-14 17:05:55.341,5515644,32462000,-37161090,80041520,25805660,7192383,16021730
2026-01-14 17:05:55.351,39184340,11324760,-58263800,46614490,4423828,72558590,6890869
2026-01-14 17:05:55.361,6076696,11307490,-58212020,80067410,6621094,9897461,-22155760
2026-01-14 17:05:55.371,651690,32364460,-37051460,8007606,97216800,11191410,4103,184
2026-01-14 17:05:55.381,39949980,11195280,-58099800,47247200,12148440,13544920,17181400
2026-01-14 17:05:55.391,-31700690,11083070,-58039380,40494630,14658200,17695310,7247925
2026-01-14 17:05:55.401,40877880,-20092810,-26984340,47993840,15585940,19980470,-3414917
2026-01-14 17:05:55.411,10055900,10720540,-57970330,79920670,14335940,22285160,-26757810
2026-01-14 17:05:55.421,1150600,10470220,-57944430,7978258,14208980,253125,-56640620
2026-01-14 17:05:55.431,-28559620,10194010,-57909900,37835220,14267580,28046880,-9213867
2026-01-14 17:05:55.441,15079530,31480580,-36278070,79316460,12734380,28398440,-11552730
2026-01-14 17:05:55.451,-26120310,9607056,-57771800,35734270,11933590,27460940,-14111330
2026-01-14 17:05:55.461,-2472545,31086110,-35912940,3452240,12119140,27167970,-16738280
2026-01-14 17:05:55.471,-23250280,30896220,-35723050,33235400,13212890,234375,-20976560
2026-01-14 17:05:55.481,2404783,-20770400,-27394340,7766780,13476560,20957030,-26816410
2026-01-14 17:05:55.491,49229030,30531090,-35328580,54299280,15683590,19902340,-2984375
2026-01-14 17:05:55.501,50245840,8916518,-56580620,55026060,18457030,20117190,-31347660
2026-01-14 17:05:55.511,30970450,8959676,-56192200,75941470,18857420,19765620,-33183590
2026-01-14 17:05:55.521,-15707920,-20097990,-26582100,26552760,19453120,21289060,-32148440
2026-01-14 17:05:55.531,35096390,9304944,-55259980,74784820,19121090,25507810,-29082030
2026-01-14 17:05:55.541,-18096910,9615686,-54673020,19209190,17314450,28261720,-23632810
2026-01-14 17:05:55.551,-11913440,29825030,-34222000,23165690,14189450,29570310,-19892580
2026-01-14 17:05:55.561,40378970,10539270,-53266060,73386500,10976560,31289060,-15107420
2026-01-14 17:05:55.571,41941300,29723170,-33857740,72998070,11787110,29101560,-64990230
2026-01-14 17:05:55.581,4344320,11747710,-51591520,7263555,15507810,26699220,9803772
2026-01-14 17:05:55.591,44910600,-18795040,-19426020,72290270,16064450,25722660,68115230
2026-01-14 17:05:55.601,46395250,29585060,-33236270,71910480,10673830,26230470,11679690
2026-01-14 17:05:55.611,47923050,13862470,-48630860,71487520,19165040,26640620,16123050
2026-01-14 17:05:55.621,49537180,14544370,-47534630,70978260,-25073240,24277340,22792970
2026-01-14 17:05:55.631,59853760,29236340,-32359290,61766540,-803833,20078120,23574220
2026-01-14 17:05:55.641,-2159646,-11681250,-17787290,14430430,9918213,19121090,25390620
2026-01-14 17:05:55.651,-6939250,16357020,-44099220,6940486,58691410,16152340,25683590
2026-01-14 17:05:55.661,56839580,-10016200,-15999670,67853590,6274414,16503910,24765620
2026-01-14 17:05:55.671,22217930,17444610,-41734150,103355700,39770510,15039060,22519530
2026-01-14 17:05:55.681,37038520,-8330434,-14180980,89346460,22537230,12617190,22871090
2026-01-14 17:05:55.691,-5728844,18558100,-39222330,18439850,-16882320,7910156,2265625
2026-01-14 17:05:55.701,19335810,-6530724,-12234540,-6559210,-45288090,4025879,21777340
2026-01-14 17:05:55.711,7815977,-56114520,-112375800,5019316,24572750,24023440,21035160
2026-01-14 17:05:55.721,32251390,20284440,-35199970,-19366020,3557129,5629883,19228520
2026-01-14 17:05:55.731,43234330,-37729050,-92436600,-30307530,-39160160,24914550,1953125
2026-01-14 17:05:55.741,69519500,21406550,-32524150,60128240,-10429690,-4855957,20566410
2026-01-14 17:05:55.751,63208890,21950350,-31186240,-50211310,-10302730,-8520508,21777340
2026-01-14 17:05:55.761,71737840,-10608330,-62933540,58496850,-63183590,-14287110,21191410
2026-01-14 17:05:55.771,82221880,-177809,8,-5329200,-69177690,-40307620,-1921875,20820310
2026-01-14 17:05:55.781,7381807,-16022980,-21093220,5677914,-5913086,-19775390,16171880
2026-01-14 17:05:55.791,66289530,-7259241,-12248350,64394020,-11064450,-18251950,14111330
2026-01-14 17:05:55.801,16980230,-9630359,-14538330,-3908423,-16210940,-16220700,8745117
2026-01-14 17:05:55.811,76761470,31013600,-17202930,53939330,-22792970,-14238280,57128900
2026-01-14 17:05:55.821,13065420,38609480,-8743888,-11759280,-2671875,-15478520,37426760
2026-01-14 17:05:55.831,19981460,45834190,-604216,6,-6932096,-24316410,-16845700,14099120
2026-01-14 17:05:55.841,66596820,25774180,-19766540,63689680,-18349610,-18759770,-58807370
2026-01-14 17:05:55.851,80663000,59437700,14794690,49330020,-15117190,-20917970,-23339840
2026-01-14 17:05:55.861,17462650,26292080,-17505040,-16166350,-14580080,-18759770,-2775879
2026-01-14 17:05:55.871,66387930,21998680,-20987060,62793700,-18085940,-18017580,-6503906
2026-01-14 17:05:55.881,25553210,78064860,35873240,-12685110,-21777340,-17714840,-11210940
2026-01-14 17:05:55.891,26655470,27043040,-14406270,-13844340,-21699220,-17001950,-17509770
2026-01-14 17:05:55.901,8510831,27301990,-13491310,4236427,-20019530,-16494140,-20019530
2026-01-14 17:05:55.911,28806490,27560940,-12645410,-16130010,-19765620,-15800780,-20292970
2026-01-14 17:05:55.921,8655843,27819880,-11868550,3946403,-15195310,-15341800,-20078120
2026-01-14 17:05:55.931,87197180,10439150,6513458,38031160,-15703130,-13935550,-20214840
2026-01-14 17:05:55.941,31797360,28389580,-10470220,-19353940,-19365230,-11875,-23261720
2026-01-14 17:05:55.951,88276140,28760740,-9891904,35312180,-11298830,12636720,-38535160
2026-01-14 17:05:55.961,33364010,29528960,-9503475,-21101860,-30859380,-17958980,-23398440
2026-01-14 17:05:55.971,63642200,30055490,-9115052,58029880,-27597660,-20175780,-25214840
2026-01-14 17:05:55.981,34958280,3053024,-877842,8,-22891200,-19765620,-17138670,-29609380
2026-01-14 17:05:55.991,35793830,31013610,-8519463,-23833780,-18427730,-17832030,-29960940
2026-01-14 17:05:56.001,36643180,31479720,-8312305,-24797070,-16923830,-1703125,-27070310
2026-01-14 17:05:56.011,61798470,31937190,-8165567,55471460,-15917970,-1515625,-23964840
2026-01-14 17:05:56.021,38359160,32386040,-8061986,-26758190,-17509770,-11601560,-29453120
2026-01-14 17:05:56.031,39210240,32834890,-8010195,-27737020,-21738280,-54785160,-31679690
2026-01-14 17:05:56.041,60143780,33318260,-8044722,53276420,-24375,-101867700,-27714840
2026-01-14 17:05:56.051,40744960,33827530,-8139671,-29534140,-24902340,-37353520,-23066410
2026-01-14 17:05:56.061,91297220,22631390,-20026350,19516220,-26210940,-3227539,-24160160
2026-01-14 17:05:56.071,37137180,15352300,11008840,-36042160,-27167970,-22607420,-27089840
2026-01-14 17:05:56.081,9134900,35450290,-8847465,1685768,-27148440,-22497560,-25898440
2026-01-14 17:05:56.091,43211020,36037240,-9244526,-32523290,-2703125,-14477540,-26113280
2026-01-14 17:05:56.101,9121954,36650090,-9719266,1432860,-28007810,25756840,-28066410
2026-01-14 17:05:56.111,44191580,15886600,11130540,-33769700,-31679690,48242190,-27324220
2026-01-14 17:05:56.121,55389450,15967730,11083930,47500100,-34804690,71240230,-25058590
2026-01-14 17:05:56.131,9065847,38626740,-11592340,1093635,-36640620,49829100,-24941410
2026-01-14 17:05:56.141,90365010,16059230,10888850,9917796,-37558590,2746582,-25761720
2026-01-14 17:05:56.151,53531920,40042340,-13266890,45421600,-3734375,14465330,-27246090
2026-01-14 17:05:56.161,52856060,16017800,10515970,44681860,-39648440,25732420,-2609375
2026-01-14 17:05:56.171,8920834,29726630,-27104320,686219,5,-42109380,13635250,-25351560
2026-01-14 17:05:56.181,88733620,42260680,-16451980,5783222,-48125,14453130,-22519530
2026-01-14 17:05:56.191,46412510,42994370,-17686300,-37124830,-5703125,30395510,-20332030
2026-01-14 17:05:56.201,87628750,43719430,-19015580,3521725,-64804690,115600600,-14609380
2026-01-14 17:05:56.211,4677246,4442723,-2041391,-3783522,-68007810,-17956540,-62060550
2026-01-14 17:05:56.221,48022320,45135020,-21898560,39520120,-65195310,-7919922,-20239260
2026-01-14 17:05:56.231,85505370,45851460,-23443630,172633,5,-64335940,-13164060,13134770
2026-01-14 17:05:56.241,8465945,46567890,-25040490,-86314,69,-65429690,-18789060,52246100
2026-01-14 17:05:56.251,83735870,14004890,6607543,-1838548,-6890625,-23203120,5234375
2026-01-14 17:05:56.261,82743230,48026640,-28363690,-2710342,-82265620,-2125,37670900
2026-01-14 17:05:56.271,81647010,48768960,-30107290,-3513086,-106015600,-19462890,-2668457
2026-01-14 17:05:56.281,46189820,49502660,-31945830,-38573220,-126796900,-17548830,-10400390
2026-01-14 17:05:56.291,41242140,85776410,77362250,32817630,-147109400,-14384770,-21835940
2026-01-14 17:05:56.301,7765916,50944140,-36080400,-589540,9,-16078130,-15087890,-28632810
2026-01-14 17:05:56.311,7594145,45089860,-45076610,-662910,5,-16078130,-18359380,-17314450
2026-01-14 17:05:56.321,7390440,10456410,1092770,-719881,1,-148359400,-24355470,72314460
2026-01-14 17:05:56.331,7148753,9766740,21579,33,-752681,6,-133984400,-28945310,40976560
2026-01-14 17:05:56.341,6864770,91288590,-10323480,-758720,3,-11109380,-40898440,853125
2026-01-14 17:05:56.351,6528136,33198,7,33092,31,-741461,-60898440,-58671880,12125
2026-01-14 17:05:56.361,61466150,58117060,-52523740,-7069340,11708980,-77109380,145
2026-01-14 17:05:56.371,57305690,10524600,-960707,9,-6154386,6178125,975,18546880
2026-01-14 17:05:56.381,25497100,94439150,-19688860,18489910,184875,-38625,19046880
2026-01-14 17:05:56.391,26803080,8824160,-2281353,19445440,95375,9199219,2721875
2026-01-14 17:05:56.401,6182003,54572040,-54083480,-1512267,-31890620,-40585940,-17046880
2026-01-14 17:05:56.411,41091090,7358504,-3456988,-36386820,-4634375,42460940,-16640630
2026-01-14 17:05:56.421,62337950,28716720,17894320,-14570260,54375,-47851560,-26289060
2026-01-14 17:05:56.431,28551850,57547370,-50935510,21028490,24328120,44453120,1365625
2026-01-14 17:05:56.441,6230343,10213000,-683629,2,-996094,5,121171900,30234380,1121875
2026-01-14 17:05:56.451,61984050,61025940,-48510010,-6672282,-45898440,60546880,75
2026-01-14 17:05:56.461,61535210,13189200,2192443,-3409514,-71523440,-18339840,-30664060
2026-01-14 17:05:56.471,33350200,55971220,-54186200,27175100,-15888670,-303125,-4091797
2026-01-14 17:05:56.481,60810140,15332440,4313246,1596860,65771480,-1765625,9326172
2026-01-14 17:05:56.491,60568460,15799420,4778493,3185088,35986330,-33847660,59716800
2026-01-14 17:05:56.501,35157670,15910770,4891569,29528090,8227539,-43671880,49829100
2026-01-14 17:05:56.511,31159480,15758850,4750009,-24618400,18603520,-29980470,11875
2026-01-14 17:05:56.521,35859430,15493860,4514365,30293720,24902340,-8564453,20683590
2026-01-14 17:05:56.531,6143161,64383660,-44858810,567103,9,29355470,10748290,28300780
2026-01-14 17:05:56.541,36966870,15056230,4209667,31378730,28417970,45874020,32773440
2026-01-14 17:05:56.551,62916270,63382380,-44047440,6965767,19853520,6123047,33222660
2026-01-14 17:05:56.561,3155136,15148590,4531630,-2438188,17099610,23168940,33847660
2026-01-14 17:05:56.571,64754820,15370420,4896746,8959680,14248050,-703125,32695310
2026-01-14 17:05:56.581,65730200,15611250,5294667,10124950,9975586,-18544920,30332030
2026-01-14 17:05:56.591,6672285,15831350,5678779,1130750,44750980,-2859375,27460940
2026-01-14 17:05:56.601,4285625,60896460,-38920220,3733202,3227234,-34433590,23574220
2026-01-14 17:05:56.611,6870813,6018004,-3791032,1358626,-29956060,-35019530,21191410
2026-01-14 17:05:56.621,31701550,16030750,6394343,-23264950,-34887700,-36660160,22109380
2026-01-14 17:05:56.631,31694650,15977230,6516914,-23047430,-20019530,-35195310,20175780
2026-01-14 17:05:56.641,31597110,15886600,6607546,-22730650,-16796880,-31367190,1640625
2026-01-14 17:05:56.651,31374410,15794240,6699905,-22280080,-34594730,-296875,12089840
2026-01-14 17:05:56.661,31002380,15718280,6810390,-21668090,-7597656,-30039060,11259770
2026-01-14 17:05:56.671,30453410,15657860,6939866,-20870520,-13759770,-25820310,10673830
2026-01-14 17:05:56.681,29684330,15615560,7085741,-19844220,-20839840,-24902340,13173830
2026-01-14 17:05:56.691,74171980,15582760,7239382,26870400,-2765625,-21914060,14091800
2026-01-14 17:05:56.701,74171980,15542190,7383532,29546220,-34550780,-22949220,13310550
2026-01-14 17:05:56.711,73938930,51358460,-28398210,32455100,-39472660,-25351560,96875
2026-01-14 17:05:56.721,24415550,50434870,-27509140,-13512020,-425,-24179690,38012700
2026-01-14 17:05:56.731,22583050,15219370,7602778,-11425750,-43945310,-23632810,-6335449
2026-01-14 17:05:56.741,20588270,15020840,7576884,-9191006,-44882810,-25292970,-18701170
2026-01-14 17:05:56.751,18445890,47517370,-25264910,-6827653,-4546875,-25664060,-4477539
2026-01-14 17:05:56.761,16179210,46498830,-24712480,-4364172,-48046880,-24472660,-63378900
2026-01-14 17:05:56.771,60720380,45445760,-24315430,59156320,-49179690,-22871090,-7734375
2026-01-14 17:05:56.781,61192530,13573310,6728387,60134290,-47421880,-24238280,-8691406
2026-01-14 17:05:56.791,88345190,43261950,-23996060,34138270,-41757810,-27617190,-11152340
2026-01-14 17:05:56.801,15663900,33994990,-32192700,-3325783,-36367190,-36640620,-12451170
2026-01-14 17:05:56.811,-1883260,40922770,-24332690,3123114,-33691410,-43203120,-16806640
2026-01-14 17:05:56.821,-44712940,39697070,-24764270,57140820,-35605470,-48164060,-20820310
2026-01-14 17:05:56.831,61383290,38454100,-25385750,62912820,-39394530,-53164060,-22753910
2026-01-14 17:05:56.841,-3958488,37185250,-26188500,16360480,-42617190,-58789060,-215625
2026-01-14 17:05:56.851,49114230,43732810,43101830,74318720,-47773440,-59882810,-20742190
2026-01-14 17:05:56.861,46283040,34052820,27749970,76269470,-53828120,-53789060,-11943360
2026-01-14 17:05:56.871,43374160,48976120,-14104160,78021700,-5796875,-4921875,35083010
2026-01-14 17:05:56.881,4042212,35165440,-28087470,7955816,-59570310,-48945310,10566410
2026-01-14 17:05:56.891,-15792510,21242550,-42303840,27624810,-6046875,-47148440,13730470
2026-01-14 17:05:56.901,34500800,31736070,-32241890,81940490,-6109375,-4296875,18193360
2026-01-14 17:05:56.911,3154874,-8648936,-73179340,8278639,-59296880,-34921880,23457030
2026-01-14 17:05:56.921,-21806200,-2480744,-8999383,33004930,-53671880,-17636720,29433590
2026-01-14 17:05:56.931,-23624900,25454810,-40404870,34569860,-46875,45288090,3703125
2026-01-14 17:05:56.941,22675400,23996050,-42502370,84063870,-44101560,26933590,37734380
2026-01-14 17:05:56.951,-27045630,22450980,-44565340,37432980,-45546880,47109380,34765620
2026-01-14 17:05:56.961,-28708090,-9474126,-16213740,38791610,-48359380,64023440,32402340
2026-01-14 17:05:56.971,1351720,-11191830,-17948700,8410703,-41445310,85078130,2828125
2026-01-14 17:05:56.981,1022851,17599980,-49882450,8402935,-28300780,10765630,19765620
2026-01-14 17:05:56.991,682763,3,16115340,-51090880,8394303,-27050780,117421900,7651367
2026-01-14 17:05:57.001,-39822320,31555670,-35270750,40693940,-38769530,110625,4248047
2026-01-14 17:05:57.011,-146740,-16117930,-22759140,83684080,-49609380,99140620,66748050
2026-01-14 17:05:57.021,3562721,12878460,-53153850,4431934,-44882810,8546875,8881836
2026-01-14 17:05:57.031,-657734,5,-17439430,-24009870,8308849,-25253910,77148440,10244140
2026-01-14 17:05:57.041,-927043,3,30606190,-34856430,8265693,6328125,73085940,6582031
2026-01-14 17:05:57.051,30665750,30484480,-34840030,40027660,34355470,72382820,203125
2026-01-14 17:05:57.061,29530680,30411980,-34878010,39004810,50625,7265625,-32299800
2026-01-14 17:05:57.071,-14164580,9684734,-55587980,81111840,57773440,69101560,-9057617
2026-01-14 17:05:57.081,-14647950,30272140,-35000570,80628470,55898440,62578120,-14345700
2026-01-14 17:05:57.091,28040850,30162520,-35041150,37525340,49726560,58164060,-2375
2026-01-14 17:05:57.101,28103870,-24836000,-25486660,37514120,42617190,53828120,-31679690
2026-01-14 17:05:57.111,28323110,6508278,-58350120,37640140,37636720,48203120,-38359380
2026-01-14 17:05:57.121,28667510,5671008,-58911180,37882690,34140620,42890620,-45585940
2026-01-14 17:05:57.131,-4219422,488552,5,-5936866,4892174,29960940,36308590,-51523440
2026-01-14 17:05:57.141,-11022650,4134568,-59739820,79092030,29492190,25390620,-540625
2026-01-14 17:05:57.151,-10142220,3426772,-60033300,79022980,33027340,16767580,-58242190
2026-01-14 17:05:57.161,-9313580,-25592060,-31894900,78988450,38320310,11523440,-5671875
2026-01-14 17:05:57.171,30841840,28387850,-34209060,39592630,42421880,69140620,-56914060
2026-01-14 17:05:57.181,31230260,1691806,-60508040,39912000,43984380,21386720,-546875
2026-01-14 17:05:57.191,-721609,8,27964900,-33889680,7901436,44023440,-2532959,-55390620
2026-01-14 17:05:57.201,-666368,992642,-60568460,7904888,41796880,-1953125,-52304690
2026-01-14 17:05:57.211,-620619,27679190,-33657490,7910931,40976560,-21801760,-51289060
2026-01-14 17:05:57.221,-579188,3,656008,-60508040,7917836,36796880,-15136720,-47460940
2026-01-14 17:05:57.251,3309554,820010,-60274980,4151663,21621090,1821289,-43710940
2026-01-14 17:05:57.261,-449711,8,-26504420,-32622550,7952361,16982420,32495120,-44179690
2026-01-14 17:05:57.271,-421228,3,1303384,-60016030,7963583,12988280,59033200,-39296880
2026-01-14 17:05:57.281,-3927420,1665908,-59843400,79782570,1171875,9477539,-3671875
2026-01-14 17:05:57.291,33982900,2080234,-59636240,42338360,12236330,859375,-36054690
2026-01-14 17:05:57.301,-328869,3,2563608,-59411810,8011058,11464840,7714844,-33457030
2026-01-14 17:05:57.311,-29436,63,3081508,-59170130,802832,2,9951172,9980469,-29511720
2026-01-14 17:05:57.321,-258088,3,-24510500,-30766740,8045583,9501953,8461914,-26835940
2026-01-14 17:05:57.331,-37467520,4220888,-58686760,45310250,7163086,72558590,-25546880
2026-01-14 17:05:57.341,3538207,4842368,-58445070,4363225,13928220,72753900,-23613280
2026-01-14 17:05:57.351,-1303388,5498374,-58220640,80887420,-44067380,78564460,-22753910
2026-01-14 17:05:57.361,-36915950,6180278,-58004850,44929590,-90478510,76708980,-21621090
2026-01-14 17:05:57.371,-36716560,692258,3,-5779768,44783720,-12597660,7089844,-19970700
2026-01-14 17:05:57.381,-4,7690816,-57599170,81155010,-14248050,6894531,-19130860
2026-01-14 17:05:57.391,37113,5,8528094,-57400630,8121543,-15380860,5805664,-18662110
2026-01-14 17:05:57.401,40580520,9391260,-57210740,41385860,-17783200,5888672,-17431640
2026-01-14 17:05:57.411,3712394,10280330,-57012210,4515316,-19023440,5996094,-16767580
2026-01-14 17:05:57.421,37235320,31720540,-36279790,45248960,-19150390,64208980,-16210940
2026-01-14 17:05:57.431,125158,3,-18755760,-25628300,8133626,-19238280,96191410,-92529300
2026-01-14 17:05:57.441,122569,-21188600,-21883450,8136216,-17441410,11992190,-7116699
2026-01-14 17:05:57.451,-36011350,14311320,-55967780,44263230,-17871090,7553711,10888670
2026-01-14 17:05:57.461,37167120,15459330,-55631140,45213570,-19042970,41870120,32202150
2026-01-14 17:05:57.471,37062680,16607340,-55294510,45128120,-20136720,32958980,57910160
2026-01-14 17:05:57.481,36939250,-14966460,-22236060,45027130,-15683590,2286377,6904297
2026-01-14 17:05:57.491,30208,5,18860210,-54612600,8140533,-76708980,23327640,68652340
2026-01-14 17:05:57.501,3451,75,-13449010,-20870520,8137942,-30078120,36279300,73828130
2026-01-14 17:05:57.511,-267588,21026760,-53896180,81353530,14172360,5732422,86572260
2026-01-14 17:05:57.521,-61287,25,22114350,-53499120,8131902,5942383,62353520,88378900
2026-01-14 17:05:57.531,36023430,-11127090,-18755770,44251140,69970700,69189460,9892578
2026-01-14 17:05:57.541,-3734755,24306800,-52653210,4532666,6308594,94091800,12558590
2026-01-14 17:05:57.551,-37598710,-9498296,-17259890,45524310,6230469,11171880,15244140
2026-01-14 17:05:57.561,-246866,2655103,-5166921,8113774,76464850,12988280,17666020
2026-01-14 17:05:57.571,-305563,3,27664520,-51108140,8110323,10048830,13886720,19296880
2026-01-14 17:05:57.581,-3659828,-6895848,-14821450,81085950,10703130,12773440,20546880
2026-01-14 17:05:57.591,-427269,8,29822440,-49813400,8109460,10039060,97021490,23007810
2026-01-14 17:05:57.601,-487689,5,3079781,-4911423,8111185,9584961,4880371,24707030
2026-01-14 17:05:57.611,-5437956,-4359862,-12368330,81172270,10576170,-2155304,2609375
2026-01-14 17:05:57.621,-5955860,-36227140,-116380900,81241310,11884770,-4921875,27304690
2026-01-14 17:05:57.631,-40110540,33111100,-47042620,47604550,12949220,-8486328,27910160
2026-01-14 17:05:57.641,32941060,-2384070,-10390810,41757450,13300780,-10888670,28417970
2026-01-14 17:05:57.651,-40543840,34069220,-45860080,47999880,14121090,-11572270,28457030
2026-01-14 17:05:57.661,-40681940,-1520040,-9493977,48137980,14775390,-1234375,27558590
2026-01-14 17:05:57.671,-40771710,34543960,-44971020,48238110,14082030,-14111330,26699220
2026-01-14 17:05:57.681,-4080366,-1060833,-8986436,4829250,10966800,-15566410,26464840
2026-01-14 17:05:57.691,-693124,5,-971926,8,-8868182,8216491,69628900,-15830080,26269530
2026-01-14 17:05:57.701,-40721650,34423120,-44228700,48288180,33764650,-15332030,26542970
2026-01-14 17:05:57.711,-634430,5,34190060,-44116490,8251019,28015140,-15839840,26308590
2026-01-14 17:05:57.721,-40486010,-12041180,-89985200,48161290,-38623050,-16416020,259375
2026-01-14 17:05:57.731,38686720,3349088,-4407335,38687600,-7841797,-16328130,2609375
2026-01-14 17:05:57.741,-40136420,33059310,-44125120,47941180,-12001950,-16142580,25722660
2026-01-14 17:05:57.751,-451437,3,-1987874,-9664886,8323523,-15146480,-14609380,25585940
2026-01-14 17:05:57.761,-4005096,-5763977,-6527531,83416500,-16542970,-10712890,24960940
2026-01-14 17:05:57.771,-39533940,-26948080,-102872300,47542400,-16308590,-7788086,23808590
2026-01-14 17:05:57.781,-39327640,-3071152,-10618680,47403430,-17705080,-9301758,22597660
2026-01-14 17:05:57.791,-39123060,30314440,-44729340,47262740,-20625,-12705080,20976560
2026-01-14 17:05:57.801,-3892889,-72055500,-79516710,4712891,-23457030,-15615230,20390620
2026-01-14 17:05:57.811,-157960,3,-4239016,-11660530,8415019,-25214840,-17197270,19794920
2026-01-14 17:05:57.821,41108430,-4620538,-12004070,41962800,-25371090,-17451170,18916020
2026-01-14 17:05:57.831,-38404050,-83073820,-90422830,46756050,-23378910,-14960940,17363280
2026-01-14 17:05:57.841,-38263350,-5362862,-12677340,46655060,-2078125,-11552730,16699220
2026-01-14 17:05:57.851,3788699,27051660,-45782400,4635815,-20273440,-10283200,15791020
2026-01-14 17:05:57.861,38033740,26576920,-45963670,46487610,-21621090,-11191410,14726560
2026-01-14 17:05:57.871,15537,-6408155,-13634590,8457314,-22695310,-12714840,13486330
2026-01-14 17:05:57.881,38216740,2565332,-4635211,46649880,-22539060,-14042970,12304690
2026-01-14 17:05:57.891,-37899960,2520447,-4654197,46396980,-21855470,-1359375,11689450
2026-01-14 17:05:57.901,345268,-7403391,-14555590,84642210,-20371090,-12119140,11171880
2026-01-14 17:05:57.911,-37925850,-7725351,-14855110,46422870,-17236330,-91503900,10263670
2026-01-14 17:05:57.921,-37981960,2393562,-4713756,46470340,-13330080,-82470700,8911133
2026-01-14 17:05:57.931,94944,-8358918,-15447240,84668100,-12041020,-99560540,74316410
2026-01-14 17:05:57.941,38058780,23124260,-47569160,46531630,-121875,-12109380,68310540
2026-01-14 17:05:57.951,-25895,5,-9014921,-16068730,8462492,-12333980,-1390625,69189460
2026-01-14 17:05:57.961,-49202,5,22338770,-48061160,8458179,-11083980,-1390625,6640625
2026-01-14 17:05:57.971,37643590,21950350,-48328750,46169960,-8491211,-10585940,625
2026-01-14 17:05:57.981,3747957,21561920,-48613590,4602324,-5644531,-5078125,5209961
2026-01-14 17:05:57.991,-1217068,21138970,-48898440,84409140,-21289060,-64697260,23925780
2026-01-14 17:05:58.001,-147603,5,20698760,-49166020,8435737,51513670,1484375,-13916020
2026-01-14 17:05:58.011,-38890870,-11130550,-18096300,47149660,9094238,16748050,-35742190
2026-01-14 17:05:58.021,-197667,3,19688850,-49709820,8427105,24551390,12792970,-36694340
2026-01-14 17:05:58.031,-42834690,19136420,-49968760,43654690,18081660,10205080,-3996582
2026-01-14 17:05:58.041,-250319,5,-12382140,-19261580,8421061,44189450,27172850,-34277340
2026-01-14 17:05:58.051,36377330,-12787830,-19632740,45071150,66101070,6616211,-3227539
2026-01-14 17:05:58.061,-39513220,17470510,-50633400,47632170,6298828,10556640,-30517580
2026-01-14 17:05:58.071,36123560,16935350,-50823300,44858810,39733890,13369140,-25708010
2026-01-14 17:05:58.081,36028610,16400180,-50978670,44781130,11505130,14228520,-16552730
2026-01-14 17:05:58.091,35960420,-14276790,-20974970,44728480,19458010,15390630,-2355957
2026-01-14 17:05:58.101,-354762,8,-14624650,-21283120,8420198,21459960,15498050,2084961
2026-01-14 17:05:58.111,35956970,14811950,-51375730,44731930,26000980,14755860,30541990
2026-01-14 17:05:58.121,-3435408,1425086,-5152246,84227880,32739260,13994140,28857420
2026-01-14 17:05:58.131,-323689,-15739000,-22274900,8423650,39990230,14804690,14770510
2026-01-14 17:05:58.141,-298658,5,13059720,-51867730,8422788,67529300,16396480,-15344240
2026-01-14 17:05:58.151,40341420,12438240,-52023100,41210640,10039060,19365230,-40112300
2026-01-14 17:05:58.161,36627640,11834020,-52161210,45286940,8466797,20449220,-43017580
2026-01-14 17:05:58.171,36843440,31550930,-31960930,45468210,37841800,17041020,-33081060
2026-01-14 17:05:58.181,-42520230,29440910,-33604840,43347660,-13208010,10654300,-33129880
2026-01-14 17:05:58.191,37313000,10185370,-52411530,45861810,-16516110,5678711,-46899420
2026-01-14 17:05:58.201,-38373840,9710632,-52471950,46734480,25634770,30688480,-68115230
2026-01-14 17:05:58.211,-371160,28729660,-33055860,84374620,10126950,20397950,-10205080
2026-01-14 17:05:58.221,-37981960,8838832,-52584160,46418550,15478520,-1979065,-13583980
2026-01-14 17:05:58.231,-37820550,8424512,-52653220,46286490,18857420,-1809082,-16914060
2026-01-14 17:05:58.241,-37697110,8027456,-52722270,46185500,20585940,-40356440,-20449220
2026-01-14 17:05:58.251,63009,7647662,-52791320,8437462,19765620,-60595700,-23222660
2026-01-14 17:05:58.261,38334990,-19781210,-25794030,46704260,16611330,-50927740,-24316410
2026-01-14 17:05:58.271,38306510,-19994410,-25977890,46680960,12705080,-40625,-24863280
2026-01-14 17:05:58.281,492008,-20181720,-26135850,84374620,10517580,-6425781,-24980470
2026-01-14 17:05:58.291,-37820550,6309750,-52955320,46286490,10068360,-90234380,-25371090
2026-01-14 17:05:58.301,37981090,6033538,-52972580,46419420,10009770,-10556640,-25683590
2026-01-14 17:05:58.311,3780931,27012820,-31734350,4628047,88378900,-103125,-25644530
2026-01-14 17:05:58.321,-638748,5524266,-53015750,84400510,7080078,-66552740,-24316410
2026-01-14 17:05:58.331,-98402,-20958570,-26791860,8438324,69384770,-40551760,-23203120
2026-01-14 17:05:58.341,-38695800,5092686,-53084800,46999470,6381836,-3503418,-23378910
2026-01-14 17:05:58.351,-1683180,4920050,-53136590,84340090,4482422,-44750980,-24453120
2026-01-14 17:05:58.361,-39043650,26574330,-31413250,47273090,120666500,-5366211,-25429690
2026-01-14 17:05:58.371,-2347820,4738784,-53248800,84262410,-30932620,-5942383,-26328120
2026-01-14 17:05:58.381,36431710,4756052,-53300590,45120350,-6699219,-4296875,-25351560
2026-01-14 17:05:58.391,-2969300,-21327150,-27148340,84176100,-86865230,-12164310,-24238280
2026-01-14 17:05:58.401,39993740,5075424,-53378280,40867780,-92822260,-108947800,-23847660
2026-01-14 17:05:58.411,-3573516,537749,5,-5340417,84089780,-8730469,-41455080,-23515620
2026-01-14 17:05:58.421,-39934450,5765956,-53412800,47953270,-8222656,-8173828,-23515620
2026-01-14 17:05:58.431,35525380,6249332,-53430070,44334870,-84375,-9448242,-23066410
2026-01-14 17:05:58.441,-4393524,27801760,-32464590,83908510,-9404297,-14587400,-21347660
2026-01-14 17:05:58.451,-465249,5,7457766,-53464590,8383946,-10908200,7363281,-19042970
2026-01-14 17:05:58.461,34978130,8148302,-53464590,43846320,-10947270,76123050,-18330080
2026-01-14 17:05:58.471,-40512760,-19170090,-25403880,48358960,-10732420,20397950,-18691410
2026-01-14 17:05:58.481,-44140400,-21583070,-22214040,44921220,-12841800,-47851560,-17617190
2026-01-14 17:05:58.491,-40732010,-18308650,-24694360,48502240,-14619140,-11484380,-15195310
2026-01-14 17:05:58.501,3419264,-17862390,-24329240,4312988,-14394530,-18710940,-13125
2026-01-14 17:05:58.511,-6249336,12075710,-53438700,83209340,-13789060,-24003910,-11845700
2026-01-14 17:05:58.521,-644788,3,12938880,-53490490,8302808,-13740230,-27988280,-11435550
2026-01-14 17:05:58.531,-662915,13810680,-53568180,8281230,-14599610,-30410160,-11601560
2026-01-14 17:05:58.541,37428920,14682470,-53714910,38322650,-15966800,-29902340,-12070310
2026-01-14 17:05:58.551,33170660,1552836,-5390483,42097540,-16474610,-25878910,-13505860
2026-01-14 17:05:58.561,-7233344,33362280,-37141240,81931860,-16064450,-19414060,-16113280
2026-01-14 17:05:58.571,-751819,8,-15048460,-22205840,8156069,-15429690,-12207030,-1921875
2026-01-14 17:05:58.581,32196150,17936620,-54673020,41104040,-16513670,-7114258,-22421880
2026-01-14 17:05:58.591,31761110,1869619,-5493200,40675900,-19853520,-31469730,-24804690
2026-01-14 17:05:58.601,-8959676,-14111070,-21572280,80395410,-24746090,1459961,-24941410
2026-01-14 17:05:58.611,30681280,-13743350,-21301250,39649600,-29355470,56103520,-23222660
2026-01-14 17:05:58.621,30054630,-13308320,-20959430,39067820,-31972660,9453125,-2078125
2026-01-14 17:05:58.631,-1144562,22062560,-55363560,7925604,-33496090,13398440,-17099610
2026-01-14 17:05:58.641,28646800,23063830,-55242720,37782570,-35234380,17001950,-12431640
2026-01-14 17:05:58.651,-42790670,24134160,-55035550,49292040,-3625,19990230,-6850586
2026-01-14 17:05:58.661,-1463070,-10751610,-18751450,7819433,-346875,21875,-18591310
2026-01-14 17:05:58.671,-15726910,-9979946,-18055740,77857700,-29042970,23769530,6713867
2026-01-14 17:05:58.681,25659380,-9193598,-17340170,35090350,-2328125,24824220,29907230
2026-01-14 17:05:58.691,24979200,28544950,-53594070,34475770,-18916020,24375,56689450
2026-01-14 17:05:58.701,24346500,-7678738,-15954790,33900040,-14892580,22910160,8754883
2026-01-14 17:05:58.711,-19395380,30530230,-52834480,76588850,-11474610,21132810,11328130
2026-01-14 17:05:58.721,-19999590,-6350326,-14745490,76278110,-8105469,19228520,13017580
2026-01-14 17:05:58.731,-2043118,-5776317,-14231910,7596736,-55029300,17890620,1421875
2026-01-14 17:05:58.741,22673680,-9103396,-9955342,32310080,-32592770,16767580,15
2026-01-14 17:05:58.751,-20785080,33801640,-52049000,75371780,-16125490,16025390,15498050
2026-01-14 17:05:58.761,26710970,34518060,-52040370,27668570,-501709,14746090,15703130
2026-01-14 17:05:58.771,-44896800,-40845080,-128163100,50327840,-46691900,13701170,15957030
2026-01-14 17:05:58.781,-20068650,-37677250,-125806700,74465450,48706060,13925780,15410160
2026-01-14 17:05:58.791,-1955940,36546510,-52394260,7416337,15588380,14160160,15126950
2026-01-14 17:05:58.801,22826460,-3210121,-12188790,32105510,73791500,13662110,16835940
2026-01-14 17:05:58.811,-18221460,-2959805,-12024780,73567760,-40802000,12607420,19414060
2026-01-14 17:05:58.821,-1743603,-27362410,-118858200,7326564,10528560,11767580,20839840
2026-01-14 17:05:58.831,23704300,39006540,-53317860,32660530,14135740,10302730,21328120
2026-01-14 17:05:58.841,24057340,-65517860,-74833160,32894440,2927246,9423828,21289060
2026-01-14 17:05:58.851,-14794700,-2207123,-11603560,72350700,43676760,78466800,20546880
2026-01-14 17:05:58.861,-1387977,-67543710,-68491470,7202266,5234375,6123047,20019530
2026-01-14 17:05:58.871,-1296480,47113410,-48456500,7169471,6201172,45581060,19257810
2026-01-14 17:05:58.881,-1209300,41518350,-54811130,7134080,7050781,27416990,1859375
2026-01-14 17:05:58.891,25754320,41967200,-55121870,33976860,7836914,4006958,17978520
2026-01-14 17:05:58.901,26020180,-16253440,-114084800,34125330,8730469,-15576170,17167970
2026-01-14 17:05:58.911,26248060,-1520039,-11375690,34242720,11074220,-2644043,16328130
2026-01-14 17:05:58.921,-9071898,43279210,-56002300,69804350,12910160,-42041020,15478520
2026-01-14 17:05:58.931,-8519468,-57406680,-67407340,69372770,14257810,-4807129,14716800
2026-01-14 17:05:58.941,-8070616,-1049615,-11121050,68941180,15966800,-4645996,12988280
2026-01-14 17:05:58.951,-774261,5,-5379777,-6393826,6850960,18232420,-43115230,10595700
2026-01-14 17:05:58.961,26500100,-51348100,-61554200,34059720,19902340,-44555660,9458008
2026-01-14 17:05:58.971,-741463,3,-48381400,-58651360,6766368,21523440,-4333496,9189453
2026-01-14 17:05:58.981,26190220,148463,5,-10178470,33661800,23652340,-48510740,88623050
2026-01-14 17:05:58.991,-756137,3,47249790,-56520200,6693003,24433590,-6245117,9321289
2026-01-14 17:05:59.001,29044800,-37084260,-47506140,29788680,24238280,-81689460,11054690
2026-01-14 17:05:59.011,-807928,8,14311310,-90270050,6634306,24335940,-10361330,12646480
2026-01-14 17:05:59.021,25100040,-28420650,-38906410,32559540,24882810,-12529300,1359375
2026-01-14 17:05:59.031,24784990,23089730,-81957750,32270380,26074220,-14697270,13994140
2026-01-14 17:05:59.041,-37325860,-20292200,-30807310,37890550,28027340,-15986330,13320310
2026-01-14 17:05:59.051,24166100,5255342,-5259764,31732620,30273440,-18076170,12802730
2026-01-14 17:05:59.061,23881250,-1390823,-2441643,31499570,31347660,-19160160,12441410
2026-01-14 17:05:59.071,-10901810,-11757210,-22251590,65833780,31367190,-20136720,12685550
2026-01-14 17:05:59.081,-11385180,-10387360,-20859300,65920100,31191410,-20351560,13447270
2026-01-14 17:05:59.091,23207980,37124830,-67335690,30998940,30644530,-19814450,1390625
2026-01-14 17:05:59.101,-12291510,36434300,-67680970,66239480,29589840,-19121090,14541020
2026-01-14 17:05:59.111,22930910,-11817630,-22191170,30844430,28066410,-17197270,15498050
2026-01-14 17:05:59.121,-13051090,3232559,-7099552,66705580,2640625,-15019530,15546880
2026-01-14 17:05:59.131,22783300,49174650,-53663120,30819400,24335940,-12197270,15488280
2026-01-14 17:05:59.141,-37801560,24919640,-77400220,43163550,21855470,-9638672,15429690
2026-01-14 17:05:59.151,22765180,2031895,-8143123,30923840,20390620,-65185550,15
2026-01-14 17:05:59.161,-14190480,-30333430,-40446300,68000330,18271480,-30908200,14785160
2026-01-14 17:05:59.171,22859260,9658840,-90796580,31140490,16005860,9838867,15283200
2026-01-14 17:05:59.181,-14596170,-40933990,-50907030,68820340,1328125,38427740,15888670
2026-01-14 17:05:59.191,23056920,-1890336,-100826600,31460730,10244140,6254883,16787110
2026-01-14 17:05:59.201,23198480,-52064540,-61873570,31664430,7885742,7753906,17763670
2026-01-14 17:05:59.211,23375430,42338360,-54854290,31901810,7885742,94873050,17207030
2026-01-14 17:05:59.221,23597270,-6355072,-7317504,32180610,87939460,95410160,16054690
2026-01-14 17:05:59.231,-15001860,46870850,-48353780,71383950,11923830,10087890,14140630
2026-01-14 17:05:59.241,-1488101,-3302479,-12717910,7198816,15654300,10517580,13037110
2026-01-14 17:05:59.251,24639110,37875780,-55139140,33365740,12353520,8364258,14130860
2026-01-14 17:05:59.261,-14242260,-4723256,-13903900,73300180,64990230,5024414,203125
2026-01-14 17:05:59.271,25756920,3517406,-5535494,34526700,26000980,33813480,23457030
2026-01-14 17:05:59.281,26448310,3363762,-5556210,35216370,791626,1850586,22226560
2026-01-14 17:05:59.291,27218260,-7555306,-16337170,35965600,-11175540,1796875,18535160
2026-01-14 17:05:59.301,-1110898,-8713675,-17353980,7595010,-27563480,34057620,14765630
2026-01-14 17:05:59.311,28960130,28294630,-56641040,37607340,-44018560,67333980,10380860
2026-01-14 17:05:59.321,-866621,3,-11192690,-19536070,7704632,-4555664,10097660,61816410
2026-01-14 17:05:59.331,-7302400,24384480,-57512850,77512430,-52978520,10810550,17700200
2026-01-14 17:05:59.341,-5895432,38398000,-41945620,77918130,-8100586,10537110,-22998050
2026-01-14 17:05:59.351,3276322,20500230,-58272440,4103758,-13251950,95458980,-52441410
2026-01-14 17:05:59.361,33673020,-16120520,-23844140,41836860,-19345700,9604492,-79296870
2026-01-14 17:05:59.371,-36402360,-17224510,-24794480,44113900,-2359375,9667969,-11396480
2026-01-14 17:05:59.381,35327710,15157220,-59075180,43272310,-25703120,96972660,-15449220
2026-01-14 17:05:59.391,-35206870,-19164050,-26445720,43203260,-2578125,9975586,-19658200
2026-01-14 17:05:59.401,1864440,33389040,-38098490,79342350,-24570310,10185550,-23144530
2026-01-14 17:05:59.411,-34216820,-20665100,-27689550,42449710,-25351560,98876950,-25605470
2026-01-14 17:05:59.421,3659828,9857368,-59247820,79635830,-24121090,9765625,-26914060
2026-01-14 17:05:59.431,-33521980,8916516,-59135600,41936130,-23125,8798828,-27695310
2026-01-14 17:05:59.441,38679400,-22073780,-28784050,46187230,-22480470,67041020,-27792970
2026-01-14 17:05:59.451,38984960,7475028,-58798970,46468620,-22324220,44580080,-27207030
2026-01-14 17:05:59.461,-3306104,694849,5,-5858317,4165473,-20546880,32666020,-26210940
2026-01-14 17:05:59.471,39422580,2985608,-3503685,46894160,-17148440,2824707,-24316410
2026-01-14 17:05:59.481,-33069670,-22731520,-29162110,41732420,-1453125,2619629,-2109375
2026-01-14 17:05:59.491,39704840,5938588,-57832220,47198860,-13623050,10974120,-18134770
2026-01-14 17:05:59.501,-3318103,-22766040,-29093060,4189728,-13808590,-14379880,-14746090
2026-01-14 17:05:59.511,6111220,5472480,-57297060,81327640,-15097660,-3996582,-12001950
2026-01-14 17:05:59.521,6249332,30866780,-31384850,81517540,-18251950,-7529297,-9707031
2026-01-14 17:05:59.531,-33200010,491140,3,-5678778,42016400,-21464840,-9814453,-7524414
2026-01-14 17:05:59.541,-3308178,4514364,-56580630,4194477,-20410160,-1078125,-62597660
2026-01-14 17:05:59.551,7233340,4039620,-56416620,81931860,-17724610,-10498050,-609375
2026-01-14 17:05:59.561,7811664,348716,3,-5629579,81992270,-17148440,-10292970,-6791992
2026-01-14 17:05:59.571,-32238440,-23718120,-29625630,41286160,-17460940,-99902340,-8623047
2026-01-14 17:05:59.581,9253152,2175182,-56174940,81966380,-15253910,-8413086,-11396480
2026-01-14 17:05:59.591,42390160,-24472520,-30235030,49571710,-12080080,-63916020,-13974610
2026-01-14 17:05:59.601,42819150,-24869580,-30563030,49902300,-953125,-48486330,-15996090
2026-01-14 17:05:59.611,1180811,60422,-56218100,8163838,-8378906,-3413086,-18183590
2026-01-14 17:05:59.621,-29700730,25002510,-30689050,39110980,-81591800,-11907960,-20292970
2026-01-14 17:05:59.631,-29186280,24711620,-30462040,38658680,-82421870,3668213,-22363280
2026-01-14 17:05:59.641,-32997340,-1665914,-56407990,33949930,-80029300,21252440,-23769530
2026-01-14 17:05:59.651,44565330,24279170,-30134900,51177200,-78466800,3088379,-24589840
2026-01-14 17:05:59.661,44807880,-26761640,-32175430,51348970,-77441410,48754880,-23867190
2026-01-14 17:05:59.671,1587362,-2641290,-56571990,8064573,-64697260,5410156,-21992190
2026-01-14 17:05:59.681,16313870,-2796668,-56606520,80533520,-4111328,53759770,-19550780
2026-01-14 17:05:59.691,-27020600,-2882982,-56641050,36732950,-31176760,5019531,-18339840
2026-01-14 17:05:59.701,1701301,-2908872,-56684210,8033499,-25097660,5473633,-16318360
2026-01-14 17:05:59.711,-26604550,-2857086,-56736000,36354890,-25854490,6220703,-15175780
2026-01-14 17:05:59.721,-26442270,-2762136,-56813680,36206420,-2401123,66308590,-14746090
2026-01-14 17:05:59.731,1765176,-27037860,-32468910,8004150,-16821290,7089844,-14570310
2026-01-14 17:05:59.741,17755350,-2373712,-57012220,79955200,25920870,8120117,-14697270
2026-01-14 17:05:59.751,1777259,-2080232,-57133050,7986888,33447270,8808594,-14013670
2026-01-14 17:05:59.761,-26163470,-1691812,-57262530,35915530,6230469,8847656,-13310550
2026-01-14 17:05:59.771,-26224760,-1217068,-57374740,35957830,7211914,7729492,-11855470
2026-01-14 17:05:59.781,45425050,-630116,-57478320,51664020,5722656,60058590,-11289060
2026-01-14 17:05:59.791,1706481,25928690,-31679110,7974806,43310550,5048828,-10625
2026-01-14 17:05:59.801,-26716760,-2548504,-3132865,36363520,3947754,41870120,-9428711
2026-01-14 17:05:59.811,-26967940,1640016,-57659580,36578440,27392580,3881836,-78271490
2026-01-14 17:05:59.821,47524960,2529082,-57668220,48165780,2265625,38598630,-5756836
2026-01-14 17:05:59.831,-31849330,-24047850,-30159070,32801910,18225100,30078120,-3803711
2026-01-14 17:05:59.841,-27896710,4384888,-57625060,37376010,21533200,15991210,-19482420
2026-01-14 17:05:59.851,-28248880,5334376,-57573270,37679850,2800293,881958,-3149414
2026-01-14 17:05:59.861,1361213,6292490,-57512850,8019690,4387207,31402590,19580080
2026-01-14 17:05:59.871,43284390,7216076,-57435160,50006740,63671880,4345703,40283200
2026-01-14 17:05:59.881,12446870,8131034,-57366110,80326360,78271490,7128906,5751953
2026-01-14 17:05:59.891,4271124,-24092380,-24158680,4956134,72265620,10064700,75634770
2026-01-14 17:05:59.901,1134201,-20298250,-27003330,8042994,6430664,9765625,90283200
2026-01-14 17:05:59.911,-30255750,33647300,-34111340,39384600,62109380,32958980,99853520
2026-01-14 17:05:59.921,-30538000,11428330,-56986310,39620250,6245117,-7800293,10537110
2026-01-14 17:05:59.931,9891900,-18948260,-25850140,80498990,7089844,-10308840,11337890
2026-01-14 17:05:59.941,-31010150,32581980,-36989320,40011260,10332030,-40863040,12597660
2026-01-14 17:05:59.951,-31208680,13318670,-56736000,40175260,13017580,31463620,13105470
2026-01-14 17:05:59.961,88388,09,1384521,-5664105,805335,3,12783200,-20656590,14199220
2026-01-14 17:05:59.971,-31519420,14302680,-56546100,40434210,11220700,-7556152,15332030
2026-01-14 17:05:59.981,-31614370,-17312550,-24430230,40511900,9404297,-17907720,15927730
2026-01-14 17:05:59.991,8320932,15062270,-56373470,80568050,79541020,-28637700,16601560
2026-01-14 17:06:00.001,827776,5,-16900820,-24065110,8055941,7963867,-31079100,17285160
2026-01-14 17:06:00.011,40824370,-16754080,-23935630,48047350,93847660,-22375490,17978520
2026-01-14 17:06:00.021,8398616,33953550,-38000080,80542150,11054690,-107910200,18017580
2026-01-14 17:06:00.031,40931400,1587363,-5616633,48130220,11367190,-85754390,17783200
2026-01-14 17:06:00.041,8726616,15985860,-56140420,80507630,10859380,-45196530,16962890
2026-01-14 17:06:00.051,8925152,-19664600,-20386370,80481740,10097660,-14257810,15732420
2026-01-14 17:06:00.061,-35209380,-16371700,-23592950,36105520,9614258,-17443850,14667970
2026-01-14 17:06:00.071,41356940,1616711,-5606275,48464260,9897461,-24694820,14257810
2026-01-14 17:06:00.081,958976,5,16201650,-56045460,8042132,9379883,-27246090,13671880
2026-01-14 17:06:00.091,-30793500,16218910,-56028200,39813600,8222656,-35913090,12939450
2026-01-14 17:06:00.101,41674590,-16284520,-23507500,48716310,6982422,-48046880,12255860
2026-01-14 17:06:00.111,-30586340,16201650,-55993670,39640960,5698242,-6020508,11552730
2026-01-14 17:06:00.121,-30509520,-16296600,-23512680,39579680,50927740,-6845703,11064450
2026-01-14 17:06:00.131,10418430,1614120,-5596779,80386780,5625,-7055664,10859380
2026-01-14 17:06:00.141,41959430,-16319050,-23524770,48949360,6035156,-72802740,10820310
2026-01-14 17:06:00.151,10556540,-16331130,-23529940,80421310,5551758,-79052740,10498050
2026-01-14 17:06:00.161,10582430,16011750,-55890100,80447210,43847660,-8798828,10820310
2026-01-14 17:06:00.171,-30405070,-16366520,-23546340,39511490,25268560,-10078130,10605470
2026-01-14 17:06:00.181,10556530,15847750,-55829670,80524890,16760250,-11582030,10488280
2026-01-14 17:06:00.191,10522010,1573551,-5580378,80576690,21118160,-12333980,11083980
2026-01-14 17:06:00.201,1049611,1558880,-5577789,8061984,26220700,-12431640,11523440
2026-01-14 17:06:00.211,42065600,1539888,-5576064,49084880,23339840,-12304690,12285160
2026-01-14 17:06:00.221,1046159,1517448,-5576062,8070615,14477540,-12353520,12470700
2026-01-14 17:06:00.231,10470220,33302720,-37390690,80749310,11743160,-12451170,11806640
2026-01-14 17:06:00.241,1047886,1459616,-5582104,8077521,17053220,-12373050,10947270
2026-01-14 17:06:00.251,-30574260,14225000,-55881460,39704840,1763916,-11708980,10400390
2026-01-14 17:06:00.261,42175220,-17581000,-24558840,49199680,20996090,-10908200,10029300
2026-01-14 17:06:00.271,-30516420,1337908,-5605408,39659090,111450200,-9296875,9291992
2026-01-14 17:06:00.281,10694640,32372230,-36698430,80801100,-17822270,-7597656,8730469
2026-01-14 17:06:00.291,42272760,-18525300,-25392660,49274780,-117004400,-44482420,82470700
2026-01-14 17:06:00.301,-34500370,31899210,-36360060,35416190,-14782720,-10849000,7836914
2026-01-14 17:06:00.311,42316780,11229810,-56597890,49299810,-16430660,47485350,7758789
2026-01-14 17:06:00.321,-30290270,-19713880,-26448310,39453660,-22558590,9433594,7084961
2026-01-14 17:06:00.331,10962220,9917788,-56925900,80654370,-29101560,13300780,6333008
2026-01-14 17:06:00.341,-3024971,-23911120,-23977410,3940790,-3955078,16074220,5419922
2026-01-14 17:06:00.351,-30243670,8476302,-57245260,39396690,-38085940,16767580,4008789
2026-01-14 17:06:00.361,1091043,30075340,-35042010,8056807,-35253900,15302730,23181150
2026-01-14 17:06:00.371,42239100,-22048750,-28498340,49204860,-23022460,11767580,-11856080
2026-01-14 17:06:00.381,1087591,622343,3,-5763370,8053352,-22143560,7104492,-1730957
2026-01-14 17:06:00.391,-30241080,5489744,-57728640,39382020,-23168940,34228520,-3083496
2026-01-14 17:06:00.401,-30214310,31298190,-31298720,39356980,-26586910,15686040,-35473630
2026-01-14 17:06:00.411,-30160800,410002,8,-5789263,39306920,-24047850,10913090,-45214840
2026-01-14 17:06:00.421,11108960,346126,5,-5794444,80438580,-19165040,20751950,-52734380
2026-01-14 17:06:00.431,-29995940,2857084,-57996220,39161040,-12036130,3737793,-5991211
2026-01-14 17:06:00.441,11428340,27379670,-32955730,80360890,-9246826,55859380,-6816406
2026-01-14 17:06:00.451,-29748200,-25173420,-31156890,38942660,-83740230,6665039,-7495117
2026-01-14 17:06:00.461,11859920,125155,8,-5811707,80274580,-120788600,65625,-84521490
2026-01-14 17:06:00.471,12101600,776848,-58142960,80222780,-14709470,59765620,-9355469
2026-01-14 17:06:00.481,1236053,353898,-58168860,8017100,-13928220,49169920,-9995117
2026-01-14 17:06:00.491,-29112050,-3454,75,-5817748,38387650,-123413100,35180660,-10429690
2026-01-14 17:06:00.501,1291297,25962350,-31818080,8008469,-6768799,22021480,-11113280
2026-01-14 17:06:00.511,13197830,-29405290,-29462740,80041510,-10321050,14807130,-11494140
2026-01-14 17:06:00.521,13474040,-992646,-58134330,80006990,-16796880,7678223,-11806640
2026-01-14 17:06:00.531,1375023,-1251594,-58099800,7998972,-17285160,34088140,-11953130
2026-01-14 17:06:00.541,1401782,-26950680,-32607880,7996382,-22521970,1335907,-12001950
2026-01-14 17:06:00.551,14276790,-27050810,-32680380,79946570,-2175293,5822754,-11855470
2026-01-14 17:06:00.561,1451845,-1933496,-57970330,7992930,-22473140,11450200,-11171880
2026-01-14 17:06:00.571,14768790,-2132026,-57909910,79920670,-28759770,14001470,-10986330
2026-01-14 17:06:00.581,-27709400,-2339188,-57858110,37200790,-35620120,12817380,-10585940
2026-01-14 17:06:00.591,-27585970,-2520454,-57797690,37099800,-421875,100097700,-10087890
2026-01-14 17:06:00.601,15450690,-2693086,-57745900,79894780,-46850580,8508301,-9560547
2026-01-14 17:06:00.611,44574830,-2874348,-57685480,50995070,-44140620,10046390,-84521490
2026-01-14 17:06:00.621,15934070,-27601510,-33061900,79877510,-4243164,15649410,-7260742
2026-01-14 17:06:00.631,44834640,-3176460,-57573270,51201360,-49438480,20947270,-6298828
2026-01-14 17:06:00.641,-26872130,24062520,-30144400,36501620,-57470700,21179200,-5698242
2026-01-14 17:06:00.651,16745450,26721330,-27330210,79808460,-67285150,22607420,-5234375
2026-01-14 17:06:00.661,-26526000,23892470,-29986440,36209010,-7138672,27661130,-43725580
2026-01-14 17:06:00.671,-26330920,-3616672,-57357470,36041560,-66503900,26513670,-4091797
2026-01-14 17:06:00.681,1770356,-368572,8,-5730569,7969625,-66259770,27319340,-36132810
2026-01-14 17:06:00.691,18048830,-3746152,-57262530,79661730,-6660156,20239260,-3449707
2026-01-14 17:06:00.701,45940360,23656830,-29755970,52063670,-61279300,14331060,-30932620
2026-01-14 17:06:00.711,-25510920,-27812120,-33144760,35342390,-54296880,68725580,-21899410
2026-01-14 17:06:00.721,1906736,-27789680,-33115420,7954087,-51660160,-23849490,-1451416
2026-01-14 17:06:00.731,-25110410,-3832464,-57020840,35000580,-57177740,-1706543,-13391110
2026-01-14 17:06:00.741,-24904970,-3823834,-56960420,34826220,-6098633,-31469730,-1348877
2026-01-14 17:06:00.751,-24700400,-381521,8,-5689999,34650990,-6411133,-41088870,-10046390
2026-01-14 17:06:00.761,-24505320,26204640,-26811100,34483540,-58984380,-4025879,-42663580
2026-01-14 17:06:00.771,-24318020,23452260,-29511690,34325580,-5410156,-37597660,7672119
2026-01-14 17:06:00.781,21026760,23420320,-29474580,79307820,-5800781,-3774414,125
2026-01-14 17:06:00.791,-23946860,-3832466,-56658310,34006210,-63134770,-36791990,13366700
2026-01-14 17:06:00.801,2160508,-386699,5,-5660652,7923014,-67285150,-3659668,14318850
2026-01-14 17:06:00.811,-23594680,23302930,-29350280,33702370,-71435540,-36108400,17126460
2026-01-14 17:06:00.821,-23437590,-3970572,-56520210,33565990,-7080078,-37280270,20422360
2026-01-14 17:06:00.831,-23281350,-27640350,-32884950,33428750,-6982422,-32080080,23461910
2026-01-14 17:06:00.841,-28166120,-27671420,-32905670,28267760,-61816410,-2993164,30932620
2026-01-14 17:06:00.851,22804880,25816210,-26422680,78997090,-60546880,-27392580,32885740
2026-01-14 17:06:00.861,-22886890,23031890,-29103410,33080890,-7114258,-26708980,3095703
2026-01-14 17:06:00.871,2315013,-4384892,-56416620,7891076,-79003900,-20812990,32080080
2026-01-14 17:06:00.881,2328825,-27838880,-33031690,7887623,-75,-113464400,39697260
2026-01-14 17:06:00.891,-22604630,-30228040,-30746110,32827980,-77490230,-28839110,47143560
2026-01-14 17:06:00.901,-22540760,22790210,-28896260,32771020,-81884770,-15823360,5307617
2026-01-14 17:06:00.911,23581730,-4799216,-56364830,78789920,-9165039,-2848816,53027340
2026-01-14 17:06:00.921,23659420,22649510,-28778000,78764030,-96240230,-19226070,54296880
2026-01-14 17:06:00.931,-22394880,-505817,5,-5634756,32640680,-95214850,9880066,58984380
2026-01-14 17:06:00.941,2378025,22490690,-28643350,7872951,-953125,7757568,6401367
2026-01-14 17:06:00.951,23840690,-5360276,-56321680,78703610,-10078130,1496582,6821289
2026-01-14 17:06:00.961,-22268000,-28380080,-33457230,32525870,-10800780,21020510,6879883
2026-01-14 17:06:00.971,-26840620,-5731432,-56295780,27866930,-1078125,25976560,67089840
2026-01-14 17:06:00.981,48602370,-592998,3,-5628717,54062770,-11230470,33935550,66845700
2026-01-14 17:06:00.991,-22124710,-6163016,-56278520,32392950,-11542970,40673830,6669922
2026-01-14 17:06:01.001,24151430,-639610,5,-5628716,78565500,-12109380,51220700,5800781
2026-01-14 17:06:01.011,2421182,-6655022,-56287150,7852233,-11728520,64501950,53808590
2026-01-14 17:06:01.021,-21975380,-691398,5,-5628714,32248800,-11201170,74658200,546875
2026-01-14 17:06:01.031,2429814,-7181554,-56295780,7843602,-10908200,73291020,5048828
2026-01-14 17:06:01.041,-21897700,-7449140,-56304410,32171120,-10966800,57177740,42919920
2026-01-14 17:06:01.051,24358590,21096670,-27499650,78358340,-10976560,37817380,3408203
2026-01-14 17:06:01.061,-21839000,20953390,-27383980,32108970,-9453125,23657230,31933590
2026-01-14 17:06:01.071,-21813970,-8251882,-56313040,32082210,-81347660,7525635,3515625
2026-01-14 17:06:01.081,2441898,-8519460,-56304410,7826339,-8300781,-50079340,3125
2026-01-14 17:06:01.091,-21753550,-8795676,-56287150,32021790,-86621100,-15600590,24145510
2026-01-14 17:06:01.101,-21709530,20331040,-26866950,31979490,-8857422,-21386720,1821289
2026-01-14 17:06:01.111,24565750,-939129,8,-5626127,78151180,-81347660,-17541500,18286130
2026-01-14 17:06:01.121,-21595590,-971065,-5623535,31869000,-7680664,-6970215,18981930
2026-01-14 17:06:01.131,48726660,-10055900,-56200830,54059310,-7314453,29647830,17663570
2026-01-14 17:06:01.141,-21453160,-1040981,-5617493,31735220,-73046870,8190918,81848140
2026-01-14 17:06:01.151,-21382390,-31188830,-35723910,31667890,-74658200,15820310,-3111267
2026-01-14 17:06:01.161,25005960,-11152130,-56088620,77900860,-76708980,21374510,-15698240
2026-01-14 17:06:01.171,-21232200,-11531920,-56054090,31524600,-70410160,28857420,-17956540
2026-01-14 17:06:01.181,48848370,-11920350,-56010940,54110240,-64208980,3605957,-20275880
2026-01-14 17:06:01.191,-21100130,-31945830,-36313450,31397720,-64453120,40844730,-25341800
2026-01-14 17:06:01.201,2529941,-12671300,-55915990,7769370,-68359380,3955078,-3305664
2026-01-14 17:06:01.211,25359860,17960780,-24852320,77650540,-69140620,38354490,-39794920
2026-01-14 17:06:01.221,-20950800,-32493080,-36732960,31253570,-67529300,45874020,-37768560
2026-01-14 17:06:01.231,-20906780,-13784780,-55734720,31211270,-67871100,47924800,-3708496
2026-01-14 17:06:01.241,25523860,-32821950,-36973780,77555590,-6953125,4416504,-35424800
2026-01-14 17:06:01.251,-25457140,17039790,-24046980,26488280,-7319336,36108400,-37524420
2026-01-14 17:06:01.261,-20771260,-14837850,-55475780,31087840,-7402344,25024410,-43017580
2026-01-14 17:06:01.271,25748280,-15191750,-55363560,77486540,-68847660,14868160,-48779300
2026-01-14 17:06:01.281,-20634020,-33412350,-37384640,30966130,-61865230,5783081,-50341800
2026-01-14 17:06:01.291,25989970,-33547870,-37473560,77434750,-5341797,-10871890,-5258789
2026-01-14 17:06:01.301,49199680,-3368341,-3756248,54328620,-4921875,-736084,-5864258
2026-01-14 17:06:01.311,49268730,1558964,-2273499,54380410,-5019531,-637207,-70410160
2026-01-14 17:06:01.321,26421560,15338480,-22502780,77348430,-59716800,-35827640,-7998047
2026-01-14 17:06:01.331,-20173080,15087300,-22270580,30563900,-6816406,30929560,-9116211
2026-01-14 17:06:01.341,2675819,14826630,-22030620,7728803,-7685547,7476807,-10
2026-01-14 17:06:01.351,26930830,14566810,-21789800,77253490,-8227539,17565920,-10644530
2026-01-14 17:06:01.361,-19841630,-18290520,-54146500,30273870,-8574219,21923830,-10683590
2026-01-14 17:06:01.371,49744340,-3631330,-3631366,54733450,-82373050,22253420,-10859380
2026-01-14 17:06:01.381,-19593910,-18998310,-53835750,30055490,-7832031,16918940,-10703130
2026-01-14 17:06:01.391,27673150,13524970,-20829090,77080850,-6796875,1381836,-10791020
2026-01-14 17:06:01.401,-19329770,-19688850,-53542280,29818980,-6118164,42297360,-11025390
2026-01-14 17:06:01.411,-19184760,-20016850,-53404170,29687780,-5551758,-77819820,-11650390
2026-01-14 17:06:01.421,52559850,12797320,-20158420,52608470,-51464840,-14880370,-11923830
2026-01-14 17:06:01.431,-18903370,-20612440,-53153850,29434010,-49365230,-1484375,-121875
2026-01-14 17:06:01.441,50317480,12384720,-19776900,55127050,-46972660,-5621338,-12080080
2026-01-14 17:06:01.451,50389990,12206050,-19610300,55175390,-42700200,8407593,-11933590
2026-01-14 17:06:01.461,52604960,15364810,-16106280,53081260,-44140620,-30078890,-11845700
2026-01-14 17:06:01.471,29192320,-21527400,-52705010,76614740,-44702150,-3579712,-12011720
2026-01-14 17:06:01.481,50603190,11726130,-19158000,55324720,-4321289,-6781006,-11484380
2026-01-14 17:06:01.491,2950306,14940650,-15684530,7654570,-36157230,-122680700,-10556640
2026-01-14 17:06:01.501,29649800,-22036670,-52420160,76502530,-27075200,-1574707,-10029300
2026-01-14 17:06:01.511,-18019480,11343750,-18798060,28643350,-19091800,-2397461,-10019530
2026-01-14 17:06:01.521,-22713560,-22356040,-52273420,23776640,-12072750,-22424320,-99560540
2026-01-14 17:06:01.531,30038230,11118460,-18591760,76338530,-72753900,-22924800,-10322270
2026-01-14 17:06:01.541,-17751900,-22675410,-52195740,28393030,19760130,-23803710,-10390630
2026-01-14 17:06:01.551,-17664720,10923380,-18424310,28307580,12902830,-234375,-10615230
2026-01-14 17:06:01.561,-17605170,-22977520,-52187100,28246290,23303220,-19262700,-11152340
2026-01-14 17:06:01.571,30314440,10778370,-18310370,76062320,32592770,-17993160,-11630860
2026-01-14 17:06:01.581,-22316500,-2322785,-5224752,23379580,3996582,-1763916,-12363280
2026-01-14 17:06:01.591,30271280,-23331420,-52299320,75950100,52978520,-14990230,-12958980
2026-01-14 17:06:01.601,-17569770,10704140,-18281020,28178100,6044922,-6762695,-12753910
2026-01-14 17:06:01.611,30038230,10723990,-18312960,75889680,71191410,-11909490,-12753910
2026-01-14 17:06:01.621,29856960,10769740,-18370790,75898310,7480469,9338379,-12900390
2026-01-14 17:06:01.631,2962389,-23400470,-52696370,7590694,7368164,22216800,-13291020
2026-01-14 17:06:01.641,-18031570,-36600020,-39548610,28562210,7441406,30493160,-12685550
2026-01-14 17:06:01.651,29045590,11063220,-18681530,76001900,7636719,34033200,-11992190
2026-01-14 17:06:01.661,-18445890,11202190,-18818770,28924740,7578125,36889650,-11289060
2026-01-14 17:06:01.671,49874680,11367910,-18981050,54654900,72998050,36987300,-10507810
2026-01-14 17:06:01.681,2800115,11553500,-19158000,7626949,7207031,3491211,-9145508
2026-01-14 17:06:01.691,-19174400,-36398040,-39508900,29577290,72509770,33666990,-7553711
2026-01-14 17:06:01.701,2727609,11984220,-19555920,7652844,6582031,31713870,-6455078
2026-01-14 17:06:01.711,-24349780,12212090,-19759630,25385930,54296880,31835940,-60546880
2026-01-14 17:06:01.721,2663734,12450330,-19970240,7682191,46362300,33666990,-5703125
2026-01-14 17:06:01.731,-20142010,-2102678,-5387891,30474130,45043940,4243164,-46142580
2026-01-14 17:06:01.741,2611081,12912120,-20371610,7710675,47680660,45654300,-3474121
2026-01-14 17:06:01.751,2590363,-20301700,-53982490,7724485,52685550,5473633,-22668460
2026-01-14 17:06:01.761,2573101,13331620,-20728970,7736571,5444336,58447260,-12805180
2026-01-14 17:06:01.771,25584280,13518920,-20886930,77477910,5942383,546875,-60913090
2026-01-14 17:06:01.781,25472070,13698470,-21035390,77590120,5864258,46826170,-68115230
2026-01-14 17:06:01.791,25385750,-19006950,-54051540,77693700,61621100,3461914,-6652832
2026-01-14 17:06:01.801,25333970,14032510,-21305560,77797280,6347656,25561520,-4058838
2026-01-14 17:06:01.811,25299430,-18394100,-54025660,77883600,6660156,21618650,-3640747
2026-01-14 17:06:01.821,-21189030,-18074730,-53999750,31515970,70751950,24914550,-36865230
2026-01-14 17:06:01.831,25264910,-17755360,-53973860,78090760,7133789,32104490,-4184723
2026-01-14 17:06:01.841,-21301240,-1741873,-5393070,31645440,68359380,4013672,22216800
2026-01-14 17:06:01.851,25213120,-33644540,-37325090,78315180,60302740,46166990,7116699
2026-01-14 17:06:01.861,-2144800,15031200,-22085000,3180945,50927740,5463867,11053470
2026-01-14 17:06:01.871,49178100,-16339760,-53766700,54522840,45751950,6665039,18286130
2026-01-14 17:06:01.881,-21637880,15394590,-22360350,32016610,40356440,7104492,24707030
2026-01-14 17:06:01.891,-26428810,-32682970,-36491270,27467370,36547850,6855469,29492190
2026-01-14 17:06:01.901,-21881290,15780430,-22647790,32273830,30004880,6147461,3701172
2026-01-14 17:06:01.911,24772900,-14699750,-53473230,79221500,24536130,49047850,48217770
2026-01-14 17:06:01.921,-22177360,-14268160,-53369640,32581980,2409668,36694340,6191406
2026-01-14 17:06:01.931,49304130,-1383660,-5326609,54811140,22998050,2524414,71435540
2026-01-14 17:06:01.941,24401740,-13404990,-53145220,79782570,17150880,8081055,7529297
2026-01-14 17:06:01.951,-22624480,16716960,-23316740,33049820,10925290,-45318600,8022461
2026-01-14 17:06:01.961,24194580,-12567720,-52877640,80162360,-4524231,-94055180,86621100
2026-01-14 17:06:01.971,51949120,17031150,-23520450,52511390,-10827640,-13537600,9277344
2026-01-14 17:06:01.981,24065100,-11790870,-52566900,80516260,-1842041,-9460449,10478520
2026-01-14 17:06:01.991,-23093180,-11428340,-52394260,33565130,-24890140,-72753900,12119140
2026-01-14 17:06:02.001,2403919,-11091700,-52213000,8085289,-31030270,-446167,12900390
2026-01-14 17:06:02.011,-23222660,-10763700,-52023100,33729130,-3762207,-6341553,13691410
2026-01-14 17:06:02.021,24108260,17567180,-23795800,81163640,-45166020,-118774400,14121090
2026-01-14 17:06:02.031,-23287390,-10176750,-51626040,33837020,-5205078,-22021480,14189450
2026-01-14 17:06:02.041,-23284810,-9917796,-51418890,33856880,-56103520,-3359375,14257810
2026-01-14 17:06:02.051,24427640,-28385260,-32537100,81552060,-5649414,-44140620,14277340
2026-01-14 17:06:02.061,24574380,-28178100,-32329940,81647010,-5566406,-52197260,14697270
2026-01-14 17:06:02.071,-23177770,-9322210,-50823300,33825800,-52734380,-5527344,14707030
2026-01-14 17:06:02.081,24911010,-9184106,-50633400,81828270,-5107422,-5864258,14609380
2026-01-14 17:06:02.091,-23048300,-9063260,-50443500,33748120,-5205078,-60302740,13964840
2026-01-14 17:06:02.101,2526490,-27567840,-31697230,8195773,-5229492,-6269531,13457030
2026-01-14 17:06:02.111,50886310,-8933788,-50124140,56543510,-49121100,-63720700,12861330
2026-01-14 17:06:02.121,-22844590,17598260,-23488510,33606560,-45703120,-62890620,12626950
2026-01-14 17:06:02.131,25705130,-8933788,-49882450,82069960,-39916990,-56347660,12490230
2026-01-14 17:06:02.141,25808700,17457560,-23335730,82087220,-40795900,-5336914,12001950
2026-01-14 17:06:02.151,5117977,-9089152,-49709810,5680246,-3857422,-44213870,11640630
2026-01-14 17:06:02.161,25912280,-9218632,-49666660,82104490,-35791020,-36035160,11123050
2026-01-14 17:06:02.171,-22704760,17177890,-23080230,33504710,-26660160,-3310547,11015630
2026-01-14 17:06:02.181,-22725480,-9572526,-49658020,33518520,-24572750,-17956540,10585940
2026-01-14 17:06:02.191,-22773810,16964690,-22913640,33556500,-13293460,-13146970,10341800
2026-01-14 17:06:02.201,25601550,16863700,-22842000,82052700,-15510560,-15014650,9941406
2026-01-14 17:06:02.211,-22939540,16751490,-22764310,33684250,8898926,-12060550,93066410
2026-01-14 17:06:02.221,25187220,-10573810,-49916980,82018180,17919920,-13635250,87841800
2026-01-14 17:06:02.231,24911010,-10850020,-50020560,82000910,2836914,-18444820,8173828
2026-01-14 17:06:02.241,2459162,-11134860,-50132760,8199227,37060550,-21911620,7636719
2026-01-14 17:06:02.251,50223400,-28890220,-32774470,55997990,40600580,-28710940,7089844
2026-01-14 17:06:02.261,-28533730,-11695920,-50383080,29591970,4387207,-31323240,6435547
2026-01-14 17:06:02.271,-23998650,-11980770,-50495300,34541370,43701170,-3178711,5517578
2026-01-14 17:06:02.281,-24226520,-12274240,-50616140,34727820,38354490,-34838870,4897461
2026-01-14 17:06:02.291,-29169970,-12576350,-50711090,30215950,39086910,-3527832,4345703
2026-01-14 17:06:02.301,22192030,-12895730,-50823300,81992270,37817380,-34057620,39648440
2026-01-14 17:06:02.311,2180360,15627650,-22040980,8198365,38623050,-33569340,34472660
2026-01-14 17:06:02.321,2143243,-13586260,-50995930,8197501,40942380,-2763672,3269043
2026-01-14 17:06:02.331,21104440,-1395745,-5105636,81957740,45947260,-19848630,31933590
2026-01-14 17:06:02.341,2081094,-14345840,-51116780,8192321,49902340,-103027300,29541020
2026-01-14 17:06:02.351,20560640,-31143950,-34784790,81880060,48754880,-37109380,1661377
2026-01-14 17:06:02.361,48026630,-15183120,-51211720,54172390,46557620,16815190,47180180
2026-01-14 17:06:02.371,20215380,-15614700,-51246260,81759220,41674800,11010740,-9686279
2026-01-14 17:06:02.381,20120430,-16054920,-51272150,81681540,38427740,20690920,-2220459
2026-01-14 17:06:02.391,47764230,-16495130,-51280780,53916890,40405270,27954100,-3515625
2026-01-14 17:06:02.401,2006000,13766660,-20587410,8151754,4255371,33544920,-4465332
2026-01-14 17:06:02.411,-25592050,13530150,-20392330,35744630,46118160,35961910,-5683594
2026-01-14 17:06:02.421,20154950,-17763990,-51237620,81353540,5107422,37963870,-6538086
2026-01-14 17:06:02.431,20249900,-18143780,-51203100,81258580,5473633,37963870,-7475586
2026-01-14 17:06:02.441,20379390,12839610,-19805380,81180900,64404300,35205080,-8227539
2026-01-14 17:06:02.451,2051747,-18825680,-51090880,8111184,70654300,37329100,-9003906
2026-01-14 17:06:02.461,-25099190,-19127790,-51030460,35270750,80078130,38110350,-92871100
2026-01-14 17:06:02.471,20828230,-33595340,-36752810,80973740,86035150,37695310,-984375
2026-01-14 17:06:02.481,-24864400,-19619800,-50883720,35056680,90185540,32739260,-10410160
2026-01-14 17:06:02.491,-24762550,-19809690,-50797400,34968640,9169922,29174800,-11240230
2026-01-14 17:06:02.501,48122440,-19965060,-50711090,54076580,8964844,25170900,-11425780
2026-01-14 17:06:02.511,2148423,15252170,-15252170,8085290,8203125,20581060,-10664060
2026-01-14 17:06:02.521,2166549,-33831850,-36861570,8086151,6665039,14367680,-9609375
2026-01-14 17:06:02.531,21855400,-20258540,-50365820,80861530,5576172,14868160,-76416020
2026-01-14 17:06:02.541,-24250690,-20293070,-50210450,34548270,50390620,1777649,-7036133
2026-01-14 17:06:02.551,-24123800,-20293060,-50055080,34450740,4946289,-35491940,-62646480
2026-01-14 17:06:02.561,22649510,-20301700,-49873820,80947840,56103520,14785770,-64160160
2026-01-14 17:06:02.571,2299476,-20284440,-49683920,8096510,62646480,12901310,-5654297
2026-01-14 17:06:02.581,23374570,-20275810,-49485390,80982370,6723633,-819397,-484375
2026-01-14 17:06:02.591,-23366810,-20267170,-49269600,33843930,6323242,-7727051,-4494629
2026-01-14 17:06:02.601,49771960,10932010,-17863250,55448150,59814450,-10443120,-41479490
2026-01-14 17:06:02.611,24703850,10839650,-17748450,80982370,5683594,-12683110,-3852539
2026-01-14 17:06:02.621,-22580460,-2023266,-4861359,33197420,51953120,-13256840,-3720703
2026-01-14 17:06:02.631,5056433,-20206750,-48397800,5608861,43969730,-99609380,-3569336
2026-01-14 17:06:02.641,26214390,-20180860,-48182010,80921940,40234380,-119140600,-3762207
2026-01-14 17:06:02.651,2671502,10518560,-17327220,8090469,37573240,-1381836,-36499020
2026-01-14 17:06:02.661,2720703,10454680,-17235730,8087879,34057620,-7366943,-328125
2026-01-14 17:06:02.671,-21157960,-19973700,-47526000,32013150,31152340,-2142334,-32128910
2026-01-14 17:06:02.681,-25816040,-1986150,-4731020,26906220,3269043,8734131,-2487793
2026-01-14 17:06:02.691,28588110,-19740640,-47085780,80878780,34057620,28125,-27514650
2026-01-14 17:06:02.701,-20451890,-31859510,-34587120,31441740,37646480,53125,-3569336
2026-01-14 17:06:02.711,29390850,-19404010,-46628310,80939220,50683590,8613281,-5239258
2026-01-14 17:06:02.721,-20072100,-19196840,-46369350,31148260,68603520,12919920,-73876950
2026-01-14 17:06:02.731,30141810,-31157760,-33873280,81068690,80615230,18447270,-10185550
2026-01-14 17:06:02.741,-19749270,-30847020,-33562540,30918660,6303711,2234375,-10400390
2026-01-14 17:06:02.751,30875500,-18212840,-45437140,81336270,24145510,2515625,-7763672
2026-01-14 17:06:02.761,-19498090,10543590,-16818820,30772780,-2109375,2453125,-43530270
2026-01-14 17:06:02.771,3160919,10691190,-16861110,8174197,-5703125,23867190,-17126460
2026-01-14 17:06:02.781,-19324590,-16348390,-44159650,30721850,-82177740,24472660,41748050
2026-01-14 17:06:02.791,3234289,-1555428,-4364175,8228575,-80908200,23828120,10357670
2026-01-14 17:06:02.801,57393120,-14742900,-43106580,57891520,-5102539,22480470,61767580
2026-01-14 17:06:02.811,3311110,11476670,-17128700,8282956,-26342770,2046875,99365230
2026-01-14 17:06:02.821,-18952570,-13240990,-42018990,30610510,-58135980,15712890,1394043
2026-01-14 17:06:02.831,-18836040,-12602250,-41466560,30554400,9527588,7919922,20166020
2026-01-14 17:06:02.841,-18694480,-25037040,-27926920,30471540,70739740,-66467280,33276370
2026-01-14 17:06:02.851,-23870460,11835750,-17028560,25053870,3152466,-8774414,55322260
2026-01-14 17:06:02.861,5921190,11850430,-16944840,5969805,25405880,-15361330,6928711
2026-01-14 17:06:02.871,35614290,11836610,-16837810,83865350,6591797,-20195310,81347660
2026-01-14 17:06:02.881,57631960,11802950,-16716100,62417360,7897949,-2390625,93652340
2026-01-14 17:06:02.891,-17672490,-10004110,-38333260,29732660,10614010,-26582030,10410160
2026-01-14 17:06:02.901,-17395420,-9753793,-37858520,29509100,19311520,-27714840,10693360
2026-01-14 17:06:02.911,-17102800,-9555266,-37418310,29266550,20922850,-27597660,10166020
2026-01-14 17:06:02.921,-16794650,11470630,-16116200,29005020,17053220,-27285160,9711914
2026-01-14 17:06:02.931,38669900,11343740,-15949610,83882610,87402340,-26601560,91748050
2026-01-14 17:06:02.941,-16166260,11211680,-15788190,28459490,-53222660,-26132810,86083980
2026-01-14 17:06:02.951,-15864160,11056310,-15615560,28191910,-21203610,-26171880,87646480
2026-01-14 17:06:02.961,-15564640,-958980,3,-3593365,27921740,-33789060,-26699220,9223633
2026-01-14 17:06:02.971,-15284970,-9762424,-35795560,27666240,-48583980,-27636720,98095700
2026-01-14 17:06:02.981,40767400,-9986850,-35709240,83235230,-65283200,-27558590,94189460
2026-01-14 17:06:02.991,-14793830,-10245800,-35674710,27207900,-78027340,-27578120,9003906
2026-01-14 17:06:03.001,-14583210,10256150,-14879280,27004190,-8828125,-27558590,8286133
2026-01-14 17:06:03.011,41518350,-10910440,-35752400,82725970,-98583980,-26816410,80859380
2026-01-14 17:06:03.021,-14220690,-11316130,-35881870,26641660,-10830080,-26015620,7573242
2026-01-14 17:06:03.031,-14079130,-11773610,-36063140,26489750,-12402340,-25195310,7451172
2026-01-14 17:06:03.041,41811830,-12282870,-36313460,82139010,-14111330,-2390625,77978510
2026-01-14 17:06:03.051,4180318,-12835300,-36606930,8192322,-15566410,-23242190,8286133
2026-01-14 17:06:03.061,-13809820,-13422250,-36952200,26154840,-17236330,-215625,8798828
2026-01-14 17:06:03.071,-13766660,9064983,-14206010,26077150,-18837890,-19775390,88916020
2026-01-14 17:06:03.081,6115507,-1474290,-3777221,6155282,-20683590,-17880860,8691406
2026-01-14 17:06:03.091,-13766660,-15459330,-38246950,25990830,-22773440,-1578125,77685540
2026-01-14 17:06:03.101,-13792550,-16218920,-38764850,25964940,-24609380,-1453125,6557617
2026-01-14 17:06:03.111,60557200,-17013030,-39300020,60596980,-25957030,-12685550,58203120
2026-01-14 17:06:03.121,58266390,-17850300,-39878340,62249050,-27148440,-10195310,54589840
2026-01-14 17:06:03.131,-13947060,-28501790,-30676970,25931280,-27773440,-7158203,5996094
2026-01-14 17:06:03.141,57561180,-19602540,-41078140,61555920,-27636720,-38085940,63671880
2026-01-14 17:06:03.151,39161900,-20508860,-41690990,79195620,-27695310,-826416,6123047
2026-01-14 17:06:03.161,3872168,7240249,-13613880,7884172,-27871090,16503910,48901370
2026-01-14 17:06:03.171,3828146,-31618690,-33671300,7847054,-27929690,32421880,3010254
2026-01-14 17:06:03.181,-14333760,-23314150,-43512270,25924370,-27128910,38305660,1262207
2026-01-14 17:06:03.191,55515480,-24255010,-44090600,59544740,-25976560,45922850,38604740
2026-01-14 17:06:03.201,-14444250,-25178600,-44668920,25865670,-24414060,6352539,-21514890
2026-01-14 17:06:03.211,3654649,-26102180,-45212710,7683916,-23007810,8442383,-1259613
2026-01-14 17:06:03.221,54266470,5728840,-13001890,58290560,-21445310,10634770,-9655762
2026-01-14 17:06:03.231,35795550,-36139960,-37971600,75950100,-19990230,11796880,-26049800
2026-01-14 17:06:03.241,35484810,-28778010,-46662840,75501260,-17744140,11601560,-4260254
2026-01-14 17:06:03.251,-19353430,48820750,-125539100,20455860,-15957030,11044920,-6230469
2026-01-14 17:06:03.261,52790460,-30487080,-47456950,56745490,-13945310,10537110,-77246100
2026-01-14 17:06:03.271,34828800,4269223,-12182750,74051140,-11542970,10371090,-87646480
2026-01-14 17:06:03.281,-1400748,-3216162,-4809569,2483505,-9399414,10996090,-9628906
2026-01-14 17:06:03.291,51942830,3614943,-11749440,55780470,-75439460,12041020,-10556640
2026-01-14 17:06:03.301,51709770,-33801640,-48561800,55495630,-5961914,13232420,-12412110
2026-01-14 17:06:03.311,34725220,29019690,-112367100,72014060,-43701170,14101560,-14355470
2026-01-14 17:06:03.321,-17793510,25187230,-109466900,18856580,-22399900,15087890,-15917970
2026-01-14 17:06:03.331,34966910,-36192610,-48967490,70943730,-10213850,15625,-17646480
2026-01-14 17:06:03.341,-12348480,-36986720,-49036540,22903280,22277830,16308590,-18867190
2026-01-14 17:06:03.351,35372600,52195730,-60879200,69847500,4482422,16669920,-19453120
2026-01-14 17:06:03.361,35622920,-38540430,-49071070,69303710,67529300,16621090,-19560550
2026-01-14 17:06:03.371,35881870,460065,5,-9293726,68751290,8935547,15585940,-19697270
2026-01-14 17:06:03.381,-10792180,28484,-8931193,21231330,10566410,13925780,-20058590
2026-01-14 17:06:03.391,-10372690,36343660,-45311980,20787660,12578130,11318360,-2078125
2026-01-14 17:06:03.401,36839980,32342020,-41372480,67102640,14853520,8925781,-20644530
2026-01-14 17:06:03.411,37211150,-1255048,-7832383,66558840,16865230,7211914,-19541020
2026-01-14 17:06:03.421,50377040,-16693660,-74698510,53220310,19042970,51660160,-18300780
2026-01-14 17:06:03.431,-8577294,-4340870,-4846685,18923220,209375,3161621,-18183590
2026-01-14 17:06:03.441,38385060,-24488070,-67819070,64970610,22402340,16418460,-18408200
2026-01-14 17:06:03.451,38782120,13491300,-22761730,64469980,23652340,75683590,-19199220
2026-01-14 17:06:03.461,39179170,14467550,-15398050,64003860,25175780,20980840,-19335940
2026-01-14 17:06:03.471,39567600,7158245,-16492540,63563650,2640625,41137700,-19140620
2026-01-14 17:06:03.481,39930120,-37737690,-55864200,63149330,27597660,8013916,-19169920
2026-01-14 17:06:03.491,-6094828,-40439400,-53386910,16399320,28496090,12634280,-18828120
2026-01-14 17:06:03.501,-5767689,-3841096,-90157840,16070450,29042970,15332030,-18798830
2026-01-14 17:06:03.511,-5474209,18598670,-28012370,15776980,29492190,15161130,-17490230
2026-01-14 17:06:03.521,-5223892,-39351800,-54888820,15526650,29375,1418457,-16689450
2026-01-14 17:06:03.531,41362980,-4716005,-4714968,61699210,28652340,74523930,-16005860
2026-01-14 17:06:03.541,-9462647,-62709110,-31635090,10493780,27167970,-16174320,-15898440
2026-01-14 17:06:03.551,41785930,-7219536,-2213164,61397100,25546880,-10809330,-15507810
2026-01-14 17:06:03.561,-4485880,-36650090,27224300,14814540,2421875,-14733890,-14677730
2026-01-14 17:06:03.571,-4331374,-85065150,-9106416,14675570,22929690,-9838867,-13964840
2026-01-14 17:06:03.581,-4175139,-47859180,38457560,14538330,21503910,29525760,-13544920
2026-01-14 17:06:03.591,4270088,-51660570,-42165730,6113813,20449220,17529300,-13691410
2026-01-14 17:06:03.601,-386698,8,-98590990,4989108,1427675,19335940,32617190,-13837890
2026-01-14 17:06:03.611,4327058,-5227342,-4105224,6112089,17880860,44140620,-13896480
2026-01-14 17:06:03.621,-3542442,-52549630,-40465290,14014380,16513670,5292969,-13740230
2026-01-14 17:06:03.631,-3369808,-52808580,-39861070,13876280,14990230,59814450,-13261720
2026-01-14 17:06:03.641,44245960,-53058910,-39248230,61198560,13964840,6142578,-12421880
2026-01-14 17:06:03.651,44617130,-11931570,2742281,61241740,12617190,5883789,-11669920
2026-01-14 17:06:03.661,-76254810,-53490490,-37953470,86883850,11289060,6020508,-11025390
2026-01-14 17:06:03.671,45376710,-46308940,-44668920,61362570,10097660,5805664,-10507810
2026-01-14 17:06:03.681,4579102,-53861650,-36598300,6143160,88916020,56884770,-9921875
2026-01-14 17:06:03.691,-2270994,-13560360,4566157,13041600,7504883,58984380,-94384770
2026-01-14 17:06:03.701,-2073328,-14050640,5111679,12894000,5830078,6035156,-90527340
2026-01-14 17:06:03.711,-67587740,-54509030,-34310900,78460190,42651370,5698242,-8857422
2026-01-14 17:06:03.721,47508740,-54828400,-33421850,61733740,2680664,55615230,-8540039
2026-01-14 17:06:03.731,47957580,-55225460,-32437840,61802790,14050290,50341800,-82373050
2026-01-14 17:06:03.741,48415060,-16523620,7817706,61863210,26794430,45263670,-74072260
2026-01-14 17:06:03.751,-9771056,-17183940,8538452,120567200,-8050537,38476560,-6582031
2026-01-14 17:06:03.761,4934727,-44297760,-41552880,6196678,-17834470,32861330,-57421880
2026-01-14 17:06:03.771,-511858,-18763530,10238890,11693330,-24243160,27197270,-49560550
2026-01-14 17:06:03.781,50262240,-57599170,-27043040,62053100,-34106440,20263670,-43115230
2026-01-14 17:06:03.791,-51329120,-58082540,-25972710,62608980,-42211910,16638180,-35327150
2026-01-14 17:06:03.801,165728,5,-5847097,-2498007,11162480,-5136719,16259770,-2878418
2026-01-14 17:06:03.811,370299,5,-21579190,13292780,11004520,-6308594,21594240,-28076170
2026-01-14 17:06:03.821,5645120,-22241240,14011800,108534700,-7685547,31762700,-3251953
2026-01-14 17:06:03.831,750093,-22904150,14729950,10711040,-91259770,4572754,-3479004
2026-01-14 17:06:03.841,9244520,-6003334,-2119077,105746600,-10175780,7158203,-32080080
2026-01-14 17:06:03.851,1089316,-60395820,-20344860,10446050,-11201170,99365230,-25878910
2026-01-14 17:06:03.861,-39705700,-60792880,-19533480,51272140,-12539060,12597660,-18823240
2026-01-14 17:06:03.871,1368984,-25144930,17150280,10225080,-13876950,15224610,-9631348
2026-01-14 17:06:03.881,14837850,-61483420,-18152420,101327200,-14804690,16679690,-6225586
2026-01-14 17:06:03.891,-36477460,-3971056,-3966633,48112950,-15742190,16826170,-36193850
2026-01-14 17:06:03.901,54094700,-41829100,-37340620,62398380,-16083980,15029300,15820310
2026-01-14 17:06:03.911,17392820,-26738340,18836900,99221100,-16679690,12558590,33984380
2026-01-14 17:06:03.921,-34646680,-62484700,-16391550,46318420,-17041020,9003906,38061520
2026-01-14 17:06:03.931,18264620,-27156120,19282300,98539200,-16728520,49853520,3894043
2026-01-14 17:06:03.941,-34033830,-27322700,19460980,45722840,-16445310,93688970,5161133
2026-01-14 17:06:03.951,18868840,-62804070,-15675120,98107620,-15810550,-19555660,640625
2026-01-14 17:06:03.961,19179580,-27567850,19733730,97900450,-15410160,-42749020,7026367
2026-01-14 17:06:03.971,1948170,-27733570,19913270,9768465,-14931640,-62939450,80908200
2026-01-14 17:06:03.981,54750710,-63114810,-14950070,62519220,-13818360,-76904300,9355469
2026-01-14 17:06:03.991,-3262946,-63313330,-14630690,4436506,-13085940,-9013672,10048830
2026-01-14 17:06:04.001,20646960,-41380250,-36460200,96778340,-12138670,-9663086,10712890
2026-01-14 17:06:04.011,-31760250,-6373631,-1401783,43507960,-11591800,-9819336,11328130
2026-01-14 17:06:04.021,-31413260,-6388304,-1381930,43164420,-10615230,-9042969,11474610
2026-01-14 17:06:04.031,-31067120,-4137163,-3631344,42820010,-97265620,-8691406,11708980
2026-01-14 17:06:04.041,-30981670,-29262240,21492010,42732830,-8696289,-81103520,11542970
2026-01-14 17:06:04.051,-31069710,-64349130,-13422250,42817420,-7597656,-75634770,10927730
2026-01-14 17:06:04.061,-31419300,-29270870,21483380,43158380,-6489258,-7216797,10585940
2026-01-14 17:06:04.071,-32115010,-4155290,-3649471,43843730,-5234375,-66308590,98828130
2026-01-14 17:06:04.081,1963707,-6424556,-1400921,9749476,-4794922,-54541020,9350586
2026-01-14 17:06:04.091,-34376510,-6402978,-1448394,46070700,-40893560,-48828120,890625
2026-01-14 17:06:04.101,5416376,-4186362,-3697809,6253648,-37182620,-36328120,92578130
2026-01-14 17:06:04.111,1436312,-27869950,19949530,10206090,-34326170,-234375,9013672
2026-01-14 17:06:04.121,53430060,-63123440,-16512400,62665960,-3334961,-93566900,74560540
2026-01-14 17:06:04.131,-42895970,-62665960,-17435980,54469320,-28686520,31223300,5605469
2026-01-14 17:06:04.141,6223440,-6224305,-1839410,109113000,-2364502,10491940,4375
2026-01-14 17:06:04.151,5200584,-25207080,17088130,6288174,-18115230,23364260,37475580
2026-01-14 17:06:04.161,51453410,-61353940,-20439810,62950800,-119018600,36621100,40551760
2026-01-14 17:06:04.171,50875090,-60896470,-21536030,63011220,-9326172,52783200,35742190
2026-01-14 17:06:04.181,5027951,-23144110,14835260,6307164,-55999760,65722660,15734860
2026-01-14 17:06:04.191,49683920,-22572690,14198240,63097540,-1360321,7939453,-21484380
2026-01-14 17:06:04.201,-13983320,-22002140,13560360,126195100,10296630,9633789,-680542
2026-01-14 17:06:04.211,-67355540,-21604220,13095120,78519750,18310550,11220700,-49926760
2026-01-14 17:06:04.221,-70146170,-59877930,-25869130,81253400,2854004,12695310,-4888916
2026-01-14 17:06:04.231,-2303795,-60024660,-26361130,13354060,35595700,13232420,-115600600
2026-01-14 17:06:04.241,-2580873,-43652100,-43320650,13577620,48339840,13349610,-2253418
2026-01-14 17:06:04.251,46412510,-6024912,-2727611,63054380,59277340,12695310,-30297850
2026-01-14 17:06:04.261,45946400,-60318140,-27690420,63054380,7026367,11875,-33154300
2026-01-14 17:06:04.271,45523450,-20563240,11719220,63063010,7729492,10761720,-38330080
2026-01-14 17:06:04.281,-3565743,-20407870,11529330,14388140,8676758,9658203,-3713379
2026-01-14 17:06:04.291,-3788442,-20163590,11255700,14579760,9848633,84375,-36914060
2026-01-14 17:06:04.301,44453120,-60007400,-29278640,63218380,11308590,7363281,-31713870
2026-01-14 17:06:04.311,44168280,-19491190,10547040,63313330,13144530,5703125,-24658200
2026-01-14 17:06:04.321,-4412513,-59265080,-30262650,15146860,14707030,42626950,-22998050
2026-01-14 17:06:04.331,43641750,-5866952,-3087552,63615440,15878910,28198240,-17016600
2026-01-14 17:06:04.341,-4851865,-57797690,-31730040,15570680,16865230,10595700,-116760300
2026-01-14 17:06:04.351,-5103046,-16470100,7525956,15820130,17285160,-3744507,-115356400
2026-01-14 17:06:04.361,-5378397,-55346300,-33939740,16097210,17832030,-5697632,-15905760
2026-01-14 17:06:04.371,5350087,-134326100,45212710,5372176,18544920,-64331060,-15625
2026-01-14 17:06:04.381,-6021458,-51522460,-37366520,16748900,18710940,-7897949,-24914550
2026-01-14 17:06:04.391,41906780,-5363208,4476903,65419460,18134770,-43396000,-35498050
2026-01-14 17:06:04.401,41526980,-70071940,-18281890,65851050,16689450,-23727420,-4506836
2026-01-14 17:06:04.411,41129920,-44032760,-44027580,66299890,14902340,29418940,-55078120
2026-01-14 17:06:04.421,4070697,17191710,-25966670,6675738,13271480,1282959,-5678711
2026-01-14 17:06:04.431,40266760,-39058330,-48380540,67232110,11552730,22509770,-5366211
2026-01-14 17:06:04.441,-8572981,-36486090,-50642030,19324590,98291020,2692871,-5
2026-01-14 17:06:04.451,-9039091,-33991540,-52808580,19790700,81396480,22302250,-43359380
2026-01-14 17:06:04.461,-9496570,7415471,-16062680,20248180,6723633,9197998,-37695310
2026-01-14 17:06:04.471,3843683,-41682360,-44461760,6907927,58154300,-256958,-25073240
2026-01-14 17:06:04.481,-15206510,11591480,-20173090,16281840,43017580,-16809080,-25805660
2026-01-14 17:06:04.491,37625470,13507710,-22054790,69925200,2927246,-3305664,-32495120
2026-01-14 17:06:04.501,-11141770,-2306384,-6207900,21900280,19934080,-44604490,-3642578
2026-01-14 17:06:04.511,-11476680,16735090,-25214850,22238650,1237793,-5292969,-34350580
2026-01-14 17:06:04.521,-11775330,-39999180,-44470390,22544200,91552740,-49975580,-31201170
2026-01-14 17:06:04.531,36451560,-18411360,-65712940,71323530,7965088,-3857422,-1953125
2026-01-14 17:06:04.541,5393052,-1720293,-6657611,5393088,81604000,-30151370,-15002440
2026-01-14 17:06:04.551,-12494350,21550700,-29894080,23292580,625,-23669430,-22070310
2026-01-14 17:06:04.561,-12686840,22603760,-30912620,23497150,28335570,-13708500,-31445310
2026-01-14 17:06:04.571,-12870690,-3861813,-4414238,23693080,2456665,-637207,-4177246
2026-01-14 17:06:04.581,3570923,24450080,-32691600,7263555,-29754640,39916990,-4633789
2026-01-14 17:06:04.591,-13221140,-11695920,-70391300,24067700,-50994870,7458496,-50341800
2026-01-14 17:06:04.601,35476180,2603655,-3421252,73110280,-9362793,7598877,-54003900
2026-01-14 17:06:04.611,-13563820,-40416090,-41032390,24432820,-14978030,4058838,-54541020
2026-01-14 17:06:04.621,52471940,-9071896,-72083120,56304410,-21472170,-57250980,-54833980
2026-01-14 17:06:04.631,-13883190,-8407250,-72454280,24769450,-27490230,-12426760,-5258789
2026-01-14 17:06:04.641,52526330,28511280,-36571540,56422670,-29858400,-2397461,-45996100
2026-01-14 17:06:04.651,3488921,-36883140,-43460480,7414607,-32421880,-26342770,-4489746
2026-01-14 17:06:04.661,34802910,-36727780,-43374170,74318720,-34399420,-27270510,-41308590
2026-01-14 17:06:04.671,-14410580,-36589670,-43287850,25329650,-34423830,-25585940,-40600580
2026-01-14 17:06:04.681,3466479,29680010,-37647050,7461221,-3876953,-25097660,-45996100
2026-01-14 17:06:04.691,34621640,29862130,-37810180,74724400,-4296875,-18762210,-48828120
2026-01-14 17:06:04.701,52695500,33525940,-34319020,56719590,-43188480,-15734860,-48510740
2026-01-14 17:06:04.711,-1470580,30137490,-38052740,2565594,-4050293,-9661865,-4711914
2026-01-14 17:06:04.721,3455257,-5230796,-73766290,7501789,-37451170,-56884770,-45581060
2026-01-14 17:06:04.731,34543960,30584610,-38468780,75095570,-3112793,-12184140,-43017580
2026-01-14 17:06:04.741,52812900,-4393528,-74310090,56878420,-24975590,418396,-36132810
2026-01-14 17:06:04.751,-19839300,34997040,-35782690,20936730,-19348140,40985110,-29370120
2026-01-14 17:06:04.761,-14958690,-321962,5,-7520777,25938180,-8691406,-4812622,-21350100
2026-01-14 17:06:04.771,-15026020,32771010,-40598220,26008960,3829956,-17980960,-12286380
2026-01-14 17:06:04.781,34328160,-1691816,-76442110,75535780,20251460,-31567380,-791626
2026-01-14 17:06:04.791,52870730,34252210,-42051800,57010480,29711910,-4506836,-44021610
2026-01-14 17:06:04.801,-15307410,-35027340,-42813100,26297260,39135740,-57714840,7879639
2026-01-14 17:06:04.811,-15428260,35993220,-43763450,26418100,45629880,-68115230,10626220
2026-01-14 17:06:04.821,3389657,36951340,-44704300,7600192,48388670,-7265625,9777832
2026-01-14 17:06:04.831,3374985,-3449218,-4286490,7614863,51171880,-7104492,10467530
2026-01-14 17:06:04.841,-15868470,39041920,-46756920,26858320,46875,-6401367,56488040
2026-01-14 17:06:04.851,52786140,555014,-8249294,57095070,35791020,-52783200,-63705440
2026-01-14 17:06:04.861,33214680,41394920,-49065030,76666530,2553711,-27294920,-57678220
2026-01-14 17:06:04.871,33007520,820869,-8466811,76873700,122924800,44067380,-5657959
2026-01-14 17:06:04.881,32791730,-33326900,-42873530,77072220,36582950,35083010,-90789790
2026-01-14 17:06:04.891,3256729,-33050680,-42873530,7727937,-19799800,68652340,4095459
2026-01-14 17:06:04.901,-17088130,-32774470,-42856260,28072790,-33374020,10576170,362854
2026-01-14 17:06:04.911,-17312550,-32489620,-42847630,28297220,-48706060,13271480,-5621338
2026-01-14 17:06:04.921,-17545610,-32178880,-42813100,28530270,-69873050,14873050,-12988280
2026-01-14 17:06:04.931,31660980,-31876780,-42769950,78202970,-8642578,14423830,-12756350
2026-01-14 17:06:04.941,-18008260,1863577,-9288544,28999840,-97216800,14746090,-1361084
2026-01-14 17:06:04.951,52619540,53277280,-60660820,57365250,-10527340,13125,-95703130
2026-01-14 17:06:04.961,-18440710,2140654,-9477578,29447820,-10322270,11894530,-8282471
2026-01-14 17:06:04.971,30961820,55484400,-62769540,79264670,-94628900,11552730,-6008911
2026-01-14 17:06:04.981,52766290,-30141810,-42157100,57632830,-9433594,103125,-54656980
2026-01-14 17:06:04.991,30815080,-29753390,-41924050,79825720,-1015625,7519531,37017820
2026-01-14 17:06:05.001,3081507,2604176,-9704592,8011921,-1109375,47387700,21655270
2026-01-14 17:06:05.011,53162480,58808460,-65832920,58117070,-11269530,19445800,3425293
2026-01-14 17:06:05.021,3098769,-28415470,-41000460,8070615,-10126950,1159668,38305660
2026-01-14 17:06:05.031,5359665,2925275,-9780550,5858059,-7866211,1697998,29418940
2026-01-14 17:06:05.041,-24373430,-27448720,-40206340,25500380,-60595700,24145510,23706060
2026-01-14 17:06:05.051,56374590,-32730450,-34009660,56872980,-46411130,1673584,2211914
2026-01-14 17:06:05.061,32049410,-26533770,-39308650,81785120,-3256836,113708500,11981200
2026-01-14 17:06:05.071,54733440,3113442,-9609646,59688030,-21923830,17553710,-19073490
2026-01-14 17:06:05.081,-18910270,-25722390,-38376420,30411110,-18847660,12133790,-10131840
2026-01-14 17:06:05.091,-18751450,-25359860,-37893050,30310990,-54656980,53520200,1210022
2026-01-14 17:06:05.101,-18574500,30685600,-93092610,30194460,19897460,-5822754,-73928830
2026-01-14 17:06:05.111,55971230,3032305,-9190146,60815330,3696289,-14758300,-982666
2026-01-14 17:06:05.121,-23478330,2977927,-9054625,24651890,515625,-3635254,-1607666
2026-01-14 17:06:05.131,35044590,29304530,-89294670,82864070,73291020,-56884770,-17651370
2026-01-14 17:06:05.141,3546753,-23780260,-35450290,8297628,9453125,-56103520,-20996090
2026-01-14 17:06:05.151,-17678530,-28659750,-29811210,29571250,10722660,-61328120,-1303711
2026-01-14 17:06:05.161,-17543020,53909120,-59683710,29482350,12011720,-72314460,-30822750
2026-01-14 17:06:05.171,36486090,2767311,-8471127,83321550,13066410,-8666992,10021970
2026-01-14 17:06:05.181,36770940,-22606360,-33723950,83451030,14121090,-7705078,15332030
2026-01-14 17:06:05.191,37012620,2732784,-8298494,83571870,14023440,-5683594,9362793
2026-01-14 17:06:05.201,37228410,-22019400,-32981630,83701340,13164060,-47631840,9277344
2026-01-14 17:06:05.211,5830004,-21751820,-32644990,6294044,12802730,-5126953,72265620
2026-01-14 17:06:05.221,-1709937,51517290,-56896550,2925277,12109380,-5415039,11694340
2026-01-14 17:06:05.231,37737680,27422830,-80645740,84055250,11367190,-51464840,10107420
2026-01-14 17:06:05.241,-17047560,27526410,-80196890,29252750,10400390,-55322260,89538580
2026-01-14 17:06:05.251,3800523,27629990,-79748040,8428831,9760742,-67626950,59448240
2026-01-14 17:06:05.261,-22511670,27716300,-79316460,23736850,9082031,-79345700,23529050
2026-01-14 17:06:05.271,-22493200,-20206750,-30875500,23720790,91845700,-69384770,-14251710
2026-01-14 17:06:05.281,-16931900,-19973690,-30607910,29230300,89453130,-53564450,-19577030
2026-01-14 17:06:05.291,3854905,-19757900,-30357600,8465945,8725586,-47094730,8746338
2026-01-14 17:06:05.301,38687160,-19550750,-30098650,84728510,8984375,-5185547,11920170
2026-01-14 17:06:05.311,-16795510,2788030,-7708085,29159520,82958980,-5444336,59051510
2026-01-14 17:06:05.321,-16733370,-19153690,-29598010,29118090,765625,-62060550,25894160
2026-01-14 17:06:05.331,39170540,2771627,-7603644,84901150,7783203,-67333980,76416020
2026-01-14 17:06:05.341,39343170,-18782520,-29106010,84952940,8071289,-6660156,7556152
2026-01-14 17:06:05.351,39533060,48899300,-53645000,84987460,7368164,-64990230,53985600
2026-01-14 17:06:05.361,3972294,27500510,-74525870,8502200,73583980,-6845703,14944080
2026-01-14 17:06:05.371,-1631474,-18238730,-28372310,2881166,7138672,-7084961,-7092285
2026-01-14 17:06:05.381,-16208560,-18057460,-28139260,28727940,67578130,-66748050,-37628180
2026-01-14 17:06:05.391,-16093760,-17884830,-27914830,28635580,7314453,-53564450,21438600
2026-01-14 17:06:05.401,40568870,-17712200,-27690410,85073780,71777340,-40600580,368042
2026-01-14 17:06:05.411,40801920,-17556830,-27465990,85065150,66503900,-2680664,8099365
2026-01-14 17:06:05.421,41052240,-17384190,-27258830,85056520,61816410,-18151860,46875
2026-01-14 17:06:05.431,-15556870,-17228820,-27051670,28188460,515625,-12408450,23010250
2026-01-14 17:06:05.441,-15416170,2707756,-7097826,28070210,42504880,-1204834,28915400
2026-01-14 17:06:05.451,-15275480,-16857660,-26663240,27951950,42529300,-15893560,66711420
2026-01-14 17:06:05.461,-15143410,-16650500,-26473340,27842330,41552740,-14746090,16442870
2026-01-14 17:06:05.471,61469610,-16434710,-26274820,65744020,43920900,-12963870,24621580
2026-01-14 17:06:05.481,-20622710,-16184390,-26076290,21896920,47998050,-44708250,29589840
2026-01-14 17:06:05.491,-14765340,-1593408,-2587775,27529860,4404297,44799800,36816410
2026-01-14 17:06:05.501,-14641910,-15657860,-25670600,27428870,45483400,81604000,43945310
2026-01-14 17:06:05.511,-14509850,-15381640,-25463440,27319250,4482422,1496582,42333980
2026-01-14 17:06:05.521,-14376920,-15105430,-25239020,27210490,3239746,2709961,34057620
2026-01-14 17:06:05.531,-14236220,31004980,-70848780,27092240,1842041,37841800,34301760
2026-01-14 17:06:05.541,-14077400,49217800,-53153850,26957580,7122803,6171875,31201170
2026-01-14 17:06:05.551,-13909950,49413750,-53303180,26814300,-111084000,10517580,29125980
2026-01-14 17:06:05.561,-13725230,49436190,-53280740,26653750,-40161130,1671875,27783200
2026-01-14 17:06:05.571,44755230,49197950,-53001070,84771670,-70996100,22539060,29956060
2026-01-14 17:06:05.581,45065980,-13750260,-23883840,84702620,-9814453,26230470,24975590
2026-01-14 17:06:05.591,-13136550,-13620780,-23616260,26137570,-12109380,25761720,14855960
2026-01-14 17:06:05.601,-12943200,-13491310,-23296890,25968390,-12998050,21035160,124694800
2026-01-14 17:06:05.611,45989560,46177730,-49806490,84521350,-12695310,15117190,16577150
2026-01-14 17:06:05.621,-12526290,2884705,-6454766,25608450,-11835940,94091800,2529297
2026-01-14 17:06:05.631,46740520,27880310,-62924910,84409140,-10800780,52783200,40795900
2026-01-14 17:06:05.641,47189370,-12757620,-21544660,84322830,-89990230,20751950,62841800
2026-01-14 17:06:05.651,64129020,40793290,-44142380,67780220,-6689453,-4309082,80810540
2026-01-14 17:06:05.661,-11258300,24496690,-57158950,24494100,-47729490,-6964111,1015625
2026-01-14 17:06:05.671,-16754600,-12006660,-19826960,18082840,-29052730,-43670660,10556640
2026-01-14 17:06:05.681,49778860,21700020,-52705010,83528720,-35913090,-25,10244140
2026-01-14 17:06:05.691,65287390,20189480,-50417610,68538090,-46240230,-4794922,9038086
2026-01-14 17:06:05.701,51643310,-11393820,-18057470,82717340,-52734380,-55615230,7207031
2026-01-14 17:06:05.711,-7989480,17073450,-45765140,21479060,-48266600,-5917969,54248050
2026-01-14 17:06:05.721,-7081426,28124590,-30916070,20626250,-40820310,-40307620,30639650
2026-01-14 17:06:05.731,-6104321,-10806860,-16313860,19704390,-43115230,-24401860,25732420
2026-01-14 17:06:05.741,-5066795,12395080,-38704430,18722100,-39697260,-7928467,15332030
2026-01-14 17:06:05.751,-3970573,10841380,-36287560,17677670,-33544920,-107421900,48187260
2026-01-14 17:06:05.761,-2839822,9132311,-33680790,16598710,-4255371,24627690,52215580
2026-01-14 17:06:05.771,60473510,-9891902,-13724370,77598760,-5488281,7885742,-6719971
2026-01-14 17:06:05.781,-4100048,-9641586,-12990670,142638400,-63720700,2626953,-42919920
2026-01-14 17:06:05.791,63425540,13333340,-15496450,75527150,-8808594,39916990,-5878906
2026-01-14 17:06:05.801,2244234,1855810,-22485510,11687290,-9555664,35498050,-60839840
2026-01-14 17:06:05.811,66472520,146736,-19706120,73170700,-8066406,32983400,-4892578
2026-01-14 17:06:05.821,-12598790,6932960,-8776686,26589010,-78515620,3251953,-4321289
2026-01-14 17:06:05.831,64357770,-2934772,-14328580,75751580,-7519531,25708010,-5317383
2026-01-14 17:06:05.841,15126140,29106010,-45126400,-1101400,-57714840,12182620,-68896480
2026-01-14 17:06:05.851,28768510,10746430,-25506600,-14735130,-4650879,1607666,-74902340
2026-01-14 17:06:05.861,105133800,-67324470,-67329660,35217230,-41308590,24206540,-7006836
2026-01-14 17:06:05.871,11746850,-17315140,5127215,2286530,-35302740,32763670,-45092770
2026-01-14 17:06:05.881,12882770,-7967036,-2960665,1143697,-4494629,48168940,-20629880
2026-01-14 17:06:05.891,70766780,-52307950,-44539450,69394350,-54589840,55810550,61828610
2026-01-14 17:06:05.901,77745490,-47733160,-37202520,62312060,-6557617,67626950,20593260
2026-01-14 17:06:05.911,91157380,-43503640,-29865600,-77160260,-8442383,8041992,15246580
2026-01-14 17:06:05.921,78884870,-39705710,-22614990,61000040,-10742190,69091800,1998291
2026-01-14 17:06:05.931,79230140,-36253040,-15709650,60602980,-11660160,5395508,21472170
2026-01-14 17:06:05.941,7943730,-33231950,-8890625,6036129,-11142580,27807620,19030760
2026-01-14 17:06:05.951,16622020,-15795970,12515930,-2643883,-11357420,4498291,20422360
2026-01-14 17:06:05.961,7952362,-28139260,4143205,6027498,-12421880,-14318850,73776250
2026-01-14 17:06:05.971,79437300,-26240290,10358010,60378560,-13740230,-52001950,-19897460
2026-01-14 17:06:05.981,16367380,-62752270,-21838140,-2380618,-12724610,-8564453,-29101560
2026-01-14 17:06:05.991,16179210,-10884540,-6378808,-2188993,-11386720,-11943360,-41455080
2026-01-14 17:06:06.001,78971190,18255990,23176040,60965520,-11435550,-14736330,-53515620
2026-01-14 17:06:06.011,9521342,-21579180,31419290,-8121802,-10976560,-16464840,-6953125
2026-01-14 17:06:06.021,156742600,47646840,104270600,-16754080,-10761720,-17958980,-7055664
2026-01-14 17:06:06.031,78539610,-19852860,39878330,61448890,-10322270,-18994140,-7685547
2026-01-14 17:06:06.041,154584700,-19076000,43589950,-14596160,-92529300,-19970700,-8017578
2026-01-14 17:06:06.051,154066800,11143490,17686290,-14078260,-7871094,-19414060,-82177740
2026-01-14 17:06:06.061,90984750,-32282460,35562490,-76987630,-6508789,-17509770,-89453130
2026-01-14 17:06:06.071,154213500,-16831770,53257430,-14276790,-6191406,-15712890,-8930664
2026-01-14 17:06:06.081,15480050,16158490,23374570,-1489826,-51123050,-14287110,-8154297
2026-01-14 17:06:06.091,15547380,-15882280,58177490,-1560607,-38452150,-13076170,-77197260
2026-01-14 17:06:06.101,78548240,-35830080,40301280,61284890,-2915039,-12626950,-75097660
2026-01-14 17:06:06.111,94083520,19576640,27379670,-80103660,-21325680,-10966800,-80810540
2026-01-14 17:06:06.121,78669090,-39720380,40208920,61095000,-2064209,-9394531,-9458008
2026-01-14 17:06:06.131,15851210,-40661230,41167040,-1878255,-24353030,-7241211,-98291020
2026-01-14 17:06:06.141,78781300,25562700,26399970,60913730,-2614746,-56103520,-10146480
2026-01-14 17:06:06.151,7884175,-16054910,69398660,6081877,-22583010,-4477539,-95947260
2026-01-14 17:06:06.161,16061820,-40940030,46412510,-2099226,-19799800,-21044920,-83984380
2026-01-14 17:06:06.171,16145550,-1648650,7259238,-2188129,-234375,-19104000,-82910160
2026-01-14 17:06:06.181,79022980,-16659130,74146080,60516670,-21911620,13671880,-8666992
2026-01-14 17:06:06.191,16331990,24902380,34138270,-2381478,-9057617,29370120,-85058590
2026-01-14 17:06:06.201,10166210,-1648649,7708085,-8771680,-13256840,54052740,-8339844
2026-01-14 17:06:06.211,16577130,26516500,35976820,-2636975,-2163086,8847656,-9379883
2026-01-14 17:06:06.221,79428660,27336510,36883140,59921080,-37939450,12216800,-9404297
2026-01-14 17:06:06.231,16873200,-47958970,48025260,-2945129,-40014650,13847660,-7480469
2026-01-14 17:06:06.241,17034610,-13810680,82518800,-3111719,-26293940,16416020,-5463867
2026-01-14 17:06:06.251,17195160,-44591230,51738250,-3279175,-14672850,17402340,-3930664
2026-01-14 17:06:06.261,17347080,-10616960,85539900,-3437997,7885742,19853520,-2211914
2026-01-14 17:06:06.271,17508490,34578490,44142380,-3604586,2763672,22402340,-9185791
2026-01-14 17:06:06.281,11398130,3677957,4625714,-10008430,3840332,26328120,14770510
2026-01-14 17:06:06.291,17778660,-302108,5,9054626,-3886843,37890620,29375,21191410
2026-01-14 17:06:06.301,17862390,17263,5,9218628,-3975749,48608400,31386720,30615230
2026-01-14 17:06:06.311,80369520,-4025815,5002915,58462330,47460940,31953120,4243164
2026-01-14 17:06:06.321,17876200,776851,9598422,-3996466,5673828,340625,4494629
2026-01-14 17:06:06.331,80257300,-37556420,48587690,58522740,4584961,34179690,3930664
2026-01-14 17:06:06.341,70462940,-36071770,47828100,68317100,4675293,31191410,4572754
2026-01-14 17:06:06.351,79946560,-34388590,46921780,58833490,64990230,27246090,57470700
2026-01-14 17:06:06.361,79730770,-32679520,46041350,59049280,74609380,23183590,51953120
2026-01-14 17:06:06.371,79489090,-30763290,45022810,59290960,70996100,2015625,43432620
2026-01-14 17:06:06.381,79238770,75595340,76322130,59541280,5991211,18310550,2734375
2026-01-14 17:06:06.391,16518440,-26697770,42873530,-2643884,36083980,16894530,-6994629
2026-01-14 17:06:06.401,70294630,8546735,8613027,68433640,9875488,13232420,-2878418
2026-01-14 17:06:06.411,7835836,-22407830,40603400,6033540,27877810,10546880,-3486328
2026-01-14 17:06:06.421,94025690,662916,1,1261947,-80161500,-61828610,6147461,-3017578
2026-01-14 17:06:06.431,15310000,-27380530,29415880,-1452712,-9954834,1484375,-26733400
2026-01-14 17:06:06.441,77288020,-16270710,37763580,61198580,-60455320,-19311520,-26049800
2026-01-14 17:06:06.451,14628100,-14406260,37038510,-788072,6,-6225586,-56396480,-34057620
2026-01-14 17:06:06.461,14285420,9434420,14337210,-457478,6,-1418457,-81933590,-5131836
2026-01-14 17:06:06.471,77342390,-10936330,35847340,-63526540,-27929690,-10048830,-71777340
2026-01-14 17:06:06.481,13625960,10772330,15243540,177812,9,-45654300,-12275390,-9506836
2026-01-14 17:06:06.491,7533727,-7768506,34871970,6254511,-6352539,-15146480,-99609380
2026-01-14 17:06:06.501,6748159,-6378807,34535330,-5370715,-6958008,-16933590,-9868164
2026-01-14 17:06:06.511,12593610,-18306920,21226150,1165275,-7597656,-19033200,-88183590
2026-01-14 17:06:06.521,122233100,13171940,17021660,15200380,-7675781,-20664060,-86083980
2026-01-14 17:06:06.531,11844390,-3323193,34483540,1883431,-75341800,-21523440,-88134770
2026-01-14 17:06:06.541,11456820,-2606767,34682070,2255456,-7709961,-22382810,-8964844
2026-01-14 17:06:06.551,110606300,-2183816,35105020,26361130,-76220700,-23359380,-93310540
2026-01-14 17:06:06.561,10665300,-1890338,35571130,3017633,-6904297,-24394530,-9658203
2026-01-14 17:06:06.571,102872300,-1709070,36097660,33818900,-68066410,-25292970,-103125
2026-01-14 17:06:06.581,99186570,-17325500,20826500,37383780,-6777344,-26347660,-10117190
2026-01-14 17:06:06.591,70978260,15839120,19706110,65471250,-56396480,-26445310,-8730469
2026-01-14 17:06:06.601,9269556,16072180,19956430,4366765,-35473630,-27402340,-54003900
2026-01-14 17:06:06.611,2873744,16279340,20163590,-1511147,-11828610,-26992190,-3269043
2026-01-14 17:06:06.621,26575200,-75958,13,3756504,-12957870,-48187260,-25957030,-16113280
2026-01-14 17:06:06.631,86178640,-86320,37202520,49925600,42236330,-24941410,-64453120
2026-01-14 17:06:06.641,85030630,820008,36555140,51021830,14648440,-23515620,8514404
2026-01-14 17:06:06.651,8440052,17116610,20465700,5160016,1862793,-21523440,23547360
2026-01-14 17:06:06.661,23025860,3323196,34397220,-9429242,25219730,-19833980,27490230
2026-01-14 17:06:06.671,6963173,4842369,32981630,6631716,29833980,-19013670,3071289
