Frame,Time,RightHand_Accel_X,RightHand_Accel_Y,RightHand_Accel_Z,LeftHand_Accel_X,LeftHand_Accel_Y,LeftHand_Accel_Z,Label
1.0,0.016667,1.8952723300249523,5.633161400404775,5.745946225376231,-12.793588481675382,12.944157136790764,-3.4878582866116883,0
2.0,0.033334,0.5007159029714574,4.377442928317393,4.426009719119728,-13.249411999157696,13.57175024539716,-6.190596441098661,0
3.0,0.050001,0.2906711254716014,5.271646334733237,3.3804555959415707,-13.60097433029221,14.92142351770121,-8.42792007834057,0
4.0,0.066668,2.0937025372265885,8.068513675929609,3.084902405428553,-13.016413538328823,15.73437002015442,-8.922511076277667,0
5.0,0.083335,5.316129941125333,10.65886394797203,3.3824651999135176,-10.23543065255558,14.16994024780081,-7.130996669182737,0
6.0,0.100002,8.459590431814162,10.776719730418668,3.479122857237348,-4.235484674513494,9.31456498626338,-3.5066827223314,0
7.0,0.116669,10.425519772874384,7.595782092658971,2.515109086492907,4.780429123163842,1.903626599947872,0.8251049904069359,0
8.0,0.133336,10.983657325583248,2.344892720672887,0.3833366762838918,14.851760520493684,-6.12636909536722,4.715090813358208,0
9.0,0.150003,10.302924265208311,-2.3243511620972765,-1.994849932781745,22.94645946249169,-12.656552737421633,7.441761785837453,0
10.0,0.16667,8.774908930598615,-4.137930032750866,-3.400084344197169,26.648309945123,-16.426040594273633,8.756910143125928,0
11.0,0.183337,7.22879397504609,-2.892738573261836,-3.378713416721663,25.5588513133822,-17.58805412659669,8.738706545041262,0
12.0,0.200004,6.60833245326742,-0.3245621105153515,-2.462575538174693,21.33641221354521,-17.351426893053343,7.727214961464817,0
13.0,0.216671,7.309653611669279,1.6149521106052027,-1.422590668163617,16.469086298227893,-16.992718069714737,6.325823067224075,0
14.0,0.233338,9.162400011928677,2.11169055644602,-0.6165607015856684,12.76150531492927,-17.0686456647965,5.205486666896169,0
15.0,0.250005,11.833178397213535,1.4599396283174202,-0.1231095840962352,10.599531241170816,-17.350966363203412,4.677796593749953,0
16.0,0.266672,14.79337566729568,0.2980620721796589,-0.1708224752629252,9.368909404430449,-17.38382781745388,4.46295769584345,0
17.0,0.283339,17.147108320160484,-0.995541491156262,-1.098423584032853,8.425269091214025,-17.09559035738107,4.023647110261323,0
18.0,0.300006,18.024207702005512,-2.3636001176577186,-2.862690791988362,7.6342086683145265,-16.83510014135779,3.175083814433461,0
19.0,0.316673,17.096494160813485,-3.636798743024222,-4.775000804417145,7.0613955796143095,-16.791086565812883,2.256914063858056,0
20.0,0.33334,14.471002479212371,-4.106992523839238,-5.87266854393569,6.337978977202967,-16.458545313163043,1.6369337717766743,0
21.0,0.350007,10.402912355732044,-2.797985475027425,-5.567738612768827,4.603815534125947,-14.8152179263804,1.1756498884515896,0
22.0,0.366674,5.6432628916232,0.5423043279365298,-3.977706664478035,1.25240659558538,-11.2168054554287,0.3710571130624116,0
23.0,0.383341,1.78535064807154,4.786173886304768,-1.7440152734565455,-3.3253063548553574,-6.235252821355665,-0.9736938029264924,0
24.0,0.400008,0.2236469269515324,8.038191595156485,0.4200200617882813,-7.859990069701119,-1.4873676922040575,-2.42850680512225,0
25.0,0.416675,0.3570358465111363,8.898133632107541,2.0576993525886342,-11.045211990093389,1.5441278692196012,-3.3825572538495106,0
26.0,0.433342,-0.3449806200912686,7.140962287673799,2.9922849887957765,-12.301805443564389,2.5283733084143583,-3.663064673404324,0
27.0,0.450009,-3.666141701889495,3.725711895682093,3.2637077458119803,-11.982381769498453,2.1542167319639622,-3.541358663507156,0
28.0,0.466676,-8.354236864589609,0.5302328162949792,3.186169037502632,-10.98332504728881,1.2364897539942592,-3.220780672404532,0
29.0,0.483343,-11.27080233019216,-0.5122529131987661,3.278538950612548,-9.975296692242567,0.2567202951013824,-2.60583776302431,0
30.0,0.5000100000000001,-10.738939915159104,1.2156042426983955,3.824660479911808,-8.852286362080424,-0.2355836305499284,-1.6836353619696487,0
31.0,0.516677,-8.077716018035137,4.489597830012508,4.50305911145654,-7.068829365496331,0.7133669401370135,-0.8936931966377499,0
32.0,0.533344,-5.85735229417474,7.367070355300115,4.702302200609177,-4.6635003146041765,3.763667847842681,-0.8410433902083627,0
33.0,0.550011,-5.321307924241795,8.790122320283238,4.234971251638664,-2.75737559888242,8.106139626664262,-1.6410386345736372,0
34.0,0.566678,-5.649113142234663,9.06113857397795,3.529953622480278,-2.707382349341405,11.448437563627692,-2.70453800637717,0
35.0,0.583345,-5.2029289223875566,9.067316968675078,3.0800320915233472,-4.69773505976119,11.702020941474032,-3.2207756301208006,0
36.0,0.600012,-3.205295517046276,9.302229713906833,2.8534925461629745,-7.253057967303766,8.782772625012711,-2.824812660209206,0
37.0,0.6166790000000001,-0.3480243615881678,9.561169326259856,2.314391965493043,-8.13819356734545,4.630614575543524,-1.834890857732527,0
38.0,0.6333460000000001,2.131693834673825,9.343735173723802,1.0338074800685773,-5.899235395123002,1.535048581104331,-0.8890816307434941,0
39.0,0.6500130000000001,3.836939513591644,8.334733135663207,-0.653810965520432,-0.947979342049378,0.4934722553006063,-0.3098038100942478,0
40.0,0.66668,5.434687322365583,6.477036955697971,-1.6869699463093464,4.667768093918779,0.8619923055000775,0.2041365196153143,0
41.0,0.683347,7.612126359260804,3.858357630172226,-1.2231464650559043,8.757571208782151,1.2104495071142396,1.1901228358338554,0
42.0,0.700014,10.244048540957923,0.7736973662258066,0.4415166559194456,10.422950707556728,0.5500662217516298,2.738657275341989,0
43.0,0.716681,12.70615230456277,-2.2313082859134763,2.159865360285149,10.142122479377338,-1.0250231453230665,4.371960234111528,0
44.0,0.7333480000000001,14.633740852858145,-4.623464755876624,3.1216283416842696,8.843092492651573,-2.722296268568281,5.629931484501881,0
45.0,0.7500150000000001,16.030344514584137,-6.198933635605709,3.4246624608252905,7.208884003512111,-3.857522977622925,6.492579331210578,0
46.0,0.7666820000000001,16.74653726990737,-7.1005128399175526,3.463205821085146,5.614528761373389,-4.256061816928765,7.065177398266584,0
47.0,0.7833490000000001,16.221607937771193,-7.661427743265398,3.163928752847135,4.281250987538083,-4.290996771546361,7.12648764261955,0
48.0,0.8000160000000001,13.914302682476196,-8.360741842504538,2.0516383149113757,3.4212325169799715,-4.843339003263508,6.296148370045319,0
49.0,0.816683,9.944549385589138,-9.762971546807105,-0.0928215830315581,3.331407279290155,-6.858521853833565,4.589136148790202,0
50.0,0.83335,5.343990606500716,-12.13526500720434,-2.797655922824835,4.229661725785484,-10.401322066601722,2.6177622372160174,0
51.0,0.850017,1.700482297521439,-15.05411775161563,-5.081350585749117,5.878239307485092,-14.189155827683004,1.2210082898113073,0
52.0,0.866684,0.3249908528559964,-17.690609583440104,-6.086145930677774,7.5107338873634815,-16.525767593713773,0.8870107720685714,0
53.0,0.8833510000000001,1.576597155327471,-19.62625273453131,-5.7615698900121295,8.362154509299666,-16.949263681909404,1.4409490462297794,0
54.0,0.9000180000000001,4.942420797528603,-21.39096678753088,-5.0800889918285925,8.363944406433461,-16.84457034145394,2.275876992178565,0
55.0,0.916685,9.452273124417609,-24.54027438033099,-5.375672062858303,8.329478573480777,-18.275367272147243,3.01124789060037,0
56.0,0.933352,13.79131115447342,-31.29540753110514,-7.1811889146041,9.46054443033852,-22.330492708434967,3.971440617895097,0
57.0,0.950019,16.42351225175269,-43.0420366082798,-9.785576503522204,12.50503359627739,-28.826958281730683,5.794914803300685,0
58.0,0.966686,16.165336204665397,-58.12383192925616,-12.093343727198038,17.16524618969531,-37.40305341998691,8.45689056155872,0
59.0,0.983353,12.96384974889244,-71.97739573488909,-13.760585515168597,22.42346478213585,-48.40531737444182,11.070913408140102,0
60.0,1.00002,8.436209172648232,-81.0969362628384,-15.353562470925509,27.612991283340488,-62.641463947325576,13.014122994237477,0
61.0,1.016687,5.499283208792352,-86.58537000054824,-17.594557197446314,32.847366388862724,-80.42743959110977,14.937042876592502,0
62.0,1.033354,6.592862113808996,-92.40244376156058,-20.66554574897152,38.117541222690434,-100.66491752006203,18.216708896262517,0
63.0,1.050021,11.807244018944347,-100.34305169405324,-24.18544577809044,42.53357114065325,-120.52604636528916,23.512390577242392,0
64.0,1.066688,18.84631234918782,-107.7166105416978,-27.58786893688164,45.12590592612244,-135.89652530266545,30.009666183107058,0
65.0,1.083355,24.44298439922894,-109.42756043185004,-30.31804611603475,46.17981451101617,-142.1959402844035,35.79105171693781,0
66.0,1.100022,25.82124947957701,-101.37520638336414,-31.795822529414465,47.10152521203801,-135.4073779432576,38.73125114953197,0
67.0,1.116689,22.14676617176472,-82.31650637833314,-31.44883786783186,48.37598515101104,-113.21838079250124,37.165762097998105,0
68.0,1.133356,15.341453434295405,-53.632377440082536,-28.84059805280726,47.44087590984583,-75.5932411013813,29.876310054155773,0
69.0,1.150023,8.229280261758442,-17.775659993770333,-23.65324242515451,39.26593427987244,-24.54174669227526,15.8931505734253,0
70.0,1.16669,0.9103401125051728,23.348425208627447,-15.51547564819917,20.075776844737177,36.1222426034985,-4.903013246083673,0
71.0,1.183357,-9.756010925614769,68.65996530269683,-4.1096791032443445,-9.164874769480337,100.66323305972908,-30.662204743853305,0
72.0,1.200024,-25.81300578423589,116.21856660026646,10.171941594708448,-42.85290937797745,161.59462247650734,-57.36012982999223,0
73.0,1.2166910000000002,-44.533779607706215,161.34062617462135,25.72467451012692,-73.82069663106012,210.9712395144696,-80.072980642935,0
74.0,1.2333580000000002,-60.53443039616525,197.48245483287872,40.27361676679504,-96.34232812702308,242.97090742421744,-94.82336883178505,0
75.0,1.2500250000000002,-70.35889530475016,219.66094602501292,51.84689503170755,-107.3861977542262,256.2036622783316,-99.87816551342,0
76.0,1.2666920000000002,-73.35545404934888,226.50074947657197,58.97068533983448,-106.59378547574656,253.3672177960217,-95.97581549032358,0
77.0,1.283359,-69.56360277791303,219.0057436401109,60.53477110277194,-95.81738826193924,238.51406288717092,-85.44871071107887,0
78.0,1.300026,-59.36058149841588,198.8709244093832,56.32187016978587,-78.31030127263423,214.8982586686913,-70.83159391619384,0
79.0,1.316693,-44.79654735648621,168.83096259786927,47.467048786989054,-57.65175474432056,184.7734790711815,-54.057924418745685,0
80.0,1.33336,-29.15194377425893,133.28219378413348,35.86948351872596,-37.02253614285245,149.9024222741157,-36.66640799366543,0
81.0,1.350027,-14.829580517664954,96.77870794608754,23.340914065417515,-18.94636126758935,111.86635184372898,-20.11347692739668,0
82.0,1.366694,-2.439458248477564,61.73888207979127,11.379530059757526,-4.922015170102353,72.35879082349507,-5.453449760394999,0
83.0,1.383361,8.481140795483078,28.358287374812328,1.06778770335083,4.793688489172979,33.50429413547037,6.918234623236915,0
84.0,1.400028,18.753933307824727,-3.233729819361639,-7.246775938645832,10.727796264614348,-2.1284283411017624,16.832419002045718,0
85.0,1.416695,29.045209059765725,-31.44774950817345,-13.842282677050708,13.914583241399797,-32.18058221387116,24.01879977361414,0
86.0,1.433362,38.77600270946786,-54.04610188727735,-18.965991184127237,16.19947567264283,-55.56093864732486,28.43979751102229,0
87.0,1.450029,45.56038318140359,-69.97948791210857,-22.437577682134176,19.55486353273932,-72.76006435222939,30.48835786226908,0
88.0,1.4666960000000002,47.0395701776588,-80.25664620456665,-23.919401354563497,24.151263279560915,-85.03083715330948,30.6855084265407,0
89.0,1.4833630000000002,43.67939815118868,-87.31988256059779,-23.474898505383067,28.02806014915234,-93.60533908286811,29.661523732167822,0
90.0,1.5000300000000002,38.57279017700757,-93.50474056111764,-21.905898359065795,29.650061892277822,-99.55158950607802,28.46366489061746,0
91.0,1.5166970000000002,34.071139555487015,-99.64038268561345,-20.520150633188628,29.848126059805367,-103.46180343872538,28.12240587937585,0
92.0,1.5333640000000002,30.048895123083295,-104.74520511453318,-20.31636391105534,30.169829934495205,-104.98948698464172,28.565784117916227,0
93.0,1.5500310000000002,25.981485642820005,-106.72327019433476,-21.19304628621238,30.37482640148492,-103.35458666420696,28.5186974212835,0
94.0,1.566698,22.77695424964558,-103.5826609904574,-21.998897892466417,28.870503435939213,-98.49294917927244,26.812822737717877,0
95.0,1.583365,21.261479152555168,-95.09676217194767,-21.552483731734885,24.861767487536888,-91.27661910401024,23.42063563001168,0
96.0,1.600032,20.224057237337615,-83.51913522908343,-19.705039367765387,18.920664440210853,-82.67193176849287,19.094761613153405,0
97.0,1.616699,17.576434182288914,-71.51441565888663,-17.325200977805654,11.994707756388786,-73.12843389111262,14.509139956122857,0
98.0,1.633366,13.129870608241209,-59.45465098550933,-15.2808198408777,4.875998246463104,-62.7711104119566,9.977555403432138,0
99.0,1.650033,8.798866418197234,-46.14598758779217,-13.62592782801117,-1.6887767904551203,-51.82819885552992,5.584961567510256,0
100.0,1.6667,5.541265975773229,-31.76626963092728,-11.765362682354708,-7.343526255406669,-40.736606040545055,1.2176132222127711,0
101.0,1.683367,1.3505065701281254,-18.328383503241035,-9.201862700437571,-12.568907275184229,-29.97406082820438,-3.3735580761889885,0
102.0,1.700034,-6.29846150673499,-7.569996195677443,-6.053349064955601,-17.91066164531585,-19.988019130987155,-8.137088478673924,0
103.0,1.716701,-16.507420509203396,0.068301494772065,-3.011394302430656,-22.46467794837087,-11.479641220086036,-12.28979407486218,0
104.0,1.733368,-24.864209329204076,4.571053477983575,-1.0227206204007118,-23.91415503402207,-5.80338616306474,-14.649664454713909,0
105.0,1.7500350000000002,-27.35335727212137,5.725148350027433,-0.7901431545696063,-20.86597834829235,-4.652839900512532,-14.498247596473302,0
106.0,1.7667020000000002,-23.666561084437205,3.574335863163289,-2.0217188036343505,-14.846997995667486,-8.818009745193823,-11.901370700299424,0
107.0,1.7833690000000002,-16.80012032822589,-1.306082410851258,-3.466111789181894,-9.008976585001346,-17.544930957836854,-7.364227608296629,0
108.0,1.8000360000000002,-10.131091508993682,-8.505663256071776,-4.5339838902258975,-4.700716024691983,-29.723971803177164,-1.6004116299258326,0
109.0,1.816703,-5.2520479862517,-18.469925577328848,-6.375232006171863,-0.2665072847800007,-45.21381757345118,4.600030581548281,0
110.0,1.83337,-2.1916202398642186,-32.130342029425414,-10.305084197194144,6.394854764776821,-64.25422713997409,10.799208217168022,0
111.0,1.850037,-0.5079900912891437,-49.97251903901987,-15.932752922526454,15.167032915593616,-86.36019869216199,17.10658336153817,0
112.0,1.866704,0.6192415091483463,-71.80332130527404,-22.14997626776783,24.393116017250165,-110.84066719873348,23.77317058624838,0
113.0,1.883371,2.5086996934308434,-97.431985598391,-29.274096906820027,33.195775735427304,-137.75256559561245,30.92106320088657,0
114.0,1.900038,6.053732007661189,-127.04354943660758,-38.819852489034645,41.71503672685921,-167.380812918969,38.77829133028619,0
115.0,1.916705,11.118222710257363,-160.6448570703583,-51.43958217083771,49.34460427977687,-199.46898769147447,47.87410266315269,0
116.0,1.933372,17.422656724803694,-197.6412820289009,-66.08100810489681,54.36837111533153,-234.02636860304435,59.10976167519004,0
117.0,1.950039,25.134808131811152,-236.9197063789908,-81.11505372418115,56.129750557951496,-272.2547958361516,73.88451749858918,0
118.0,1.966706,33.93248669725966,-276.3472656424887,-95.79438158840054,56.59581016387816,-315.0428880520879,93.60852478684176,0
119.0,1.983373,42.22448315801203,-312.157170072087,-110.64740486266726,58.68796637029951,-360.07740767125074,118.45159880537882,0
120.0,2.0000400000000003,47.87562219228074,-340.17326648969004,-126.73387604858476,63.48735059428002,-401.2730515748433,146.88832927284705,0
121.0,2.016707,49.49779935794344,-358.0022441709683,-144.66421941688398,69.89067510508586,-431.3103070220574,176.87227155038266,0
122.0,2.033374,47.00524329632981,-365.1924328135013,-164.2449817648406,76.35376693059914,-444.2247881210112,206.9091143208486,0
123.0,2.050041,41.17019368244689,-361.6435909934129,-184.58265200987137,81.75766708950445,-436.2843074248445,235.40186672326485,0
124.0,2.066708,32.7242139502779,-347.2230702300096,-204.04673386203612,84.78558219027772,-406.5879442465159,259.4050156773132,0
125.0,2.083375,21.813423779819697,-322.8645326728942,-220.36404618127767,83.5509626228446,-358.00859806608184,275.02318677325445,0
126.0,2.100042,8.190613936300773,-290.6956568326699,-231.44131370251188,76.13692902467358,-296.76857620446555,279.639392058501,0
127.0,2.116709,-7.990763284577804,-252.49098953074028,-236.37220314004725,61.23858989064257,-230.07832007576505,273.6797646354421,0
128.0,2.133376,-25.25273070356597,-208.80150282765885,-235.58344621154123,38.47324721421795,-163.764469549094,259.84102794861724,0
129.0,2.150043,-40.77523644475792,-160.45968116233786,-230.2789617749281,8.535999957440499,-101.58768798981984,240.6871864719007,0
130.0,2.16671,-51.96477532312178,-110.45656105892698,-222.036017489816,-26.705875546054603,-46.037613582334274,217.46171928216845,0
131.0,2.183377,-58.39120191516589,-63.19484738326733,-212.51030318049737,-64.16865441940057,0.7901990647920618,191.0491961702848,0
132.0,2.200044,-61.88655654123818,-21.73527577022277,-202.87627195263588,-99.67200419983143,37.569901888000814,163.16558657903124,0
133.0,2.216711,-64.48135501305843,13.592431736699384,-193.54060999073525,-128.6058876458952,65.1395112909074,136.06175420535016,0
134.0,2.233378,-66.51761550436689,43.95262619601036,-184.55050539781791,-147.162039979309,86.86452099980464,111.3423646480752,0
135.0,2.250045,-66.99968833079485,70.21735676572634,-175.92569388010062,-153.42556006220912,106.68713715833314,89.48683003291919,0
136.0,2.266712,-65.24181889297702,92.75239762952124,-167.16504416803173,-147.92248621788707,126.44623017963602,70.40316098581788,0
137.0,2.283379,-61.81936300517508,112.37018791059197,-156.56126973593803,-133.8406356604561,144.98559892489664,53.99561238733343,0
138.0,2.300046,-58.59353979928167,130.50898711440627,-141.71574801694663,-116.49484121788316,159.41111986076567,40.09701960779162,0
139.0,2.316713,-57.98302142472698,148.08073640229637,-121.45361019501674,-101.19292287415396,167.13449431456598,28.182817271611142,0
140.0,2.33338,-61.13003586622446,164.66650980233646,-97.2158106763196,-90.3958434358192,167.84653488644364,17.368026219016514,0
141.0,2.350047,-66.29759643913233,179.37548936681108,-71.92907956275334,-82.7890512673611,164.6098568340212,6.741124550965979,0
142.0,2.366714,-69.50499351466064,192.17109752008324,-47.469599842126826,-75.35585006616216,162.575268605031,-4.107274591065406,0
143.0,2.383381,-66.94569174012162,203.89309807630812,-23.95198887546456,-66.23582059495699,165.71677023374644,-14.832630338139758,0
144.0,2.400048,-57.642288729249735,215.3563788690987,-1.3081100163163293,-55.51677248437031,174.70434838811775,-24.818233509535027,0
145.0,2.4167150000000004,-44.87593366119033,226.8327838766804,19.843853231050705,-43.90656018401862,187.6435076565236,-33.82361355767993,0
146.0,2.4333820000000004,-34.21336583524835,237.92397029262295,39.46727109465078,-31.663023052638785,201.94444814304345,-41.91198797982355,0
147.0,2.4500490000000004,-28.76018503522701,247.57911376827911,59.32028202180875,-19.297265492692183,215.41685235067163,-49.1943295069313,0
148.0,2.4667160000000004,-26.746906921201905,254.5014359532516,82.02174876393127,-8.75130873243668,226.6425270640179,-56.32900550192458,0
149.0,2.4833830000000003,-24.25856833056348,257.4357426981804,108.79288174658738,-2.7110194941408103,235.0403034289126,-64.85860818212795,0
150.0,2.5000500000000003,-19.55264854220207,255.09286624879687,138.25464297705673,-2.160480946738998,240.49804172267747,-76.07663185600423,0
151.0,2.5167170000000003,-14.295654360097933,246.76483577491183,167.4140749454102,-5.074020504795476,242.7159607978048,-89.49064105744674,0
152.0,2.5333840000000003,-11.289355632775992,233.4032837617476,193.63098864458124,-8.014637243099202,240.85453802819572,-102.80496834194987,0
153.0,2.5500510000000003,-11.737514541372038,216.99906350654996,215.5718092805736,-8.863589142959086,233.9113924251224,-113.2762920195734,0
154.0,2.5667180000000003,-14.586343723209644,198.3313700582572,232.7448152805389,-8.087416203194213,221.46881691296608,-119.01473928012584,0
155.0,2.5833850000000003,-17.656796223899892,176.37041183544878,244.8788372866716,-7.999037660005393,203.963150528805,-119.63967151480384,0
156.0,2.6000520000000003,-18.845855879705542,150.5259121813369,251.9349009320027,-10.60835882382792,182.55974646951532,-116.3779146687821,0
157.0,2.616719,-16.569091323509568,122.61014792794188,254.392435899578,-15.2218396076876,159.33257312634024,-111.4423728576862,0
158.0,2.633386,-9.66122841136189,95.88910242525289,253.59593383827843,-18.364629246352912,137.05055257010935,-106.74411209810292,0
159.0,2.650053,2.643928145026476,72.66912508275088,252.0081987334894,-17.257197651716595,117.57421457158804,-102.98162955090837,0
160.0,2.66672,19.98941265188702,53.44855904348331,252.5677054147037,-13.133988536746418,100.49145389766574,-100.13625159522395,0
161.0,2.683387,39.94110069389767,38.36909711313076,257.2394279837891,-9.584792396594066,84.38838976194931,-98.58285303956416,0
162.0,2.700054,58.34353553481343,28.844732095824604,266.5697986614825,-7.510670000666002,69.44804485792356,-99.01774541227138,0
163.0,2.716721,71.1443567016173,27.14277939652588,281.10901488871207,-3.559413761195527,57.732615527232994,-101.2779129935418,0
164.0,2.733388,76.06377463659624,34.27560626293108,302.5234770233655,5.52616542373051,50.7453589595421,-104.0308894105489,0
165.0,2.750055,73.12572162352974,48.504618127194014,331.5398064035122,18.61596228059334,47.6292745860889,-105.97599938284633,0
166.0,2.766722,64.52988632963535,65.71101511627295,363.5318253799688,31.810790063939777,46.03320870634244,-106.9091882442722,0
167.0,2.783389,54.12031798029357,80.8871438990449,386.7914109891767,43.43379703203109,44.07551971781505,-107.45629745091684,0
168.0,2.800056,45.96094050373875,89.99000380429847,387.3448768878485,55.73090873603136,41.381464457870905,-108.136237889765,0
169.0,2.816723,42.47028774286177,91.86135387793652,357.5423534334225,71.57066569698667,38.899961730634686,-108.77424725979726,0
170.0,2.83339,43.91217805962859,88.89434382572175,301.2483687512059,90.5713727217622,37.878774587115565,-108.64388330863396,0
171.0,2.850057,49.7787644757809,85.06219851666123,231.53223546669508,109.17842162336,38.74723626107158,-107.24260173811928,0
172.0,2.866724,59.787180252481136,82.6054719415405,163.1909469720779,124.08834693721472,41.06255033160757,-105.02073937449632,0
173.0,2.883391,72.74337085318341,80.58268179419174,105.82222606865844,134.5252228843452,44.38923422942947,-103.03526908132264,0
174.0,2.900058,85.4478425933205,76.17315173883509,61.76136730869948,141.1977325421899,48.54725706054173,-101.42747496472968,0
175.0,2.916725,94.3061800737946,66.43173068495972,28.85089031511796,144.72616913550848,52.834555841236686,-98.38026075363834,0
176.0,2.9333920000000004,97.77304123942392,49.08677364242723,4.295621308251877,146.10476601487673,55.71133792098657,-91.2322692062362,0
177.0,2.9500590000000004,96.04059662805484,23.633788131506112,-13.829018609841112,146.84356655992224,55.78569496583398,-78.80934772220513,0
178.0,2.9667260000000004,89.02450879581068,-7.0136724606841145,-27.231267357256023,146.17799785194626,52.94310936390344,-62.34122487124942,0
179.0,2.9833930000000004,76.68927239328578,-36.91233657786536,-37.72896497095911,139.15479888065647,48.261387094406,-44.14020618664862,0
180.0,3.0000600000000004,61.353665380458565,-60.541426290172936,-46.22180524761602,120.98838013603113,42.957427877270334,-25.754152323221653,0
181.0,3.0167270000000004,47.455386082453884,-75.7373695188565,-51.90592037355442,94.2427311871712,37.65366371534277,-7.518079072957919,0
182.0,3.0333940000000004,37.94684103641401,-82.91337755987759,-53.26037729517469,69.21174397863706,32.55026828887654,10.256047491890662,0
183.0,3.0500610000000004,31.775294035487207,-82.83734811663683,-49.74969982655527,55.555326486089655,27.941934716425934,26.142775578802265,0
184.0,3.0667280000000003,25.347624005684374,-76.70362891610577,-42.000284540430165,54.44447106019166,24.534407458537714,38.454644994065205,0
185.0,3.0833950000000003,15.861567718359854,-67.55687440973836,-30.33862342259448,59.637900931457445,23.407741338255832,47.51110041393555,0
186.0,3.1000620000000003,3.10121880241446,-59.6025389285902,-14.0151954071349,65.08302445328094,25.30485834967793,56.38045324756675,0
187.0,3.1167290000000003,-11.26788496588227,-55.4382948036871,7.476437945767455,69.66357012563019,29.47536016659611,68.6441477169461,0
188.0,3.1333960000000003,-25.46526215841913,-54.60168956278894,32.70530785045123,74.52938410990294,33.71691085895763,85.33003692182056,0
189.0,3.1500630000000003,-38.59925097409933,-54.81221816616642,58.69606368263763,78.38749540525986,36.587009908483495,104.20127094056214,0
190.0,3.1667300000000003,-50.62324365818909,-53.6714615866252,82.97544419419378,77.48187228167046,39.43592811579953,122.02448042094356,0
191.0,3.1833970000000003,-62.01487893104336,-49.18053154988897,104.65189620510478,69.17646103249564,45.03172850634633,137.37640037591538,0
192.0,3.200064,-73.18727939582658,-40.1575404209941,123.57819701001036,53.93374587994703,53.76205822818938,151.32014975513397,0
193.0,3.216731,-83.40346290555104,-27.141256910628307,139.2913708321053,34.23187012905585,62.025493275238205,165.67518716798045,0
194.0,3.233398,-90.31100402943508,-12.388791062700516,151.22789201150343,12.744638665447694,65.06213656712099,180.69156228918027,0
195.0,3.250065,-91.41101506569548,1.6011799011538963,159.48912569937528,-8.401541830167599,61.26697878976309,194.12210719535287,0
196.0,3.266732,-86.3899871743775,13.603858421808043,164.4027372906253,-27.3086577322453,53.51237624194569,202.45398298463903,0
197.0,3.283399,-77.5765471771386,23.857830095649376,164.78971491004015,-41.76958182275078,46.48597976130042,203.30363512969316,0
198.0,3.300066,-67.98761255860356,33.11457095108278,157.3238011651883,-49.40363604099933,43.09578831842087,196.9302269384703,0
199.0,3.316733,-59.6274608814692,41.54669771255904,138.67158950475303,-48.72421693847157,43.20667200113966,185.48308008773324,0
200.0,3.3334,-53.84411447246049,48.10114657532003,108.4163754170265,-40.3916146701818,44.94197740845739,170.74041368186516,0
201.0,3.350067,-52.0482084469679,50.423535959751504,69.71990647724195,-27.44028873247153,46.50675232019451,152.85403939301193,0
202.0,3.366734,-54.85041179440279,45.822864369073685,27.8098573951638,-14.023773841312284,46.94386929245536,131.42497147624354,0
203.0,3.383401,-60.77263981682394,33.51888358956915,-11.6439041310783,-3.7450216298019225,45.89559009337065,107.04610461847288,0
204.0,3.400068,-66.70764099334913,16.414604750779723,-43.75525270868843,1.099105251683925,43.23092021004905,81.03057438035928,0
205.0,3.416735,-69.99667321951699,-0.2095373238602063,-65.87959431601537,-0.4570617972015052,38.86983368758731,54.16181521793019,0
206.0,3.433402,-69.89429314125779,-12.457092227719208,-78.59638375932907,-8.060275978031179,32.52000399499627,26.554074655738415,0
207.0,3.450069,-66.75271552449568,-20.047181341229564,-84.85158083764897,-20.49378840587386,23.62040444752308,-1.5519362118340865,0
208.0,3.466736,-60.34027808677811,-24.92719538693371,-87.72256865034645,-36.73738820154921,12.067184092182188,-29.36126660993253,0
209.0,3.4834030000000005,-50.179148529521385,-28.551833615571336,-88.72810282320779,-56.362790716292096,-1.1924375805991063,-55.591101684230864,0
210.0,3.5000700000000005,-37.22611447180095,-30.841681798414758,-87.64916706930086,-78.50991715991739,-14.93701155287249,-78.87347868206315,0
211.0,3.5167370000000004,-23.445627268354755,-31.0249446146964,-83.51273093660478,-100.62439861043948,-28.755133188695503,-98.62326125733536,0
212.0,3.5334040000000004,-9.724560563444992,-28.71091272595537,-76.27394660696277,-118.75052552735492,-42.75685957197666,-115.52621302287967,0
213.0,3.5500710000000004,4.103515413928918,-24.236827463437454,-68.09554272525662,-129.77758774996568,-56.63322730362062,-130.57888181768132,0
214.0,3.5667380000000004,17.424008901224177,-18.415023482959995,-62.421769029550845,-133.60260419740928,-69.4857347051717,-143.5794422560703,0
215.0,3.5834050000000004,28.732239120335223,-12.018254432651991,-61.3382657455595,-132.64323867812058,-80.12555941505254,-153.16964956269717,0
216.0,3.6000720000000004,37.06745026904602,-5.400562168919592,-64.41095348760203,-129.19942762922398,-87.34971057639802,-158.59800036541202,0
217.0,3.616739,42.03799518540463,1.4232801136758662,-70.12955134996284,-123.81391949224144,-90.65826857630978,-160.95701760150996,0
218.0,3.633406,42.69414727241939,8.580580080365284,-77.3136905097606,-116.19885280062556,-91.08858886370356,-162.3896582460483,0
219.0,3.650073,38.270470705977786,16.370729227055534,-84.83195840875453,-106.93493987206222,-90.83739730257848,-164.38916783147448,0
220.0,3.66674,30.94522950835552,24.887773898874173,-91.5329403802823,-97.4772003084705,-91.56639105149496,-166.98279792221467,0
221.0,3.683407,26.47307826841721,33.08710347122029,-97.5768209497286,-88.64856605036493,-93.0407747330305,-169.18328014862604,0
222.0,3.700074,30.092690368727386,38.75176513099254,-104.737634372929,-80.07629578371342,-93.54583970429296,-170.04315415440607,0
223.0,3.716741,41.618299369897215,39.942539167361375,-113.96724550911388,-71.48179197076402,-91.65010564403909,-169.32960626721365,0
224.0,3.733408,55.66849622952894,36.28451119956585,-123.11251708546058,-63.56460861605582,-87.52929082988052,-167.06069447281368,0
225.0,3.750075,66.63590987755308,28.950029705368834,-128.33642414269934,-56.79300741762858,-82.61637143822799,-162.64850757083647,0
226.0,3.766742,72.23636787562891,19.97439842299905,-127.94177771387363,-50.14352050146356,-78.09271347780815,-155.43675863707526,0
227.0,3.783409,72.74050755697539,11.322545985420208,-124.12173759351388,-42.25203412378088,-73.92875252530031,-146.26538644511444,0
228.0,3.800076,69.19621783877705,3.772441476722783,-120.97470803165638,-33.405012652101526,-69.55154876400846,-137.29849337264446,0
229.0,3.816743,63.3639455816957,-3.2039128892255064,-121.3676599619634,-25.01527863905303,-65.13084299304104,-129.62437002172908,0
230.0,3.83341,57.785196704144255,-9.877001022452667,-125.39426252416844,-17.191838605329448,-61.45425105996911,-121.8835903666359,0
231.0,3.850077,54.24839151577173,-14.962877974176962,-130.69747834096222,-8.347410728417485,-58.42257445904052,-111.9262263375523,0
232.0,3.866744,52.00986774246636,-16.710909226147745,-134.10017524647543,2.655058717677688,-54.60404197683904,-99.21842723028077,0
233.0,3.883411,48.29512176185358,-15.076112014171,-134.12949478398085,15.48200236352642,-48.81653756604814,-85.08281659314657,0
234.0,3.900078,41.25006298310635,-11.785933610258994,-132.4885113749772,29.452215533325514,-41.38357350270484,-71.21617404192753,0
235.0,3.916745,32.14474893681431,-8.071705951823219,-132.32174697138043,44.00558552934612,-33.28452084614453,-58.69094149556389,0
236.0,3.933412,23.93736869055699,-3.4140544858880424,-134.80257759634432,57.81015183734512,-24.99602085181132,-47.79257585331277,0
237.0,3.950079,17.95345720983048,2.9101136082190955,-137.901238115938,68.81988124151722,-17.052459268066613,-37.846435773957566,0
238.0,3.966746,12.92875477167052,9.912684128928486,-138.4779058686101,75.84809060374316,-10.950542014569974,-27.57132177743687,0
239.0,3.983413,7.13089467215926,15.25306165471607,-135.17939017980845,79.61333704160872,-8.139567617770918,-16.503142859643326,0
240.0,4.0000800000000005,0.442394822878934,17.185799569009923,-129.21353217224242,81.92603780830427,-8.087010865664983,-5.70806230582778,0
241.0,4.0167470000000005,-5.703857583308616,15.73186826377406,-122.66297209882303,83.84280671916397,-8.332434392279954,3.617019688940508,0
242.0,4.0334140000000005,-9.873161165778733,11.976815294781588,-116.61290247161948,84.71411661228959,-6.707951795013419,11.588731239413445,0
243.0,4.0500810000000005,-12.041615751672945,6.64329148860296,-110.8835995906878,83.31734886247978,-2.782650012739369,18.878266301217785,0
244.0,4.0667480000000005,-13.636088359363333,-0.1530158139604331,-104.64006070543364,79.95876441021758,2.786386401421193,25.288779638592267,0
245.0,4.0834150000000005,-16.011909302709938,-8.08533012605367,-96.84471044042088,76.82961421387557,8.990483933220636,30.254918425630105,0
246.0,4.100082,-18.683885937336164,-16.6215534002738,-87.01698119410166,75.62838251694389,14.274711267104465,34.400026293938666,0
247.0,4.116749,-19.37817831396305,-25.770423092505787,-76.02393694875518,75.15091787599059,17.061817803399684,39.31979215267079,0
248.0,4.133416,-16.379065094727196,-35.398145250642344,-65.11824027819824,72.09109837008275,17.21501148819072,45.5864917406871,0
249.0,4.150083,-10.578182346054982,-43.49768489184087,-53.75123787314594,64.26216885399002,16.30356477262779,51.91312011809809,0
250.0,4.16675,-4.493362025859494,-46.6641905718988,-39.60331851562981,52.50753728905688,16.14245642485524,56.77540064921807,0
251.0,4.183417,0.5891416456222649,-43.13895877346189,-21.431477359916563,39.72366710387973,17.258205924264097,60.21632215612912,0
252.0,4.200084,5.886720288642215,-34.591270133013005,-0.6999315512579183,28.871580219021386,18.49742795036255,63.36854554890681,0
253.0,4.216751,13.706133995338632,-24.32134082114937,20.3719022837048,21.875062642941835,18.281953831666325,66.53426438340087,0
254.0,4.233418,25.05514758461232,-14.016060445517727,41.4265107176043,19.44936119441024,17.133759465661516,68.5998604784758,0
255.0,4.250085,38.14170128551035,-2.4987294625800858,63.82256884626747,21.443151316069518,18.83205090760755,68.3779298219533,0
256.0,4.266752,48.9979229389183,12.434131218534244,88.65918850488615,27.2106447024035,27.830233073112275,65.606981075876,0
257.0,4.283419,54.27374530578932,31.10865340958429,116.00936528141057,35.18676697408867,45.16005785712858,60.205003863986725,0
258.0,4.300086,53.573177745897056,50.984812802846506,145.3966643783486,42.11133575753267,67.30122129688476,51.331620139051125,0
259.0,4.316753,48.67105390199775,68.32624599109394,174.9573762995976,43.82219186927424,88.58304958928296,38.02091920592373,0
260.0,4.33342,41.25219998892144,80.39117490661413,199.3298015567566,37.63401524868872,103.93462416705574,20.622311897824147,0
261.0,4.350087,32.58082218359593,86.04967480196694,210.1123741187728,23.560484744363272,110.07985439321362,1.153018596955046,0
262.0,4.366754,24.648525742370342,85.27624057880581,200.9944265370463,3.443199615116133,105.8069686607568,-17.96761811958087,0
263.0,4.383421,19.99256284213681,79.10241928509254,173.50582127494897,-19.66431084273921,91.86859642782348,-35.60642139522444,0
264.0,4.400088,20.205121515802784,69.88851175468406,137.0264216185899,-41.09141428677147,70.36411789302873,-52.2756793765867,0
265.0,4.416755,25.084667539544647,60.48780796412576,102.41683729748104,-55.54309144876417,44.158262954071134,-68.62329343106995,0
266.0,4.433422,32.70555054484457,52.52383269846545,75.6608739286502,-60.03620636989601,17.00098687858062,-83.68529410253045,0
267.0,4.450089,39.969727617519936,45.76714672821365,56.941333860549086,-55.91386091916923,-6.677446352115752,-94.93706260915847,0
268.0,4.466756,43.8668387549362,39.283331513338574,43.60917965057763,-48.526805790995375,-23.7285456127687,-100.00057552490388,0
269.0,4.483423,42.595183677174965,32.68308617081054,32.70460458876303,-45.40201142257256,-34.53948032949321,-98.33894239235087,0
270.0,4.50009,35.43725275488416,25.905429861766667,21.8770600027507,-52.485226119808885,-42.44664494537622,-91.94382708776531,0
271.0,4.516757,22.60763655454805,18.18073580912933,9.766416107107876,-69.15220558130346,-50.56655805503414,-84.56368379097086,0
272.0,4.533424,6.095523010874245,8.167145480052069,-3.767541852308874,-87.45182962717173,-59.65090799590553,-79.28253442058532,0
273.0,4.550091,-10.433703624448214,-4.260187849897583,-17.54883629928213,-98.71245344269184,-68.35006533912096,-76.08099772144595,0
274.0,4.566758,-23.792756665549675,-16.747822737132275,-29.282008065567886,-100.66522571912137,-73.98821617152367,-72.17173413651167,0
275.0,4.583425,-33.04710945595284,-25.93586169232365,-36.780144358132524,-97.16968296064871,-73.38861855017493,-65.16607476087368,0
276.0,4.600092,-38.99949974405303,-30.49628644973984,-39.76662390085404,-93.00062946626716,-65.07957542093953,-55.52716902580338,0
277.0,4.616759,-42.71339751351444,-32.077050246000326,-40.08041336681709,-90.8312651266628,-51.441384243293136,-45.61239843760224,0
278.0,4.633426,-44.943613131678816,-32.93853915076471,-39.87823730557226,-91.43305234128896,-37.32103131646299,-36.98378987583665,0
279.0,4.650093,-46.56953975481981,-33.43594031251332,-40.28212339072702,-93.507499122534,-25.709853657287024,-29.53390063498668,0
280.0,4.66676,-48.86941065178776,-32.46404949906852,-41.7662952247355,-93.06428491168649,-15.671056096314262,-22.832204734474885,0
281.0,4.683427,-52.7444546812896,-29.741659224957143,-44.64171244329168,-85.83712345052282,-5.130282716179894,-17.0353994559838,0
282.0,4.700094,-57.6428712037593,-26.68835672823232,-48.434503868209816,-71.94804595546205,5.376301532385224,-12.373878197030065,0
283.0,4.716761,-61.91780593455493,-25.164236625378454,-51.4627170524669,-56.91500353537609,12.807678198868668,-8.756093396256864,0
284.0,4.733428,-64.48899215929613,-25.97767719415476,-51.97171190234309,-46.8769059415542,14.856938327288518,-5.941641117375427,0
285.0,4.750095,-65.55160695208467,-28.371317162612275,-49.83545574271565,-43.33175924430811,12.059082916845473,-3.390293579188416,0
286.0,4.766762,-65.58219308213434,-30.260993051320437,-46.67888214715013,-42.95789406451221,6.8928037265091735,-0.1106737601391179,0
287.0,4.783429,-64.57342651135116,-29.299722142055543,-44.03532309532199,-41.59198525890969,1.7591025988281743,4.6889470992059135,0
288.0,4.800096,-62.673549446858345,-24.839024696005957,-41.73259705365562,-37.52692009583775,-1.9429144730865573,10.888230837330664,0
289.0,4.816763000000001,-60.90868807558698,-19.16116481954904,-38.538651972215646,-31.62787301304168,-3.643676717572335,17.694738462157783,0
290.0,4.833430000000001,-60.634211755117256,-15.863683118931162,-33.86941339936918,-25.45275728889812,-3.430402986362798,24.272790151533005,0
291.0,4.850097000000001,-62.171305320738064,-16.398865689882978,-27.97150708558169,-19.711597869045328,-2.009926930549192,29.865665200592776,0
292.0,4.866764000000001,-64.06580667436305,-18.739848499217054,-20.884147735777265,-14.280895529082033,-0.2447376425998974,33.86362054171423,0
293.0,4.883431000000001,-63.965897099480536,-19.81079069247416,-12.518635415730133,-9.177825291962408,1.4680523700964128,36.46378437460982,0
294.0,4.900098000000001,-60.48572873836623,-18.495071170660268,-3.8168391974049816,-4.97747018844828,3.19571854162192,38.94398621083085,0
295.0,4.916765000000001,-54.125771758736335,-15.832466318897106,3.3250391403621644,-2.074140618163391,5.024901108919567,42.35338201130082,0
296.0,4.933432000000001,-46.476847495737786,-13.084669939552407,7.87446741180538,0.1895760300558082,6.938587288643968,45.91637497332539,0
297.0,4.950099000000001,-38.987223807348045,-10.378208063908929,11.026615614366037,3.2167647272334,8.923698354777105,47.51354065898186,0
298.0,4.966766000000001,-32.490253023585886,-7.055779430654175,15.290498606166915,7.709491071269201,10.781832424044962,45.88066902255272,0
299.0,4.983433000000001,-27.265777598645467,-2.8355642564832046,22.23536294899005,12.823229658403788,12.078998820410394,41.90655750320985,0
300.0,5.000100000000001,-22.93737098347244,1.773496610894478,31.54504501503526,17.354652795454484,12.76805350315706,37.82357171577689,0
301.0,5.016767000000001,-18.25788545405061,6.311765113238144,42.22757106426692,21.339696487441397,13.46994066498365,35.400792078542324,0
302.0,5.033434000000001,-11.689813377389743,11.106061862363465,53.68611474544996,25.428612228889342,14.430705321018872,34.70282506859931,0
303.0,5.050101000000001,-2.967243744457977,16.554409613511396,64.89475906336637,29.214099390343208,14.646591961003203,34.29081063375492,0
304.0,5.066768000000001,6.191489776749554,21.93354724173291,73.46496239826647,31.656518354636923,13.073919232856497,32.66140879744326,0
305.0,5.083435000000001,13.826232258898642,25.67094432415253,76.79000873525428,32.85502445339811,10.508781903047428,29.528272085841035,0
306.0,5.100102000000001,20.012971811658083,26.917135141689123,74.04481587286983,34.0055601971223,9.058149673881442,25.789342686088204,0
307.0,5.116769000000001,26.28157318767147,26.34815182742604,66.44689825439002,35.70145713865555,9.559840528316425,22.56193919798932,0
308.0,5.1334360000000006,32.88219723134811,25.27359274545958,55.74001858395314,37.190034905604776,10.559573969602264,20.24098652719701,0
309.0,5.1501030000000005,38.07953755617482,24.3760648419623,43.03058527317118,37.31789804179752,10.210417920472889,18.19370266414544,0
310.0,5.1667700000000005,40.32774977139479,23.50414026494856,29.308708564869843,35.88208792497797,8.467945925767465,15.50077612362342,0
311.0,5.1834370000000005,39.841660514743786,22.23636034439448,16.63400132136225,34.011971164030456,7.027275703504919,12.21559526829757,0
312.0,5.2001040000000005,37.96787010571856,20.130314577407063,7.67241569058529,33.024110901343015,7.409124215071245,9.527921695200025,0
313.0,5.2167710000000005,36.16489082277701,16.561803593028536,3.2597443603927085,32.808793302960865,9.354153672224555,8.318105974794536,0
314.0,5.2334380000000005,35.42615968527586,11.08213688758304,1.0445740160188213,31.718542422694256,11.075033896864046,7.937483930696713,0
315.0,5.2501050000000005,35.578116398200834,4.47671599770747,-2.378488720293845,28.18591084790117,10.93791935179631,7.027192229467494,0
316.0,5.2667720000000005,35.276694700433254,-0.957836826811556,-8.102218895045374,22.171088074809944,8.725632606824924,5.364745665102787,0
317.0,5.283439,33.57966996440696,-3.0381238990282915,-14.287089643297117,15.112483538417775,5.463729594432104,4.158030486063358,0
318.0,5.300106,31.369371343939715,-1.5870391863941316,-18.38685030844804,8.925710842146982,2.590177558414533,4.4582107949278775,0
319.0,5.316773,30.44608344516037,1.8717459197947517,-18.995419502196725,4.977397342839655,1.2973675156470816,5.960264021203538,0
320.0,5.33344,31.133386850434317,5.882206807973661,-15.940393289899982,3.408936988255609,1.8369601669867104,7.396816732361889,0
321.0,5.350107,31.24646327060067,9.419976888958365,-10.295010489106971,3.186196023551976,2.990287134628004,7.473854413818376,0
322.0,5.366774,27.728172211620866,10.797819972405128,-5.030834726514456,2.9345773360261487,2.764232313947512,5.615905008431768,0
323.0,5.383441,19.43008216418213,7.922766443784768,-4.213350935338706,1.754366855309088,0.2211604592600895,2.6616316967620226,0
324.0,5.400108,8.376337824725038,0.5352250920143216,-9.674886653626825,-0.5132260765203671,-3.4143763887682503,0.7215255012316701,0
325.0,5.416775,-1.6925113322578458,-8.535132278426605,-18.456486268045783,-3.1558649484127903,-5.732090197302071,1.409589828222429,0
326.0,5.433442,-7.938118839511955,-15.27112598502183,-24.815129285334216,-4.685989723082471,-5.271411399996334,4.0338165732879085,0
327.0,5.450109,-9.682472286205048,-17.73220058416475,-25.083942748063755,-3.9809906470703935,-2.765108677207209,6.150129736237882,0
328.0,5.466776,-7.909330029074806,-17.22804872773796,-20.061957206555967,-1.794369310783088,-0.5827577289750376,6.089268975030254,0
329.0,5.483443,-4.546225886651387,-16.45501699712092,-13.232823299572376,-0.4461869010788142,-1.044433382885578,4.560402539109141,0
330.0,5.50011,-2.071952189121904,-16.895155925872665,-7.797333936890981,-1.4664557440015755,-4.806756747406119,3.5961068377378025,0
331.0,5.516777,-2.5627828582567065,-18.000323456255725,-5.045891989098541,-3.966293475325789,-10.351838307158694,4.146014703191895,0
332.0,5.533444,-6.206853217238143,-18.304378796149777,-4.220043662384805,-5.6893036861576345,-14.957011756065013,5.031003191710294,0
333.0,5.550111,-10.863577991919872,-16.861460096267535,-3.526650512590381,-5.24049378754403,-16.39247925811528,4.464841017826528,0
334.0,5.566778,-13.620677502316,-13.776044949219678,-1.6532370040632798,-2.964622283252156,-14.0436907987988,2.4084168470237866,0
335.0,5.583445,-13.078286820202734,-9.785795880640164,1.6027241244482866,-0.0961880828692134,-8.876248934599424,0.8557877788771964,0
336.0,5.600112,-10.228867300722468,-5.588235873942114,5.908669115045629,2.3576979569794263,-2.6901143346596137,1.5857795362180127,0
337.0,5.616779,-7.356995494286032,-1.6223809302822692,10.844133478520192,3.9064216135305463,2.683185892173797,4.148995490543004,0
338.0,5.633446,-6.193658457312415,1.6446585697164762,15.722922872873475,4.4412806620853456,5.980679330846957,6.515974902351203,0
339.0,5.650113,-6.76523528976926,3.5571533950615435,19.84095924211768,4.511169507571071,6.808183371851539,7.354040407969343,0
340.0,5.66678,-7.581720748901336,3.652726931725194,23.29221988603241,5.409323537703294,5.553013382107826,7.11027548164569,0
341.0,5.683447,-6.979064449550733,2.161848614147422,26.89089314863129,7.895820138811084,3.1017707074763488,7.019085617369422,0
342.0,5.700114,-4.660794156515878,-0.1127125648477107,30.59886704856293,10.739735618886405,0.6925189064864918,7.652290845738628,0
343.0,5.716781,-2.122600086671851,-2.542383566850761,32.22671055188779,11.65100345529875,-0.235365817242025,8.517416771425934,0
344.0,5.733448,-1.397838913098434,-5.124871842808361,28.680859176219048,9.969743867308324,1.3339850608215342,8.642043463876574,0
345.0,5.750115,-3.210129781787308,-7.963851301727407,19.365414542182783,7.469917370172269,5.068044139557313,7.502343484389099,0
346.0,5.766782,-6.37644927053969,-10.487103055699972,8.100207543846906,6.169287026940095,9.059920280388262,5.6810842368586565,0
347.0,5.783449,-8.793327107505226,-11.632408642915436,0.5904080402814351,6.161736716260611,10.95425286954799,4.4353553285377085,0
348.0,5.800116,-8.543806602128804,-10.791015391233753,-0.4705332131598356,6.055432312304009,9.714531034764308,4.29038801038509,0
349.0,5.816783,-4.441647340311402,-8.209207096411093,2.635523540185478,5.034555790619747,6.407995055239162,4.524018518780345,0
350.0,5.83345,3.2642261618389288,-4.570192743510633,5.621515535499837,3.820786100918056,3.1943783199787394,4.499752143814202,0
351.0,5.850117,12.429112800779263,-0.553884070373835,6.346262571989794,3.4311337853403066,1.705373273762123,4.717692121050543,0
352.0,5.866784000000001,20.1266774830772,3.250091553497236,5.446219270025764,3.538485048707739,2.593042846152358,5.611778048093113,0
353.0,5.883451000000001,24.54615946527875,6.178258430289018,3.58494304944253,2.88258258133361,5.952047550611068,5.905969931097916,0
354.0,5.900118000000001,25.57258505521878,7.197890490901219,-0.2889571858966278,1.2589936627761382,10.865272977112578,3.461055240971278,0
355.0,5.916785000000001,24.062818604007436,5.198398395944994,-7.069950759287206,0.1269523397075618,14.599367294414924,-2.0830557180176403,0
356.0,5.933452000000001,21.28862992382852,0.5007418011247574,-14.606446924837549,0.7937663483719859,14.108392356552564,-8.316450108964753,0
357.0,5.950119000000001,18.702005157856902,-4.0432519871766806,-18.148616747399963,2.591845133777793,9.346693727609988,-12.019252182473627,0
358.0,5.966786000000001,17.37661605310803,-4.870281855147973,-14.598815271811686,3.3297827307946277,3.887942117204786,-11.823767371437013,0
359.0,5.983453000000001,17.4308591625394,-1.233753776188721,-6.171234642043997,1.3481356074006567,1.304707216096504,-9.043829089308174,0
360.0,6.000120000000001,18.04193672523572,3.905763903208673,0.823008164469873,-2.90631313644391,1.94329191261747,-6.395768840272091,0
361.0,6.016787000000001,17.97076921519649,6.853222847618381,1.1799544062696825,-7.000460899099648,3.8996455560701495,-6.08177261671133,0
362.0,6.033454000000001,16.453756222217464,6.382138410875007,-5.0208885752613455,-8.330471076884892,5.651464855217656,-8.71964761089734,0
363.0,6.050121000000001,14.069859265138362,3.986307049729217,-12.975775851086748,-6.445908573242285,6.561474215674906,-13.343584096176476,0
364.0,6.066788000000001,12.281275573258345,1.9819315320309907,-17.47249213274933,-3.789405575631668,6.044741953062815,-17.841563554712337,0
365.0,6.083455000000001,11.494620474286869,1.8139059908557815,-16.746557106260866,-3.789429459401171,3.8137656097463744,-19.831030245772105,0
366.0,6.100122000000001,10.110987548284395,3.384601320652753,-12.763042989981756,-8.004577159144134,0.6925898637696647,-18.199382919930493,0
367.0,6.116789000000001,6.266616230115398,5.108380190466294,-8.715858575998658,-15.0762421852572,-1.795738427235678,-14.114655686050664,0
368.0,6.133456000000001,0.1039680398162525,4.834538513150735,-6.587345842732081,-21.949063342041512,-2.881128311882005,-10.154364875277611,0
369.0,6.150123000000001,-6.408156040929976,1.602191660538602,-6.273033463172113,-25.697678864649426,-3.3201763191091125,-8.413671865046194,0
370.0,6.166790000000001,-11.55619849123047,-3.237528509939381,-6.207004352514876,-24.959441041001888,-4.513167317786901,-9.363670002932054,0
371.0,6.183457000000001,-15.111855774095488,-6.975998800928236,-4.89998577306445,-20.786222786488608,-6.840233588108331,-11.770249645635918,0
372.0,6.200124000000001,-17.81390453299082,-7.660534040688686,-2.0693316821679755,-16.144875776550776,-9.077958200957108,-13.299263456109864,0
373.0,6.216791000000001,-20.501318974896407,-5.254707243126601,1.53255496439141,-13.805503106737696,-9.540511478221696,-11.846435488749378,0
374.0,6.233458000000001,-23.940747672039635,-1.306127092413931,4.756399417662472,-14.323858262957303,-7.580006346602886,-7.01730730173934,0
375.0,6.250125000000001,-28.69305583187325,2.220599104316989,6.805287531025078,-16.020411019990995,-3.9440644135542873,-0.5128272233857971,0
376.0,6.266792000000001,-34.28952170985315,4.386232391949847,8.696265904295718,-16.618255774870427,-0.0241370396141544,4.83799280818954,0
377.0,6.283459000000001,-38.82036753389173,5.729802995117344,13.364200780655558,-14.84697746102277,2.9562513685207747,6.619068737412724,0
378.0,6.300126000000001,-40.28497715824557,6.70348744765573,21.91332533023204,-11.229427920344534,4.154201495977006,4.321019676322858,0
379.0,6.3167930000000005,-38.42558270816355,6.182590649980449,30.154164385715735,-7.932542906429817,3.0881722401684484,-0.0313694671715067,0
380.0,6.3334600000000005,-34.702657018745114,2.9614030994276197,31.89851885757929,-7.164040942945224,-0.0608783679479065,-3.176735973009352,0
381.0,6.3501270000000005,-30.68433133704189,-1.6559194454415849,25.938685116374053,-8.756095923471328,-4.2219858765188985,-3.14144169197657,0
382.0,6.3667940000000005,-26.950118870725,-4.686073308377946,17.07136620825447,-9.771971625966716,-7.950124424581958,-0.478491836298019,0
383.0,6.3834610000000005,-23.248945023842,-5.016027662596224,9.947177924260815,-7.454483595084749,-10.346350354339084,2.8977827653887247,0
384.0,6.4001280000000005,-19.215219874447328,-4.4252924847731805,4.530551389216902,-2.1860140491549163,-11.497631177375863,5.624104357677931,0
385.0,6.4167950000000005,-14.986189964891324,-4.881045652558387,-1.6148049821545816,3.4075684639499007,-12.011208852440303,7.588901415285324,0
386.0,6.4334620000000005,-11.388085155427625,-6.450158266073342,-8.836310244213546,7.788411189266132,-11.93222593751706,9.41054144233726,0
387.0,6.450129,-9.557446173434345,-8.333492679220967,-14.928658028909185,11.526803985727042,-10.165918189233174,11.805711104783922,0
388.0,6.466796,-9.964151279843072,-10.458180748309475,-18.20085706787311,15.04191217543395,-5.520808316225631,15.180539308083516,0
389.0,6.483463,-11.300525040323008,-12.901657102473424,-18.982096897831813,17.0784091560315,1.4116279879862794,19.083541298404118,0
390.0,6.50013,-10.73570647493051,-14.262639500501646,-17.701759909193818,16.38427905493249,7.929863860604149,21.97797691637961,0
391.0,6.516797,-6.357040130453148,-11.869202513338337,-13.242072355981094,13.774779217253926,11.253460381945311,22.267104535943037,0
392.0,6.533464,0.3923546109789848,-4.479357962104174,-4.706008907262087,11.370254535266207,10.80309378662444,19.885534200135524,0
393.0,6.550131,5.523758300920562,5.212636810445535,5.815833058347282,10.341846229278945,8.356078869629577,16.558575757611028,0
394.0,6.566798,6.315390330748755,11.57450436836334,13.695627530068522,10.299879624238296,6.144789918240886,14.466824407424674,0
395.0,6.583465,3.9840996997465608,10.509586446230577,15.361895837259969,10.588746498811629,4.997988546223517,14.74821819946401,0
396.0,6.600132,2.148673724391004,3.314821422691428,11.352029826076915,11.37319138283949,4.219294139581281,16.73373480392145,0
397.0,6.616799,2.996841430935397,-4.185654203244538,6.134879471675525,13.150595164187273,2.8159858314312487,18.27980526432998,0
398.0,6.633466,5.504778212972939,-6.723632859998778,4.870155387919729,15.516090231068302,0.5519750223601041,17.45646669501818,0
399.0,6.650133,7.231542389212513,-3.878073008516624,9.567423690218218,17.118502363879706,-1.7890275699490337,14.335924924200048,0
400.0,6.6668,7.224362745112415,0.6581792855113453,17.771750761427533,17.110425174236973,-2.787257052851303,10.794129074214782,0
401.0,6.683467,6.886561353734985,3.4811683151798363,24.79861623975782,15.927007557513296,-1.6240191426370632,8.603759681640334,0
402.0,6.700134,8.26575552328806,4.318228950470943,27.382930508962275,14.078941997761524,0.5161660405169832,8.207422697750506,0
403.0,6.716801,11.843521250996536,4.766913206021954,25.67191818907476,11.048782511346856,1.0255761206102836,9.03649582962304,0
404.0,6.733468,15.98034582864875,5.746073023692822,22.447341921428343,6.486990084129101,-1.3382718419698736,10.222944216863834,0
405.0,6.750135,18.29174554730545,7.033221898633553,20.85995690244781,1.897959613202738,-4.739063809153819,11.065108144938804,0
406.0,6.766802,17.491034015731564,8.236142213935597,22.27756386959377,-0.2747111300895866,-6.018543727880168,11.49747333922309,0
407.0,6.783469,13.99439151706543,8.897141221141386,25.172777471461018,0.7523671625538486,-3.966733700114688,12.1656643164821,0
408.0,6.800136,9.040870697210046,8.098331023818563,26.295500631971592,3.2898783777544613,-0.5894698152230089,13.4564607454574,0
409.0,6.816803,3.7186549860217495,5.386214541558119,24.20408751416745,4.838410645443163,0.6078940049269344,14.510521919241476,0
410.0,6.83347,-0.90763024451751,2.139100602689052,21.32361913950715,3.993741786660373,-2.4152955746803686,14.079756817965624,0
411.0,6.850137,-3.1759458689545665,0.6542582815595758,20.99337481711092,1.0722777459265724,-8.387584866270686,12.527065057582549,0
412.0,6.866804,-1.476612386949693,1.4404294781768971,23.05033868215877,-2.482880207728092,-13.592798619212726,11.795963051624028,0
413.0,6.883471,3.5382220831751923,2.449345764931078,24.10011694452272,-5.311054689271025,-15.103353127396336,12.676487161014377,0
414.0,6.900138,8.109034245135707,1.3968020036197428,21.60539210820803,-6.931167801909503,-13.360761606917292,13.229714558596372,0
415.0,6.916805,8.503027119819908,-1.8829203132920984,16.3622864923829,-7.380539222141764,-11.073100225726137,11.163002607586296,0
416.0,6.933472,4.929641304084308,-5.546365109333879,11.693651342381209,-6.497186386725533,-9.669160064630455,6.958149530153903,0
417.0,6.950139000000001,0.6977700752226377,-7.56593094379425,11.02083623857073,-4.1832083166693685,-7.874789317124754,3.1503790703453207,0
418.0,6.966806000000001,-2.106188274057486,-7.281174650346049,15.267876800649242,-1.216366114403753,-4.156197017422851,0.8642344733761314,0
419.0,6.983473000000001,-4.032155455270676,-5.512832193894546,21.971317309436724,1.090638802429603,0.5974083440597056,-1.553781026477666,0
420.0,7.000140000000001,-5.738250118417984,-3.474755984237808,27.410012377536205,2.271056015780067,3.8821886803427086,-6.301220229081523,0
421.0,7.016807000000001,-6.5231692444816,-1.8903987059891496,29.63566067601585,2.934719342294492,4.455863073748409,-13.335935056429264,0
422.0,7.033474000000001,-5.873740382148334,-1.240941830273409,28.98514405062748,3.332489886984769,3.4202949821980635,-20.20109820550028,0
423.0,7.050141000000001,-4.798700694655852,-2.1650026512130243,26.18532264353583,2.6022490256745328,2.795833170330237,-24.450661503651496,0
424.0,7.066808000000001,-4.788340156730003,-4.725354811016009,21.31700438729466,0.1049669821915142,3.8517681505733097,-25.984232699839225,0
425.0,7.083475000000001,-6.107580083826037,-7.497030752266023,14.749520337165045,-2.910204181579202,6.609064735075562,-26.912051771716214,0
426.0,7.100142000000001,-7.658128165353608,-8.322350045014568,7.702140618408079,-3.729383242860585,10.104541411714688,-29.36298596647564,0
427.0,7.116809000000001,-8.15116406857936,-6.107183522956986,1.3847550103046449,-0.7220857953240971,12.927749470569516,-33.59755764648859,0
428.0,7.133476000000001,-7.0742955360935,-1.4395672124344374,-3.649486042458968,4.616258487370904,14.126974200153306,-38.06180153429227,0
429.0,7.150143000000001,-4.903671915398209,4.282902837664296,-7.266607264500318,8.742513599583507,14.111970520582886,-41.03342328610565,0
430.0,7.166810000000001,-2.5014492891433138,9.647800470756865,-9.716780218514817,9.464453866636292,14.460200262370977,-42.15656956034666,0
431.0,7.183477000000001,0.1983574517711588,13.39989955696626,-11.95554106131486,7.913426472760979,16.343884480458588,-42.38211476114596,0
432.0,7.200144000000001,4.695202665032759,14.925838781457808,-15.18446442726318,7.054078644825863,19.08241828793857,-42.647887686531845,0
433.0,7.216811000000001,12.281042871826838,14.881329655391262,-19.715079609634248,8.743979439209587,20.49316532628654,-43.088409897194026,0
434.0,7.233478000000001,22.12132441830913,14.47018689743168,-24.78138291102492,12.30353576089869,18.669988089117105,-43.52981470033564,0
435.0,7.250145000000001,31.888291892440687,13.792565488709112,-29.587149880067415,15.285659473136782,13.426812261133586,-44.09867644302269,0
436.0,7.266812000000001,39.94669603440083,11.598679974937667,-34.06327927398289,15.414905649227652,6.462268982095647,-44.96428688210689,0
437.0,7.283479000000001,45.95818884756709,6.845371359047062,-38.54243509100027,12.39435875071552,0.3701002557508848,-45.83486364878566,0
438.0,7.300146000000001,50.04506551345048,0.0831603690110194,-42.94658056574483,8.206221136264451,-3.069340652330828,-46.10472893594204,0
439.0,7.316813000000001,52.75143325541267,-6.571563231670227,-46.43098398023169,5.410327930705359,-4.230369786283328,-45.41394213449432,0
440.0,7.333480000000001,55.39334032829992,-10.63136743067442,-48.20962971487107,5.055461747136914,-5.198487802892691,-43.76004074307343,0
441.0,7.350147000000001,59.085581398904864,-11.000500507585867,-49.05172723646048,6.31947099103876,-7.782356748294909,-41.00912207883441,0
442.0,7.366814000000001,63.535193298399264,-8.959412205688679,-51.19047841763275,7.937349187684596,-12.146536183356268,-36.68951963356823,0
443.0,7.383481000000001,67.68970952903047,-6.862475662681451,-55.71645380300085,9.75763062780224,-17.243557195523334,-30.69726531672385,0
444.0,7.400148000000001,71.29983626094153,-5.67695012019532,-60.674388243914734,12.93020369957423,-21.821352792968675,-23.98791796055864,0
445.0,7.416815000000001,75.02235727352189,-4.37588324619126,-63.03348539649495,18.50855545932241,-24.850777521319948,-18.002023194844515,0
446.0,7.433482000000001,79.04577878669154,-1.6934613397452534,-62.18785691436847,25.936928933144813,-25.89762388974936,-13.552231433799562,0
447.0,7.450149000000001,82.17402356567868,2.218837082548893,-60.25496104315568,33.26466077909484,-25.749214669317663,-10.779606812950554,0
448.0,7.466816000000001,82.56366583399627,5.91488871346483,-59.11381888219011,38.80843425921122,-26.2259001477082,-9.745270333168978,0
449.0,7.483483,79.5844223136616,8.059254791940534,-58.44885655910482,42.30084318695833,-28.790192458724317,-10.26007205173306,0
450.0,7.50015,74.91310803468868,8.745398745408254,-56.996721001459896,44.801331508813306,-33.3098898713437,-11.457994039795183,0
451.0,7.516817,71.12584594867837,9.40752188407583,-54.77018527200431,48.00606215709593,-38.03631552460094,-12.258630191178623,0
452.0,7.533484,68.89453546063817,11.331647678429846,-53.2637743416535,53.17756709977024,-40.500589858204094,-12.096813771879848,0
453.0,7.550151,66.32536517455952,14.593910670270454,-53.524990131195054,60.06924525160005,-38.86505840525281,-10.959379667852144,0
454.0,7.566818,61.5571935755721,18.507858013037684,-54.51883761359044,67.00376594898155,-33.301723682347564,-9.140028097946658,0
455.0,7.583485,55.18500321963255,22.262971666172227,-53.76601239906014,72.38379289466691,-26.28565569629062,-7.16452894946705,0
456.0,7.600152,49.38542100559867,24.6965146686258,-49.675908690925226,76.24352033668859,-21.016499803223333,-5.610356453792636,0
457.0,7.616819,45.36299296864722,24.379259265487548,-43.10205972241189,80.17529383264558,-19.08959180944508,-4.8293701921144345,0
458.0,7.633486,42.39167293916147,20.76613571014762,-36.4546135053083,85.3909091883927,-19.67117761783026,-4.924675065381508,0
459.0,7.650153,38.90639494625658,14.76827253624323,-31.41098544370412,90.88254927354168,-20.96525885574195,-5.874974194239664,0
460.0,7.66682,34.25742557337572,7.70596863468115,-27.67495784489447,94.20045409543988,-22.14677435013141,-7.394861675822668,0
461.0,7.683487,29.84739242025992,0.2400595515690741,-23.830233591429952,94.37275171750066,-23.48484782441797,-8.72889878871337,0
462.0,7.700154,28.269299281924475,-7.411582413298877,-19.080615059356155,93.31567048527528,-24.973378228358424,-9.10545276089391,0
463.0,7.716821,30.499275629758444,-14.919451717745348,-13.959903975820556,93.87279565938898,-25.7562358344102,-8.721048705358127,0
464.0,7.733488,34.316813463643264,-21.97375620211698,-9.432044931797565,97.17138851136392,-25.0708978316391,-8.93553323493227,0
465.0,7.750155,36.547218607734536,-28.645940561910585,-5.7278185916585445,102.34156261512206,-23.04608295033681,-11.055128698502184,0
466.0,7.766822,36.63990439092534,-35.08318711474434,-2.4537331190328406,107.87292826034708,-20.157243840876102,-15.050392017070038,0
467.0,7.783489,37.08298893578588,-40.49897601270776,0.3026551206236398,112.34721915911514,-16.27929375884138,-19.876275647844423,0
468.0,7.800156,40.34962828738309,-42.668282871465806,1.3227813248391955,114.4438820904543,-10.59962815016764,-25.04771563125474,0
469.0,7.816823,46.16305709105096,-38.99298448721312,-1.2837707649692356,113.41625033769932,-2.155386931170619,-31.416019658345284,0
470.0,7.83349,52.028949515780845,-28.314375269316425,-8.874029687824896,109.64076812367534,9.723742663414075,-40.03800117845243,0
471.0,7.850157,56.09986797266673,-11.88240188853308,-21.117268412242503,104.00598957960378,24.839941760361548,-50.56193357352158,0
472.0,7.866824,58.86621475737758,7.011824658587564,-35.9116673570431,97.0110043763862,41.41032848349015,-61.25067816427024,0
473.0,7.883491,61.9987958327752,24.657302575412977,-50.60912966314973,89.20744882065748,56.39328244128886,-70.57873532946572,0
474.0,7.900158,66.7533874735624,39.18301711121748,-63.46687707417525,81.93942815489768,67.33148878762066,-78.51245591753974,0
475.0,7.916825,74.35758902913696,51.53758215901596,-74.18278662375046,76.47824129682188,74.21676657689657,-86.228458379145,0
476.0,7.933492,86.73773935635916,63.95276734349189,-83.2825477129642,72.49732992760735,79.54123132218979,-94.62287584513712,0
477.0,7.950159,105.09432275452748,77.39249242351242,-90.83316864095116,67.84956580006696,86.15606825851197,-103.04827803166938,0
478.0,7.966826,127.3589832826044,90.31473388009972,-95.64759764460752,59.55710080001984,94.40356411342174,-109.54908538284036,0
479.0,7.983493,147.55972987814346,99.43997726599368,-96.0738283366342,45.334670527326665,101.04113447970374,-112.15549595330708,0
480.0,8.000160000000001,158.55606871763248,101.87636166139735,-91.55122999560732,25.437429128273823,101.26542903291065,-109.62726336035476,0
481.0,8.016827000000001,156.636241054888,97.278702102849,-83.00915367942687,3.3130958123606837,92.2351463647015,-101.3995295357022,0
482.0,8.033494000000001,144.1798324913639,88.27689014851059,-72.03783949622918,-16.44860223883633,75.11893414770587,-87.94030970922348,0
483.0,8.050161000000001,127.4553513784098,78.61063643751633,-60.21385136112829,-30.964405450096613,54.3153734936826,-71.53946331035641,0
484.0,8.066828000000001,111.2658487723979,70.74020930400658,-48.84865958663732,-39.50214494131629,34.8029203460795,-55.96977493893921,0
485.0,8.083495000000001,95.88755474243229,64.98967261409581,-38.68302135429056,-41.95052380653645,19.47695523741491,-44.45011970042631,0
486.0,8.100162000000001,79.30564301577756,60.30165538719897,-29.74066962379806,-38.43864452517961,8.116445098709194,-37.53488753537415,0
487.0,8.116829000000001,61.5240368988564,55.43720588060313,-21.63432720368268,-30.753222762303142,-1.5113126892644773,-33.00217795124705,0
488.0,8.133496000000001,45.52290038889487,49.86448823073015,-13.978813024915947,-22.79687314651568,-11.626151042562608,-27.894376650638318,0
489.0,8.150163000000001,33.954721739411674,44.05073056072408,-6.412529041339305,-18.435324988131292,-23.12426424793941,-20.64916948958455,0
490.0,8.166830000000001,25.923231634322963,38.927013304045104,1.8081570446480637,-18.97137903459614,-35.34927551142466,-11.50226780661398,0
491.0,8.183497000000001,17.628662714890567,35.01166935810596,12.014999896426753,-23.102789426084072,-46.58163530450565,-1.5889860045773072,0
492.0,8.200164000000001,5.633802231308317,32.3874678427072,25.564537043002414,-28.731347250923665,-54.97316944722155,7.917809689174861,0
493.0,8.216831,-11.21201669403689,31.485522829753798,42.99499612400885,-34.129611170321844,-59.34079331086468,16.342379313980352,0
494.0,8.233498,-32.67960013952574,32.93955807693093,63.76561228535102,-38.12068321596424,-59.33051473819846,23.87948903566028,0
495.0,8.250165,-58.67117699956577,35.90831369229449,86.31089591385087,-40.5007571886717,-55.37190446604636,31.43784585103043,0
496.0,8.266832,-88.86443359885338,36.965916369557576,107.75788712720154,-42.4038555511149,-48.81133865497655,39.96203131972474,0
497.0,8.283499,-121.13171530210565,31.634766464755177,124.11165059507994,-45.4169666245585,-41.54310879248117,50.00888107729021,0
498.0,8.300166,-151.37985779741402,17.511304805055012,132.03084371040376,-50.05990009137122,-34.74220872688216,61.75538379367157,0
499.0,8.316833,-175.56363780536316,-4.026445183352055,131.0873474059958,-55.29417211400396,-27.914523752181843,74.8929603321382,0
500.0,8.3335,-191.7482667690287,-29.020740554598543,124.09805849139975,-59.31220307288448,-19.605570007186127,88.55662465272253,0
501.0,8.350167,-200.192898209634,-53.63026842702596,115.03173505011377,-60.70502941828764,-9.167488006262513,101.76500081061668,0
502.0,8.366834,-202.01372720348357,-75.68774972395818,106.49164452401942,-59.42831491550303,2.372764358702381,113.8138841401751,0
503.0,8.383501,-198.48011069955655,-94.30327055987328,98.9125771668373,-57.08227041591319,13.096509892348458,124.00846990874248,0
504.0,8.400168,-191.60143349053448,-109.16917613447802,91.75771624132236,-55.89787610285943,21.30640429968946,131.523950723553,0
505.0,8.416835,-184.4335742290648,-120.85476953176848,85.05680709682616,-57.088390531136845,25.77851055326063,136.13051441629025,0
506.0,8.433502,-179.79610860883966,-131.12469647977653,79.47865070961106,-60.42604510085021,25.77887347258364,138.719764709731,0
507.0,8.450169,-178.5744413689394,-141.97870270145123,75.2119035749331,-65.36998013981626,21.665900368891226,140.50559385305763,0
508.0,8.466836,-179.5101819870141,-154.0473984473517,71.45609633634339,-71.90542775629515,15.25756948733338,141.8230819495736,0
509.0,8.483503,-180.47090833121007,-165.98307123231922,67.0230506887064,-80.04593718702571,8.837515517307123,142.04725429526178,0
510.0,8.50017,-179.85600296043685,-175.1788451435738,60.986167123749816,-89.04771056301001,3.534922005369879,140.50337214730808,0
511.0,8.516837,-177.09990147115664,-178.79840231171113,52.97700796045521,-97.49034835177012,-1.0926209008716,137.1649836593014,0
512.0,8.533504,-172.0617283001485,-174.66536257470926,43.53747072580134,-104.07857788409538,-5.821988643327956,132.61755270726246,0
513.0,8.550171,-164.3116463593336,-162.28416857269076,34.09679086149521,-108.32566625305128,-10.37812524555547,127.60316636103664,0
514.0,8.566838,-153.52471802604168,-143.32083973826408,25.90442441875807,-110.44363704576642,-13.543309209478192,122.47773648414277,0
515.0,8.583505,-140.06064006284896,-120.55122557927812,19.006340581205933,-110.59064523072306,-14.57906327695378,116.87132162011918,0
516.0,8.600172,-124.06880404642644,-96.23406709193054,12.845075286309584,-108.48187686697176,-14.194881984451795,110.03966539774396,0
517.0,8.616839,-104.58783702231048,-71.64086630996044,7.669726917006095,-103.83142992068034,-14.0368563961328,101.8612846481776,0
518.0,8.633506,-81.2684202861569,-47.61558010225593,4.544970402840266,-96.95440718008524,-15.600675139859565,93.1864328211347,0
519.0,8.650173,-56.663284762156266,-25.204381022995364,3.8684548583502254,-88.89159333525862,-19.791665754690285,84.66847848355772,0
520.0,8.66684,-34.5522659944716,-6.020310348711202,4.671610211163162,-80.93821129742508,-26.967200776076982,75.73188504131065,0
521.0,8.683507,-15.678200520378567,8.244917546227407,5.901857613673151,-73.64452371061572,-36.646094205439496,65.61519199484354,0
522.0,8.700174,2.8055462130072986,17.222806856359572,7.877734574338184,-66.0543018717353,-47.034654942008046,55.07447123433944,0
523.0,8.716841,23.18419343607704,22.298567716378752,11.655518485646244,-56.57341558897325,-55.43558146044033,45.92232638329142,0
524.0,8.733508,44.49402481690833,25.08706207834041,17.11343850971475,-45.07609509418548,-59.77768917916511,38.87356882397106,0
525.0,8.750175,64.64696416195815,26.056179196887427,22.669148082586005,-33.33098428276852,-59.76432815484438,32.75889440199784,0
526.0,8.766842,83.33539068959439,24.85775481140567,27.241379637597817,-22.661099946763784,-56.31662881013844,26.05857044783405,0
527.0,8.783509,101.62281637042392,21.12318946411532,31.7525282835678,-12.109908779832784,-50.28056724248533,18.68298438717347,0
528.0,8.800176,119.78712088956462,14.813630961723952,38.186921236430194,0.3303858610293422,-42.01675692349695,12.045420186568808,0
529.0,8.816843,136.83380747891272,6.773151707530209,47.41750256412281,15.673481757964725,-31.486776514616608,7.618550262575272,0
530.0,8.83351,151.66920658916632,-0.8827655396803813,58.06989336442426,33.96455107263641,-17.927723060272456,5.656939904260304,0
531.0,8.850177,163.71970229685982,-5.796454152575491,67.42355679113423,55.3552241013499,-0.0816030638956482,5.327217854768472,0
532.0,8.866844,172.5646681670013,-7.158879921280963,73.73086764208703,79.8215884373934,22.18765989686652,5.804563108032792,0
533.0,8.883511,177.95187435323732,-5.911262679188646,77.84913796216804,105.75717642365896,46.68749001174999,6.962255919057215,0
534.0,8.900178,180.32100956146664,-2.879506194835317,82.08509862154467,129.46870835615871,69.95701443995883,9.052869015863912,0
535.0,8.916845,180.4253500817703,2.4507971456575146,87.16014418777308,146.68435731911865,89.18031932266851,12.156597396116522,0
536.0,8.933512,178.1987450739087,10.57216061414866,90.99186506644013,155.39072464319074,102.63152630186786,16.184070135887872,0
537.0,8.950179,172.94634862574298,20.30470561836067,90.80161538617936,157.86888403177318,109.3174269500473,20.8999407222028,0
538.0,8.966846,165.07329444878863,30.04091938812846,85.58437246525185,159.76171752972496,109.59898757981183,25.384823301327675,0
539.0,8.983513,156.69626995425782,40.57091751017779,76.09196206499635,166.4407820607194,105.83397449133447,27.911975742362152,0
540.0,9.00018,149.89021134211245,55.192684922948246,63.46762846242781,179.8852288824221,101.07774410070992,27.221224427499514,0
541.0,9.016847,144.80379979604805,76.09655130377298,48.90959725340984,198.61607074348512,96.82705815605348,24.0316585545516,0
542.0,9.033514,139.71042141673516,100.91925880689286,34.22781049383501,219.53052218513537,92.53690030187032,20.80515726898677,0
543.0,9.050181,132.4076838562665,123.31902622392028,21.691814800261096,239.23501850397025,87.23762818876259,19.701718293251677,0
544.0,9.066848,121.69642996225414,136.916296162513,12.976593925964268,254.57213930984463,80.92148822644572,20.798927411664817,0
545.0,9.083515,108.26310966322012,138.71678988601593,8.432419515428005,263.02228875650707,74.22467948750555,22.38157389516145,0
546.0,9.100182,94.2984565322562,129.54502246592372,7.434788928165858,262.8769421283837,67.35885006159836,22.73431644456145,0
547.0,9.116849,81.80311510211828,112.34998810087886,9.404193985765383,253.27707030976185,59.722515020776754,21.369146098232434,0
548.0,9.133516,70.9065860801942,90.3199885146895,14.39789754235454,234.7276888676492,50.353330623641085,18.789409142275623,0
549.0,9.150183,59.90861114012489,65.83144659032078,22.42229784730736,209.79748520111804,38.629655376014114,15.710574707381843,0
550.0,9.16685,47.158529972340375,40.57369235752567,32.15262752113708,182.8175826037976,25.044251102852044,12.759934447980068,0
551.0,9.183517,32.69587706164793,16.58477440991139,40.89479071287983,158.14450186037078,12.096822274135274,10.666153529676414,0
552.0,9.200184,17.767920001925727,-3.091694437594203,46.146281561646745,138.05124080193315,4.2542829546377785,10.367213654837014,0
553.0,9.216851,3.0572559669068147,-15.465342620897076,46.9254606941069,121.81836852475108,5.403210762160914,12.5148827592668,0
554.0,9.233518,-12.097711892175504,-19.726815361300424,43.6760656522679,106.59473682019237,15.12598322691013,16.57546513591846,0
555.0,9.250185,-28.879322040884247,-17.929593672782495,37.59911966299951,89.20172211469998,28.210770838725303,20.66420576309978,0
556.0,9.266852,-47.83706797221209,-13.157546288012576,30.188403766228085,67.71078484151472,38.77966817739156,22.72110507536047,0
557.0,9.283519,-68.38280687907037,-7.270532536427686,22.60207980969137,42.15444497303179,44.46691708259523,21.9281707341395,0
558.0,9.300186,-88.8951650996497,-0.4737120416186557,14.926341857025784,14.183199298468052,46.42455471739587,18.835888966187667,0
559.0,9.316853,-107.35560851338664,7.744551328021357,6.226846781332457,-14.127567590926844,46.733720113510586,14.184406868259066,0
560.0,9.33352,-122.54387916445418,17.89251666559707,-4.382488211003563,-41.52976140938512,46.868835852887045,8.026133125602483,0
561.0,9.350187,-135.03098708250562,30.0245748018678,-16.6722300737033,-67.79747763318619,47.51582362127404,0.2789425213119685,0
562.0,9.366854,-146.7578601411213,42.752430469401816,-29.436910147713974,-92.56670169305583,47.89627886578264,-8.401527747050569,0
563.0,9.383521,-159.29776699509563,52.55009178944563,-41.8301155150681,-114.21306821874713,44.95373956277128,-17.200518918078444,0
564.0,9.400188,-172.5082392966117,55.18000259926093,-54.34312500584852,-130.45196906426523,34.80450553682554,-26.575231504942423,0
565.0,9.416855,-184.7866232037306,48.56340939564076,-67.9422431403423,-140.22085832178695,16.094040261343494,-38.148061621161794,0
566.0,9.433522,-194.2401532618836,34.04312317443227,-82.0899542613999,-144.6579977674685,-8.687661731900185,-52.7447886668793,0
567.0,9.450189,-199.54597597690997,14.957957777160107,-94.21228275879106,-146.13145692072953,-35.51009813685096,-69.17743811615931,0
568.0,9.466856,-200.55311688279508,-5.4708575303193445,-101.78834949176805,-146.56257867840364,-61.35922697434576,-85.43297093951134,0
569.0,9.483523,-199.04393683314663,-25.24842468226501,-105.0321422155951,-146.76479108995656,-84.42479993712568,-100.63744101232504,0
570.0,9.50019,-198.55376115735183,-43.80684832855477,-107.34705230152947,-146.93584988372103,-103.56527004452516,-115.3480274913496,0
571.0,9.516857,-202.02470490604043,-61.602296027387794,-113.05287011735136,-146.94124091222386,-118.6223006716544,-130.0120312237218,0
572.0,9.533524,-208.93322817963124,-78.9634117642177,-124.10285709450956,-145.7724111981222,-130.27141220133825,-143.58489012158572,0
573.0,9.550191,-215.18911826929627,-94.5848539076494,-138.30262117812993,-141.4425780230051,-138.67951663761858,-153.97897102143023,0
574.0,9.566858,-216.4117694162196,-105.16171643290149,-151.14816732240484,-132.1294531184938,-142.64363876608132,-159.8090469821691,0
575.0,9.583525,-211.47755189218825,-107.39505136394538,-160.29651350775606,-117.35021578265474,-140.47669055445274,-161.47956388072436,0
576.0,9.600192,-202.9314119408864,-100.99058395451716,-167.82994387761713,-98.133232304667,-131.7466465596433,-160.60344297834592,0
577.0,9.616859000000002,-194.0187496332552,-89.2948632867478,-177.29515839051362,-76.57382849373161,-118.13353727901664,-158.5322727861011,0
578.0,9.633526000000002,-185.3730881250889,-76.51380047133766,-189.19409144094567,-55.011634216098,-102.70207563194596,-155.4144275743072,0
579.0,9.650193000000002,-174.49199231721428,-64.57728548286717,-200.6353063811037,-34.96372592269747,-88.40709007001524,-150.50544322786354,0
580.0,9.666860000000002,-158.0820536703559,-52.93134959346416,-208.9949632241915,-16.89107561229472,-77.0126956510168,-143.23503404268382,0
581.0,9.683527000000002,-134.88562174457593,-40.69717812528021,-214.2981732839986,-1.1637887590561888,-68.94405744548133,-133.97181646980528,0
582.0,9.700194000000002,-106.86598893288313,-28.20246907066695,-217.74873711853536,11.343847299636826,-63.985765664371954,-124.00107116375882,0
583.0,9.716861000000002,-77.97320310815722,-16.616368730702103,-219.4457908062691,20.00760457670444,-62.06504434581673,-114.86927541689036,0
584.0,9.733528000000002,-51.47783275060538,-6.8646302532137895,-218.4132915815493,25.310649348328656,-63.05441468246899,-107.4172691144145,0
585.0,9.750195,-28.45372140479909,0.9340445182848388,-214.014691847227,28.71635882035023,-65.94404376407093,-101.08804488899312,0
586.0,9.766862,-8.580390547267235,7.175311060480325,-206.6061157432169,32.17227234770844,-69.08061444608235,-94.08561169967348,0
587.0,9.783529,8.552785688920853,11.974466986932894,-197.3335998691121,37.740927043637605,-71.59683044750989,-84.26519479034255,0
588.0,9.800196,23.242472192603586,14.940042013846696,-187.7774396102367,46.855202106727496,-74.10117316902524,-70.23690595199942,0
589.0,9.816863,36.01784016447419,15.956000704919248,-179.33849417150248,59.37697531219567,-77.8665582183133,-52.22428416473299,0
590.0,9.83353,47.79893420766873,15.738553476718096,-172.45456119262573,73.62506722049912,-83.87283018454347,-32.07459722072335,0
591.0,9.850197,59.69443023089357,15.286295196241111,-166.52302011227977,87.59803202511048,-92.4731951244684,-12.251320818518826,0
592.0,9.866864,72.16778688604951,15.304483482923908,-160.87389966241966,100.133237491894,-102.95651494758572,5.308857910525425,0
593.0,9.883531,84.36298373203812,16.67092724765949,-155.7469615334454,110.91093973271089,-112.91541694932371,19.74428144954063,0
594.0,9.900198,95.1941478936476,20.954393596896995,-152.23938262663057,119.603655782193,-118.60351453780964,31.598253204011456,0
595.0,9.916865,105.1698922030031,29.50969225316956,-151.5374020017495,125.25633150240476,-116.7338472193739,43.11146005194437,0
596.0,9.933532,115.69176031798818,42.030260403804654,-154.0454728207671,126.34725603655627,-106.23790920081642,57.673761182702975,0
597.0,9.950199,126.11215984352134,56.93844604061194,-158.7365468945617,121.17386599732384,-87.88956470858054,78.17179206814401,0
598.0,9.966866,133.41193996087262,73.52864178442348,-163.75226736348156,108.58758879142184,-61.62868796529699,105.3673979752933,0
599.0,9.983533,136.6230377908566,92.92712888963982,-168.6292732088624,89.24361982255313,-24.465407124290664,137.48069241167946,0
600.0,10.0002,140.67617621046952,116.77092782562502,-175.4195855130899,66.13604464441096,27.88396408772096,170.9662830221313,0
601.0,10.016867,153.5480251144919,145.85835456716654,-185.9056728941215,42.973979273379,96.49777287919878,201.67921580175923,0
602.0,10.033534,178.913652480324,179.81653873583664,-197.5118834227333,21.68953413871137,176.19996172939722,225.82516185185432,0
603.0,10.050201,212.09466940186388,216.2538951089464,-203.2797529860184,1.993909226457208,256.5864507529915,240.62272124986188,0
604.0,10.066868,242.69230435688223,249.49256007407357,-196.12422323628985,-16.72895553160755,325.85178010105216,244.7799189855373,0
605.0,10.083535,260.6455758946945,271.2371453109755,-172.4319608028663,-33.72930681415611,374.6175090365367,238.82427061932248,0
606.0,10.100202,260.84438831439115,273.777779272393,-132.06100194409305,-46.99737314927327,397.80645551023326,225.2083370683117,0
607.0,10.116869,243.41985662584085,253.44676326845425,-76.36134688783187,-54.641169013035366,394.3245651048748,207.75380484596707,0
608.0,10.133536,210.13307321626715,212.07505745886613,-6.7959005673652015,-56.51872659750612,365.9816901787474,189.959257286946,0
609.0,10.150203,160.47758799125666,156.41275056216526,74.91408599276625,-55.15248523243447,317.30191097698827,172.7641853940479,0
610.0,10.16687,91.565718091174,96.64616338699228,165.07890240973742,-55.06548100044167,256.1951585073174,153.61678072542924,0
611.0,10.183537,2.7156753401725453,43.83456260735323,255.24509587283453,-60.69673095990767,193.39615919418017,128.30875453568896,0
612.0,10.200204,-98.67238645855576,5.1642383982939695,330.8900974987271,-74.12628031973624,138.5364635062007,94.90665351231236,0
613.0,10.216871,-195.4836038839606,-20.89452010921592,375.398715271529,-94.01490056749276,94.49953665496616,56.7776067769796,0
614.0,10.233538,-266.53818513535964,-43.49412820289504,379.07898286157086,-116.5975476166896,56.1918018273487,21.454153092213076,0
615.0,10.250205,-296.43045634346464,-70.43886668158072,346.532703487451,-138.01731507642972,17.05004051027378,-4.349496877022865,0
616.0,10.266872,-282.4247401682634,-99.71076449302733,295.4445952109572,-155.8980415228771,-23.063661847921026,-18.878189572844416,0
617.0,10.283539,-233.91291481536663,-121.34957787649115,247.2016262023552,-169.25911210384913,-57.72597603300999,-24.82618562429925,0
618.0,10.300206,-166.3818880005028,-127.6667054088852,216.26226452353325,-178.11381662360768,-81.01051965139226,-25.885097767006204,0
619.0,10.316873,-95.19103048535834,-120.4823577223198,204.72156856861253,-183.6449911206189,-92.94237191637572,-24.669094947075827,0
620.0,10.33354,-32.3260508392171,-109.14162683737862,203.90126821290036,-187.989484553573,-98.54299121411636,-23.318499495024888,0
621.0,10.350207,14.34053402090061,-103.41637143729366,201.0472465517137,-192.9818553596044,-103.73878673683475,-24.51004006204405,0
622.0,10.366874,41.03228622607158,-108.20139309446128,187.1633786275289,-198.95866738104664,-112.73817210086938,-30.73324763977206,0
623.0,10.383541,48.189698788343705,-122.70229213500512,161.16024244076607,-205.0107574026662,-127.41800407329892,-42.45958588107431,0
624.0,10.400208,40.37137188915224,-142.6351216370269,127.9161060119871,-210.4968862608556,-146.9049248994369,-57.546096784325535,0
625.0,10.416875,24.88874734648291,-162.74643710529193,93.33901283992584,-215.9502139689733,-167.1365360471127,-72.77220481332662,0
626.0,10.433542,8.726801237665311,-178.3036759308909,61.61661518714114,-221.9761756870854,-182.16864779851505,-85.8660058751734,0
627.0,10.450209,-4.656781275868783,-186.311561713405,35.337427798752046,-227.59311800629337,-187.65468110361508,-96.21647108409462,0
628.0,10.466876,-15.856934445658847,-187.0257383436104,15.235344018398871,-230.6752459196477,-183.7018660632902,-104.34638976725458,0
629.0,10.483543,-26.950292316030847,-184.04144222963615,-0.9926903288135552,-230.08764936089656,-174.1919907363767,-111.24862114670672,0
630.0,10.50021,-38.94675066829987,-181.49225386420915,-17.76529554773241,-226.5236933343296,-163.48582161808986,-118.19561377503967,0
631.0,10.516877,-51.75322778918931,-180.49735148498385,-38.18093069384358,-221.3396091452873,-153.84792201522862,-126.83362135021903,0
632.0,10.533544,-65.33967197941745,-178.45924203641607,-61.9131243334987,-215.5575790191562,-145.04832999619575,-138.98572206288742,0
633.0,10.550211,-79.72447830411784,-171.66260588693163,-86.59597023013382,-209.88416082601876,-135.2719306090031,-155.8482082085426,0
634.0,10.566878,-93.8766463627236,-158.11780932932578,-110.34524948855685,-204.34345966507036,-122.38890606578966,-176.9733657153746,0
635.0,10.583545,-105.31138665149732,-138.10692066176938,-132.64517005885278,-197.2593328103168,-105.0790144674022,-199.84551762489255,0
636.0,10.600212,-111.34393151811793,-113.31000455592124,-153.28232662002694,-185.4954244812592,-83.54609080018312,-220.76676447579237,0
637.0,10.616879,-111.29106357106436,-86.725833136333,-170.56201199869668,-166.9012283031114,-60.05469403783888,-237.0808850425492,0
638.0,10.633546,-107.63609363928408,-63.08549750757594,-181.0501620994918,-142.68004470798348,-39.13996785702669,-249.0655001347617,0
639.0,10.650213,-104.67176049488116,-47.6221270027318,-182.25911186515407,-116.61446384797252,-26.34565383165007,-259.12903794953047,0
640.0,10.66688,-105.75591999401264,-43.220592451435074,-175.60368347288855,-91.70386796291208,-25.16971820090172,-268.87111231876645,0
641.0,10.683547,-111.93767717885474,-48.56432656352392,-165.57854960395494,-68.1346298393222,-34.318575122952666,-277.6324494670805,0
642.0,10.700214,-122.74328604344834,-59.09431613383708,-156.2296225150012,-44.63718392668471,-48.0611246082656,-283.9886514284289,0
643.0,10.716881,-137.15713469648605,-69.89605848335913,-149.5544416015686,-21.002701981357173,-59.82596817714602,-287.4486152728938,0
644.0,10.733548,-153.34975955068546,-78.00149308104403,-146.65275678403216,1.231704160881003,-65.73591705258302,-288.29678139379746,0
645.0,10.750215,-168.34649534565975,-82.3243454806234,-148.24848295017685,20.01731271489341,-64.81830697383978,-286.91375886780025,0
646.0,10.766882,-179.21724615478632,-81.9998648842552,-153.3403548414093,33.953956464256535,-56.85856395731102,-283.71545559805776,0
647.0,10.783549,-184.61579289722965,-75.34186508838842,-158.6792770550001,42.43653868915915,-41.62197885607647,-278.8114038274239,0
648.0,10.800216,-184.23115629011232,-60.42423389987447,-160.65450646399137,45.653617195832126,-20.22927366777534,-271.1700407735344,0
649.0,10.816883,-176.97795580129457,-36.67354887290978,-157.2622312695143,44.96455785047553,4.190094772176957,-258.6719500135452,0
650.0,10.83355,-161.4145265909339,-6.267430817431958,-147.85349756488617,42.762475802970776,28.03445996101544,-239.57915191868045,0
651.0,10.850217,-138.47335133356603,25.925355189121177,-132.01878978433157,41.30815933441086,49.05716012609976,-213.9028657091412,0
652.0,10.866884,-112.2494041942718,54.20670388254865,-109.9625389066378,41.66375261232199,66.54100400134345,-183.14570584133256,0
653.0,10.883551,-87.00941835919141,74.24145955681514,-83.60582484992028,43.8472383772837,80.19413814489283,-149.10970061851924,0
654.0,10.900218,-64.14502613790276,84.13366169732672,-56.14910807306913,47.64688088840534,89.63314032600505,-113.4469674111239,0
655.0,10.916885,-42.78362314542616,84.72784786036925,-30.45951215512265,52.86708118162275,95.41278000969623,-77.90618759582387,0
656.0,10.933552,-22.602818794377185,79.23294921796162,-8.261248544153595,58.84535281710062,99.75239852331232,-44.19633601188988,0
657.0,10.950219,-4.7959615843344645,71.43852643421806,9.796973014382036,64.09675853651282,104.80963898056127,-13.736369785764092,0
658.0,10.966886,9.67964399614981,63.65569692776866,24.31670350060744,66.79760528890449,110.30188345296816,12.01571394209273,0
659.0,10.983553,21.48292496199674,56.40661303906654,37.43723164437832,65.87849586466965,113.87162632556112,31.436336661577784,0
660.0,11.00022,31.92549523998764,49.55554051163605,52.27958941774959,61.65960989720176,113.60222859139016,43.70394569474023,0
661.0,11.016887,41.81182761410982,43.35447855891876,71.28720574648685,55.32638094623076,109.38825678321196,50.130215261946965,0
662.0,11.033554,52.20430008049704,38.91910389088221,94.41342395906132,48.01025717776422,102.33331715215314,54.43220278416442,0
663.0,11.050221,65.13593011320162,38.080387929889625,119.0119307467944,40.546414241424415,94.04856629498316,61.251821750666224,0
664.0,11.066888,81.93054355479796,42.43576718164857,142.22073809450197,33.56655789714586,86.84494477951547,73.56599289533023,0
665.0,11.083555,101.37848020119353,52.08985204535794,163.69604735208753,27.282052532757696,83.62767918921229,91.03384721757035,0
666.0,11.100222,120.97544201045704,65.18712538970962,185.77919836299583,21.55857812485023,86.33471103413137,111.0044189787025,0
667.0,11.116889,139.4402798112945,78.81394981054996,211.0003031532775,16.707096149419854,94.05501318810204,131.1412193312474,0
668.0,11.133556,156.81954943113965,90.5116040221451,239.39007424376103,13.965008267922231,103.12640051473906,150.77849504294562,0
669.0,11.150223,172.85323067248717,98.885528946972,267.93689685978086,14.926523569991724,109.39069676297925,170.00674972891608,0
670.0,11.16689,186.64737144829485,103.01202764298031,292.52712119016206,20.6317405904872,110.2640846924466,188.37928895027824,0
671.0,11.183557,197.64146648657385,102.06097917385074,310.3055730908178,31.059834875982563,104.92096050814948,205.1515628147731,0
672.0,11.200224,205.82373817518103,95.92954066361236,320.0457422413947,45.06951429079552,93.3013397691822,220.5511976730008,0
673.0,11.216891,211.01589839374023,85.80270088966795,320.89013039461804,60.83672410844572,75.371638406718,235.964664813203,0
674.0,11.233558,212.5215693819373,73.56343133726338,311.9327928207836,76.72497558692892,50.97430108744754,252.10184207106943,0
675.0,11.250225,209.57994119316703,60.71391826852232,293.2737798506003,91.93908708242532,20.106198770225973,266.9749131636217,0
676.0,11.266892,202.0864063781281,48.23586452489408,266.7698512724801,106.39407549289854,-16.143588633749633,276.5358537872718,0
677.0,11.283559,190.95378709889863,37.3293754913732,235.59427968450973,120.05069875745151,-54.51759415262258,278.0980119163486,0
678.0,11.300226,177.91983552751617,29.392118394757063,203.4346477175676,132.37877279526415,-89.96682439544199,272.9745931723804,0
679.0,11.316893,165.07413074486934,24.858791890930284,173.67086978540394,142.247208229681,-117.59776971021132,265.2942393211371,0
680.0,11.33356,154.2599037516348,22.850891571933264,148.11281462636003,148.1421598522771,-134.1952400769461,258.68931869325,0
681.0,11.350227,146.25412881351383,22.64298279843212,126.0519587433306,148.65130449529408,-138.45049203927567,254.8153423646051,0
682.0,11.366894,140.12519382808006,24.796023787445037,105.23809079308327,143.18278412096782,-131.2042965470414,254.3150202359987,0
683.0,11.383561,133.71704295140205,29.89305793001926,84.19558365103731,132.4652909634278,-115.8903073921791,257.6817343045568,0
684.0,11.400228,125.28735754171554,36.590465176519935,62.99393820131813,118.1070583604821,-97.1286244658929,264.9048888102928,0
685.0,11.416895,114.85698913979743,42.098601724947386,41.64527123760532,101.29431123742872,-77.29615876715228,275.0037006963516,0
686.0,11.433562,103.95601609294744,44.639626201864886,18.895144208877888,81.9509601382523,-54.99143893289117,286.1203536752134,0
687.0,11.450229,93.8848077933039,44.54661870885116,-6.468506062877415,59.52802972222538,-28.19877309761393,295.85343542947976,0
688.0,11.466896,84.03936308910623,42.919265824827264,-33.25705338434129,34.70441645385068,1.4257828622432147,301.7226620173671,0
689.0,11.483563,72.20729420527775,40.126021236686505,-57.31955633592173,9.907576631519955,28.7825182173341,301.7165324714849,0
690.0,11.50023,56.87090941309376,35.779882789677586,-73.94814842818715,-12.197532801121138,49.558279594068566,294.46522789717955,0
691.0,11.516897,38.86452068507953,29.17251320377823,-81.58840487135718,-30.548309217684555,62.847981294372985,279.0503176047445,0
692.0,11.533564,20.24953214305308,19.21912735413462,-83.28063063510113,-45.71601433097209,69.76442522411841,255.22635012191893,0
693.0,11.550231,2.191958802983871,4.783302849854422,-84.16182509387271,-58.36652428569873,71.12855489608471,224.1395617913305,0
694.0,11.566898,-14.997031853998854,-14.04645694595176,-87.66734410453654,-68.17407324351008,67.26099271328513,188.4523335096315,0
695.0,11.583565,-30.37502804632164,-35.124879315646844,-93.98621086910882,-74.16087064466807,59.18359348381901,151.32696962909915,0
696.0,11.600232,-42.62467293590348,-55.29187577906343,-101.24922331425785,-75.80178204465071,49.0741761910079,115.01328962135828,0
697.0,11.616899,-51.81137178616068,-72.18226483007832,-107.5226208187778,-74.04879855448152,39.55174755410749,79.85013402076365,0
698.0,11.633566,-59.27902865332581,-84.48385751901424,-111.83847080057528,-71.40190965415023,32.9244767118535,44.2045899524624,0
699.0,11.650233,-65.196956293085,-90.77719684101804,-114.0605511943412,-70.27419254434449,30.919718765985785,5.894247417278807,0
700.0,11.6669,-67.47867456111626,-89.34976644332139,-114.61327578485712,-70.8415423121885,34.41610939999707,-35.583784238628446,0
701.0,11.683567,-64.10155434129146,-79.66341163713642,-114.40208573713856,-71.0033002313664,42.99450257836038,-78.31075532171162,0
702.0,11.700234,-55.6154739423765,-63.46108101219664,-114.033624808191,-68.6908859128365,54.61816858281136,-119.71634433131253,0
703.0,11.716901,-44.24908337140252,-43.840528960133085,-112.48368862627407,-63.635883474759794,65.8331006203182,-158.68213705121852,0
704.0,11.733568000000002,-31.230876182774225,-23.06392581003016,-107.06978868659664,-56.6781758158004,73.01907828096611,-195.3660201085756,0
705.0,11.750235000000002,-16.430546067611218,-1.5599128564722493,-95.38355536099895,-48.06938509456613,74.26822262935615,-229.33955189975197,0
706.0,11.766902000000002,-0.3975896575539424,20.61009714620852,-77.14089901448281,-37.17253242728417,69.88612294222087,-258.8795760601937,0
707.0,11.783569000000002,14.760896083312442,41.89181464702965,-53.97414896406957,-23.599314956567028,60.68915681874548,-282.47246940836385,0
708.0,11.800236000000002,26.817504268552312,59.69464540195535,-28.03050465823818,-7.7878696743657985,46.338468307348506,-300.5968224235423,0
709.0,11.816903000000002,34.76199616833909,72.233839826342,-1.5741530073463057,9.590298190783,25.680560378711327,-315.66185537251727,0
710.0,11.833570000000002,38.66133809513495,79.00013197958172,22.268563298004537,27.904971377031917,-2.0778029723309865,-330.24648283412955,0
711.0,11.850237000000002,39.2623467314408,79.93628804546329,39.50098108477344,46.125495671478006,-37.03629481714651,-345.35622199172343,0
712.0,11.866904000000002,38.02664577062373,75.38389916467312,46.99446826458298,62.842389076123766,-78.7090353236519,-359.9067739052198,0
713.0,11.883571000000002,36.55564904424924,66.95131239519174,44.71881531043957,76.77780267716442,-125.73503202627894,-371.36656624920056,0
714.0,11.900238000000002,35.33340471356229,57.54212596055473,36.16679369733839,87.02642676397917,-175.52712183463763,-377.1439246397762,0
715.0,11.916905000000002,33.59875141742268,49.87827077337118,26.11639767239744,93.4709604431284,-224.36512690026396,-376.38054235228896,0
716.0,11.933572000000002,30.746109535110826,44.96846755309659,17.66992052172163,97.46924832042237,-268.00264547792887,-370.7960636826431,0
717.0,11.950239000000002,27.11453210083513,42.19644222782537,11.299408993181704,101.28636321111756,-302.9371514164128,-362.9316148682508,0
718.0,11.966906000000002,23.284285175415263,40.833194815983546,6.155756786198245,106.07173529843226,-327.7021314414698,-353.27569934037643,0
719.0,11.983573000000002,19.566601819093968,41.11926993673959,1.4862063933621452,110.90355016441184,-342.39583455651245,-340.2140215840749,0
720.0,12.000240000000002,16.131825970470324,43.71852763249152,-3.348681638491694,114.32436651939318,-346.49930768815454,-323.0766311061258,0
721.0,12.016907000000002,12.173749398244611,48.45814979529513,-9.50763295345664,116.24115094933498,-338.0414018645744,-303.8693164196725,0
722.0,12.033574000000002,4.360273748131582,53.98565477896421,-18.448479532226067,117.78176661237052,-315.4861876143083,-285.7669214862669,0
723.0,12.050241000000002,-12.918067240711576,58.43127398793005,-30.819216017050643,119.68157779415702,-279.41830243006484,-271.6392054957696,0
724.0,12.066908000000002,-44.64655657898912,59.8025124900238,-45.8882318895596,121.18571728209692,-231.64069044862129,-263.909668322339,0
725.0,12.083575000000002,-91.43855310284088,55.92449572946326,-62.248270436905145,120.2534581258004,-173.45061083036686,-262.22519335786967,0
726.0,12.100242,-147.07208202603732,45.37702347798087,-78.71699364536805,114.76029017808185,-105.45442052961872,-259.3524784964269,0
727.0,12.116909,-198.89517692888472,29.50749737371501,-94.14442222087976,103.93022692487358,-28.5933162380812,-243.07504699588625,0
728.0,12.133576,-232.12549296326003,12.9963933783841,-106.27347359312417,88.6579829438677,54.62205053508348,-206.12486408962883,0
729.0,12.150243,-236.73535776234849,1.342321607948727,-111.03426209594087,70.1438501954755,138.7639540013081,-152.85177349190275,0
730.0,12.16691,-212.5419020019673,-2.8566359996860307,-103.8663931822984,48.57321816731826,215.00828118378035,-93.89676970336856,0
731.0,12.183577,-168.5814726402889,-1.6834717718250154,-83.402996392715,23.7958434987613,273.39338142981217,-36.3089108741324,0
732.0,12.200244,-117.51210041055528,-0.6501524864614505,-54.789748648149946,-3.0360095845730832,307.2650774545067,19.51665443502981,0
733.0,12.216911,-69.77603560079861,-5.606421406490714,-27.717397781840067,-29.34753119607905,316.2752406630309,76.03969236894562,0
734.0,12.233578,-31.43433116208749,-19.59527819992969,-8.278664988043229,-52.58164244330507,305.3189192721195,134.54135869942567,0
735.0,12.250245,-5.343240865211396,-41.15750394917997,7.316588221190319,-71.266136000531,280.82411027803715,193.63916329212367,0
736.0,12.266912,7.614623362747153,-65.33407231063539,27.90213021770117,-85.05784417503986,247.793332566956,249.274869692464,0
737.0,12.283579,8.964794284511294,-87.13351650656041,55.59283318624959,-94.64528833539794,209.21418600618955,295.7968319430514,0
738.0,12.300246,2.71770055019283,-104.40382646040251,82.380679993515,-101.59823288927046,166.92666259156164,328.4618500370593,0
739.0,12.316913,-6.870057804894616,-117.08562240656406,99.5910432273443,-107.42775271222884,122.59820309404624,346.0719233740432,0
740.0,12.33358,-17.84732870864871,-124.32955234711191,106.9249278583315,-112.4776416758364,78.438781096275,351.5185809390984,0
741.0,12.350247,-30.29707609560625,-123.904167270494,110.50126648417834,-116.22202261020968,37.51811456417747,349.78795191653865,0
742.0,12.366914,-43.71690079944233,-114.94222637496848,115.42983618986732,-118.67853381318076,3.185005695255956,345.39324128155624,0
743.0,12.383581,-55.25230767098806,-100.09121143814406,122.50802187593736,-120.94770071458514,-22.27696762557955,341.22880360398096,0
744.0,12.400248,-60.70428128481322,-83.80606537872188,129.99724601483626,-124.27137186231332,-38.61017150365676,338.79872349651083,0
745.0,12.416915,-57.44814576446392,-68.65979717730687,136.21481144361786,-129.01713142630422,-47.277339749672265,338.51812672229323,0
746.0,12.433582,-46.66040180111153,-53.84805988792695,140.65457104931193,-134.8366533280637,-50.24232785337413,339.628867789946,0
747.0,12.450249,-32.64995967792084,-36.98618708562198,143.85652871548885,-141.59255848460143,-48.874892428154666,340.4907919847856,0
748.0,12.466916,-19.83666191610336,-16.655627565232063,146.67123637424584,-149.50480580767302,-43.60633410385489,339.58243823861966,0
749.0,12.483583,-10.294957458388271,6.6230337749139725,149.45773232783998,-157.98396498173665,-34.24335236643778,336.32577446346585,0
750.0,12.50025,-3.677833344454016,30.882927113817917,151.68505884771088,-164.84644567172177,-20.67104010392862,330.8929236339864,0
751.0,12.516917,1.4053980238498212,53.64005470551781,152.1733177409965,-167.55111595206253,-3.718377598928094,323.3548043121756,0
752.0,12.533584,6.175339166436195,72.719744689767,149.77287309039843,-165.39303772684352,14.391487285567788,313.1651710669835,0
753.0,12.550251,10.961313705643514,86.5949649590299,143.96017978022127,-160.11239085286633,30.755183702749815,299.42407701018016,0
754.0,12.566918,14.651210372067936,94.03459268241238,134.88735989552305,-154.1510673927333,43.39342979936766,281.61972414972416,0
755.0,12.583585,14.930932482264817,93.7687401254038,122.8887560581986,-148.42929027104583,52.11082122014176,260.27206539916654,0
756.0,12.600252,10.29015926474767,85.24964156231489,108.13347440418582,-141.9244459702239,57.73453520523572,237.0157231186684,0
757.0,12.616919,2.5171890786418407,70.13621920582153,91.11705433694664,-133.2927228738386,61.17671579876362,214.00470687399297,0
758.0,12.633586,-3.680777183339046,52.47228179780895,73.53318852465509,-122.66140522840954,63.71385827140088,192.8468828315428,0
759.0,12.650253,-4.530660282356394,36.33567119681116,58.03160347379011,-111.7560056414471,67.20755611852738,173.6485670292859,0
760.0,12.66692,-0.2789813826478813,22.715399447256484,46.350305582830536,-102.40811150440751,72.65941612053152,155.03579646170903,0
761.0,12.683587,5.982234731986477,9.069680555821112,37.694642494037225,-94.99799168649676,78.61901473739111,135.32667757986482,0
762.0,12.700254,11.55585986624212,-7.296873856430043,29.679307245297423,-88.21545338457686,82.08562746436911,113.6027606720718,0
763.0,12.716921,15.248616518261082,-25.511701861396336,21.303215606056227,-80.29510979462157,81.35641757596716,89.48640106312071,0
764.0,12.733588,16.229565599012766,-41.83607448335597,14.38038361768738,-70.59001508899192,77.53979842717189,62.31278169679543,0
765.0,12.750255,13.419542057115049,-54.30520992026005,11.020414818438349,-59.92857257170726,72.96698028835426,31.1229470731632,0
766.0,12.766922,6.121567548729608,-65.0504442751311,9.900820065146512,-49.47354338199383,68.34358971429874,-4.37811208879072,0
767.0,12.783589,-5.446616487143735,-76.87366785620829,6.210703618700105,-39.65350907852642,61.93088393757954,-42.79482849461746,0
768.0,12.800256,-20.275232457519337,-88.89314751226381,-4.497391436144188,-30.51821394912797,51.78261067481447,-80.98974513391194,0
769.0,12.816923,-37.14828346618412,-97.28233404966358,-22.89570770819864,-22.582669120942494,38.56350557783778,-115.58901462859164,0
770.0,12.83359,-55.41729555770128,-99.59516006462071,-45.718730268406965,-16.572969790593195,25.713550995574398,-144.8546216606197,0
771.0,12.850257,-75.14436615465478,-96.63983401425388,-67.92842187394305,-12.634931078437752,16.76146349682306,-168.5669399059222,0
772.0,12.866924,-96.15621336681215,-90.39240989123618,-85.21997308725366,-10.477103105755194,12.813060444573388,-186.0401126421748,0
773.0,12.883591,-117.22435144790592,-81.82026242583161,-95.47673386110549,-10.020620155883543,12.634697775687478,-195.49274703653512,0
774.0,12.900258,-136.7793952207487,-71.1339751144254,-98.65643026667756,-11.315038568735613,14.355347362017982,-196.2602451203299,0
775.0,12.916925,-154.21613407891203,-59.095005651204815,-95.84527546650996,-13.99458653054086,16.245243253980863,-190.94120066182435,0
776.0,12.933592,-169.6423291439683,-47.59688151190821,-88.57025841313154,-17.123240019738134,16.159617117615444,-184.2243091040324,0
777.0,12.950259,-182.2623072668174,-39.33076026469395,-78.56465431010868,-19.375289851461787,11.580127583295653,-179.41987389583585,0
778.0,12.966926,-189.89041180467945,-36.76520922106892,-67.66049634776651,-19.36514537100027,1.1472874716386376,-176.6232375548059,0
779.0,12.983593,-190.4788642833558,-40.68145121468413,-57.439459856492334,-16.257144235094962,-14.063518288181962,-174.04326524745613,0
780.0,13.00026,-183.6359306238579,-49.207557810834494,-48.32535811374318,-10.196911013579497,-31.21619700622227,-170.15869704072577,0
781.0,13.016927,-170.7009304018625,-58.2999501517416,-38.80907980167055,-1.8151608852204724,-47.44640581533691,-164.54695068363247,0
782.0,13.033594,-154.15494790177326,-63.25689294273977,-26.21829345227941,8.739033314296941,-60.89508410987136,-157.8076945106854,0
783.0,13.050261,-136.94071615274063,-60.21394469297172,-8.676950255630741,21.731736576216125,-71.01697886180949,-151.45655742037553,0
784.0,13.066928,-121.57343254295812,-47.39501840296612,13.84198132703559,36.480448738365645,-78.75739850950629,-147.6052628217085,0
785.0,13.083595,-109.76285367450524,-25.96395543331475,39.89567849137085,50.634053050382576,-85.87825925130358,-148.1998163353183,0
786.0,13.100262,-102.84279832376158,0.4848277555258629,67.12678822478239,61.4689529524575,-93.12864634894632,-154.110319824081,0
787.0,13.116929,-101.4197328122279,27.9958241767729,92.8534197707691,67.60988708141602,-99.19614809727976,-164.34140670996567,0
788.0,13.133596,-103.45040239169772,54.08595705839134,115.1641935061354,69.13623552738191,-102.0021140221413,-175.5679853149353,0
789.0,13.150263,-103.10489053737436,77.44620079524839,133.39505615342853,66.77371466349835,-100.85991127223916,-182.70970146808696,0
790.0,13.16693,-92.9378271934809,96.14302601320333,147.02308338852978,61.71742764789112,-97.05492488849232,-181.1240116618176,0
791.0,13.183597,-68.18237021843319,106.93333553747226,154.5407929537189,55.59619427588382,-92.41157352315196,-169.10646613426118,0
792.0,13.200264,-29.506161183444146,106.92832065001492,154.36547225048588,49.58145151596572,-87.29404347887498,-148.11198686487748,0
793.0,13.216931,17.661747719918754,95.93006137514746,147.124071339183,43.46395220604871,-79.97084264712481,-120.61027550577252,0
794.0,13.233598,65.93619839118128,76.98342052549881,136.52395576727542,35.90340070834313,-68.33284300085393,-89.08767881946487,0
795.0,13.250265,108.79449947177044,54.52823643554646,127.44865826794872,25.209648339076097,-52.42344492243507,-57.84409351766515,0
796.0,13.266932,142.34392166885007,32.003006250695165,123.05226594706326,9.788100216565743,-34.441547913819385,-33.34060836116055,0
797.0,13.283599,165.73879564235875,11.48087739594689,123.36434946169096,-10.632852703324213,-15.411461250864878,-19.4033803891698,0
798.0,13.300266,180.5093397159957,-4.743023767452428,125.91151088454254,-32.749514857062294,7.201945003099577,-12.459583476898077,0
799.0,13.316933,189.4645576728983,-13.831910840966655,127.33166724024323,-50.10077702429114,36.42912408649319,-4.622229460901804,0
800.0,13.3336,195.5203212343548,-14.600429540713806,125.11172858802414,-58.18702098459541,69.89880423324183,8.521187219106455,0
801.0,13.350267,200.53539062262905,-8.924433359720716,118.92344319649646,-58.59840587236032,98.83671882561588,25.88404456902029,0
802.0,13.366934,204.48812553442949,-0.0876773995709134,110.95983957261129,-56.37900059423473,114.05945137197864,45.72746102699545,0
803.0,13.383601,205.492422227226,9.289420945491983,104.81581079971022,-54.43168191409954,112.3004663315145,68.72473135313173,0
804.0,13.400268,200.91454442345693,16.902158999037777,103.22863862667484,-52.0305199939038,96.78002257147676,95.83431086298046,0
805.0,13.416935,189.12164447831603,19.38254159541075,106.33649672767552,-47.34263084420846,73.22986661970268,125.89654530442988,0
806.0,13.433602,170.54804387293046,12.720892604658795,112.26784252344528,-39.47828364687577,46.1131000444023,156.13815542319395,0
807.0,13.450269,147.10558229092436,-5.408218192533571,119.29273710153674,-28.655621586628563,17.61273468846288,183.73578803684237,0
808.0,13.466936,120.59409257968804,-33.80023526803474,126.66631018656769,-15.840716625091735,-11.268654098865534,206.6760291241608,0
809.0,13.483603,91.78904391210996,-68.02238972458709,133.3630762140839,-2.400563388339256,-39.47002608588172,224.15408787901976,0
810.0,13.50027,61.11637573675685,-102.0659536192138,137.09577507357957,10.531014599702385,-65.58947912491321,236.83846121247356,0
811.0,13.516937,30.145968388573884,-129.9544298757461,135.43935709709663,22.6088064675582,-88.08560782616087,246.8412831576384,0
812.0,13.533604,2.052643624990844,-147.29188406935532,127.73931796214882,34.121427741043924,-105.30621284074658,257.0178341427586,0
813.0,13.550271,-20.01747397903217,-152.77254717089485,115.35651844103938,45.35961340919747,-115.72275264603314,269.6154495843535,0
814.0,13.566938,-35.320781965400016,-148.4376743587644,99.9470689412414,56.31756622891727,-118.7977221955849,285.43981930324463,0
815.0,13.583605,-46.15800375824542,-137.89177905599652,81.985967663142,66.81753143830564,-115.72698752666489,304.3024468067956,0
816.0,13.600272,-56.13447493385152,-123.70631268716744,61.337956149795744,76.56551723140413,-109.01280119759814,325.36876803542447,0
817.0,13.616939,-67.68438309198767,-106.24041410590824,38.75164763824152,85.18764737175894,-101.23718326459291,346.2130861553153,0
818.0,13.633606,-80.88383911111313,-84.75505497296066,15.843869615400564,92.42551589570893,-94.33651665787951,362.27979980850967,0
819.0,13.650273,-94.12015226710676,-59.43147572678183,-6.3738560964246656,98.0841060116902,-89.62804668032032,368.7239884058587,0
820.0,13.66694,-105.38823644639564,-32.21588540125468,-27.87459472264981,101.53387475722208,-87.76044710851323,363.28165465778704,0
821.0,13.683607,-113.06232646978302,-5.724282791680713,-48.1864649334957,101.41846508467556,-88.35831584248561,347.40586232447265,0
822.0,13.700274,-116.4634834401163,18.73175353263016,-65.76705982751712,96.23802544354945,-89.93162605671392,325.19860066160123,0
823.0,13.716941,-116.36563254310616,42.18627668070479,-79.59970601002706,85.57694426942902,-90.13313843768064,301.5613419565137,0
824.0,13.733608,-114.59546883915397,67.50659528480713,-90.4828333264158,70.9123422999464,-85.95064594866086,280.5897314320464,0
825.0,13.750275,-112.80852541578012,98.19012722156532,-99.69906051926176,55.04801782268829,-74.11013242596667,264.61655642370863,0
826.0,13.766942,-111.46583725384907,136.65396062178604,-107.00727097338356,40.52692984803585,-52.48595346947506,254.26075231264588,0
827.0,13.783609,-109.20478036601531,181.4240146229217,-111.12563654892912,28.54015825088388,-22.195624821800354,249.21912694030743,0
828.0,13.800276,-102.7875039274051,225.1538702788516,-111.78378289359324,19.2277749757966,11.731944533780574,248.78625760308137,0
829.0,13.816943,-88.81049966356943,257.4509510954274,-109.56692513702468,12.63115377944024,43.0154232272532,251.86415973046508,0
830.0,13.83361,-66.79114509728274,271.9591754706282,-103.14735470255646,9.02564397067739,68.78345964683568,257.5097752216941,0
831.0,13.850277,-40.39486822020877,270.89337107000114,-88.03398815786197,8.229418477968329,92.0885353037752,266.06521707253205,0
832.0,13.866944,-14.829478474168097,262.3336236050324,-59.3165157949834,8.671454429276473,119.60180575699756,278.6967201720936,0
833.0,13.883611000000002,6.934190658584688,253.1376909098013,-15.57421156178246,7.687517887313099,155.96257632204285,294.2897454490017,0
834.0,13.900278000000002,25.120875009836567,243.2346448505786,39.755566096611815,3.575158537451702,198.87478950242345,306.8958741719519,0
835.0,13.916945000000002,41.18296751315334,225.5697606600212,99.7753811182008,-2.516641209369124,239.1801988657479,307.8513370640483,0
836.0,13.933612000000002,56.093388423318615,193.0956099437819,156.76553679377815,-7.507483146258029,267.3585080557868,291.6528934868896,0
837.0,13.950279000000002,70.33165846446627,147.49301787507983,204.75490290218937,-9.58165336757319,281.4337236201312,259.728112841505,0
838.0,13.966946000000002,83.92681881438885,99.73813737061796,240.5219642956856,-9.862544613220264,287.54451592188354,218.15637003303107,0
839.0,13.983613000000002,95.7814281296004,60.65006591018423,262.70948896818464,-10.376865870234615,291.5336642839945,172.3513091340268,0
840.0,14.000280000000002,103.98307017691212,31.662941850442447,270.9133966685328,-10.73199731326778,290.95564783981905,124.77176034215717,0
841.0,14.016947000000002,107.68787342361738,5.151190249014333,265.95323726859704,-7.55592526496048,276.9331272873852,76.94057774169664,0
842.0,14.033614000000002,108.1489608419178,-27.62388713075324,250.40207638968104,2.4117028868179125,243.7333269170664,31.439388705900956,0
843.0,14.050281000000002,107.2441504079634,-69.25088736034138,228.64270974151663,18.96536398145769,195.41302939888524,-9.192027272212169,0
844.0,14.066948000000002,105.56890394009908,-115.03007309518004,206.4632351270143,38.634236066637925,143.19963880050022,-44.44491084537648,0
845.0,14.083615000000002,102.66076855900856,-157.3623847053928,189.57684588741267,57.87371395155929,97.54985205779516,-75.52365822030353,0
846.0,14.100282000000002,98.60724231912766,-191.1666716227968,181.18177040142731,75.00225417405645,62.51493195156797,-103.61493824021312,0
847.0,14.116949000000002,94.66260949688056,-216.0456472830331,180.62038824827548,88.80192495478948,35.64014340376166,-129.6946375430471,0
848.0,14.133616000000002,92.31551279336216,-234.3062734988591,184.4043361580881,96.56502558701897,11.578077242044884,-155.88833837634613,0
849.0,14.150283000000002,91.92177988584028,-247.43849654106677,188.2370094533541,95.09157136075102,-14.017643119694014,-185.73329456012223,0
850.0,14.166950000000002,92.05176224570624,-254.5693514637988,188.49439749446128,84.1271089469879,-42.75020308540208,-222.06375836390893,0
851.0,14.183617000000002,90.30471938856503,-253.9635035839875,183.36494926216736,68.2956727705164,-73.96444173279336,-264.0242617411011,0
852.0,14.200284000000002,85.09070700913776,-245.06254847450148,173.91423767391683,54.611529557660425,-105.7254405255144,-306.0204824144482,0
853.0,14.216951000000002,76.46639178384548,-228.3330140695983,163.97274559471077,47.29836392455569,-135.27741476808416,-340.71947777366483,0
854.0,14.233618000000002,65.35080130711488,-204.06534130959864,157.88970331334343,45.04918196957709,-159.7836668944242,-364.5822121038357,0
855.0,14.250285000000002,52.64165614518105,-173.12721900243147,157.44956313150374,43.45035681236936,-177.8724836638952,-380.3058233764596,0
856.0,14.266952000000002,39.16928379977089,-139.04866797158908,160.90435714393317,39.324569923747326,-190.5769953283351,-392.9822643703249,0
857.0,14.283619000000002,25.9355105184268,-107.76091377114987,165.3151351915136,32.08272756888938,-200.0655675683082,-404.4438798744361,0
858.0,14.300286000000002,14.35294271259144,-84.15557681721549,169.45799125868604,22.067804544169167,-207.0748700050184,-412.19756654640594,0
859.0,14.316953000000002,6.296206163962925,-68.88570498281538,173.73328285219958,9.58939904083477,-210.06838870478143,-413.2107072311431,0
860.0,14.333620000000002,3.313723856370065,-58.26502210021798,177.89007874981542,-4.367608053778461,-207.30454712246612,-407.8753784772625,0
861.0,14.350287000000002,5.638232978583645,-46.39049686840967,180.56755452392608,-18.128641040972244,-198.93778257544977,-400.5802209377915,0
862.0,14.366954000000002,12.525816110384524,-27.35443269336428,181.18817095664787,-30.72486524008228,-186.2410932860742,-396.865028274098,0
863.0,14.383621000000002,23.327051275446685,2.6037019783152227,180.31511062087756,-42.9162475915478,-169.76511461023176,-399.7549649957657,0
864.0,14.400288000000002,37.48859661000044,42.56391482128876,177.0417529875449,-57.058155038114094,-150.13439577231856,-408.5694438576985,0
865.0,14.416955000000002,53.922017282097045,86.16830996409641,167.53235237400963,-76.28695377076971,-130.2660896474092,-421.0430084339789,0
866.0,14.433622000000002,71.24650874473168,125.34617516415824,148.06251013414578,-103.04991607097524,-113.98806797433372,-435.5478677903153,0
867.0,14.450289,88.44873378043104,156.5772897393966,119.6544114850996,-137.58631335392153,-100.8544204047294,-450.1363915021539,0
868.0,14.466956,104.8599135179833,183.673318980107,88.88576412900363,-177.81008407770773,-83.66073703483804,-459.7437448512827,0
869.0,14.483623,119.82360044622332,213.3277056417572,63.57808961084707,-220.4542436327576,-53.50441744495211,-455.7679609485372,0
870.0,14.50029,132.64502850813335,246.74105582657785,47.49981560881123,-261.6598841908052,-8.75222379182817,-429.55737394884807,0
871.0,14.516957,142.53018558149108,276.2264537371719,39.34684266510522,-296.4747129170786,41.7137855176298,-376.88940129186,0
872.0,14.533624,148.59966262780668,291.7016545947813,36.04000091244325,-319.0101774498119,86.01419998003121,-300.0598868967835,0
873.0,14.550291,150.67130510694693,289.46071405777013,34.5932312609691,-324.6506479353278,119.6894870765887,-207.37613468298517,0
874.0,14.566958,150.12799077871125,272.3873260621868,30.288942737635487,-312.74686717517994,146.6663179993375,-111.42483502634228,0
875.0,14.583625,149.05212625530834,243.8318370869373,16.82156477339534,-286.7710633024225,170.75682230112517,-26.03738288528793,0
876.0,14.600292,148.13694380428882,205.3454599398134,-8.651481154296444,-251.73476743608785,189.180785927624,38.42622932062898,0
877.0,14.616959,146.2201063403457,159.36903733503937,-41.97069421482479,-211.9444760512129,194.53946817289875,79.1261218846507,0
878.0,14.633626,142.16524233561154,110.3142025357474,-75.07965225242782,-170.92372843316184,180.8696246314547,100.27928427732807,0
879.0,14.650293,136.57852231414006,62.69628539302947,-101.4551973720162,-132.10207446564334,147.60198884427638,108.18588507951708,0
880.0,14.66696,131.23918404666802,19.929610587244397,-118.02751191070688,-98.65395339259072,99.63289978029972,107.01518212453786,0
881.0,14.683627,127.19977715760106,-15.718672460692463,-124.41102781738634,-72.58793797446205,44.72458677936824,99.2368194285401,0
882.0,14.700294,124.19629505297053,-43.94011822705951,-122.9664163301142,-53.95592089752088,-9.8510525321064,88.01789642191555,0
883.0,14.716961,122.04802704883402,-67.2000188442572,-119.21503367332424,-40.9939520495376,-59.69436830155617,77.38071417943635,0
884.0,14.733628,121.73801818130372,-89.32895591416656,-119.73824929119314,-31.274778843265725,-103.55691678294312,70.78702069116042,0
885.0,14.750295,124.27623816144757,-112.3176022036647,-128.3135758119093,-22.856850874231466,-141.66090863175077,70.73535492758482,0
886.0,14.766962,128.75482100099882,-134.1732535509263,-144.60475479181693,-14.395839722712402,-173.8104762212177,78.87338533360867,0
887.0,14.783629,132.14060975604724,-149.87506689976664,-166.81889701266084,-4.174307089510299,-199.06751035298103,95.11270770051784,0
888.0,14.800296,131.1786700906122,-154.58827441419174,-194.31603660591335,10.924503397384973,-216.6345273565475,116.72725602732274,0
889.0,14.816963,124.97872580042127,-146.20909251015988,-226.50792423859244,34.86656004481439,-226.21089174986804,139.32304776641024,0
890.0,14.83363,116.51786186218106,-125.4493718835301,-260.0949298741084,70.1357716338481,-227.47683458576472,159.31917668907096,0
891.0,14.850297,111.48507684275415,-94.9167808812781,-289.6174159365374,115.9745604519924,-220.0834832301441,175.47588125275166,0
892.0,14.866964,114.63662805658586,-58.98398507424005,-312.11284233822755,168.84703860682407,-204.47288158949704,187.81411976587208,0
893.0,14.883631,126.51751640233654,-23.144540593342978,-330.61618265823506,223.7563156576685,-181.5744546440644,195.42584406519137,0
894.0,14.900298,143.40156379088518,8.589856545794095,-351.6577945040357,275.1867650652172,-150.47183972574567,196.29083969356265,0
895.0,14.916965,160.0771266097674,35.688505227809664,-379.090523177878,318.4467073041567,-107.3479023939633,189.4582778505036,0
896.0,14.933632,172.7195922602902,59.096677712648415,-410.9724401162284,351.07608373907215,-49.514374483500376,176.4159904460762,0
897.0,14.950299,179.972863295529,76.77871211186837,-441.5972624525364,372.49728650601526,18.228003224240094,159.72555426962697,0
898.0,14.966966,182.5256369305298,82.43581330901148,-464.3400898033871,382.6739916873782,83.08298955834861,141.3206219480159,0
899.0,14.983633,182.37829296105144,70.43090057977706,-472.13670159175376,382.3947922921744,132.40054485886037,123.2972801739829,0
900.0,15.0003,182.2086458859743,42.73924858246929,-457.8431192356696,374.4970452253958,162.3783576560667,109.54790716041836,0
901.0,15.016967,184.26363875305336,10.080746758981252,-417.2901061215255,363.1778553829246,178.3511092928409,104.40026835151887,0
902.0,15.033634,188.6071224750888,-15.089673409716958,-353.54917010590697,351.7324296574332,188.3429501164992,108.60173786349354,0
903.0,15.050301,191.7669800342835,-26.936866054843925,-278.43271956324105,341.2678981183237,198.1733182075532,117.4830501777393,0
904.0,15.066968,187.25864872230545,-27.707483818320974,-208.8616556440857,330.8014416664051,211.28527556747764,124.06068138196986,0
905.0,15.083635,168.6626322178938,-22.330943021938506,-159.28198547549093,317.6720774779707,229.6000572419066,123.7961765002342,0
