Frame,Time,RightHand_Accel_X,RightHand_Accel_Y,RightHand_Accel_Z,LeftHand_Accel_X,LeftHand_Accel_Y,LeftHand_Accel_Z,Label
1.0,0.002778,11.704534809709926,-329.34325324742287,262.12950713751803,357.56190545545,149.29248013673987,192.7994988173294,0
2.0,0.005556,-89.85291339196837,-370.0973680070192,70.18840765424909,330.1095947431234,202.49129664232012,100.34249514377686,0
3.0,0.008334,-199.75724592014507,-341.9797677376546,-113.46676300346908,292.4733777127225,231.81846994169055,58.069820145485096,0
4.0,0.011112,-268.4483975872613,-234.32102195004987,-239.8012055882361,244.11290309470292,230.86028085044637,76.35110162690846,0
5.0,0.01389,-285.3112261731804,-98.3639156185618,-283.571162144642,181.5191225492963,206.46654392601607,117.89502607821684,0
6.0,0.016668,-286.9025163935736,-1.551357003673779,-246.34939951438432,119.13089009954174,177.39455428401578,136.51537671837917,0
7.0,0.019446,-297.8776334695293,28.791747584724085,-174.24806617044834,96.92520793973222,182.22409236617392,107.96355862168782,0
8.0,0.022224,-298.0957544609648,18.719998246248032,-140.68358561315858,138.03110835403288,248.31693975222345,45.74978352489647,0
9.0,0.025002,-271.56008251426954,16.154605734702606,-180.05219003877357,202.7099694203341,345.79493844244223,-3.894702825106328,0
10.0,0.02778,-247.62534644751588,51.17558861468122,-247.8396458746541,216.0723201110133,406.8248315423194,2.3261655466920814,0
11.0,0.030558,-257.24551687877016,114.30051136859797,-271.9261410879295,147.95937523748694,399.5570174000183,64.85467700470437,0
12.0,0.033336,-278.0244502553249,164.45993238424228,-239.99374377943568,47.01595495338296,359.1649564757457,139.91143801292571,0
13.0,0.036114,-261.46500710263183,168.61966525332093,-209.69784466549208,-8.060232272228333,342.91665162114293,177.21686754617042,0
14.0,0.038892,-199.42780641808457,141.72790409519945,-227.32675555366217,18.14542263475512,372.64297508181255,157.35387585541972,0
15.0,0.04167,-133.74870770777068,138.71945780242703,-265.13776703740666,91.28864441305517,422.8667358629464,97.14795131152091,0
16.0,0.044448,-109.333483730185,199.43293185357425,-259.7997510260469,144.23477231863492,455.2668707671708,27.83730728087343,0
17.0,0.047226,-137.15593741310164,308.0867604450096,-192.61734971948889,134.55163575000265,461.5613794850215,-22.48778361458406,0
18.0,0.050004,-193.8760418016211,413.05093322204687,-103.87230746523896,68.30599762533389,468.00018363463687,-28.47066010618193,0
19.0,0.052782,-240.67930577876967,478.9881668288438,-39.70492692906443,-17.309783762801903,494.66113595702086,25.75719312302409,0
20.0,0.05556,-244.8971950125916,505.7050773777308,-16.733824343961984,-80.10046168754567,521.6897236625375,120.36819591539508,0
21.0,0.058338,-198.56891255761465,492.9239294711172,-34.37934613794668,-89.35369778062365,503.6703745286316,192.2815578894475,0
22.0,0.061116,-129.03765509039982,410.2100183410495,-86.49432949308826,-36.94248258109982,410.25447391393806,176.70550231399707,0
23.0,0.063894,-88.33959445881628,235.2999285850319,-152.13807114573072,58.07431397067269,254.31289607176217,63.03707070475141,0
24.0,0.066672,-111.08861897039804,20.80341805160151,-194.8969627543926,155.98392623405567,94.50327900578516,-91.7159167748297,0
25.0,0.06945,-174.53883176191903,-118.48686712363634,-181.9163689767373,209.5125066646673,4.648005420988127,-201.7771790884631,0
26.0,0.072228,-219.20789974908283,-108.83902073634027,-110.50864518744228,183.0800348337255,18.908009039032123,-208.58717275258988,0
27.0,0.075006,-214.84076709394384,14.116580242649114,-25.03010334689241,80.64089724504974,106.52569216698411,-118.48830149299886,0
28.0,0.077784,-183.40895972712303,156.7224427449476,8.856413277142934,-42.74343014113143,207.12429229637135,-0.7775722628553012,0
29.0,0.080562,-155.6500034457436,259.2194621455438,-27.61948022885008,-116.23548238319376,277.28442293113443,61.97284018836587,0
30.0,0.08334,-139.2272427001823,314.3286472726029,-75.98738132894549,-108.66694234169935,300.3498925384035,38.31406865365014,0
31.0,0.086118,-137.01370440099944,323.5914490403844,-67.62681286505133,-43.94494560922932,275.9827816736359,-37.76979631079628,0
32.0,0.088896,-155.34093880324642,274.5364908815505,-9.38963807060129,32.600673514327525,212.63756306373608,-115.83484434855475,0
33.0,0.091674,-175.0532209941137,160.10217251013253,33.23306817001436,93.59147585515612,121.19122551347586,-176.37148542976854,0
34.0,0.094452,-151.1476113432571,0.3922862901807278,27.740266365281894,139.07656253540682,12.765874040932168,-222.2774184651666,0
35.0,0.09723,-68.39334222800231,-157.55967339527115,2.5549820143100224,174.18570894616664,-97.51345937015807,-240.78007641007667,0
36.0,0.100008,23.342433090299664,-258.95481338080674,-14.83622709032811,184.79300185413217,-193.1745323918375,-200.73841481382863,0
37.0,0.102786,53.3333280226237,-268.5787768457426,-31.142073063580256,147.57826056577574,-262.77463528002727,-96.12613230561348,0
38.0,0.105564,4.149634830930136,-186.0146894226874,-43.425996572250114,66.95727564227403,-293.9887601430479,26.434083364957345,0
39.0,0.108342,-73.88617484601045,-37.18189961953431,-17.475466500801836,-12.62205033043054,-265.1135603331032,102.6383263318466,0
40.0,0.11112,-121.05281916632048,144.0656903013209,56.69236153887489,-42.85094240539619,-151.71809112379054,107.54621062462644,0
41.0,0.113898,-122.9989574442933,332.6889448293708,124.3298024199911,-15.286572692708392,63.23466814999389,65.15641301937106,0
42.0,0.116676,-101.14963658298828,523.0988127796165,118.5040571118407,37.61442560834576,380.53587100211854,11.440469083508216,0
43.0,0.119454,-73.10417182504628,706.6410696282061,42.82273697911259,80.724129920535,747.8004605831999,-32.79022719042068,0
44.0,0.122232,-44.709387498337854,815.7091239615012,-24.407723173225463,108.79593458500992,1015.4269431063602,-58.66579291719482,0
45.0,0.12501,-25.162727123506528,727.0734560672935,-15.902165784468204,142.7850119337134,990.9614356587188,-61.55041727400155,0
46.0,0.127788,-25.62296425077082,387.878163483496,49.48806005695794,197.45219263775223,612.469867083458,-41.3826959274322,0
47.0,0.130566,-45.20101775261031,-70.94360442309532,95.87049959927056,250.87415022715996,58.76750134689431,-2.351843261310993,0
48.0,0.133344,-67.03994081144674,-418.7050735436339,87.9326453882667,252.16900813578428,-372.16016389791184,48.30335032574626,0
49.0,0.136122,-70.27896256321452,-531.0458601352608,71.18999697214548,173.8870515670205,-506.307989864635,99.6668466715166,0
50.0,0.1389,-51.64144157949967,-463.1034935882342,106.25952709082908,54.20672248691928,-395.9945678884209,138.20626381115812,0
51.0,0.141678,-34.19233662856014,-335.3593347028505,186.72473237996567,-30.99943801356653,-205.93032317303036,148.7429954285482,0
52.0,0.144456,-45.56971532326753,-221.3392377073178,243.465649371809,-42.03475364062841,-53.10324286220494,118.36744680309884,0
53.0,0.147234,-90.53986024793016,-151.81883820311637,224.1593698880472,-8.028519000154605,34.400262740129584,52.50167833061831,0
54.0,0.150012,-149.78252482192775,-154.72575522622503,147.38303882986318,18.60781356495648,60.79109419903682,-14.67499584284124,0
55.0,0.15279,-192.5968621819243,-243.5209233256388,73.5110539184666,23.0103463877092,25.08605175063365,-43.280563531320965,0
56.0,0.155568,-186.7172219287216,-384.163921098356,43.384887325509,27.702783679987945,-62.33133215752295,-24.62727324611557,0
57.0,0.158346,-121.09271768974968,-504.7612860178978,56.85242945743751,45.92195341185906,-165.61260677604855,13.52883620201213,0
58.0,0.161124,-31.4981235354312,-547.9902271158753,90.23451633695524,62.21417991770948,-245.06445278774413,36.68426412591928,0
59.0,0.163902,20.998426008532576,-513.8748969392395,117.38750127409,60.45174064346057,-288.7088742825916,33.73750540892085,0
60.0,0.16668,12.444244087512388,-452.7100819243845,124.58572485666885,48.42613818400292,-318.4128826493786,21.17581576062121,0
61.0,0.169458,-19.032139920613574,-420.60884154147794,115.5499692062392,44.860075616548286,-359.42959320720354,20.584301435603397,0
62.0,0.172236,-20.60151052602404,-441.4524587140276,100.0542568449109,54.553595305672445,-399.7471180209923,32.17322325957996,0
63.0,0.175014,14.514177772066866,-499.9703947742538,82.85134387352903,68.03607718625483,-395.1838248541475,31.99296164215116,0
64.0,0.177792,43.796025370232414,-564.383643100391,72.1149523331003,80.93805431883062,-337.87028613884274,-1.2760836420704464,0
65.0,0.18057,27.834183589665336,-632.0127908712706,90.37169686112236,99.41758532499674,-316.6917077396116,-52.75577079000794,0
66.0,0.183348,-28.76596586338884,-759.2679706833429,158.34865375920273,121.87294740531638,-473.5830411905053,-68.16871814566841,0
67.0,0.186126,-93.0735945379244,-994.7270602403084,260.14804302559867,126.71647006738786,-844.3784688986449,-0.4901325109203895,0
68.0,0.188904,-138.93353926115464,-1232.1968437797725,335.5308277597012,90.57972215748622,-1211.5251251019024,130.71522264865973,0
69.0,0.191682,-150.66575218407323,-1190.054984986551,325.3263244044133,17.805734210694467,-1176.879460140618,241.19777042054972,0
70.0,0.19446,-120.49384813359175,-653.991199536872,229.725615887834,-60.731962386703366,-510.4557467606953,260.2372685287612,0
71.0,0.197238,-72.77639789549109,249.31944348818135,110.96555230723116,-124.44015146890229,544.1287408222363,200.1051432349717,0
72.0,0.200016,-61.39812341363894,1106.82151603304,36.14906006286877,-180.29637294631837,1423.3292063833428,135.7630243136606,0
73.0,0.202794,-104.29497381245184,1561.038186380569,29.475009422905387,-226.51822513471623,1743.9689616690744,126.84929049719686,0
74.0,0.205572,-149.5149328315893,1548.8749499265095,76.01960699352999,-225.8733700017386,1567.396064095435,172.97927106367086,0
75.0,0.20835,-145.66612737874556,1246.22252078899,144.99084907635174,-149.76482240087637,1193.4031861784856,231.3274540064923,0
76.0,0.211128,-111.53530301637176,878.658496903775,199.4644406640504,-32.0307424577267,854.5358908320662,258.7110051916208,0
77.0,0.213906,-93.9394515719336,586.9527965205143,206.21897995534889,51.85037269599072,635.7927242454732,243.10861097990096,0
78.0,0.216684,-94.44662381345532,398.12041089405744,157.29879950777948,53.539346486690086,535.0685536619595,208.5258545108556,0
79.0,0.219462,-84.99297603471219,279.97572356105564,79.67020705888157,-8.237034901625805,507.58111104600926,188.4916686088278,0
80.0,0.22224,-67.17915302857814,213.24980647319205,14.50357166607509,-65.71996837063732,498.4701515008053,191.77692219193867,0
81.0,0.225018,-70.98969489224814,206.51701724600312,-13.30815591280138,-62.24983684549072,479.2039173450448,197.93860555226803,0
82.0,0.227796,-106.0777742332408,258.19559355170685,-3.677921601300412,-6.600700166829094,450.19489008676345,182.5801513323944,0
83.0,0.230574,-144.3640589607485,338.61956936329625,32.77061764653302,38.27406968628611,419.23027859703,136.17023199840978,0
84.0,0.233352,-152.55613856090002,418.47754555807467,83.91201801584941,25.882773190115984,397.3393034966591,64.70375626553707,0
85.0,0.23613,-130.89276424893208,490.60493494895366,129.5157868981175,-30.461774449066723,401.8538988570434,-7.448808393252179,0
86.0,0.238908,-112.11198573461722,546.8327817158455,143.86113097285966,-89.55019759122567,436.0382950646778,-35.76703670944998,0
87.0,0.241686,-118.35957748354784,554.6928385684948,121.47889416640122,-132.0342793839373,470.0833040298796,16.87110014465053,0
88.0,0.244464,-132.19028243846185,492.3755900982712,91.85827168882096,-162.77699417420916,468.6386144386813,136.70234971085358,0
89.0,0.247242,-126.38936720379148,404.01211244968846,91.05795849475504,-182.99659111388252,439.2251488959812,257.09572926258227,0
90.0,0.25002,-106.11269663234992,381.76003697671393,120.99351388297872,-182.0621924210925,430.7048293992999,311.481753673002,0
91.0,0.252798,-97.77103194131186,475.3728757224248,148.8465147239042,-153.62286780797558,477.7627131031781,283.3171385948002,0
92.0,0.255576,-111.5077791314978,637.1786958132011,142.20361118983868,-109.46825296817124,561.0515541227426,207.0343376202354,0
93.0,0.258354,-136.46655375365964,764.056215860591,96.8947173348158,-75.61518649830633,622.3332662074013,135.45899735398544,0
94.0,0.261132,-157.94632206503985,779.851967544965,39.89807357322333,-71.84659114901015,605.3683604938994,106.29010202910676,0
95.0,0.26391,-161.95982039503775,679.157100196236,10.63304721310848,-93.6196142745406,486.8716160908162,122.66110899969796,0
96.0,0.266688,-138.56736922954718,514.4013549473411,28.248177450801247,-117.86789866249016,291.84425336317,156.54499391252432,0
97.0,0.269466,-97.92051040279476,353.59525269106445,75.40176518896247,-125.5525057729588,90.58929635107908,174.25674332885325,0
98.0,0.272244,-71.45799677182501,242.3707444388805,120.1283765682884,-116.58729265003912,-35.05875171559083,162.02226644313805,0
99.0,0.275022,-79.50651444819589,189.37763131888624,143.2281155971728,-107.3558402175814,-46.783570280705455,129.8412461656535,0
100.0,0.2778,-103.64211333931404,174.9618058524152,140.35133832731623,-116.78651659256752,21.63893851551311,97.16950320797798,0
101.0,0.280578,-108.8505318151406,175.143802368461,120.01885816278136,-152.51638482901103,99.75221104655776,76.69966470511926,0
102.0,0.283356,-90.89752211644088,187.1109618846112,107.00641956510184,-205.93603342498125,147.9744996653967,63.17732312786481,0
103.0,0.286134,-81.0121422051825,232.58348960692305,125.052410371632,-254.92691070640984,182.58603761723148,33.63101886278119,0
104.0,0.288912,-99.8114625349081,328.11787614088166,168.3286054824274,-273.26598943229584,232.3549109406273,-26.18834451223981,0
105.0,0.29169,-128.96935209083037,449.3664496195761,202.11344803040325,-250.64009879393265,283.6248268714512,-84.23238839122699,0
106.0,0.294468,-140.52704947287083,532.8019432631983,194.14995427904768,-207.5529011967328,284.7650733752586,-73.60452788663794,0
107.0,0.297246,-136.22537977674793,524.6112177953469,144.65538099243577,-176.75910945775345,210.25547054161652,29.198563049049724,0
108.0,0.300024,-139.66504412632366,434.07481389418456,90.96153356580052,-166.47404828006205,108.61300270183008,148.07926597512642,0
109.0,0.302802,-159.90509511254717,331.3555273047821,77.8255836918132,-158.07595406667932,64.34549144590852,164.51742046756246,0
110.0,0.30558,-182.3162659959674,280.0197836833163,114.07011447849172,-145.29980519274093,102.2702425275112,42.57150330320424,0
111.0,0.308358,-190.4602028022265,276.77596654313254,164.79796365811467,-158.41978442817123,150.03577000271852,-121.24960132036333,0
112.0,0.311136,-178.5869931710109,272.6824389002323,192.79144163541983,-230.8758047006404,121.54773184004276,-191.42041796147927,0
113.0,0.313914,-144.51462155844874,242.7005475600481,196.73284973542007,-340.1485007526928,26.52813938591094,-132.54814059078984,0
114.0,0.316692,-87.82985815293688,206.6695863663416,199.99428773085452,-402.58884309020056,-37.08588875133597,-37.2866767769971,0
115.0,0.31947,-18.269455457382456,186.71441529949445,213.9628266525197,-349.48928101354176,0.7266819209333164,-19.48698547678434,0
116.0,0.322248,43.98410017810336,178.44135074641332,228.47071476770776,-200.9379695071375,108.49214370289197,-110.47997885242478,0
117.0,0.325026,78.07000324060895,173.8698600676688,232.48125338019275,-40.95057625462973,201.53550314919903,-272.5356705679654,0
118.0,0.327804,72.68939599599727,186.3059110209399,225.2076239211919,75.86243075601757,228.16052449294256,-473.5970080678347,0
119.0,0.330582,36.46848561056912,231.87873295221365,206.76681622702108,162.36838739595274,188.0195520321962,-688.8470252120585,0
120.0,0.33336,-0.0900649373248683,294.41763537284584,174.55989071649344,236.74907056632796,94.1128402384734,-823.0574754096547,0
121.0,0.336138,-6.326800872767584,325.3366135416743,132.30834966860317,245.1480080211543,-40.87644548474723,-689.5216879627576,0
122.0,0.338916,20.99008957256274,283.9005303004724,93.8090412837422,64.21992438081611,-175.561393171784,-120.4938766792124,0
123.0,0.341694,60.76503025510433,176.15611185430146,77.02734641180335,-389.2623049475849,-232.4245602282417,853.8717355566798,0
124.0,0.344472,93.65898935499597,50.48686215459216,95.59311017628926,-998.773793422151,-161.3007181363059,1876.4285181063824,0
125.0,0.34725,111.29431012490195,-51.71081299525133,148.528783768152,-1416.9234715251373,-24.83100247893651,2356.0950652242973,0
126.0,0.350028,108.61254342968076,-133.55549713839048,216.82393746289068,-1314.2651494426589,18.951537046692067,1883.6120983568649,0
127.0,0.352806,87.74838678467506,-207.20482138857125,276.7335124183056,-713.3356354354852,-117.37691487273452,655.247067379281,0
128.0,0.355584,64.28188017325638,-232.20711006222825,315.1626648117516,9.333371401268778,-314.96707147570385,-637.0335887816767,0
129.0,0.358362,53.66728169291288,-144.16423520852786,330.806731487385,483.67458659204857,-363.4690365648078,-1402.994405012999,0
130.0,0.36114,56.97481394579693,45.37581022293193,326.6421592410577,621.0073215897601,-213.02133097370265,-1546.7562365773178,0
131.0,0.363918,69.0078254691165,230.7776681076232,301.8698976126035,538.9858099861547,-21.151852876486718,-1301.918960972666,0
132.0,0.366696,90.163197984607,312.5723066807607,252.068261971116,360.2989092591743,53.70441872075381,-894.1303898157867,0
133.0,0.369474,121.04407905553543,287.715237154484,186.55704372766152,148.54835963783304,14.037168341445138,-443.7532081443458,0
134.0,0.372252,153.7241593756806,236.4016685699708,139.21612563229854,-50.034739319864286,-32.667221411415994,-46.15590242006755,0
135.0,0.37503,175.72110559461052,230.2392862799732,138.8155737575725,-190.85095024166293,-20.74569924611788,204.97856940298692,0
136.0,0.377808,179.19144075822587,245.2987725266396,169.20198936469507,-249.02324913207036,5.929861032307571,277.15592699107384,0
137.0,0.380586,166.3108511577269,172.16654010229092,185.15623621831924,-222.91161548473508,-55.02262254588023,219.2134736962935,0
138.0,0.383364,150.78645872933637,-61.710691521596985,170.53057863246732,-130.57088040967642,-251.4541913356364,105.68568475562856,0
139.0,0.386142,151.75434152478738,-391.95670815636464,154.02647057598475,-16.589161147385326,-511.6717976787408,-14.62718146973338,0
140.0,0.38892,178.7475835071345,-673.2260630788152,162.81820323780522,56.71498983080917,-705.5897936325298,-109.74760974519714,0
141.0,0.391698,220.2009152835149,-813.5879317062875,189.28800955851688,46.576316388926216,-762.7371222578349,-137.9402698464314,0
142.0,0.394476,249.690429311458,-818.0567838919618,213.16626757194732,-41.22189761475692,-713.5584917345067,-65.93636375815564,0
143.0,0.397254,246.93244245036976,-737.6645956972586,228.8397925215124,-159.65449375953537,-639.7371472604023,84.51522863183186,0
144.0,0.400032,214.427199914592,-630.0127670124177,236.3929612807717,-244.79091218161767,-609.8073373491876,225.71698098517788,0
145.0,0.40281,174.3522034638192,-546.212929947214,228.70108417705563,-234.7700757190202,-635.1077010515664,248.92862924157163,0
146.0,0.405588,148.63627850347922,-506.44451032468567,205.68907324606357,-97.88262722228302,-662.4300141816054,98.4558994036683,0
147.0,0.408366,142.97048686712347,-491.1522167870773,186.8314774160708,121.07707384059664,-632.291777857311,-164.30216196157158,0
148.0,0.411144,150.47076242038472,-474.73413301566967,190.38538347784427,290.95302714168986,-553.796919859361,-371.58469518819936,0
149.0,0.413922,163.37873950896596,-452.72353056890177,205.5994032804951,284.50589913487727,-490.1834023940028,-376.6612376323656,0
150.0,0.4167,176.5525068163091,-426.5759938804869,202.0812106080768,111.2230188240574,-468.3920565014431,-199.3080989171438,0
151.0,0.419478,186.7940420271276,-391.38129879345513,167.05012239348582,-67.81606805896593,-448.0906975712746,-14.186471918054451,0
152.0,0.422256,192.2474218492406,-358.96746555088794,119.8732695891756,-93.18199503963923,-394.0268002105945,24.489574375793097,0
153.0,0.425034,188.4833693047508,-366.9642842760263,88.78063266499969,34.803873816665856,-336.97433893994406,-76.10406457768644,0
154.0,0.427812,171.7772729079528,-438.8726601913676,87.19173336615673,170.51943702169697,-338.9796107467477,-184.3077934271244,0
155.0,0.43059,155.30695384146188,-549.9648513900286,115.23763436431936,180.39212076206584,-424.6240196525266,-188.79327939106028,0
156.0,0.433368,168.58924021595195,-646.5151699343432,167.4738274205028,64.0270691235813,-558.5890827436876,-94.84105614769528,0
157.0,0.436146,220.19590998493567,-685.924343450286,225.84938476171035,-70.81650940519195,-667.1553355630833,0.6334652280086317,0
158.0,0.438924,270.9082108644704,-659.9452163855206,254.97505191696732,-123.36197367428966,-682.3498563057035,11.662904276625667,0
159.0,0.441702,271.81617778322374,-599.2113013216555,228.2304963386992,-80.8418594549561,-597.4770692702806,-60.82975583312039,0
160.0,0.44448,225.7172388295744,-551.5871129845807,165.2402346354384,-8.716608463815803,-485.9081995401581,-148.97550160839432,0
161.0,0.447258,183.4761691249616,-538.8490072534196,124.25517338190166,15.432226253604796,-440.4424344264153,-194.38833148176087,0
162.0,0.450036,181.3572634156464,-542.9343305137127,143.08526927087894,-36.34654230288203,-484.41869002144574,-193.50404133937533,0
163.0,0.452814,208.16273405675577,-545.474069070996,196.04642535783464,-125.71574921605249,-555.1873518258333,-187.16283751305875,0
164.0,0.455592,234.54024995212285,-558.5349424599485,222.3136166039086,-187.37687739264027,-580.3271367521719,-222.1216187666151,0
165.0,0.45837,249.40399333411557,-598.1197374810748,193.87706148330795,-189.41598624754727,-558.0316950364215,-306.2325972906631,0
166.0,0.461148,258.43202636498154,-648.634935060185,141.17458620695942,-151.27130302998052,-549.414142202944,-385.8666236047624,0
167.0,0.463926,264.8643137450712,-669.1837843755081,110.13749185167984,-106.06839859299424,-592.7756345979257,-382.6566111816585,0
168.0,0.466704,271.9038958365113,-614.4709482710073,110.76199656587208,-64.4133941475925,-636.486623727617,-273.24897442144606,0
169.0,0.469482,296.36875317544013,-446.637009515716,115.5815477857916,-19.744542550787664,-567.6687903967145,-129.07760803538528,0
170.0,0.47226,349.4073026129735,-170.1560057429624,97.68196283157604,27.84855035399096,-327.4266693335805,-57.03151121648752,0
171.0,0.475038,398.7724010050083,116.10862217806664,65.17127066700337,59.721082050803446,-20.21906578726288,-90.71267963646868,0
172.0,0.477816,386.7112867571618,234.83863525278247,58.5576351972707,46.08140973570924,113.9880298764004,-155.34081942340006,0
173.0,0.480594,304.1759512739121,58.55336304051036,105.38928485025856,-23.917329381523054,-96.310733762259,-157.53007962245456,0
174.0,0.483372,217.9500993222385,-350.26057182037505,181.23602043671653,-114.0212168368692,-554.9949347602707,-92.7568096001338,0
175.0,0.48615,202.1094815819025,-753.2470547504493,231.45450632748623,-164.05931183244385,-953.75483819683,-36.190466124148514,0
176.0,0.488928,260.44829808789603,-927.9388467215848,225.9348206384412,-152.38987917560567,-1056.9810088337947,-43.65393063495784,0
177.0,0.491706,333.0790050305336,-842.9495749417424,181.6738460531952,-118.90405693520592,-897.5384654505335,-103.0160955785074,0
178.0,0.494484,366.1801796566645,-630.5957514427639,142.77322445079676,-118.91177116051044,-679.1871605767448,-180.83778408432937,0
179.0,0.497262,358.4075304357329,-425.7109761437901,140.38075063976817,-167.28606200540665,-543.2141547024612,-268.75418258203433,0
180.0,0.50004,343.3760617530058,-277.8418419108101,158.2590427206556,-233.16420419767516,-473.5598949363091,-360.47088574678,0
181.0,0.502818,342.99714376655675,-184.82573955526004,147.27651660604727,-278.2431596610137,-395.3572054943864,-417.22257982893245,0
182.0,0.505596,346.4675548866864,-133.69192382506685,87.40678075618102,-290.3422363752732,-299.93726469383506,-394.3456140637367,0
183.0,0.508374,329.76317451379566,-103.61564590734407,14.4494492564614,-285.8248156145806,-249.9523161230493,-292.39906991602527,0
184.0,0.511152,287.0282042480379,-80.77880991192109,-26.397540422436546,-295.1670777961693,-292.07506085564125,-157.16788434315998,0
185.0,0.51393,241.78904107426476,-76.88802445235225,-25.523990513023847,-341.5851975361378,-397.8590718396056,-44.73604393731148,0
186.0,0.5167080000000001,232.26400555615004,-104.1014535973337,-0.5098658007201351,-403.8302510806518,-489.09540491653433,-11.18427152051823,0
187.0,0.519486,284.263454592888,-140.88246056478795,24.975259781742004,-400.2585096955392,-504.5337236489628,-103.8375106814104,0
188.0,0.5222640000000001,385.46314516352834,-152.87077732011767,29.39493777504053,-260.35200782042523,-442.5374210795837,-306.8047465356409,0
189.0,0.525042,476.4421575461207,-142.777623041366,10.457135987776748,-33.32976232678817,-352.98257245226085,-502.4829847559009,0
190.0,0.5278200000000001,481.14606943257866,-149.78417471275736,-3.2766777229080297,125.0167491385559,-291.5457187771023,-545.5951926254072,0
191.0,0.530598,373.1298854658104,-187.8213446004896,21.43159970410707,110.88100375016698,-274.8311356518972,-403.6197676394066,0
192.0,0.5333760000000001,214.44839377979807,-204.6166118893246,86.84211948166153,-17.88657309931814,-277.2183012563692,-200.0141432833371,0
193.0,0.536154,107.75397481212364,-131.1977683567407,162.78596452117574,-122.48233799070805,-269.3185530594999,-92.68110331712474,0
194.0,0.538932,102.37555229680348,28.26328867099741,209.25382060860125,-137.71667129375717,-248.0016969334705,-121.29234044876668,0
195.0,0.54171,158.86149597186562,186.7804517741296,199.08059494485903,-107.6382856505978,-223.1455598798268,-196.3625881762375,0
196.0,0.544488,203.0847136198185,264.0496867802163,137.13947090508668,-95.2585320223615,-192.60647307921005,-221.09989717594493,0
197.0,0.547266,196.2750785222016,257.9984330118649,61.218460648513975,-109.93179218797862,-147.99202485516992,-185.4154374078587,0
198.0,0.550044,152.48689547566795,219.96467557495967,11.248454837665063,-127.41024902895042,-93.85378359697464,-143.77099733625258,0
199.0,0.552822,112.05882374801512,193.2751167583414,-1.771220736148596,-138.48745460681369,-44.604530296828685,-144.34695497649943,0
200.0,0.5556,108.75443140958384,192.1766723799676,10.485949683151048,-152.06524153331367,-12.699600790791216,-196.46618812108017,0
201.0,0.558378,145.16758459136665,212.15575671942676,37.12869825898136,-167.2237540455762,-11.696803513861044,-275.8191953775847,0
202.0,0.561156,187.2097481630252,236.9956475555819,67.6907170659256,-165.60482788857263,-52.97059434807997,-338.7242413174647,0
203.0,0.563934,191.73407513114103,247.6690195581723,82.83169736651332,-134.60023531916497,-119.4012449808338,-351.47054032196434,0
204.0,0.566712,145.5817680386549,243.1948019397548,72.08214880994854,-93.50781399610702,-157.36599942018313,-324.6705696997691,0
205.0,0.56949,70.29946247773061,249.61778609726463,55.435195447459535,-88.36018549448258,-123.67330218233631,-305.4478462798624,0
206.0,0.572268,-6.871456124216749,293.7464682361607,67.66068350833915,-143.46465931854556,-41.1458395359792,-326.35754301816127,0
207.0,0.5750460000000001,-65.53525121266398,364.18295670157454,123.59871824773997,-218.24202136742772,15.387457903145672,-372.7559396108896,0
208.0,0.577824,-72.60207878191066,405.0253260449447,201.85819062509293,-238.7854523265568,-2.0326397383900563,-402.7746956142547,0
209.0,0.5806020000000001,25.646020987164604,347.875898047959,244.4166337786602,-180.4952677280089,-65.1989887654538,-391.0153952757266,0
210.0,0.58338,273.6762300272952,147.91456379340846,167.61504311087054,-98.41243870538467,-111.46491641136828,-349.8605276480482,0
211.0,0.5861580000000001,663.4804058741264,-182.92671901979264,-88.61097044434666,-69.73510498091284,-120.1782882127348,-302.8509663118304,0
212.0,0.588936,1106.6234141973518,-528.3949455374129,-478.5494247872699,-122.20266886103144,-128.1215472479614,-235.6238269032905,0
213.0,0.5917140000000001,1445.9966609434327,-657.6865347432899,-830.7805538719787,-219.8924143082843,-176.5148410556639,-99.41350080730368,0
214.0,0.594492,1536.3638775352074,-349.47514551117087,-971.8516681240984,-301.9452104194813,-260.6767443707235,110.23004164765489,0
215.0,0.59727,1353.1196824345457,391.6288460898644,-880.9826435280006,-328.76434864142493,-325.35026991773555,297.97611923801,0
216.0,0.600048,997.1874102215722,1247.1315560442672,-663.1129086214789,-293.639045800618,-293.7843108104666,320.1147896592595,0
217.0,0.602826,563.0922168073569,1778.8778795700534,-374.7733751447666,-185.22176956673792,-115.56850468337365,68.54950033177852,0
218.0,0.605604,42.24087790896387,1771.0751995314165,24.62745552416807,44.12947021159496,179.57782913113255,-504.17712544986057,0
219.0,0.608382,-603.4312630065524,1394.25454976612,527.3792879385265,419.3696429871868,464.7248107705076,-1348.7662154261666,0
220.0,0.61116,-1288.3874309706114,1005.1557765914512,974.1209217285312,832.2832909587178,578.6857604198894,-2216.805198778193,0
221.0,0.613938,-1742.5192699882773,785.1159814505344,1141.6216145198975,1043.0849662236924,441.3632229140023,-2664.7391570213645,0
222.0,0.616716,-1640.138618836323,623.9558066938307,915.0722834871942,848.9805392308174,124.73210378414907,-2318.317145875136,0
223.0,0.619494,-887.4132735713187,358.92830508788234,392.17055790755467,266.3867330766339,-191.47047984221413,-1202.9392705577689,0
224.0,0.622272,190.43842396497007,33.602266606172044,-160.89703236309293,-446.20556893317007,-349.75574993003085,210.3494687643041,0
225.0,0.62505,1050.8484539347066,-148.3656457450603,-494.0348111570314,-951.4841142729548,-323.02023369192585,1311.261479083168,0
226.0,0.627828,1365.0687262336585,-73.94657391289206,-544.8983621368366,-1065.5005864778418,-205.5724055066828,1731.5071509315335,0
227.0,0.630606,1196.8383703966638,158.55119733446912,-431.1828600727152,-868.6684922680092,-100.9256288646702,1496.8787169428224,0
228.0,0.6333840000000001,808.2837661486126,362.2607176545788,-308.83930374470964,-591.7467835054657,-33.55296835263256,902.1172090895778,0
229.0,0.636162,421.6888477901007,448.2269127163498,-259.49286377580256,-400.4484283807556,23.871919486660616,282.6715176482645,0
230.0,0.6389400000000001,167.79658346984192,484.1289015024834,-264.6130237800055,-302.24912270129505,75.74408172025437,-149.8218251449383,0
231.0,0.641718,134.43256914059236,603.2519723084474,-242.30143449741485,-231.2167718096463,96.98960961808336,-355.1920913176641,0
232.0,0.6444960000000001,355.61729819795306,865.6031214578354,-127.1618625868945,-163.78234044530032,82.8522608160014,-407.987783765309,0
233.0,0.647274,729.5462336992348,1186.8169777320356,61.45457816958535,-129.87672024325803,62.185114160492816,-395.425348709436,0
234.0,0.6500520000000001,1007.7802237384984,1390.236908125975,235.0958294502717,-145.16214364886417,56.005052163331854,-359.0838260133482,0
235.0,0.65283,964.0567173857178,1344.2333863511467,320.1281797738177,-171.24022381597587,47.776448844842456,-314.2792021190543,0
236.0,0.655608,609.5087394942946,1070.9047048818077,312.87291968128693,-146.6745535286907,11.472825816626994,-292.84009030127686,0
237.0,0.658386,190.75454445511025,727.2379938880484,255.2367818068901,-49.73971570276312,-38.39356758710963,-339.7994986319885,0
238.0,0.661164,-47.42532164168051,476.4494460659962,179.42191199340607,67.57463298786243,-50.65952471263358,-457.2809938114961,0
239.0,0.663942,-58.019883696667,375.9852157895084,89.75783457539575,117.22877673292184,-5.971051669445615,-566.4743911663743,0
240.0,0.66672,40.24896344877777,382.217691048106,-9.980777210872684,63.96474653368047,41.04687651765654,-562.3249800522889,0
241.0,0.669498,115.22787429743092,434.8485170508032,-85.52318385972691,-32.76796054801362,17.2920030199935,-422.4589413192653,0
242.0,0.672276,114.16380210578222,508.56679638169896,-78.67928237603564,-82.2183798678381,-79.7560079750494,-241.2582721519818,0
243.0,0.675054,61.212835704187775,593.2067475019911,42.03403431212783,-52.426447715920645,-171.54648206708706,-143.96859337164582,0
244.0,0.677832,14.328148402820588,666.3416384797983,231.64399392656043,16.973547559099885,-171.15184645583838,-176.19528254176632,0
245.0,0.68061,15.878563580310011,711.4502228684128,388.7177306873045,70.32410503793994,-51.84101361559375,-274.1301718516954,0
246.0,0.683388,60.61790032670282,744.3917591743497,443.908163972638,86.01051866488622,143.98905777799447,-331.38973554131337,0
247.0,0.686166,115.64307272260255,786.1368704052738,411.3488669294425,80.74588566872315,338.3770013190849,-294.3092231089033,0
248.0,0.688944,171.7971921369208,806.344227686652,339.6559914780699,73.91215899768748,458.41037865197455,-194.7403443764211,0
249.0,0.6917220000000001,244.0708965155336,729.6702658533407,251.35025415430889,53.98229145903842,469.35137273924,-102.8195579101735,0
250.0,0.6945,314.8311175307267,520.6897266886699,161.56086861197608,-7.751202140541608,387.7579672215501,-71.19729007592535,0
251.0,0.6972780000000001,328.57227664332777,245.5352865318549,116.43131036155717,-111.71108801750034,259.72967764422265,-123.15472933837702,0
252.0,0.700056,270.0390960350196,32.82313929872751,159.0790062937853,-213.56216891098492,124.8661518784914,-256.2126368284357,0
253.0,0.7028340000000001,197.6208716928824,-20.013391483691635,260.23289609269784,-258.4430990712996,10.113138993189082,-423.4070783047696,0
254.0,0.705612,166.23142839577406,91.55644196723124,314.00987253795,-226.74462701124992,-50.74125027884667,-524.002075178663,0
255.0,0.7083900000000001,168.08647105047166,281.945345172355,217.07872427569512,-144.52761851951578,-24.1291642072604,-463.4045447799845,0
256.0,0.711168,183.10540730713927,439.7465176926561,-41.69039127620138,-55.293288443324656,83.45044261770985,-251.1979811940516,0
257.0,0.713946,216.1896341382408,518.7612688507962,-355.3750692007711,9.865782586910512,212.92571087267623,-17.251464182092064,0
258.0,0.716724,222.7114857648877,564.3571558641311,-550.7718834543791,38.90017827103159,294.72984562843953,94.07486378850058,0
259.0,0.719502,78.29666486562054,630.2809834691285,-486.70070899611966,33.0872016345798,297.12893060828526,40.98466813460185,0
260.0,0.72228,-262.2099654974237,694.23725215173,-153.49563076271824,0.8864745592894749,235.68631015109867,-100.6371173323221,0
261.0,0.725058,-617.3048867784405,690.1908101444023,298.3512760837368,-49.10856123121883,154.06537831977917,-219.20190837403095,0
262.0,0.727836,-712.7944843455389,600.5856841458708,652.8195423888457,-107.4039987397417,104.94114627075616,-263.45687519732945,0
263.0,0.730614,-464.8569315457397,486.880134331556,775.3591343365143,-151.60547789760665,142.3910452591457,-269.09801960132546,0
264.0,0.733392,-60.73338116803336,452.7049502820121,674.6308007573099,-150.6744763456435,317.7336721039348,-293.1925846784505,0
265.0,0.73617,226.83862130725748,585.6735211137532,441.73405525196415,-102.91447978654,653.8797544606248,-329.4228156596138,0
266.0,0.738948,259.01089991587094,876.6624909459312,154.48330318285394,-60.23661368079013,1084.7676945988987,-307.95988174435604,0
267.0,0.741726,92.222332195134,1154.1176520862164,-146.5045934289828,-78.68777315734378,1413.7053070008835,-186.2885009228644,0
268.0,0.744504,-122.15710334079232,1150.3231807928976,-397.4172642074992,-140.87703194516877,1389.3320038191257,-18.52175382237472,0
269.0,0.747282,-276.99513058798993,715.7015504060805,-483.60737404019056,-167.84256441395777,892.3732426061697,89.20086716900418,0
270.0,0.7500600000000001,-359.1050992224906,-22.56692168102032,-334.26993696040734,-117.10493269454524,54.43975918647186,84.60676388765354,0
271.0,0.752838,-391.5961329746924,-745.0593891082665,-34.68881709824774,-25.600942164435143,-819.7814220247955,5.578327551108295,0
272.0,0.7556160000000001,-367.5838016371256,-1160.8126514238702,205.3016888047744,53.058127900881175,-1410.2721836049222,-84.25254499005212,0
273.0,0.758394,-262.09753853406073,-1136.6388601436308,214.2106767337487,101.35607484514787,-1478.481148746693,-157.64345288128055,0
274.0,0.7611720000000001,-87.07013554252421,-714.4724812534369,-1.550394753656807,106.43783399857,-967.79966653848,-205.6531513106944,0
275.0,0.76395,102.67759359492528,-97.7631687387049,-269.3201161683821,26.96528232173972,-119.04932443900178,-196.46712781244477,0
276.0,0.7667280000000001,256.0502093329667,436.72762980692056,-408.3620010678042,-155.70544884462836,622.6122306425523,-102.24569873996758,0
277.0,0.769506,347.28981955896967,709.4705179306155,-382.6797505183521,-362.6957060334302,948.2660711857772,36.484745719117605,0
278.0,0.772284,350.6155607049621,727.4276390616512,-296.9315095366576,-449.2451213036063,903.569538683728,122.87213293974504,0
279.0,0.775062,231.09082049228047,607.9393961882577,-265.9551844110937,-345.83615860763786,736.9169686428005,102.8770300563052,0
280.0,0.77784,-10.733420104683944,466.2875418718624,-313.6314623503964,-144.10310455125332,620.1884494364666,24.783777711377404,0
281.0,0.780618,-301.30622699620164,374.30489409811247,-386.4816838391574,-6.627841904164086,565.1954448689995,-19.936969254191013,0
282.0,0.783396,-539.2207612056193,354.37830661483895,-435.74631123215886,-4.872666900676819,520.6800898992182,3.499702365179118,0
283.0,0.786174,-678.4342657232555,377.3649320828191,-464.7874545510288,-74.89105694952649,461.07831248196953,48.18385179509441,0
284.0,0.788952,-740.8941147635798,390.7804186670707,-488.5990791642452,-113.12553201017238,398.8454490048525,47.343546790636985,0
285.0,0.79173,-757.0919272635192,365.2596187836623,-477.3142891001206,-81.45261321151803,361.6308710629496,-13.223817954672034,0
286.0,0.794508,-718.5918858923084,308.23980849467216,-393.0605734958889,-28.569891576337252,362.7964870178501,-80.96815771371378,0
287.0,0.797286,-584.4726046990834,241.67857427315872,-277.73750483040527,-32.1454874296187,382.02828782659,-87.2410108876798,0
288.0,0.800064,-342.46751236087346,183.22749210248648,-237.3032000325494,-114.01089466566869,380.5786846929543,-12.159357515472138,0
289.0,0.8028420000000001,-84.41249365487542,140.3921996497249,-315.3027962369804,-205.39103537082696,337.84668508650776,95.43669450135732,0
290.0,0.80562,19.0080608215922,98.4197520102673,-430.4772856597852,-208.7095942384065,263.0861056418549,157.38912847583325,0
291.0,0.8083980000000001,-122.75523253390142,17.119093165685086,-465.9974658925582,-99.31722145677328,176.32342005800157,130.07666218777734,0
292.0,0.811176,-413.6575436958125,-125.79178336545291,-387.0084866479327,40.39127127027752,94.78286568053328,43.329981990336776,0
293.0,0.8139540000000001,-669.9968318908705,-277.3564701899534,-254.80514455527577,90.15865790680576,35.24549268793728,-19.64115992594766,0
294.0,0.816732,-783.4849632973935,-332.7084779530238,-165.81756811725475,0.572877403179973,11.075210542377596,5.928354784782783,0
295.0,0.8195100000000001,-745.5515326146385,-245.6025449925192,-197.9613840156225,-156.45310426095463,20.827509571458915,103.75364062369135,0
296.0,0.822288,-580.3051852498722,-95.04519224869966,-367.43677430549576,-244.0381358681864,48.105723500109136,187.7695944575588,0
297.0,0.8250660000000001,-337.2797660211487,-14.284257974116455,-591.3121967102004,-174.93171064155493,76.06034463685236,181.03714008760085,0
298.0,0.827844,-120.37135625928786,-65.70860382612318,-722.8747849694121,16.27622010308215,95.37688237014764,86.50274667767437,0
299.0,0.830622,-35.70112434883512,-205.7976378316505,-673.2641899144135,197.42310927587053,94.71913171996668,-17.77969085262673,0
300.0,0.8334,-87.19494819244179,-354.62445951376776,-489.0951768040579,234.12872613573705,56.62351653425959,-51.20564375425359,0
301.0,0.836178,-164.9844654924786,-460.9166843723576,-290.30639860890915,90.01816077752778,-17.099762263960265,2.97163175327138,0
302.0,0.838956,-157.54866931117647,-492.1807002246778,-164.8966875719573,-138.7035917920931,-78.00194180425942,99.14851032345736,0
303.0,0.841734,-55.17682380464149,-402.9933578518494,-150.38866753163146,-290.74360287980363,-56.23626424658332,182.6593319956912,0
304.0,0.844512,59.75617547414152,-166.18080734592826,-263.3906947109003,-264.47440007965906,69.04810371015098,228.7863500862461,0
305.0,0.84729,95.8201213170797,155.3308132785102,-477.2057539952734,-93.94686679410118,234.66012559516912,236.822219497643,0
306.0,0.850068,19.550509678233052,411.0002797028872,-687.907441424516,91.02292101422556,342.98301790387563,208.1975553554509,0
307.0,0.852846,-128.54919288655532,476.8834881021716,-771.3498364103979,180.2308608789388,344.5259389239713,140.1551352211814,0
308.0,0.855624,-264.0220534695893,361.0356532243112,-690.3978789145449,165.27117567295505,267.11114436282634,35.919307270914224,0
309.0,0.858402,-318.2100801700516,176.92181839064034,-518.4295171364238,117.92244045623404,174.34470628781622,-76.62869411262737,0
310.0,0.8611800000000001,-285.57873842464744,26.78686860705566,-359.9013985271029,101.29310567130602,108.64505635566888,-135.59552329864883,0
311.0,0.863958,-212.7436262579205,-69.26248618977276,-271.0276909674489,112.95335203492417,71.60521320296513,-79.07868105281347,0
312.0,0.8667360000000001,-142.8959540319668,-147.9953927805933,-247.41334203770424,108.8424651931172,45.0952608017514,86.3219878255826,0
313.0,0.869514,-79.1637645718726,-240.9038553024635,-258.7992793958182,64.29915275239685,21.29588273662048,263.0594780469278,0
314.0,0.8722920000000001,-0.4388973657285859,-338.91019675620487,-288.5239718033303,4.2444045857169925,11.602220361808335,334.05244670611734,0
315.0,0.87507,94.71543510342264,-398.9505126201395,-344.0677624795682,-20.900681667826056,29.89485555946457,260.0122781605694,0
316.0,0.8778480000000001,162.07250246449593,-382.7709899040242,-425.7989771551614,14.164788350926068,72.04710609507693,104.32332183631164,0
317.0,0.880626,134.58965266376316,-302.9380611062368,-492.3892188245276,84.7155733386883,115.29204808967673,-28.229463202836275,0
318.0,0.8834040000000001,-15.269670636838356,-229.939826919746,-479.9634403402488,144.0385921703467,131.73016607944038,-72.07325710188091,0
319.0,0.886182,-228.3369178201434,-235.64166008803875,-365.30228047049536,168.3202222451124,96.27159999438172,-31.04984678195379,0
320.0,0.88896,-381.51145933461953,-322.9784517385119,-200.92004229479411,163.97801351186092,-3.596080100840826,50.73002390855291,0
321.0,0.891738,-373.9994097210252,-427.09511314120846,-81.82698002630207,142.9316456288562,-147.86355949243475,131.10778678059853,0
322.0,0.894516,-207.07035229609625,-495.1618991337846,-74.65783448685383,113.93351568610788,-288.8717449512623,190.7469675789325,0
323.0,0.897294,12.217078404794322,-542.8781562463149,-168.55226905952034,96.77322203386716,-393.71906550814754,235.55262660078975,0
324.0,0.900072,150.14265018828218,-605.9600367326855,-290.6994150244512,120.14055243455668,-456.7663066432391,281.96401150962595,0
325.0,0.90285,148.00597046990123,-659.2050522276,-374.32816190512295,193.9726696270606,-457.17224566664606,325.94813437972306,0
326.0,0.905628,62.01645692073932,-639.1699764596005,-405.7209985008029,293.4178368848495,-359.28343212061026,330.323376378803,0
327.0,0.908406,-0.6053698570441313,-547.2305147290319,-403.0951038126553,373.80545988422375,-193.49444190632505,260.7963674359544,0
328.0,0.911184,12.064364190511483,-471.0282673574242,-376.0596159205583,397.5304038863913,-82.33565743444805,134.35701429979727,0
329.0,0.913962,61.90678770578912,-485.0799369069069,-324.66467463613014,355.7270324466276,-129.08768518957996,17.086309652882548,0
330.0,0.91674,78.92547475052432,-571.607321780627,-256.41438992867387,276.30623699581906,-306.21245313954546,-28.96442418427092,0
331.0,0.919518,28.793383069003117,-652.5937706398814,-185.30607852264168,205.0996855717769,-488.5954629201047,7.86401505057723,0
332.0,0.922296,-66.20025089713255,-665.3893067909802,-132.56306461369758,172.38412909833374,-564.8672415539804,87.45343057203795,0
333.0,0.925074,-144.72940328037325,-600.5863078885507,-133.00629935211407,185.47251628857427,-493.3087134644298,151.1966258150032,0
334.0,0.927852,-152.83602768760176,-500.3160556260793,-202.80972525654144,245.9548183437873,-306.8362736852257,162.14173566873694,0
335.0,0.93063,-94.35440729952263,-430.3938428260084,-293.43157302240814,343.96822360504154,-111.13945588692688,126.40671526114411,0
336.0,0.933408,-27.12936096750453,-432.44699655247103,-327.96118091356743,435.5355640933161,-32.204046381964105,79.73954643813379,0
337.0,0.936186,-1.3976448984165728,-494.39920567245713,-296.7346764074391,464.4921805448061,-110.79980743683336,54.08568831505711,0
338.0,0.938964,-18.899133450933327,-571.9912521720747,-265.7253124768704,419.1131151628518,-264.36970275911114,61.2189618135374,0
339.0,0.941742,-54.921978533490986,-630.361075042056,-278.4064232143454,340.80734748236586,-377.87304095693503,100.97609609899337,0
340.0,0.94452,-95.02134804209294,-658.4887082601225,-300.71633450433467,276.7896722867038,-412.2999774165716,164.54107656171277,0
341.0,0.947298,-138.21831584827805,-660.4351445072652,-279.37879648070657,251.8366429582408,-409.41790597605626,225.58769128020705,0
342.0,0.950076,-180.2533075058232,-648.771182295418,-215.0289102429919,277.0344426571005,-417.0035296356409,248.64619394685036,0
343.0,0.952854,-210.7247632435902,-638.6914294028586,-159.6632591196095,348.8346794449866,-435.81883862882006,218.43998676180905,0
344.0,0.955632,-224.3550324076309,-638.3288878318936,-161.1666207237325,439.19651348988,-433.7855851023624,154.17358729616757,0
345.0,0.95841,-222.0200761331717,-649.2463287131069,-218.2477476403756,512.7681737019104,-395.0391640814487,95.2831194189456,0
346.0,0.961188,-201.5480845203286,-676.0672676865339,-282.1797603737507,554.2188656685312,-347.2576009979046,80.363211909986,0
347.0,0.963966,-163.84935918231056,-721.0802874774963,-302.2994318323613,566.1534490830988,-336.49060544248607,126.58801068522057,0
348.0,0.966744,-128.86625199097298,-765.2725902356445,-275.04553809776974,552.6200720464537,-374.9799989694124,207.3653573277033,0
349.0,0.969522,-122.67906941732736,-772.4786261714726,-253.07876107795812,525.5694456271274,-425.8408472148209,256.39807006508386,0
350.0,0.9723,-140.080018780655,-725.0280639533081,-305.9808760242329,514.2714430206281,-446.8231757294437,221.3941528544508,0
351.0,0.975078,-143.9686342063085,-650.028743724876,-455.53499860322194,533.1723939169973,-435.0874555714687,122.93955575399394,0
352.0,0.977856,-122.26517362728823,-607.8968644303495,-624.7729331064211,544.2497488410138,-416.824687506276,46.04316764089748,0
353.0,0.980634,-129.9614280378117,-659.9686061647706,-646.483687031107,496.2412857651129,-405.8906157973486,63.15333298811557,0
354.0,0.983412,-245.6145106599493,-837.6678315261523,-358.9211653796628,408.59882589881096,-390.01555386373286,170.08154359640773,0
355.0,0.98619,-475.2095110631857,-1114.8563937756878,235.6853261873944,364.8397851989705,-356.9265862542727,301.1875079363136,0
356.0,0.988968,-707.4334332815904,-1389.371006830051,866.5184104941974,402.412566955713,-321.0739642176606,392.6678316444501,0
357.0,0.991746,-783.3560863186963,-1506.2888114754987,1110.3099429419506,460.2948055425232,-312.2667231315472,417.0603765061826,0
358.0,0.994524,-630.861330763275,-1349.610923996731,730.8404306164584,464.5884548997062,-334.3968687750835,374.7327038200616,0
359.0,0.997302,-335.4450578640973,-951.900990528272,-65.60639624791912,421.4051855654672,-344.3580806444702,282.40600434601924,0
360.0,1.00008,-69.68902128648168,-500.1763222332776,-778.6802988301229,395.5427916220823,-281.97251580743864,170.4279800624816,0
361.0,1.002858,46.213665823084966,-193.48566076802345,-1043.6511358129733,431.9931213405642,-120.6406279781736,74.11267022400028,0
362.0,1.005636,12.087048070086489,-87.58912442704532,-890.821826676235,520.3678312100596,106.00284460197516,23.596305850668514,0
363.0,1.008414,-94.36584695474028,-98.41161262709282,-613.2779412673523,611.1866585075238,310.7045549779818,35.661131898972805,0
364.0,1.011192,-191.63013262407637,-145.06233614318438,-453.4752072180597,656.0945915112679,392.3175617867979,97.38468726782958,0
365.0,1.01397,-232.72534557781427,-238.25553628592587,-439.0966870864901,648.6930690924381,305.4345239179153,163.19428232326584,0
366.0,1.016748,-206.6940138299726,-410.2836923144244,-466.4000637089119,623.5655576850627,108.79795133826524,196.5208846247728,0
367.0,1.019526,-134.29298477629663,-617.322423713356,-449.3465479924985,606.2480153349338,-69.98621460876726,209.73973315728344,0
368.0,1.022304,-71.16715490607396,-767.8824459768258,-361.6431520300259,584.7561395432987,-131.30703281947297,232.2212079090746,0
369.0,1.025082,-90.00670279896251,-815.5094312927979,-223.5223620440873,544.7344197655136,-70.78062823207762,254.40520083134885,0
370.0,1.02786,-224.12880854187145,-769.381417620308,-109.4988783860724,503.7145547097928,39.86842765551558,246.9684347050997,0
371.0,1.030638,-419.2976523037156,-643.1174756520045,-104.11590782896369,485.6118145199425,131.52186512473872,219.6973609388514,0
372.0,1.033416,-552.3490313413188,-453.0772684963703,-197.167594429462,483.92283048254296,194.99563894058747,208.1854748916539,0
373.0,1.036194,-517.7477725570938,-254.00198582953047,-276.03213722216714,474.4767497849007,259.31427091626443,209.95076099384409,0
374.0,1.038972,-324.0281469769911,-129.87649427878745,-257.7331815171294,449.19556472976205,330.13607683600776,188.26172036294477,0
375.0,1.04175,-106.7298963844609,-149.1870583427065,-180.6494744754904,422.58550188226354,381.2943909454106,141.32336747124083,0
376.0,1.044528,-12.784437124065178,-335.8980239326811,-134.16101680238128,419.03473442364873,407.9358894765941,119.31660757486792,0
377.0,1.047306,-65.6389131825535,-645.8159410118234,-136.77615888817462,456.7821007219746,444.562598869475,163.52452057042717,0
378.0,1.050084,-173.49920718303898,-944.1096379456952,-130.80580779188008,523.4828916396999,505.1157177809671,262.28524255566475,0
379.0,1.052862,-256.4298949881434,-1053.4331642709865,-91.17073260438544,567.2255282951594,541.6256154828394,367.7983585604011,0
380.0,1.05564,-311.5567713721142,-890.7794677049905,-87.29644969962379,535.6478496257034,502.80058931239614,425.80429814785697,0
381.0,1.058418,-360.7100549712926,-556.6937561886375,-194.9543397375312,429.9223998682819,414.7820897125903,394.1518352510112,0
382.0,1.061196,-401.0585059406758,-250.84602885758227,-365.37756372129286,309.1963257825966,365.4931536616612,268.1464156315752,0
383.0,1.063974,-422.34549578199903,-97.82058556013708,-441.67372123527286,239.14913607242715,412.1624608500497,95.70874888459468,0
384.0,1.066752,-421.6569806728265,-76.75393522595438,-324.8570330093188,235.8615466237504,525.8830219993465,-48.72738970754631,0
385.0,1.06953,-385.8306325272267,-104.10377498652215,-83.10658101933322,258.54626012059555,624.9483275349576,-109.91074396908098,0
386.0,1.072308,-306.93318557302155,-136.01599155275204,123.74928079305532,261.32299199437654,649.9238967726662,-75.7381731623085,0
387.0,1.075086,-236.12571231037523,-177.0667869048782,195.28511121379043,247.20806880896637,607.0012637062462,27.426634484791197,0
388.0,1.077864,-272.2163905988634,-231.70842184344912,149.30511228436106,257.03700050390256,550.6687352995873,154.01472494043537,0
389.0,1.080642,-448.85243981070056,-287.36661465541295,62.388781286524576,309.6403456149954,538.9190448043156,257.8690457313602,0
390.0,1.08342,-650.6676856999122,-340.9324408587341,-18.95364308770278,371.6372917479805,600.6309884148212,300.774438968247,0
391.0,1.086198,-685.9884216297978,-406.19686110377614,-114.59917926236967,390.5214913669166,713.7746066805745,259.9670808960419,0
392.0,1.088976,-458.9232353497286,-466.4953352030442,-265.2706738527376,348.40746275083296,803.2762690668008,141.36098343216176,0
393.0,1.091754,-68.81965676586069,-444.1316134851282,-444.7184661365584,278.1450065355289,795.8941704927113,-17.457938699154347,0
394.0,1.094532,256.266200524243,-279.30649747561074,-539.2627080818395,229.7245728455405,698.8322258464461,-160.7783880194516,0
395.0,1.09731,325.9932048586751,-46.5622282633653,-446.94836212944807,225.96546762896563,599.8178336111146,-234.81380746888453,0
396.0,1.100088,105.83484513789136,74.90237151679864,-179.7627529096643,250.41680175142284,576.2864938201084,-213.71424201797257,0
397.0,1.102866,-279.1920520764106,-17.873504207693117,143.87014918728957,273.05635152151945,620.6447209402742,-120.37875483179482,0
398.0,1.105644,-597.7850656595839,-234.66174304802223,352.29631789042173,280.93948916661805,656.4691071372049,-14.748269718676209,0
399.0,1.108422,-608.2373972272201,-375.2439048326469,273.281315369604,277.05756942552904,615.7768246230187,45.38795009817757,0
400.0,1.1112,-239.72082351288168,-314.6649350864921,-127.97049391266292,257.5216097095205,505.5547585019236,35.84816689849187,0
401.0,1.113978,280.2455733137296,-113.29430128108136,-613.1650856573609,215.58715080893077,405.7780758886204,-23.59100099328421,0
402.0,1.116756,589.4582342522192,37.53833368075732,-813.7880671101681,174.60358468526283,393.4247359131202,-77.53335407135087,0
403.0,1.119534,532.4305814981998,-9.269054804603655,-588.3085485166785,184.8010564234912,468.79912317400624,-71.89607490590718,0
404.0,1.122312,263.3928997446094,-213.23721449637992,-146.13843751249868,262.2908800788999,566.4004703976532,-2.82527809480149,0
405.0,1.12509,2.7934848671425243,-381.43203594624464,217.89279160068676,352.9109498004699,626.8661329029678,79.06511193000347,0
406.0,1.127868,-204.84695366407792,-359.43216808414417,418.691560663693,385.3046099959871,640.2330937498745,121.0060598031391,0
407.0,1.130646,-456.5313256716309,-176.9292307642732,578.1818558333935,347.99928792577845,629.2336579272549,110.8329859587946,0
408.0,1.133424,-794.8337160050613,6.85277821146704,800.7379535086225,291.4881751210595,614.690896208353,63.96067709769068,0
409.0,1.136202,-1109.267039396388,74.01496921280008,1008.73893403413,264.31691654718645,602.560156574412,-8.639183468819699,0
410.0,1.13898,-1220.175671329045,33.578428808803736,1004.769388269877,266.7885092090263,592.2615362501467,-103.59723795493748,0
411.0,1.141758,-1030.774596968361,-36.59009964285994,679.0320448365427,261.8199385025319,584.1466094335001,-208.3882266358911,0
412.0,1.144536,-604.1692799263678,-79.67872864067057,137.7574096063233,218.0516399906961,572.8725872019864,-294.00129431179107,0
413.0,1.147314,-120.30246648199162,-87.78627860488672,-373.6959952202629,144.5075866063342,539.6525188526075,-324.725885457467,0
414.0,1.150092,240.8107784853081,-83.12519728596783,-657.2573010576523,86.20208438744821,465.5498275024627,-281.5493555687102,0
415.0,1.15287,402.9915955182141,-93.25850809900928,-669.1396813655994,82.24282459902435,359.0175227267433,-183.11639179822524,0
416.0,1.155648,401.7477175447043,-127.50664333946736,-482.2972451051767,131.2313705733921,261.950869113807,-75.71905361564023,0
417.0,1.158426,300.1109827004625,-167.19221027061835,-200.6285558645881,200.17114181693944,218.4457530175928,4.663569969224284,0
418.0,1.161204,128.86505747637096,-186.75073373286008,82.1432989302825,254.1613600767871,238.6939680160786,50.42544046562189,0
419.0,1.163982,-80.3504137042065,-179.71873409667415,293.51229436352,264.9857858282936,299.2208101607212,56.96173316924094,0
420.0,1.16676,-259.157520511113,-153.2317984748055,400.6006134708013,205.75385449196037,371.9801745683863,1.2458446721105076,0
421.0,1.169538,-347.34966153154994,-110.42634100923772,417.515215925555,73.02059413603429,438.88850890388665,-126.4030714959624,0
422.0,1.172316,-346.76492141732444,-59.1047678061918,379.8847544256919,-74.31314940553165,480.6051129125078,-272.0319903958686,0
423.0,1.175094,-298.2346124307034,-23.07049783275624,316.97442547943285,-133.99479810198432,475.5155182554895,-331.8808196095588,0
424.0,1.177872,-230.9285813291152,-12.120935738653928,254.2700142825072,-54.614110879160926,424.8831045194586,-239.5169396737715,0
425.0,1.18065,-162.18616677428128,7.873265680279218,221.21066248535624,99.9475420159358,364.1820777065973,-31.888548459018725,0
426.0,1.183428,-120.78138829803288,72.51319923974478,228.97174436777576,206.4407587824008,332.67328238172195,180.8109999520728,0
427.0,1.186206,-129.30812264814614,148.9232349216404,248.7816389987657,199.0754147717476,337.8096357166013,302.74142124857593,0
428.0,1.188984,-164.3594647292157,147.01791158502155,240.5547917278779,120.78133870586032,356.2478792764359,310.09575931875054,0
429.0,1.191762,-168.96320834181896,10.255113844610747,204.98731929926447,67.25464728344177,362.01713204206027,243.81953870424852,0
430.0,1.19454,-121.9557750268836,-212.94817563335084,185.3864677489809,86.06906475090142,350.4951781005324,163.65824104583172,0
431.0,1.197318,-70.91953055342687,-384.9183333368935,211.79132072606288,128.91515411097365,340.4185073927399,106.0941294633329,0
432.0,1.200096,-71.0608551705262,-377.5200895714448,260.35215600074,106.96465312672662,353.6722562097123,70.97824673072452,0
433.0,1.202874,-107.01284332405083,-178.56746997686895,278.9043235629404,-10.434636630844537,391.8372680965647,38.483013496717774,0
434.0,1.205652,-107.23784262797986,96.99559662807312,243.4547412774895,-162.119247275053,435.1932923065215,0.6172993754738019,0
435.0,1.20843,-36.2487046668165,297.5392706976654,179.90220074367764,-251.25902720014795,465.3481060272391,-22.957043949958432,0
436.0,1.211208,55.20345294003035,324.7676074453556,136.82886017699016,-224.73654871989876,483.6497124209221,-6.144501469925487,0
437.0,1.213986,82.32520187697,165.31127129072047,146.76344512567,-112.37557048394312,505.274028995453,46.28378497480205,0
438.0,1.216764,11.987569397161518,-101.25223837885471,209.4748756149171,-4.3263343543255,539.4233577609098,92.48269611771416,0
439.0,1.219542,-110.43945099200792,-309.9144521363998,299.8897689050649,16.929424090723103,577.2049674219269,93.52526829299184,0
440.0,1.22232,-206.0011280814633,-290.2019951168777,385.5163848358477,-64.77303629955864,596.893134418433,60.01147365540184,0
441.0,1.225098,-227.2357432094649,-15.033892728077916,438.6046744929018,-196.09842092820355,580.8402301531793,49.55101130459626,0
442.0,1.227876,-186.85861209530884,325.6002989141152,440.5690278209976,-296.651891308623,526.7966222355967,104.03935162653032,0
443.0,1.230654,-130.93140043895386,462.2211062311132,388.7708846680775,-311.9118801350455,440.36579643553296,188.5201585152089,0
444.0,1.233432,-90.3944168975973,295.58916828927914,305.2352920213374,-249.286133902818,324.719020266802,210.4590529424372,0
445.0,1.23621,-65.69182561312338,-14.869627292313185,227.6437824576296,-169.2714036098887,195.37965987588325,113.89068357676588,0
446.0,1.238988,-55.46969608048636,-223.2301575790908,181.85703024150573,-130.98523108363577,98.67144930140218,-52.06731895576703,0
447.0,1.241766,-78.3328200145178,-218.56844644578743,166.7366222425217,-147.39551167170063,82.85202163404622,-170.56427833224916,0
448.0,1.244544,-148.23662042590192,-70.21210240615105,165.17115427696342,-196.0051620066424,142.24543687933527,-164.3239966406772,0
449.0,1.247322,-239.84142142290088,78.61612755598728,162.30028392359887,-254.54405573869784,214.4402924305161,-62.522249373808144,0
450.0,1.2501,-296.64168968690666,120.27335675547614,155.10581036509444,-309.729684909897,241.9920151317398,37.69476325133507,0
451.0,1.252878,-270.6188144173676,35.753183348694336,151.28695829553243,-344.1980057246968,221.36880863854327,68.91785338337445,0
452.0,1.255656,-157.50544215665138,-103.46067370786966,161.21527564755507,-339.82177916159,188.0166987037921,45.26542171119088,0
453.0,1.258434,-14.273115352877324,-194.8320883898891,192.03439187306705,-301.01046273868275,169.2366405790056,22.71267311718296,0
454.0,1.261212,66.04233591515994,-195.02868415428844,242.1758454322461,-260.035898592203,162.29472971662707,27.96538976888131,0
455.0,1.26399,30.380841202486494,-148.14206026633377,291.3380617907808,-248.16809699785972,153.0388343589191,38.60858865360211,0
456.0,1.266768,-81.93708540887405,-119.37482296243066,307.1539495076085,-271.55721136442145,140.85931150211488,25.371252663755463,0
457.0,1.269546,-183.01177669361684,-120.91525546850384,282.41921474685154,-318.4170702667145,136.8897576258136,-3.567564729729781,0
458.0,1.272324,-225.59705708867543,-113.97611382532054,260.45868893964894,-369.78400465450864,145.30750750137062,-11.857290162111012,0
459.0,1.275102,-230.66573474425812,-64.1455435910388,300.1850432579509,-400.74355671976673,157.7387088914549,14.588208931787989,0
460.0,1.27788,-235.49125312474848,25.34200535051185,409.7153030068989,-396.9606030364039,167.1001294601786,42.4242747638904,0
461.0,1.280658,-241.65638708871057,125.68372146679964,528.0144806067499,-375.1176116352308,178.70686873286218,28.131293072539307,0
462.0,1.283436,-226.67613883910695,201.08139666907675,579.8058387162928,-365.27392034132816,197.4899512571755,-28.63167927921508,0
463.0,1.286214,-190.90607453733344,215.35940166272712,541.8069357506515,-371.6429699049899,206.092824863021,-85.6887207036106,0
464.0,1.288992,-165.16677523986468,154.2787547553282,450.762630133976,-370.67104240650826,173.9954603039398,-107.60379802543144,0
465.0,1.29177,-162.52101126217136,57.77175415953887,356.68156384151723,-348.10557745181893,98.98506046044984,-93.37088006507048,0
466.0,1.294548,-145.6576432700938,6.085514611727461,281.7602584406623,-318.77524699180594,26.450907143414824,-57.0638617091078,0
467.0,1.297326,-72.17247328047304,50.72967472806117,225.64076578355332,-305.06870958129053,12.64465300462372,-11.081357135694027,0
468.0,1.300104,33.208818205925645,161.294097963992,196.19475465954991,-311.147852022111,70.48489230079801,21.994217451330016,0
469.0,1.302882,87.29132135399993,249.63108712867717,216.0961623012157,-326.99700065529464,155.00848594440447,13.177602705147294,0
470.0,1.30566,39.16349188551244,250.308073884279,291.94784367905163,-346.8154166871058,196.7916859773369,-32.44313756970781,0
471.0,1.308438,-75.80442378533274,179.20227624969652,389.5512192595639,-371.0304375100012,150.56309660896397,-58.47326162260691,0
472.0,1.311216,-181.27664272658825,114.1177604735198,456.43313304362925,-392.02152063306704,28.480852307320124,-11.131840524574043,0
473.0,1.313994,-231.40301308089528,121.96752881872207,470.0339327503737,-389.13805943990815,-97.30099646428329,90.33401189674296,0
474.0,1.316772,-227.93814176146984,207.9003994305118,454.5212636317965,-349.18792059258226,-135.61507455529917,159.332348481125,0
475.0,1.31955,-191.83015199691323,323.10644095395736,446.6893587825368,-292.7537141028184,-51.11764302525995,125.6788920969796,0
476.0,1.322328,-133.63743282824686,407.84400741471904,451.35833846930615,-267.08931627693744,93.06199562609928,1.4724885411970874,0
477.0,1.325106,-46.41818533786247,432.1199532594981,438.9297935857808,-301.3641107474147,186.97186283645257,-141.62884586798396,0
478.0,1.327884,76.2482915738409,403.3672637081861,386.1160988253591,-373.4769330697461,172.4975354958418,-241.63993974805348,0
479.0,1.330662,214.8724314191472,338.7586736975536,307.17975732702246,-429.7468358783055,77.81592066106158,-275.63550390713715,0
480.0,1.33344,317.2095093109398,248.75467680370764,243.3668876458608,-433.25204456271297,-32.610747787344,-240.8315271186759,0
481.0,1.336218,318.2060673433393,158.79503945951694,234.98787191404665,-387.0945685962217,-114.79127601707108,-145.81352242051997,0
482.0,1.338996,180.4363139998287,114.97064411776796,299.901296832711,-319.8244010753659,-163.4759208764205,-27.349125334074976,0
483.0,1.341774,-59.831358888721866,138.21299532216082,415.69668368931485,-260.6499393159801,-200.49863805697655,54.88262838356033,0
484.0,1.344552,-286.7950703293924,191.0306753204937,520.4603995846095,-224.1362990635091,-244.0471158221516,63.53511286414552,0
485.0,1.34733,-379.48520369452086,206.16962819043192,552.5465126388717,-206.8049283156861,-293.0831940067602,15.79678275120515,0
486.0,1.350108,-309.2586564638224,137.53603689576283,501.2181531079089,-197.8849475246353,-350.7593867757644,-41.39420625212128,0
487.0,1.352886,-151.15289105135184,-7.428196507197796,415.8820222752487,-195.01111091133288,-433.5076449073232,-78.96102017919276,0
488.0,1.355664,-2.853749616596824,-161.14588374045294,362.7534767518161,-201.6854593586376,-530.6915667199646,-97.31403827870342,0
489.0,1.358442,87.444442074307,-229.92460459312105,365.7976350702892,-210.4263831197484,-587.5506050333609,-103.31227191117556,0
490.0,1.36122,121.00153063099567,-162.89216576578383,381.65471531759454,-206.03149770759632,-563.2896101104857,-96.34819455556192,0
491.0,1.363998,111.85801914300846,4.01664400502527,336.7355008794574,-189.4495047389168,-483.8202662615956,-77.7837988630758,0
492.0,1.366776,72.00579840526316,177.54101154445704,200.91116417953,-178.9833436253501,-409.456756090796,-58.74189330825996,0
493.0,1.369554,22.943222615772584,279.80687255800524,27.38854219431306,-180.7155348602909,-373.1979649138624,-49.179649568182384,0
494.0,1.372332,-2.088794331093837,293.8540243931846,-85.11622629860227,-175.534874782224,-372.3482429328776,-46.111537372217725,0
495.0,1.37511,20.21029091556365,250.26557121001665,-75.48643344702705,-145.10800877095403,-395.16955290036,-41.55479425958933,0
496.0,1.377888,82.22134523741929,182.79621130581248,28.43322027118441,-100.29542595281862,-431.3182350841,-36.09119117358451,0
497.0,1.380666,152.34151485898366,103.9253539388054,140.39939574974,-75.0811473572711,-467.9319488029316,-37.37626444722383,0
498.0,1.383444,204.61121536364092,19.924973234474027,198.32394721612147,-92.14153733841376,-492.04690959438415,-49.35551565093203,0
499.0,1.386222,238.148633906153,-46.68104956208007,209.5065121976586,-136.4584287563288,-497.7712787242826,-64.70920512212298,0
500.0,1.389,262.9123286662846,-64.62906353294069,212.518812269706,-168.66318328701692,-489.5808275597201,-67.96633824823982,0
501.0,1.391778,272.72467397530085,-22.8393027962581,214.79841509790384,-168.7439445334691,-480.40881786237753,-52.50972821035796,0
502.0,1.394556,250.05858040349128,55.569624715815934,188.7387055044329,-157.3859111612917,-483.98174569144686,-33.32638715812315,0
503.0,1.397334,199.35492526615337,129.09490538181413,121.90342181824067,-163.1119773794178,-502.5451549562305,-33.27708321145023,0
504.0,1.400112,153.5823926625972,169.78166950633295,48.87487122983164,-180.84656125698223,-521.8243333405288,-57.44947553441691,0
505.0,1.40289,138.5221129104347,186.4120065055704,23.894183345913945,-183.00237263953915,-525.235760723039,-86.88064479032468,0
506.0,1.405668,149.27743690613562,214.12708225397984,65.23415628854625,-160.87058180083358,-514.4908387654816,-96.19243996802275,0
507.0,1.408446,171.00386817511475,270.6652638385474,132.3521591052761,-132.17453051560594,-509.699495233888,-77.37874936668625,0
508.0,1.411224,203.43389176654844,325.74287400825006,162.70658518813772,-114.22336101912316,-527.9688623529045,-47.96394018683163,0
509.0,1.414002,254.64064330038525,333.11131345296394,129.1833851583341,-108.33015138534118,-566.2801957864452,-30.89799817646116,0
510.0,1.4167800000000002,327.23007403684085,297.144477834774,55.94889822910741,-108.16690178523972,-606.4602667047392,-27.31664787711032,0
511.0,1.419558,419.0804337035668,280.7671698332249,-12.53915083156599,-111.80877616145403,-636.4061667070465,-21.433963862722745,0
512.0,1.422336,525.5628529551774,328.0248878290849,-43.969154060952846,-125.59712368588558,-665.7837778954702,-10.887530049098828,0
513.0,1.425114,633.2977628815239,401.5153802741917,-33.48155651588034,-157.97431480297055,-713.7085650363788,-11.82652310861594,0
514.0,1.427892,714.146277364619,421.7505256810308,-4.574350092876429,-203.31600483979744,-775.3226505581166,-28.60066481284421,0
515.0,1.43067,734.8844578784029,351.7223578077144,18.571129170038542,-231.38465347979,-812.9775557741257,-39.618475207158745,0
516.0,1.433448,688.2384745877117,223.1892068780375,45.48663575037952,-206.763750109648,-795.5287748674331,-27.336255463180198,0
517.0,1.436226,610.0967748140888,100.844016683497,95.95617631921908,-129.7289674700966,-734.4114327543904,-8.549887692587319,0
518.0,1.439004,542.3723910173428,43.227177883666286,135.07198995563704,-48.25290239167153,-662.0716774023771,-15.32424498227316,0
519.0,1.441782,481.2280331884732,82.95587524072207,79.5765592209992,-14.486462690534978,-593.2724856090438,-47.52640791984052,0
520.0,1.44456,386.7046734976006,217.69464022018124,-103.71380686078402,-33.44771426675871,-535.2183658742456,-64.82394666359266,0
521.0,1.447338,249.89304662898996,408.2101971622,-336.0435219436021,-68.1087716563115,-515.7665090574698,-36.35643172064369,0
522.0,1.450116,141.5465595181153,584.3600878269407,-479.3894475407112,-90.88167840697515,-564.6089890697833,17.586072201307942,0
523.0,1.452894,176.38969953915262,666.1372843486565,-435.27337891076553,-110.509440562997,-669.236475649033,50.48872360433417,0
524.0,1.455672,400.31279113493633,608.3087747126731,-208.0072221448652,-141.70322470183993,-773.667587524271,46.87554746327493,0
525.0,1.45845,709.8580553756881,444.6064739683657,87.80351596026819,-169.09608610484906,-823.9146097381671,36.91204955004595,0
526.0,1.461228,920.9665953222424,276.4937979736053,287.6824127019051,-164.5971335038824,-805.2633132819249,56.24936255879895,0
527.0,1.464006,937.8635083005512,194.9964935917119,291.8954809201616,-131.71934512800144,-742.8074075295937,104.63180475160748,0
528.0,1.466784,828.2369734773131,209.29989777417185,138.9922740419977,-105.86947865810968,-680.2081013980126,146.44790239365122,0
529.0,1.469562,721.735545734566,258.1406647949374,-40.90599408696994,-112.19056666251208,-653.719570236381,147.56699198423811,0
530.0,1.47234,675.5691633325858,282.8418909168145,-134.4895235660934,-147.96295470201403,-673.6634611913948,110.07589600451315,0
531.0,1.4751180000000002,660.1973121667435,279.4886570319704,-106.53720720220454,-203.807078033588,-723.7634854127393,66.9465615963817,0
532.0,1.477896,629.9124551471954,291.8206024808448,7.273791309875242,-273.56612989283803,-774.1189291763222,42.5151749596441,0
533.0,1.480674,566.6209815275348,369.4905021735639,138.68687279128216,-339.81119718101536,-795.3434125827755,29.94644004811746,0
534.0,1.483452,483.2165123872651,524.99390768879,232.066385459118,-374.4053796902136,-768.880761124844,12.132116481381871,0
535.0,1.48623,423.5100957192831,711.9698308501681,276.3922276884902,-365.7784641540317,-696.4879705275414,-8.67564950647754,0
536.0,1.489008,440.6048103432657,847.8582823455133,299.27711189258,-335.2296415685904,-604.9809068837402,-12.79990089147934,0
537.0,1.491786,543.2460798721497,876.588296392285,328.3796315400691,-315.35748308681906,-531.2219263832415,9.172634322059253,0
538.0,1.494564,677.0554245367448,812.7697963717752,359.7372959959196,-316.2045578241496,-491.3099915587334,39.35586839257742,0
539.0,1.497342,780.4926591943231,714.5425480205962,364.7191959518636,-321.8173726628944,-470.224575847508,49.43238245646856,0
540.0,1.50012,840.0623677901958,618.1397420836558,329.6711384967392,-314.3704389310345,-451.2849914738594,34.16654161784645,0
541.0,1.502898,868.9260945616303,515.3234737255916,288.3127042461461,-287.14271577159013,-448.84413734685313,19.744466880532656,0
542.0,1.505676,857.4003754007408,395.0289123848392,302.18453555845383,-239.4039236755838,-496.9563259656719,33.498046235755425,0
543.0,1.508454,780.686306567796,288.76693171841987,386.4518797807616,-181.92755740498083,-602.4156714570952,72.85686652691555,0
544.0,1.511232,643.0233914726899,258.82377442602524,456.03052581161234,-148.9297694434845,-718.1739942599829,113.08466182885316,0
545.0,1.51401,483.02817030243017,338.2604834407878,390.5374780134729,-175.20921404619017,-773.3370191313944,138.61388540920868,0
546.0,1.516788,343.0872898767643,488.3922142806595,184.98843411965092,-246.7682373235944,-729.9994903363215,150.6991968066445,0
547.0,1.519566,253.9433583561775,624.0612289798485,-5.075513843515637,-296.3473055207441,-606.5937537059893,145.71321311878555,0
548.0,1.522344,230.79357625455623,683.2970132710566,-16.788243863358332,-268.5841950078108,-458.8392689254528,108.32185731922404,0
549.0,1.525122,255.66326647654975,669.615359562882,151.2089878288961,-180.53305258444956,-355.1336206427959,37.63552889770001,0
550.0,1.5279,275.62475111214303,632.4475544226723,360.170055681225,-105.83478214664775,-346.7595824558162,-33.93029875187389,0
551.0,1.530678,245.9783789570327,617.8269144244442,476.6170481915888,-107.8284849497716,-422.0156003020349,-60.21135195125267,0
552.0,1.5334560000000002,177.62624874499252,633.6524628867493,450.5762942637792,-193.1397829956869,-500.4345416322452,-14.588771257388622,0
553.0,1.536234,131.28036809924347,649.7964373666667,302.7170859145829,-313.88929366270355,-508.42781240633633,96.15861104858894,0
554.0,1.539012,157.59893818894443,632.9757334085396,110.45671001597708,-404.5660972920707,-453.9324971482132,236.4852844863102,0
555.0,1.54179,239.75809228687336,582.764017747308,-10.433144931235518,-428.8280760900144,-402.2563237342836,354.409224323863,0
556.0,1.544568,301.50967692792926,521.8160261734897,18.49688148527315,-398.8538296220314,-395.3653385063318,402.3040398211034,0
557.0,1.547346,277.47496810016423,456.8044207589342,162.79383457303246,-347.1140955380118,-421.134362224108,361.0583100171788,0
558.0,1.550124,169.61992825244852,378.7118079916641,304.2061254458728,-289.0897585237932,-441.6288023744044,249.2490202053945,0
559.0,1.552902,37.83880634374796,303.47913347893893,350.4219628203557,-223.77831581334075,-422.4461229570731,108.45882593461246,0
560.0,1.55568,-49.60973176488402,275.373147826083,297.8756940523698,-157.36081870769664,-352.5698028731971,-19.309256735127533,0
561.0,1.558458,-59.345340153699695,314.902199088095,197.693780547738,-109.4752122670514,-264.27236143631904,-101.32091890687028,0
562.0,1.561236,-5.974762818396812,388.0202187391353,98.52649457070564,-97.56987191499935,-218.47582911070705,-116.45209948725628,0
563.0,1.564014,68.54598108492044,435.61428525532943,32.08187465214218,-120.87334423676153,-244.5309942528272,-69.74789309727748,0
564.0,1.566792,123.95965497798484,415.72806356383694,19.590047070659125,-158.79992254372502,-307.52271603290166,-6.032559132166476,0
565.0,1.56957,135.01672099034252,325.4059669603467,60.688288654674906,-182.70869771604163,-355.93590794349524,13.938464804073137,0
566.0,1.572348,106.986794591455,209.78337278515997,123.6161200627158,-172.5476565103806,-383.5920543828028,-33.63174897912874,0
567.0,1.575126,92.84607443787073,140.6350024205095,172.4750896527462,-132.01969443800908,-418.17151929765066,-112.1135735702514,0
568.0,1.577904,154.8912172794569,155.10408650030524,205.6459161001954,-90.50756473433906,-464.815503931464,-159.1427498736668,0
569.0,1.580682,274.6186368857928,218.82485263526556,242.1640020937861,-76.72641675044514,-494.3373624222935,-142.23212787373367,0
570.0,1.58346,333.627419218156,265.05048956435127,265.7370898631456,-81.80237582780265,-481.8559738672428,-83.92240466068816,0
571.0,1.586238,234.7708942965312,258.4739617167582,215.04444891388215,-63.70841984555669,-432.3498317878175,-40.12155298747323,0
572.0,1.589016,32.87429242951923,212.5703921814673,48.91635068854816,-3.2270638702315466,-372.8746671525706,-52.07088305825584,0
573.0,1.5917940000000002,-100.4289051267824,164.97965621090617,-196.17436992619204,58.50125754290248,-335.5758180564244,-111.20796920294734,0
574.0,1.594572,-44.280646296100656,150.40144402805817,-423.4666206292915,61.62308021256874,-339.3491444488946,-168.03540856598792,0
575.0,1.59735,169.01233295129822,185.16651490828588,-540.5875909412038,2.3734380150112147,-373.9228487700715,-178.73531066744735,0
576.0,1.600128,408.64318810785926,262.42054089319686,-513.7449096640916,-59.12428074182624,-408.8394999785687,-145.07720382137077,0
577.0,1.602906,561.2535838327823,357.9789906459022,-377.94099017451225,-68.81586356555434,-426.9518440539787,-106.17597141054613,0
578.0,1.605684,586.754672243281,444.5227047914477,-199.30515250841904,-29.04301522208491,-438.6066496912348,-91.34433935237772,0
579.0,1.608462,493.7656923290663,507.5580669377379,-30.509936860187143,28.522073970133484,-454.6052263283902,-89.4277458954991,0
580.0,1.61124,302.8250497119202,549.7228119715354,90.11278215107374,85.37959930131862,-462.0160627716986,-72.53659395353614,0
581.0,1.614018,60.34429015671972,577.2940106196032,118.02996759614209,131.30250889191353,-443.6873933851055,-43.15233649550215,0
582.0,1.616796,-136.59354548308696,587.2006319571029,25.035766205745404,148.44651694005705,-411.1505724921043,-36.79258744158203,0
583.0,1.619574,-191.45568309294663,574.2824408065276,-149.57679392834265,129.46284337023718,-400.2276975169815,-67.54790192347826,0
584.0,1.622352,-99.77179712701488,547.4651364373201,-303.7161917703776,91.0793885506217,-434.5295141736482,-91.37066403585644,0
585.0,1.62513,43.65429297606548,524.606297401183,-355.1221457283252,46.07659085299208,-502.6175323952352,-53.792353869482326,0
586.0,1.627908,129.1527039572225,505.37236949641664,-318.6051966449854,-16.98405156565588,-574.2074345929003,29.91375967446316,0
587.0,1.630686,105.54478101723396,466.1556743210447,-285.54018187827427,-100.285865013045,-634.0841907268712,77.64128706034839,0
588.0,1.633464,1.0511210554698494,400.43684624969904,-318.1352594428057,-160.8558823109081,-687.7531591487526,33.60850526173272,0
589.0,1.636242,-90.74070517038705,352.6358073653936,-379.97818400020856,-140.6102297948412,-729.9378285753837,-71.80152384715991,0
590.0,1.63902,-68.59354785583761,387.4167984552622,-388.5977799885734,-34.036245455154706,-729.7243598281616,-169.28530037103613,0
591.0,1.641798,88.33047291354066,526.6805913051135,-317.8444507953219,92.89973035791542,-667.5206480712171,-225.74022360405843,0
592.0,1.644576,286.70061165150696,728.0008013144168,-218.7863359158834,159.3785960234723,-573.8353995342521,-246.06452406735536,0
593.0,1.647354,399.37391194724427,910.00353909407,-150.71039757169467,138.5815803832598,-508.79262985632806,-225.90343628185792,0
594.0,1.6501320000000002,387.75456137302206,986.3655730675044,-125.6641639637798,66.69108787777668,-504.1292194345589,-148.26843985801142,0
595.0,1.65291,326.2662738967199,904.2598834343584,-126.3687227392988,-2.760134483740813,-538.8088571567303,-34.584817153638774,0
596.0,1.655688,300.5763220911113,684.1338836347375,-151.4483627736274,-36.2805807801382,-571.2088595769379,35.62934877343845,0
597.0,1.658466,307.3636418770711,418.4507744861836,-212.0061919840087,-23.06891782291188,-581.5165789920586,-11.673329066227184,0
598.0,1.661244,269.5473510167879,213.5045944760912,-280.23163571322715,27.274256338354892,-579.4847111714548,-160.88484462990724,0
599.0,1.664022,133.58226978901376,127.068506606339,-279.8580003829493,80.72024997880865,-584.029629021249,-304.44953496270466,0
600.0,1.6668,-59.058034104872974,152.9527026217575,-166.45343484627503,96.72755442305784,-601.5869984836778,-340.1330068421693,0
601.0,1.669578,-191.76982408392743,246.9083407599379,-4.330788994887968,68.76096474470815,-613.2814419434065,-272.97008993097444,0
602.0,1.672356,-175.50188024126646,365.7931960400074,75.60141282788791,38.18731436447828,-577.5789737881719,-210.2278776845413,0
603.0,1.675134,-38.9890495147414,499.71114495519873,-4.1563926551225165,50.380820705192015,-461.2948126937746,-246.93500547433183,0
604.0,1.677912,110.08717569190296,670.7594813623342,-218.6344385937705,97.11604324033334,-282.3824208846965,-366.98419045208,0
605.0,1.68069,205.24404981376543,876.1977840569065,-497.017182828189,121.90938783372836,-113.69963612478624,-473.5211256680343,0
606.0,1.683468,235.11402680171423,1015.8102212002289,-760.9451861999719,92.00341561906782,-29.248223565394326,-505.2185749915667,0
607.0,1.686246,149.69616060110326,916.515842340034,-888.4037677400487,44.61510471460938,-42.2338320838986,-489.75728240247656,0
608.0,1.689024,-112.9150276984933,505.9630537316773,-737.048680297084,39.58531109987895,-97.46055497579786,-479.971070519655,0
609.0,1.691802,-457.34024945266617,-31.886595952854265,-306.30307079953286,79.75202738726415,-125.13619186299064,-476.9627861280756,0
610.0,1.69458,-626.2102105912876,-359.78228150014934,160.14063638995526,110.31836382757064,-100.1260589794319,-444.2995888812093,0
611.0,1.697358,-465.348779179872,-289.8134845913896,350.0401599391872,96.36102801217024,-47.56062954308559,-378.4788159761221,0
612.0,1.700136,-109.77482141578056,64.1625424361809,182.9939076675611,63.63274428212594,-0.033106705616241,-328.20210873742144,0
613.0,1.702914,176.47247012276932,443.95479397836834,-134.35722807811982,47.17933014700101,36.43316406876725,-334.81991517970846,0
614.0,1.705692,273.3138859688977,680.097502947265,-355.9102709736924,36.1350057139069,74.73745765267562,-377.968873627029,0
615.0,1.7084700000000002,240.73607635828392,747.9126548669025,-419.5234849224002,2.470165251350608,119.2169584486814,-402.613571003562,0
616.0,1.711248,151.7535264162483,688.5308002578774,-416.74610678790486,-38.93117279449795,154.0571699488946,-391.1930630794687,0
617.0,1.714026,2.357891386416369,557.2013950980673,-436.46895126288393,-40.43518486463535,158.67531241749597,-384.0353847135935,0
618.0,1.716804,-209.37236868001065,418.3400880816799,-492.43340242654574,8.472270038128414,132.65589572507912,-421.8906963695045,0
619.0,1.719582,-398.8458957447185,322.37824005583536,-556.1110856454156,52.14182501637525,101.93172512758582,-485.8794389451805,0
620.0,1.72236,-441.9018614499579,280.29867358398985,-602.2871365626992,27.625179183446438,98.01135852004364,-510.957875673938,0
621.0,1.725138,-289.95750251349955,281.5815451760545,-621.2415127997588,-54.78737215726584,132.50699858170745,-456.8990837318422,0
622.0,1.727916,-8.596900107643663,317.12668545337533,-613.9152828902592,-113.3780007843747,190.22352781026825,-353.20173710575307,0
623.0,1.730694,293.20471392657635,357.54834807994524,-589.9675527251183,-91.2207310914342,240.45219242231187,-267.6828804747697,0
624.0,1.733472,537.6684369357491,336.64619423563533,-563.7707080456707,-29.41708763097088,255.59886732944275,-238.6257051554067,0
625.0,1.73625,662.9601008611195,209.78843462646495,-536.3949517457596,-16.44932243174594,232.1151832538264,-249.44180333073763,0
626.0,1.739028,573.7582972057933,40.07675362446725,-482.110989518712,-80.20795393321578,201.71732454489347,-268.29017470115906,0
627.0,1.741806,192.09638297527056,-14.670935797340803,-378.70896766373016,-164.1683612214776,210.27698046811764,-293.80007311466545,0
628.0,1.744584,-398.6690155236563,151.77245796667174,-264.4914657175462,-200.2291552510395,270.48881687551085,-345.7043505836132,0
629.0,1.747362,-913.0232169003162,454.8675167438766,-229.63499151143523,-169.62215332241502,339.9906193867497,-422.15451145862886,0
630.0,1.75014,-1053.7700091557804,659.9275863149828,-308.3738092996608,-98.61084218737707,359.676790904806,-492.3350774149153,0
631.0,1.752918,-768.8473800337808,590.0286752911775,-403.9261702392055,-33.00322850327023,311.37875791345743,-531.0374043847053,0
632.0,1.755696,-289.14516141596647,290.5391213541204,-384.9861094059819,-20.39617729586313,226.42411026858983,-537.2093717434742,0
633.0,1.758474,90.20657600324893,-23.89266981039341,-255.91246217023652,-82.43106394504713,144.93243831118505,-514.7775087846517,0
634.0,1.761252,240.64531375452697,-174.28762375449202,-165.39565610804937,-189.2221477866367,88.25796311289992,-460.2317192145968,0
635.0,1.76403,239.2564658101384,-153.14761469880094,-231.3358154220914,-278.1113707320843,71.86699745113485,-385.3667698966871,0
636.0,1.7668080000000002,242.53157020958253,-74.2164488883302,-412.939892735348,-304.5684054217824,120.68774936690023,-335.8099125820048,0
637.0,1.769586,334.0984570589371,-30.277147684858896,-576.5170580170883,-266.85271658031604,250.1116065727075,-359.6792214717676,0
638.0,1.772364,454.2768871992976,-22.795357603158138,-637.7884506770833,-193.6407143388748,430.5456567777441,-452.4605737194606,0
639.0,1.775142,455.5123339327759,-12.648023317987075,-606.6044502341111,-127.70689452596204,589.0809405329358,-550.9194447254276,0
640.0,1.77792,247.36984442016328,1.5397266777011964,-528.9834167702456,-108.07266080763728,663.287235464703,-592.5271221778601,0
641.0,1.780698,-91.79113237951368,-15.890136419296551,-436.81520175343,-142.1153744371037,645.1260793937147,-565.8539826724086,0
642.0,1.783476,-359.37876489168247,-70.73605791119569,-352.2434953586032,-196.41715453571024,563.3536480716708,-492.51937720836304,0
643.0,1.786254,-408.12336070777286,-113.45211012900435,-299.01685278297384,-224.1959845138973,451.5059135071507,-388.0560154731148,0
644.0,1.789032,-275.9608498455073,-97.47238827601592,-288.9634734975923,-197.87820587681085,356.3527067391243,-271.05777360767496,0
645.0,1.79181,-122.37688171526231,-36.297002114207366,-312.1649007182426,-120.45053550003628,340.07639892420497,-192.4532123977321,0
646.0,1.794588,-57.96219607555948,17.064973302171538,-348.5573956954503,-22.88720030641229,427.47613273249664,-212.86093592697205,0
647.0,1.797366,-67.28473929796401,27.70712010231593,-375.97491849267055,48.57521247363373,564.6976738971665,-337.79891826813565,0
648.0,1.800144,-76.31425179910389,-0.693283853407948,-366.943987369914,59.49329861329048,663.3549313628079,-492.3369636474257,0
649.0,1.802922,-42.84967571669603,-43.31058195664381,-302.4224905177974,14.32333691340142,681.7361650386638,-578.7514605113697,0
650.0,1.8057,25.846945641395216,-72.40641355091716,-201.22801432189988,-41.56276357293274,652.0220786263611,-565.2741417304151,0
651.0,1.808478,103.9089469847487,-70.81402411318047,-120.69293110656614,-55.12049245910357,638.339682691987,-508.0588402463287,0
652.0,1.811256,174.73529064221867,-46.471559257688014,-115.08341228691714,-13.307085493454917,671.4649946816402,-478.3188468376014,0
653.0,1.814034,245.409054560438,-31.982773663923894,-195.47659435953105,41.15698442007938,715.9250281474272,-482.5420199326781,0
654.0,1.816812,338.6653732706238,-56.32110671311053,-326.990386544075,49.13899491964976,706.3733639243798,-469.5824261347659,0
655.0,1.81959,448.17821897700907,-109.55026733230582,-451.4475695166539,-13.010284392927574,622.673547571664,-404.0380866741391,0
656.0,1.822368,492.9073648805463,-141.48036923732047,-510.1736538733182,-126.14337196030355,517.877731189885,-312.44480433639154,0
657.0,1.825146,343.1891821366754,-107.90474627212988,-462.458049464379,-255.0323573381116,468.7303066093122,-259.11071728662614,0
658.0,1.827924,-64.9211867552701,-25.258746080833262,-307.3069031325001,-362.3763347252648,509.6545904450593,-286.9810142623191,0
659.0,1.830702,-613.4533851324401,25.167859339809382,-103.65204348075488,-413.27658837867534,608.2124927301213,-378.2156513972027,0
660.0,1.83348,-1015.7768433104784,-36.611367461199634,39.57833916256425,-394.9501135546016,688.7582701219129,-467.7174635177637,0
661.0,1.836258,-1008.6768627858124,-206.1954945100408,28.90381326619955,-326.48038038100765,690.0678621872186,-501.96859603061296,0
662.0,1.839036,-583.860391947775,-387.6546485411485,-131.47304183264444,-234.7882171485656,616.1431293186272,-484.2646913433565,0
663.0,1.841814,-17.165441832827582,-484.5798624861512,-333.20848912254115,-135.737943588637,525.869246646854,-453.10763907752846,0
664.0,1.844592,362.60017733913423,-488.8150652452158,-454.2727407771649,-47.30540329569836,473.5865310629959,-426.8350721299017,0
665.0,1.84737,427.9619482505859,-466.1606168145806,-447.7358536802889,1.7976453103632224,472.2036553302036,-393.8474607913354,0
666.0,1.850148,286.7986233143262,-470.4741241456546,-347.9833934360974,-9.569878728096027,502.4949313138617,-350.770340447235,0
667.0,1.852926,130.42731501381138,-493.0895150738484,-226.1204746568648,-73.9896957408314,532.6142716363323,-314.33637846371937,0
668.0,1.855704,85.31716324097019,-492.1655438441144,-148.7617252139301,-149.62578230515118,532.3678546587378,-287.18994026239943,0
669.0,1.858482,158.49574154930485,-452.4187241214338,-146.22187624310538,-178.53230308946053,488.8131755118095,-244.29375574889264,0
670.0,1.86126,260.2311873977379,-403.0169459471276,-197.2491146731478,-132.68103767097568,412.7069711632112,-171.5535321309899,0
671.0,1.864038,278.508950437384,-379.741313371929,-249.37831318059676,-45.447631203638295,331.965994512729,-94.31536397649468,0
672.0,1.866816,159.3107209574414,-384.7249355446367,-258.5525845378444,19.522681487509946,284.7039286088686,-42.042960255451504,0
673.0,1.869594,-71.9145841526062,-387.5986619405815,-211.982303242016,29.878983418088268,304.6106132079981,1.425123512067243,0
674.0,1.872372,-348.74625777161054,-353.9715929525444,-128.92592877270727,5.291508232975559,388.039740274828,76.8083090781292,0
675.0,1.87515,-596.3263617591416,-278.5866926137772,-54.54987153929834,-12.82476342817838,475.4059260451929,175.19350281023233,0
676.0,1.877928,-727.2802054116336,-214.4472959973581,-45.11511030926553,0.9659549564955155,489.9000301578525,222.58411155683152,0
677.0,1.880706,-652.5475959895299,-256.03590503327194,-133.28485725684885,42.98786250494777,411.29275831097664,160.61663841522895,0
678.0,1.883484,-354.74379921636495,-445.79641170892114,-289.78758748524274,90.04000190014287,302.4036114820983,19.202655552757832,0
679.0,1.886262,46.50885865420199,-694.1072826441283,-427.55417550909135,113.13105070169576,247.78910271416956,-112.98134434779702,0
680.0,1.88904,362.1534199485856,-844.9940374808474,-466.1871863419653,88.48804069405752,271.04669522620674,-173.56913289070263,0
681.0,1.891818,494.4188149297406,-837.267228208387,-397.9839891775088,13.056732167436492,322.56254653993244,-164.36378969187666,0
682.0,1.894596,494.831866224202,-754.5888216508573,-283.07173062245494,-83.05090364549304,339.1543923792598,-121.88049852787825,0
683.0,1.897374,458.8348949528778,-706.8798248774942,-190.34775157059696,-148.30532505255525,302.86797954049104,-73.54851570670662,0
684.0,1.900152,413.8538623081504,-715.2620674217935,-156.25610025057,-144.34069433649142,247.3967417783256,-21.355003460919598,0
685.0,1.90293,324.1283308130703,-728.7080868387117,-180.08144129152777,-75.84865801210647,218.0659368322968,42.9813438094745,0
686.0,1.905708,160.97576499969634,-705.5328714412767,-229.10618488891504,8.277752569634004,226.8509299938405,114.27091206976966,0
687.0,1.908486,-56.93051260523189,-654.6523576637776,-254.7874643683777,46.97096898167122,245.46836932369163,172.08543831536642,0
688.0,1.911264,-269.622210825927,-624.0551751547421,-232.1053741912856,13.492758190038296,240.27525275602088,204.7251818006829,0
689.0,1.914042,-401.4537592172109,-664.0904031986738,-190.35980642315607,-59.60336413875345,207.8716088557832,227.74159714578963,0
690.0,1.91682,-399.02767661249385,-781.5894342320441,-189.29277554112008,-101.57736157464896,174.26253156690836,268.94747823706666,0
691.0,1.919598,-272.68145175749487,-913.9238390501904,-252.55585971126615,-59.604893081868255,158.7695979304113,333.0456362590704,0
692.0,1.922376,-100.7650515798822,-959.2085631369732,-330.9451018183012,51.22078644193222,138.48582353367732,390.0727427961947,0
693.0,1.925154,29.091692769018607,-852.9816294662559,-345.4974214311823,150.94956818834274,63.860143943039134,406.664054606426,0
694.0,1.927932,88.77888554116365,-628.6947276439275,-268.2062873762304,162.32968965304462,-66.67757125282408,380.790811799189,0
695.0,1.93071,107.76327395532448,-406.7689262401639,-149.69986010499932,84.90033971142792,-157.8191356301001,334.0772724476193,0
696.0,1.933488,112.3072059282628,-318.3238134710891,-69.60122105252563,-4.731234730667552,-86.50380841200888,280.8193944261164,0
697.0,1.936266,94.30914152787751,-419.2713247410006,-72.6188984388322,-28.17908651845368,159.82277218201176,227.2986267189143,0
698.0,1.939044,38.70426100259711,-652.4656763371951,-144.96525729888654,29.284440390488054,435.948128988792,196.81399114886045,0
699.0,1.941822,-46.0448892383031,-888.547665747991,-223.6464766548496,127.13266834540602,555.6764523659206,224.30762633265547,0
700.0,1.9446,-137.7169538820785,-1025.8012298380827,-212.59243719876247,218.99720433677084,458.1451200359381,312.53093812001094,0
701.0,1.947378,-230.62573948749107,-1069.0203149103518,-21.312373431133096,277.67184377656963,250.00219131083497,409.3861305912492,0
702.0,1.950156,-336.8866041744281,-1104.0102425647078,340.7542326444674,293.5656127035943,86.39513040852484,445.6413484986472,0
703.0,1.952934,-446.5162942940737,-1175.9175184829785,681.1583463408863,277.0171430874515,22.13882764646989,399.4107858248981,0
704.0,1.955712,-500.64726166382457,-1199.987601869129,712.2979282730877,253.716020620266,-13.052131922977589,319.13863711868095,0
705.0,1.95849,-433.7626884454403,-1038.8705567937511,315.3301988109728,238.45345454716423,-97.75161682329284,272.79365346112706,0
706.0,1.961268,-252.4889825130093,-690.35961552824,-294.8069598374344,217.62049059460165,-207.1286148070202,270.93979990224454,0
707.0,1.964046,-52.39086853652532,-346.5240390073528,-738.6052694325856,166.69315959588596,-248.6752917709365,254.2175377415905,0
708.0,1.966824,62.407122421798334,-220.41514189651133,-811.6796325636163,84.70548562112428,-187.90773173964303,171.3196327776379,0
709.0,1.969602,69.36818117771926,-348.7928436758029,-615.8505094135119,10.085048675459298,-89.94199097197261,57.8578046364202,0
710.0,1.97238,26.37568814619213,-598.9736781857767,-380.4968256121996,-3.704009566103224,-38.33188054552272,11.684807215165506,0
711.0,1.975158,-5.235044185750155,-820.0431921383413,-232.0573764877422,64.30439296294226,-49.88692491666959,86.51975378401713,0
712.0,1.977936,-13.31628326939969,-943.6579394390204,-143.00455552609878,183.62677726002647,-72.25694799037316,231.37864738182785,0
713.0,1.980714,-16.36787310144784,-981.3555674663676,-39.03759068417634,303.3522503378084,-46.02075648352828,343.63605642444656,0
714.0,1.983492,-21.76165750886299,-972.5083073907406,76.7619865597872,390.2302801220603,31.40835743281893,364.2411350111886,0
715.0,1.98627,-16.426979174810093,-927.8350774733932,102.43848671128052,432.1058913145756,101.2818001967306,309.9856554136544,0
716.0,1.989048,9.759544973657484,-823.3570716260688,-53.99478680990467,423.3986272236496,105.59310397725848,231.7403283194425,0
717.0,1.991826,42.211495098966665,-664.20521599323,-353.5412478631977,369.33499687581934,43.86518418336498,166.94927120366347,0
718.0,1.994604,47.47872747266811,-523.6503561646655,-635.0868834944898,298.5982388694107,-35.70840516827868,129.77680276296132,0
719.0,1.997382,3.5423316647915897,-476.7527963194727,-743.6198649550461,246.3063871849753,-80.17309026883498,119.23366757903852,0
720.0,2.00016,-73.72595219235406,-512.9340444279976,-649.0319948683652,221.95255396953783,-55.283504605606566,120.73668092180868,0
721.0,2.002938,-141.17470653697106,-555.7277179550007,-451.6153560583707,216.2413509630053,46.08003374738352,112.95102741212789,0
722.0,2.005716,-175.32887275799348,-560.9679011933392,-277.0569565119501,235.9424902369372,186.7388817947773,90.13921748194264,0
723.0,2.008494,-201.87545015900776,-557.24997969288,-166.17140157424475,298.31095820023336,290.4400554581668,74.38591668298676,0
724.0,2.011272,-260.7090573686856,-588.2234314071161,-71.6578491717907,386.2201643159653,301.10962157764686,94.89522583853764,0
725.0,2.01405,-340.8541320658292,-649.5648678410384,45.05599832377331,442.9459891727424,239.72083613384112,155.23412489342894,0
726.0,2.016828,-366.6120366829456,-698.6290414641675,144.9239724837925,428.3899453203616,179.53768228663097,225.20652549150327,0
727.0,2.019606,-266.7377158940619,-704.771636489317,160.53806192133555,360.7749245877761,166.41590167196944,266.1544808710139,0
728.0,2.022384,-70.02542852462699,-667.0092957211689,97.63646616059404,289.6224346692486,186.37470889409667,268.11800696611226,0
729.0,2.025162,80.8873017646865,-594.9089223611454,46.99859166397163,246.97261976122343,209.7804072075208,261.85594435466805,0
730.0,2.02794,45.147797552946514,-506.8611252226272,71.68735925345068,242.68280292791624,233.39749244415083,284.27479831929367,0
731.0,2.030718,-179.8283391440305,-448.4453473596876,109.13773128157752,287.89771714244097,259.79174085935915,336.4983153733892,0
732.0,2.033496,-455.7536161090797,-471.6040490359682,37.1642354811697,390.6990076265552,263.3680420831341,396.30271414471446,0
733.0,2.036274,-627.7328924862412,-576.8679383269416,-157.46864998575472,527.7231955078357,217.1879264451237,459.7329653336036,0
734.0,2.039052,-631.0653223493769,-701.8750685702249,-330.07670043374173,641.8898434082763,150.37238961851932,528.4443048618655,0
735.0,2.04183,-501.4904609238754,-777.2480303176503,-330.6379285906173,676.6014592768727,139.79386260684717,562.0123244120807,0
736.0,2.044608,-326.79360713488313,-775.5419495198935,-171.4271865312137,612.853773777631,227.3445006769296,500.89104587180367,0
737.0,2.047386,-191.42203047178143,-715.008161446749,-5.448329644653484,486.12619948573104,366.7135354389153,350.4249084364048,0
738.0,2.050164,-137.63478343751967,-643.231343437893,40.438770073384646,370.13703719355647,468.85287164644,195.25554445203653,0
739.0,2.0529420000000003,-159.9347961370773,-605.7460005636035,-25.822010110294958,320.5978657727737,485.6459075548232,112.4986904689918,0
740.0,2.05572,-227.30445326512904,-604.9429520251228,-107.2044413202189,322.1359188100145,435.0202012920847,101.71497130461736,0
741.0,2.058498,-301.8441439511208,-599.342133537206,-132.0098912092364,306.5380435199678,360.9268968277443,112.91636259552226,0
742.0,2.061276,-344.34366456052845,-556.6430062533424,-108.72387151951412,230.19250797229955,294.8361772932341,116.16551480854406,0
743.0,2.064054,-327.78025053072577,-490.1867303045175,-85.7154114085899,118.93885729310998,254.20223044323893,120.6629117859874,0
744.0,2.066832,-258.16321890509187,-436.01736079962575,-83.62885757529128,37.75028128809605,250.20929035262745,139.14615759943416,0
745.0,2.06961,-172.96094028938035,-419.2756380908596,-82.5619910415801,35.02521599692721,280.4477044411415,166.0843190751845,0
746.0,2.072388,-113.169458694743,-448.8899799629808,-62.4504590677816,113.64211618562088,323.51758259994693,196.26954368165892,0
747.0,2.075166,-100.94395458821664,-514.8479632447314,-25.87659811856204,234.1139341076382,351.9393765848912,234.38435135790212,0
748.0,2.077944,-137.99879004733157,-580.2478694452102,20.752318827794348,340.3329491420626,352.4464277505762,270.8183709742414,0
749.0,2.080722,-208.62199028933105,-600.5985468614958,78.5895616797014,394.28778915314535,337.67612369709565,273.8092595054701,0
750.0,2.0835,-281.82587126060827,-562.4815131382127,140.45703359857572,393.2671108300055,339.2382946088044,225.28012574540276,0
751.0,2.086278,-326.7579113121605,-491.4613688036797,187.86714503318208,358.17318001713056,379.0459779449838,149.20286768750958,0
752.0,2.089056,-333.34741260434214,-421.4389498436466,211.8949717839539,313.27221368090244,438.7857666446228,92.97095000428624,0
753.0,2.091834,-311.1967231365386,-368.1268361777443,219.53780030373824,276.2248127792976,465.3445433075726,90.55898548562377,0
754.0,2.094612,-271.1647354679293,-331.9283938666091,215.91799489168525,255.6101892976819,421.9567186462853,140.93710356631163,0
755.0,2.09739,-219.2911147886545,-314.7595222187396,195.59721265971817,251.12996971650324,334.997704665754,204.46948843995185,0
756.0,2.100168,-166.0517120994932,-323.40637268203045,157.55596782107327,255.9910033548114,274.49851893942,224.77968905207064,0
757.0,2.102946,-128.63119757923795,-351.0011730433338,119.73196879223572,255.07784913500964,281.8604162217147,176.0395060290052,0
758.0,2.105724,-120.94366474237329,-364.66071357443,108.94683875347116,223.2798268795758,329.4927144939215,90.04551238654633,0
759.0,2.108502,-145.35264407649964,-332.23234334465485,134.02600603173312,145.59150422912623,358.98127081451844,25.480714612513623,0
760.0,2.1112800000000003,-189.5540477036193,-260.25164564432345,171.5910510850518,48.185249714647306,347.3997001581706,13.035604669914694,0
761.0,2.114058,-225.77496828839557,-184.63490650954228,181.66841537902,-13.323576903013285,324.3024659549285,33.05275436902811,0
762.0,2.116836,-229.36379333511348,-135.44192772458848,146.57645606105035,-12.347922972006742,327.4702620889788,40.79759006066174,0
763.0,2.119614,-219.36035086068708,-143.45931568014433,105.16064436508304,19.34003954936736,356.09967838933585,12.78183087834878,0
764.0,2.122392,-262.2970680862159,-254.83453520727733,136.9115581956616,31.866071586970904,374.8737018699396,-31.25806141517303,0
765.0,2.12517,-398.7231072936904,-471.2950293237209,284.6311700712168,14.07853202540823,355.97215175271504,-51.88555067361983,0
766.0,2.127948,-572.5295325356014,-683.1860740619048,489.8064645225119,4.270533743049498,308.1075354919137,-27.34182157531083,0
767.0,2.130726,-667.2730226664905,-738.6940891496366,628.2199092222761,48.90223811433594,268.91503923736445,34.48938213267496,0
768.0,2.1335040000000003,-612.2575259087536,-596.640343282844,617.8394796997608,149.84713104670138,273.9568940593936,110.23321085565932,0
769.0,2.136282,-433.3076316682958,-360.8957912301194,478.9077419786596,254.6814817989596,325.6006535620558,181.08230145723329,0
770.0,2.13906,-213.66223963302977,-165.37501106142165,294.65535322984186,303.62052453468306,386.6934361305614,238.66977386211863,0
771.0,2.141838,-35.38457910809018,-78.83855224884786,142.8800211535587,281.51791204080286,410.23905643422177,272.2266502350059,0
772.0,2.144616,49.23245018813432,-112.9653678399319,71.07663621662142,223.01020583137404,379.0641609790964,263.4643063030744,0
773.0,2.147394,28.08687677623625,-246.99172396821956,101.57673320963364,174.63593053187287,317.86809256676656,204.83389276775716,0
774.0,2.150172,-66.54117947786892,-413.36072881518953,222.8060558860568,152.95676358933676,272.60497854007326,114.24478603306837,0
775.0,2.15295,-172.15114023558817,-505.21789317340114,375.0588709715432,137.142763893585,279.6754078196444,25.118012663165107,0
776.0,2.155728,-234.94674903104163,-446.88584264682913,475.4806729426847,103.03038768595724,345.62887278081,-35.87747858606071,0
777.0,2.158506,-252.77712288313865,-266.2311973081007,481.3620227883503,56.874773073662936,444.4734945551074,-61.954612087099335,0
778.0,2.161284,-278.2666436786052,-84.60544620283132,424.4952939613969,27.82553162466927,530.4298805884279,-57.24608815699372,0
779.0,2.164062,-358.9567395727331,-18.06011815788784,371.2838272440754,37.07633967339844,562.2937747610963,-18.884019172194694,0
780.0,2.16684,-468.8388182595732,-78.54489077811864,356.805591395675,83.23531032737958,528.2599051799613,60.14480838338928,0
781.0,2.1696180000000003,-520.1263779748689,-175.92191285270954,366.8265382150059,144.59120134251833,450.7138013177555,169.9520239974443,0
782.0,2.172396,-452.7027709779864,-216.09517986495305,367.3528212054025,184.83525304152164,366.6609077964449,274.9258739806136,0
783.0,2.175174,-296.442289788989,-182.54445937263603,334.6722769714154,169.8847256288007,305.47200906271723,326.58444969049646,0
784.0,2.177952,-139.64754662069788,-122.180018843251,270.6523688124299,94.23503945018795,279.4821921967406,293.03344149816184,0
785.0,2.18073,-53.57676521509984,-79.77548809780068,206.974177888597,-8.939333951483759,281.4149852086199,197.84912206737383,0
786.0,2.183508,-54.85785150439048,-63.94212938528676,186.66306252055756,-86.3775234831612,288.3976716153594,123.64869277693758,0
787.0,2.186286,-118.01772651813062,-58.23304011431304,227.32276895023432,-97.34224507261304,283.61703511270287,137.43500376764337,0
788.0,2.189064,-198.21766734022447,-44.5378508427266,302.6467922967917,-41.44785534150148,279.3361330984184,206.06967680318851,0
789.0,2.1918420000000003,-246.0965181583453,-19.71982704101803,364.0282246526096,35.46976929502654,302.1539818476119,225.76453129167876,0
790.0,2.19462,-227.67458104052525,7.587184627685175,380.3680550046582,72.22030267701211,348.650590983538,146.43087568128172,0
791.0,2.197398,-148.50698487475978,39.53082598766951,358.5824907104729,42.18096857774079,376.68838458889184,28.498556523038843,0
792.0,2.200176,-54.62083732204557,91.58952784612173,329.0508993060131,-29.708043719051204,357.525183458087,-37.11012113228233,0
793.0,2.202954,2.57837268207723,159.5623188507344,316.4271043924644,-100.83528841312544,319.83631981705935,-26.715461388051683,0
794.0,2.205732,6.340094157785153,206.58538133568263,328.5986310771745,-146.42732253386828,316.1193559939137,21.00845867818519,0
795.0,2.20851,-21.65641863629276,204.6485712079292,363.3567150224562,-157.15391217370222,352.29612433523863,73.61450822936564,0
796.0,2.211288,-53.23776077415601,174.1940489757201,406.9533316582492,-128.93551908801618,380.97480886458266,127.29776978267992,0
797.0,2.214066,-80.15946102454373,163.48994407688497,430.8578322879313,-76.91098839483638,366.1350212263772,170.7536537477754,0
798.0,2.216844,-106.87836035766192,198.3515142766224,416.42608152694606,-41.1627625199402,325.1780358932171,172.63465599301514,0
799.0,2.219622,-127.5955223123326,265.77917431304246,388.5260032005961,-53.639591656131465,301.8829682696936,123.47471350848858,0
800.0,2.2224,-122.08225644259372,332.7182923154385,399.3912824950647,-105.84099414616094,318.3347864797668,63.18743477629857,0
801.0,2.225178,-77.78983865058836,358.5262065097078,462.39948427681225,-161.30458830468518,353.44825099434286,46.12043772560869,0
802.0,2.2279560000000003,-12.362055457691788,302.9523367839092,517.1189459722202,-189.89179061515216,360.0547324749077,91.64690400210026,0
803.0,2.230734,32.041709088286765,161.77134963424754,482.69652849917713,-184.38084642737,313.4770355905754,175.19722914421706,0
804.0,2.233512,20.247229153296537,-1.858508008589176,347.49630466969984,-159.49544391459534,245.03768671719055,250.80253356145147,0
805.0,2.23629,-45.8104979399259,-96.41696375354776,188.7791196737084,-140.28117224913854,213.4544426373284,282.2754033389714,0
806.0,2.239068,-122.84812121127422,-79.28711663650304,96.21985087242344,-136.31510703057663,248.64553429954557,271.64735403254303,0
807.0,2.241846,-158.35316880014554,24.213574666454768,93.73821652351393,-122.05455181383712,338.6513179660501,260.01183625712287,0
808.0,2.244624,-139.1199506356716,164.3345956937785,146.1533389971867,-52.75569406954857,459.4413365290868,294.76999421538056,0
809.0,2.247402,-103.6979901492866,300.3221390620338,213.7891746009424,96.31900273024584,596.401827172949,396.071789235997,0
810.0,2.2501800000000003,-94.73950652842164,403.29660265432665,272.7493667693176,308.1685506601593,739.6903869876176,545.2157847011686,0
811.0,2.252958,-106.92802615291792,457.7240891829442,302.130893912047,536.5473994601525,874.6092716185794,693.2607655643253,0
812.0,2.255736,-99.65234191072489,466.6851575366189,289.12935252307886,732.9665439445951,985.9708501787038,784.1665540421908,0
813.0,2.258514,-56.5175533293521,448.3569420757317,249.54246069303423,857.9636031384389,1069.301903205713,783.1952181551719,0
814.0,2.261292,-12.597629892091206,423.2266604896921,224.45731595963323,874.1416558415935,1124.4184540211338,698.3007457503234,0
815.0,2.26407,-14.729926479374278,399.0658239421296,249.58825803265532,753.8841749316709,1132.5792808715255,579.3179405206209,0
816.0,2.266848,-59.21782344457084,366.75693662661246,325.74916884590004,514.5904041429567,1054.5883820656704,485.7332967833391,0
817.0,2.269626,-79.5132830225588,319.3109607371392,414.3352228620385,233.46972547971856,867.0123592002949,444.05826277551336,0
818.0,2.272404,-12.00297852229393,278.33105000326964,466.08913508238766,-0.6234336675154921,598.5878993220266,432.4724781730815,0
819.0,2.275182,121.47895714272656,291.7611748431356,464.7686475191748,-164.11814555999445,314.2467564050984,394.44581139037007,0
820.0,2.27796,218.01427622837485,396.23934151248574,441.98876384503967,-345.56162483843093,38.76861645753552,245.7570549223328,0
821.0,2.280738,198.74478948316585,582.7157432057528,440.32284820585727,-749.7205483037529,-328.8138037314636,-134.43998033707408,0
822.0,2.283516,94.98277539585308,796.8207214113927,462.8524941913898,-1625.5633717236458,-1014.2094129898774,-866.8890613243393,0
823.0,2.2862940000000003,11.554092723035325,952.2791280725324,470.6774594800091,-3013.4298984588354,-2175.6343433237003,-1902.110434493288,0
824.0,2.289072,21.388245026091568,938.9233162797672,433.5714076513687,-4396.588144966486,-3561.022085386903,-2797.8025135463686,0
825.0,2.29185,115.67756928260884,676.4279816981473,371.44068116527615,-4753.76496114147,-4370.312540229304,-2813.1268763402704,0
826.0,2.294628,237.3603683978216,231.83380141616135,334.6511313916322,-3362.0714116608897,-3732.759565130393,-1542.8338749386296,0
827.0,2.297406,334.8685155896087,-144.36463853554295,347.29598106420667,-687.3105846312416,-1572.9508001251518,474.3662730032931,0
828.0,2.300184,388.97444720724457,-197.6283551957593,382.1565513098769,1810.1401928391908,1074.8266067657703,2059.786693348619,0
829.0,2.302962,408.0694669150397,94.38786574093535,395.03324016099526,2927.692805892208,2833.291226901348,2444.413248293743,0
830.0,2.30574,406.1614429708943,514.9743395865985,373.965973247508,2617.827001999832,3090.4752351492443,1849.7245429349373,0
831.0,2.3085180000000003,390.5701401691484,826.876181322255,344.7151187238037,1657.3039751931142,2304.0965010866707,1022.296544738272,0
832.0,2.311296,371.2600355637931,948.182783338166,330.52455843327056,774.5098665075961,1348.7350520484254,469.04464964914894,0
833.0,2.314074,364.1971932948807,938.6464873992684,318.52613401173824,235.40434820135107,748.2437726334165,236.2984283146483,0
834.0,2.316852,368.58605842827626,890.3619076268587,274.7570054132169,-12.78347046800964,496.8197981794248,174.2383431172107,0
835.0,2.31963,349.3856856359962,854.0614268256891,192.69612706661889,-96.13070730537392,371.1812253735004,178.03365861535517,0
836.0,2.322408,257.77108970492725,827.2654337179736,122.43024481343411,-105.95530102396502,235.49342502587032,213.10334588310155,0
837.0,2.325186,70.76340773234998,775.2553568254718,143.50202204765282,-83.05548177562979,95.65368269887443,262.4546358034062,0
838.0,2.327964,-181.52291816526264,669.0645298354699,294.7129152442828,-40.08070706831454,11.441611478973384,301.5157532446691,0
839.0,2.330742,-406.055430584589,522.6968749173594,521.1164851255226,-0.2983527062735831,15.035679284237396,295.7082695202696,0
840.0,2.33352,-468.20902735942747,394.65412779442295,697.6362242585174,-6.298153773675907,74.47587812762853,219.296198071082,0
841.0,2.336298,-274.21375755859333,340.86362364045624,721.2509992815551,-81.18245759315728,112.41170167633936,90.80186449105378,0
842.0,2.339076,123.13506412141588,363.89159141312473,590.5516028546083,-194.07417570808724,76.11523578059429,-26.53442999779344,0
843.0,2.341854,517.6877314793115,417.6744460413664,397.9997613121639,-276.417499394271,-10.181546947698454,-76.0875595050506,0
844.0,2.3446320000000003,692.8319233703766,459.7994398083205,244.87125656684947,-270.4584753494336,-74.5296030068839,-48.50793862899073,0
845.0,2.34741,589.0470032435895,484.5349950700559,163.7744336037294,-166.23268091351525,-72.29805881441206,27.6909241721938,0
846.0,2.350188,336.18255344976336,506.0849088797344,120.8129154655395,-5.166909452158541,-19.148729004262268,114.92406608834855,0
847.0,2.352966,139.75655899271788,532.6857210251225,80.10137805768322,145.87374706023465,43.14428222249266,183.82762709098145,0
848.0,2.355744,139.03930175207742,567.7435872571702,44.240137332716905,227.62781473346547,90.70327475366544,216.8200655641845,0
849.0,2.358522,339.00526348159406,618.5417969273875,24.55021655146152,205.5115974998,118.38134599088656,198.31236737494092,0
850.0,2.3613,631.7192668231373,686.7917692324426,1.223312875326462,74.97645991625609,116.16307379790302,107.47021588247956,0
851.0,2.364078,868.7046957097987,753.4027655030874,-51.95239668905631,-127.31798719772114,70.11416000014734,-56.69268375592495,0
852.0,2.3668560000000003,938.7774058512,781.4337161992571,-114.02342806990652,-322.076629347573,-15.565444652868678,-240.8499056645835,0
853.0,2.369634,810.855949137288,739.0246147273019,-120.3481281212804,-425.7582602234335,-116.75450046019662,-358.18114606213635,0
854.0,2.372412,523.7268066798928,623.1600736383531,-15.238348462410755,-406.9610166358044,-208.44932234362184,-359.306742341666,0
855.0,2.37519,154.59604979373438,465.8239988451701,211.67338746160107,-305.15560739896364,-273.1461365864822,-273.82761944461686,0
856.0,2.377968,-194.29684028589807,319.4709554630543,512.6130865784735,-197.9792770240888,-299.7413041210631,-181.39263866680773,0
857.0,2.3807460000000003,-410.8886279745555,228.63759893792184,781.1209783173974,-148.52909099283775,-293.5063893708385,-145.50357147851383,0
858.0,2.383524,-423.30769874994536,202.5083029119222,896.2115468243951,-167.96047990211284,-284.71546561116514,-165.58503442333978,0
859.0,2.386302,-249.75632416068623,211.9061296621554,808.3516449434667,-217.22116263990335,-309.88680275546204,-186.9644748760549,0
860.0,2.38908,10.504894732501723,219.39687822244596,582.9881652948114,-244.6541650996826,-377.8546755706088,-162.1434131570404,0
861.0,2.391858,241.25733350256613,215.805268351467,344.047012808464,-223.68770357175347,-457.3380797740537,-101.35330531734792,0
862.0,2.394636,376.0267147412925,226.77233656606424,173.58857400590009,-161.0163462091288,-496.64135102027154,-60.45180302998431,0
863.0,2.397414,426.3661453264315,284.699516240507,69.4571403383735,-82.52973286541894,-459.3079410516215,-84.6425075159921,0
864.0,2.400192,456.6530392536863,392.2263310743469,-9.361120127197909,-18.47045004723173,-357.6042839653348,-162.41456268962236,0
865.0,2.4029700000000003,514.4286062626668,505.333980029228,-72.57187614149217,6.675826801520103,-257.98042955586016,-226.3192705221386,0
866.0,2.405748,568.301541652925,552.1171398619516,-80.67645783810661,-14.858326015153295,-234.54928276488755,-205.28773476513595,0
867.0,2.408526,525.7780545408365,484.0080639847936,5.73008845905936,-64.16107543009919,-297.5720156941136,-91.1932403035191,0
868.0,2.411304,334.56455217675443,325.12760087819504,162.26562204883655,-101.39632014395504,-374.0628479826535,44.43571824250705,0
869.0,2.414082,66.96562932570316,170.25056422598607,293.2125708858616,-94.38611245164655,-376.3937153555543,109.61662354341162,0
870.0,2.41686,-115.3159120394202,117.58709651385142,301.93957327469576,-46.693158587093,-291.1251787770892,74.18190483958101,0
871.0,2.419638,-98.1488998340266,190.67749712971496,177.7533669115126,5.402700679881406,-188.1847046743912,-10.20482976071522,0
872.0,2.422416,77.68946838077514,324.861276371089,9.808103786807266,25.0189090108658,-142.0198839089125,-75.0035859919785,0
873.0,2.4251940000000003,252.729533179723,423.1528875111397,-86.54175176889933,4.403394633135672,-162.24934025934715,-106.11180960159574,0
874.0,2.427972,295.0374479059734,416.41588052818537,-55.70794050867545,-34.57967699568217,-209.07585285534205,-135.08355304497513,0
875.0,2.43075,200.09641786931087,289.71355359713505,73.8458758093603,-64.99337877163224,-250.5444060941553,-172.65424795694946,0
876.0,2.433528,51.423944222033455,85.6859350134712,229.04971921317767,-74.26289395636371,-280.9640133782607,-179.0427152321588,0
877.0,2.436306,-74.52958576623676,-114.78674291980876,344.91145704397206,-61.72200994462453,-299.0414737905597,-106.3308920448758,0
878.0,2.4390840000000003,-131.07973209846074,-235.9332398671448,384.977971896776,-32.34908625654496,-298.09514618633426,43.762639382643314,0
879.0,2.441862,-68.40230940704016,-240.39527787386075,327.8022041369636,-3.06710679499664,-280.3457341049911,209.01554386345688,0
880.0,2.44464,144.97799476338065,-130.66208816410034,160.96000637610985,-2.633030057120152,-262.4313740800329,306.2478190348428,0
881.0,2.447418,451.9265721702729,53.879082161897486,-88.8183760188701,-45.28149216043683,-260.90359021032646,286.8834733366295,0
882.0,2.450196,709.4675358642562,232.3131599353046,-332.2394144922416,-105.00494422506856,-278.69159727293214,170.30125000431934,0
883.0,2.452974,796.9100996986592,309.1213994942159,-462.7364601455073,-132.90919038451355,-305.9741778628039,30.792555925947056,0
884.0,2.455752,718.2928608012643,238.93578927991723,-441.37268042386006,-104.84729689648896,-337.6532120756535,-48.80028565392234,0
885.0,2.45853,589.1436357345578,62.61582334500403,-323.64095607758253,-42.41900299772928,-394.0546343454974,-22.43220742046869,0
886.0,2.4613080000000003,515.5407698048117,-124.72016035885396,-199.3846583780466,14.077046558750377,-502.24855772268194,91.51684223398368,0
887.0,2.464086,495.93797750388137,-233.58709656759885,-121.16006880117502,44.91505862347733,-639.782362516981,216.57063783014175,0
888.0,2.466864,462.5120111579878,-226.7174247719342,-90.79971297575273,60.653032554581735,-731.6465438181511,277.05723370510395,0
889.0,2.469642,393.0522780060933,-140.20221401399348,-90.00273385262196,76.71712547162133,-733.1375308955505,264.923207237562,0
890.0,2.47242,327.5361431974052,-54.42832806957648,-102.64044004850685,87.06723837293734,-682.5203377345724,230.90575949382475,0
891.0,2.475198,291.68304135386296,-19.806553945932933,-114.81334199794075,73.22418279231437,-645.8460376404773,212.66956333219832,0
892.0,2.477976,269.2350440667841,-19.365137929705188,-115.7272720344182,33.34089680805274,-642.9231656100012,199.9889753915205,0
893.0,2.480754,246.52822958163907,-16.983764450568714,-107.24293552112567,-15.328555444946415,-645.5527101300288,165.97608575975647,0
894.0,2.4835320000000003,236.93885395506555,-15.38036634603452,-106.1546327270192,-59.084799086680064,-622.3279687121542,103.13725330136396,0
895.0,2.48631,257.6491737952206,-42.82468794645806,-131.0661337438484,-92.91875737068972,-574.7395196037476,31.254800958812,0
896.0,2.489088,299.5252855921232,-103.32276159334327,-183.2030947223216,-106.35441799035029,-537.3599159210145,-10.978712331160366,0
897.0,2.491866,322.54978735291354,-165.41101431389166,-237.71619454978375,-86.6139731184166,-538.552716592284,7.777906189263845,0
898.0,2.494644,290.94180120987124,-194.94394228339405,-259.4799206353132,-38.83148982870822,-566.3611760437742,77.05120729867019,0
899.0,2.4974220000000003,220.7826679845839,-184.0212342949063,-237.07842657997168,14.546235628877042,-590.1007704449501,148.9573648055392,0
900.0,2.5002,180.2342714171602,-145.491712711079,-201.4594346905699,59.61547681356947,-604.6129804758631,187.98300265108293,0
901.0,2.502978,233.92847620595904,-86.18622566386395,-202.38146821172936,99.488137328119,-625.9674208816341,197.48240874670608,0
902.0,2.505756,387.52849423455694,4.674650938046419,-260.33273867128605,128.3278618327986,-649.6345545611673,188.01998665706816,0
903.0,2.508534,573.0936224881215,132.85516572470607,-339.8865790084621,118.63413443701778,-642.8611635375182,150.88809792430018,0
904.0,2.511312,672.3323273130502,264.68650322896616,-367.55245702316034,55.70770676107181,-583.3541945182124,85.47062002086439,0
905.0,2.51409,571.0886372455651,325.077671389892,-279.270535799856,-30.155922914609476,-488.0230407775714,26.85882684574011,0
906.0,2.516868,245.1797211190261,250.3655750832845,-73.22253766386237,-87.76786336221248,-398.6135577058842,18.31068178072585,0
907.0,2.5196460000000003,-165.93728284008253,57.66370645243163,161.6794663130203,-92.10076048126288,-349.49996987230656,66.91816981773084,0
908.0,2.522424,-406.6700635818048,-152.0920634609816,286.4036087158938,-55.89161705135407,-354.64135305939726,140.2582324636827,0
909.0,2.525202,-310.1769348657295,-279.2027731069247,219.7068206913818,-8.613580693420992,-414.4399485782431,196.33457459306788,0
910.0,2.52798,27.642964988419266,-302.3720492544271,12.293244568846037,27.20406967560896,-518.3098349968429,211.94770618052715,0
911.0,2.530758,335.2287307992827,-261.4300072557019,-202.96057171511,51.39124517686449,-642.1491279614095,194.7827281595885,0
912.0,2.533536,433.2959156414878,-193.71794708373037,-330.0693661144086,82.35904264297221,-757.613135219847,173.69279873882266,0
913.0,2.536314,362.3679456742227,-114.34806710473644,-369.98224674595616,128.79742483214096,-839.7534240229395,174.28943496616438,0
914.0,2.539092,259.1362670398984,-35.991374964671465,-379.0011649982205,168.4665603388573,-861.135821986651,203.4008737720024,0
915.0,2.5418700000000003,196.6636187796101,27.955555848391267,-391.0547993624692,165.4794650168725,-802.5381558492427,247.29974747676573,0
916.0,2.544648,167.08415282349137,80.2988636574564,-389.6712980552117,105.08256071347864,-683.1419958098653,272.61237624221764,0
917.0,2.547426,148.09115508162893,136.24896400506944,-351.5904673829805,6.1095490169987485,-560.8564011249641,241.3858153220689,0
918.0,2.550204,139.6565805409168,190.3959305062754,-296.9687147816832,-92.41316862886045,-491.3329230397075,148.6305846334962,0
919.0,2.552982,153.98753270744388,201.59663107207575,-274.1286571619837,-151.06148543101602,-492.20097272502414,42.54590245514038,0
920.0,2.5557600000000003,191.49695102290667,134.24372249870197,-300.9659737251208,-150.00298839714688,-542.8016460476144,-13.458280297256188,0
921.0,2.558538,230.06759193429087,16.25403800277056,-345.32592491506847,-105.29457100842006,-607.1912179256706,-1.8334329386375143,0
922.0,2.561316,241.4995549367417,-67.40201463965882,-365.105417796703,-60.98227893548319,-653.8603438088192,38.95224450440591,0
