Frame,Time,RightHand_Accel_X,RightHand_Accel_Y,RightHand_Accel_Z,LeftHand_Accel_X,LeftHand_Accel_Y,LeftHand_Accel_Z,Label
1.0,0.016667,211.8479964934429,-2.004286433821899,37.9363430534718,-87.4260366156324,23.301276542900563,64.80314934857303,0
2.0,0.033334,220.19217871162937,4.368547040335693,31.166668215357948,-90.18681472747376,58.64753717479171,14.28994710342312,0
3.0,0.050001,226.97414797684496,13.272816915089397,28.22523319565324,-87.85454628483399,94.3825731342116,-44.25573190357636,0
4.0,0.066668,225.85794686741968,22.610427134323317,30.554707621200254,-83.78740614642338,116.44469881707406,-92.46447018858068,0
5.0,0.083335,209.79751661569875,29.79374222899453,34.997450709363264,-85.58736820534726,119.39321669057112,-120.10534485342085,0
6.0,0.100002,176.51908039155683,33.2157457232866,36.29200106103484,-97.20829950077352,108.52773053988122,-129.73890047782118,0
7.0,0.116669,133.7003046389288,34.11127481303494,31.03599035540323,-114.90199951705192,93.6365697362227,-130.5350368326141,0
8.0,0.133336,95.20583361116871,36.90280914639436,20.635270320920696,-131.42202417560816,81.9752336362387,-130.6401512745455,0
9.0,0.150003,70.07648306790821,45.41841119409604,10.66603631388664,-143.05434271460052,75.60033305404177,-133.76181774087655,0
10.0,0.16667,56.66489383253132,57.81376570515599,6.415427142185992,-151.0474596810085,72.40312399126819,-139.28869558106743,0
11.0,0.183337,47.69306482040035,66.75999731314276,8.724380914310025,-157.25788372752066,68.79702510859512,-144.885286072332,0
12.0,0.200004,38.18145895839525,65.21875201579833,13.984841680434716,-160.8248567208513,61.95898961888747,-149.46001175701235,0
13.0,0.216671,27.58003520988141,51.19431280017689,17.49665437199218,-159.3223811199002,50.02933925027003,-153.50102103827672,0
14.0,0.233338,17.087628442284576,27.726924487301822,16.990945878124297,-151.7493498843348,31.484566558742834,-157.30456339576716,0
15.0,0.250005,7.083527834591763,0.6200430048278704,13.702177036095968,-139.96561476365727,6.311909805410018,-160.31475260837317,0
16.0,0.266672,-3.539550254886902,-23.736718836837404,10.26858618228551,-127.80424169877897,-21.80334428645069,-162.0348551008363,0
17.0,0.283339,-16.68388823439328,-41.18065935381237,7.846275085853675,-119.18699816999565,-46.21423134346949,-162.20907337311476,0
18.0,0.300006,-33.70027609371334,-52.321063424987685,5.595918236300999,-116.79463716851744,-61.731271556312194,-159.86974545252104,0
19.0,0.316673,-54.06537770514768,-61.20586706782237,1.939511451668441,-121.20491630608272,-68.06566864070773,-153.69718480568676,0
20.0,0.33334,-74.7823319364631,-70.41144835702973,-4.880136035419147,-129.90252462872115,-68.47369399908655,-144.42709686888568,0
21.0,0.350007,-90.83887271278245,-78.06915957674124,-15.722450308758011,-137.80780882714882,-65.92545798531964,-135.70608702429172,0
22.0,0.366674,-96.65799743621425,-79.71256889533743,-27.152881567486244,-141.06843893562214,-61.50367936404629,-130.65074088894698,0
23.0,0.383341,-88.65328329036097,-72.25625637101854,-30.42331639534305,-141.0374221567049,-55.53335496707244,-127.91934177547682,0
24.0,0.400008,-68.66183444336086,-56.98919802972426,-18.520297187676515,-143.1016957739276,-48.43741674645081,-123.05958767859084,0
25.0,0.416675,-45.285541470044905,-39.75166448321048,4.857225214777738,-151.13149298742184,-40.22602637245155,-113.70484303659654,0
26.0,0.433342,-29.26771072836128,-27.147941538504984,27.13830426112745,-164.00681171165445,-30.22816209907212,-101.83662527050612,0
27.0,0.450009,-25.58934012906668,-21.75092127495792,38.66896419363903,-177.0747777903282,-18.2515726390826,-90.88459274308872,0
28.0,0.466676,-30.54285949319781,-21.736670500459983,39.85376629452808,-185.50011885934344,-6.359965923001454,-81.98681239412412,0
29.0,0.483343,-36.447817371010736,-24.380546846148448,36.98065132941182,-186.651990892526,1.2166271415782308,-73.57443477221776,0
30.0,0.5000100000000001,-38.235575072293045,-27.58878650462833,34.78972798000531,-180.85245622568655,1.370847386897727,-63.81100965864949,0
31.0,0.516677,-35.91663830313774,-28.41107177082567,34.075332196188654,-170.04925950953222,-4.533788722042499,-52.63383889299759,0
32.0,0.533344,-32.191971014502755,-23.06747623586064,33.8020427878911,-155.3783338820697,-11.583031057536786,-41.69236184643658,0
33.0,0.550011,-28.99564763797301,-9.856645698041651,33.25203920456019,-136.54789911815158,-15.358311400179556,-33.210875273224545,0
34.0,0.566678,-26.71302953353857,8.829996770576022,32.22741314704591,-113.8004273049201,-14.225045433351388,-28.767655593104354,0
35.0,0.583345,-25.39047306057152,28.093390047983164,30.47569856620673,-89.20452781366423,-8.40734379494462,-28.069568969176125,0
36.0,0.600012,-25.15259961473953,44.30249770088104,27.61679034444323,-65.14834278413747,1.624199459258671,-28.86721290816297,0
37.0,0.6166790000000001,-25.77276146713997,57.50028095087978,23.431384905934625,-42.45361947534264,15.468191459421206,-28.94449218748953,0
38.0,0.6333460000000001,-26.983641104944923,69.7962380808878,18.10351719349004,-20.72722372213924,31.862186507741765,-27.99460343406837,0
39.0,0.6500130000000001,-29.06140955206987,81.30574626918968,12.548290881351782,0.3344799965918767,47.878026251765874,-26.841931288135285,0
40.0,0.66668,-32.15573252886638,88.57028760658963,8.716852828169621,20.853227029638816,60.04653783813379,-25.401897793962576,0
41.0,0.683347,-34.88255959482501,87.60882681407324,9.060051645511455,41.23645081948513,67.0691778764367,-22.36380328542753,0
42.0,0.700014,-34.436864213519314,78.30931662449433,14.534721996785484,61.86791018410501,70.81177754846682,-16.809573349287923,0
43.0,0.716681,-28.90122223212653,65.53731369708476,22.508039766429636,82.72823860340846,73.63807055851217,-9.830385896046836,0
44.0,0.7333480000000001,-19.212687703932968,55.47663896034335,27.92406109333456,103.88834928419774,75.1624882958537,-4.728087114661366,0
45.0,0.7500150000000001,-8.315641380387833,50.4081068233268,28.336508349363427,126.08201731893926,72.71415631285367,-5.710982521913348,0
46.0,0.7666820000000001,1.478136231513434,47.32367472438481,27.24950311659848,150.2645103779931,64.67498703511288,-15.988809383461383,0
47.0,0.7833490000000001,10.26301025756094,41.783293544700925,30.96101417107191,176.33221661053577,52.07095930082743,-35.88410650902001,0
48.0,0.8000160000000001,20.568495929561514,32.66807693549586,43.180516958146,202.3990766868788,37.09947834719156,-61.179100893677216,0
49.0,0.816683,36.17304479677753,23.668106857978227,64.77106916216995,226.46165043759265,22.1287822159409,-84.21016741928307,0
50.0,0.83335,59.95940235881696,21.49542073434871,97.02910640684972,249.99665325928547,11.208579867582207,-100.1528198681934,0
51.0,0.850017,91.67873092108816,32.77168008132173,140.89929119223984,279.03731860638595,10.892585935777925,-113.06438983749824,0
52.0,0.866684,127.88156097152287,61.21748944756925,191.99245280274917,319.6472296906677,27.424684492028884,-132.456669727403,0
53.0,0.8833510000000001,164.90005813159607,106.29340468103535,239.8848912264628,372.2027722331024,62.956730567652784,-162.83793139697224,0
54.0,0.9000180000000001,202.2112106042515,164.2519735955918,275.0100018337532,431.1815303859996,114.86565397065084,-199.12735642621888,0
55.0,0.916685,242.82352024707308,231.4127264525732,295.243132820691,489.6994403892471,177.75496330612896,-231.8033418465722,0
56.0,0.933352,290.1094397220696,306.1885117563018,305.0121290090819,542.5035784296891,245.4792918268306,-252.8042479057568,0
57.0,0.950019,343.1149795187204,386.0420156117361,310.2301789367299,585.1465285189056,312.6834102795034,-256.9977205248294,0
58.0,0.966686,393.7486197883487,462.7378092534588,315.3626218457857,612.7036419942998,376.4743139931718,-243.2186925219078,0
59.0,0.983353,429.0091717632745,524.3327293025872,322.3100227995193,620.7457491185936,437.5014556194441,-216.35078094642896,0
60.0,1.00002,437.76746257448593,564.5483257202799,328.1191976338174,607.1868562870484,498.8522946699021,-185.7031881765251,0
61.0,1.016687,416.7641113442268,588.7922515610671,324.2167288348423,572.1233162624195,562.0696420640048,-158.76039530049593,0
62.0,1.033354,370.32981509573256,608.21790478461,302.0351573303448,515.3962623549794,622.534927190972,-137.18827972095835,0
63.0,1.050021,304.2090686253125,627.3680166605247,261.2416927879541,435.0410305925813,668.7894787101466,-119.63807082159283,0
64.0,1.066688,220.3316115990532,638.6056341577416,209.83861064401367,329.2832659736565,687.3577398289974,-106.1252880106906,0
65.0,1.083355,119.17945341294768,628.3780179442316,153.9024969546909,200.25097080948137,669.2278079689156,-97.01304466004552,0
66.0,1.100022,7.458232073842906,587.949117147168,89.36046331187113,55.33816643897261,613.3235124858948,-88.3497813158279,0
67.0,1.116689,-99.51466157255904,518.8158226950401,7.783188523535895,-94.0865880847861,525.5057888762143,-70.89543153894098,0
68.0,1.133356,-186.1376953106472,429.8817653712441,-89.88051928805096,-233.60972651260215,414.5933013051506,-35.32788837154446,0
69.0,1.150023,-246.82060271389963,330.16268439154464,-189.58482964988443,-347.42780303846445,288.3817708460394,21.04693102979389,0
70.0,1.16669,-286.7659670555022,223.2753442583996,-275.8737010809432,-424.75489845025646,152.03562036362814,91.94727381312808,0
71.0,1.183357,-314.28465395734713,107.8595536747332,-344.4607302051578,-466.51023540875497,8.873031435351239,166.00483129130254,0
72.0,1.200024,-333.4313329665661,-18.01254967306854,-401.9109941723492,-482.0899444407604,-137.77672249220416,233.4670929368773,0
73.0,1.2166910000000002,-340.83089653228853,-152.98468709077537,-455.8349985820502,-478.6842502273853,-282.8495658011035,289.4598797438004,0
74.0,1.2333580000000002,-326.8136444846882,-288.64632726985803,-507.2782273135072,-456.79381612332406,-418.0584023000876,331.5869584611728,0
75.0,1.2500250000000002,-282.10613349572594,-404.6146032288439,-550.817275382709,-414.05808562814,-529.1289128024417,357.85275652756684,0
76.0,1.2666920000000002,-206.45096251526604,-471.15505732007455,-579.8366175023064,-347.6283609129304,-594.7993928855471,369.9514710434906,0
77.0,1.283359,-109.59683149655348,-469.15179916004365,-590.9571982862954,-254.927837086041,-598.1574771629181,375.4539385155384,0
78.0,1.300026,-3.214544352610295,-414.3756963737759,-584.2300736443361,-139.5402923013594,-548.2998177346137,381.4650822804828,0
79.0,1.316693,105.64605372457169,-353.30341860147166,-562.1179540302883,-15.814098598581705,-483.6552142668867,387.6076465578193,0
80.0,1.33336,213.3690897731737,-323.79669841051447,-530.6968915517722,98.68311255992072,-440.3401134584135,390.0789457151396,0
81.0,1.350027,316.362644324857,-324.0451670436535,-500.62597539623886,195.71233621447976,-420.4883988297498,391.3058109141962,0
82.0,1.366694,410.033529413726,-327.2580543176636,-484.9450060532048,278.5547163726658,-401.1861984189608,401.1954870452697,0
83.0,1.383361,488.13856383481857,-316.5772940946865,-495.8249472430763,353.8890642630427,-365.5456409301663,429.530324156245,0
84.0,1.400028,542.9366619047719,-294.58385599278495,-542.5015730814166,424.5469130791272,-312.8110586246253,480.36269722049474,0
85.0,1.416695,570.0720047706213,-268.9112874025044,-629.3185742712043,487.91038878869983,-247.58941789853424,554.0585789026724,0
86.0,1.433362,574.4549810282635,-241.9649698885108,-754.788737251678,537.4437076527629,-174.32468400506133,653.885695330209,0
87.0,1.450029,566.9486464156297,-210.5039012036936,-914.7270875132224,564.9952621100174,-100.32356350800194,790.9252615125896,0
88.0,1.4666960000000002,552.0266685082934,-167.69494163997896,-1106.400849908381,562.1825087123548,-35.11618224807529,980.7642267254136,0
89.0,1.4833630000000002,519.8688401422011,-108.91427242622323,-1326.1180412799454,519.3938238275617,14.636903201313764,1229.6934478925464,0
90.0,1.5000300000000002,451.3200896896257,-40.341268744173206,-1560.1801555573825,424.41174596915465,46.07732935532889,1519.3783213406705,0
91.0,1.5166970000000002,328.6250694730253,18.012834972380443,-1776.9804173088212,265.46925366439905,52.70912365533506,1803.4154370982917,0
92.0,1.5333640000000002,140.87729449406666,37.10920767016391,-1920.5931072519247,40.03631730970589,16.7630310906915,2011.6082342417224,0
93.0,1.5500310000000002,-116.46214928820775,-10.482689468767797,-1896.1027879282003,-235.5060515518836,-82.4195331664362,2039.710646006934,0
94.0,1.566698,-438.86122920717816,-131.04318262102285,-1552.5979124977707,-520.4677773057767,-242.6863788206615,1724.7295143054862,0
95.0,1.583365,-800.0374861571863,-287.2647968546564,-714.4154335684748,-752.9394409302138,-423.2989007620047,864.6513045046482,0
96.0,1.600032,-1135.099551423615,-402.6752201875328,675.1826474944606,-867.8258297660175,-564.3580745396866,-635.8918463535563,0
97.0,1.616699,-1339.7316182150544,-413.4483767405313,2353.164256148947,-823.2831191968081,-619.272149314011,-2525.935297286942,0
98.0,1.633366,-1308.2172227928395,-327.57348935968724,3723.2719993969768,-613.526743095526,-555.0251001542838,-4127.710436549163,0
99.0,1.650033,-1004.7810831630492,-218.9664537880863,4207.657587070409,-277.8641501010287,-343.7600796131473,-4692.231310538896,0
100.0,1.6667,-513.3582768971929,-154.95343273272272,3708.6093405598494,64.66628196757597,-19.578781966438925,-4021.2259066078886,0
101.0,1.683367,-5.853525323441431,-144.7329566574404,2675.1225764648048,221.0877018608272,253.2738866535136,-2694.8119694133147,0
102.0,1.700034,356.2161091150005,-162.30432481935844,1687.7060384496208,74.37771638530536,275.861888266437,-1545.6166171837542,0
103.0,1.716701,502.4956416937628,-191.2821098241208,1037.5331272131978,-246.49260512031796,39.537271553673406,-938.9368613843455,0
104.0,1.733368,460.6647414023072,-229.0581023691406,687.5773447307877,-452.34082307090017,-228.94167151323472,-666.4553629508866,0
105.0,1.7500350000000002,309.60935877008706,-267.06166633662514,489.43853505438295,-391.9701467481217,-308.3519893583177,-423.6450376745696,0
106.0,1.7667020000000002,128.30775669081171,-290.6506275103371,344.7713830694819,-181.3363169016966,-197.150209182997,-161.76320650454966,0
107.0,1.7833690000000002,-32.002289609377584,-295.8875861417955,220.2498977707037,-22.02543613031787,-49.68815621751139,14.69925338609056,0
108.0,1.8000360000000002,-150.73220743929005,-293.4787797042595,108.18053574387908,8.974256519263442,15.18641574938599,73.60309947874173,0
109.0,1.816703,-226.22565076898945,-294.1592504271695,5.236096211145831,-35.1003536691043,-10.310934306382617,82.15997179251613,0
110.0,1.83337,-262.3451052686197,-296.416044788055,-88.88628190132215,-81.96750523419155,-75.71908175741798,105.06899066251071,0
111.0,1.850037,-262.8234620701111,-290.9741112409377,-170.61367186323432,-103.04425288425496,-135.87645022152984,152.7137312223404,0
112.0,1.866704,-234.16360253983464,-273.1750003167399,-235.9156098518085,-104.32506704164189,-170.86283490088863,204.2778014726168,0
113.0,1.883371,-188.61433835301503,-247.28339022128523,-283.36681895829355,-100.33778905357592,-179.8553131896701,241.40462063200957,0
114.0,1.900038,-139.5419981113712,-221.0143760137672,-313.22595508626506,-99.62643511301316,-171.75346265090985,259.6718386101471,0
115.0,1.916705,-93.708522942027,-200.1655090579519,-326.5294806240232,-100.98895365720378,-158.67543214332147,264.4645924194656,0
116.0,1.933372,-50.24877351555534,-188.06087947628072,-327.6940397336423,-97.0357183996523,-150.8858318088985,264.0103112023907,0
117.0,1.950039,-6.297620664002778,-186.2247396119564,-325.9891293642653,-81.93035787628293,-153.6582042649671,265.3742001716152,0
118.0,1.966706,38.35072917866648,-194.27853654606977,-330.46514310431905,-57.38910610583322,-167.7571489159473,272.7122485176064,0
119.0,1.983373,80.75140257511764,-210.9926341116837,-342.7046747169732,-32.34379970670735,-191.74415375949224,286.1228624504805,0
120.0,2.0000400000000003,116.0503061093055,-235.9675777394229,-356.10476730608804,-17.223419646962018,-222.8844852195468,301.3010171201835,0
121.0,2.016707,138.44444513897471,-269.40102141128403,-362.0558270421515,-17.36524984619133,-256.4367677502429,311.4391630753162,0
122.0,2.033374,142.29846228845074,-311.1987387084322,-355.676682069657,-29.92763774732982,-286.35339705279034,312.21102132067176,0
123.0,2.050041,124.43874293900753,-361.3668320712047,-337.4152907804261,-46.4247234651378,-309.3381044301119,306.94267501873315,0
124.0,2.066708,87.36660684998091,-418.5855374131318,-313.2060797687038,-58.67412452656493,-328.75737265385027,305.6930896212476,0
125.0,2.083375,40.995228206793385,-476.0030825522973,-293.6282322728037,-63.23046578206528,-353.0634696437293,316.4263854904437,0
126.0,2.100042,-0.5877749616519417,-522.0214338353494,-288.54437733073337,-62.02375912824616,-389.2658133450778,337.16666871811515,0
127.0,2.116709,-28.288101138478204,-549.7333253063476,-299.0236527328955,-60.484927434277225,-437.14763576591525,358.80642634924976,0
128.0,2.133376,-47.23709437297119,-563.0464846986665,-314.6617178947991,-64.36378850452346,-488.09688375913896,374.3196469300394,0
129.0,2.150043,-75.5088514739086,-568.4674410181989,-320.1333713466222,-76.53568622652142,-528.8026160569713,382.04696004445407,0
130.0,2.16671,-129.3025464974967,-562.9928389418203,-306.16583073485674,-96.56755944963707,-548.4706959916339,381.3843430095711,0
131.0,2.183377,-207.4127830703717,-535.48903360223,-276.45606888026856,-123.4045944426238,-544.8844867784517,370.0984181388701,0
132.0,2.200044,-291.63461613654647,-478.1425054899825,-244.70802687525668,-157.3236594420977,-522.5096440393722,346.66102324070994,0
133.0,2.216711,-363.3423151872863,-390.32164635745386,-224.05943074148257,-199.20466898487751,-483.3463684060844,312.2967408631304,0
134.0,2.233378,-418.5328617448663,-270.6840725757214,-218.5171318728985,-249.77670674380303,-420.8422334015347,270.43864925017306,0
135.0,2.250045,-465.944619074514,-110.92592884358288,-223.6366875397464,-309.9742442554408,-323.6999918357416,225.8479900252326,0
136.0,2.266712,-512.6833239609075,98.13052856220489,-233.98197159582537,-379.85120454879166,-184.5174998975304,183.65992292575305,0
137.0,2.283379,-554.2749701745574,352.7087344513302,-249.3262412414689,-455.5105387772287,-4.541779152159938,148.1648782564713,0
138.0,2.300046,-577.3092319904692,626.7668094657238,-273.97989690424055,-527.4909048841464,207.01793316635528,123.60769034555908,0
139.0,2.316713,-568.2161792898515,875.1303686065796,-308.69613435723744,-583.1621433091545,434.2241118173851,116.54973913223448,0
140.0,2.33338,-518.7715294537247,1049.9287213578143,-340.21742344647146,-611.1376591090217,653.7229100693819,133.37034110038076,0
141.0,2.350047,-425.5586370307464,1123.3941157950458,-339.0727065356871,-603.6789634927748,836.4161867123175,169.5765750427262,0
142.0,2.366714,-288.4982991387216,1101.35675609137,-273.8067288178962,-556.3014019162597,955.9971798236824,201.4098594215484,0
143.0,2.383381,-115.21176895461892,1014.9671543969235,-134.84299558968297,-467.78591101904135,1000.0308442407644,195.81547502420173,0
144.0,2.400048,72.77335870303997,898.2232339909253,53.51927169477239,-342.60444113310524,974.0788643080804,135.8059202830057,0
145.0,2.4167150000000004,245.52932599218357,772.4661598256447,247.50312865122223,-193.15423441449255,897.0152987911379,35.22902228509421,0
146.0,2.4333820000000004,382.3876940408071,647.275278812102,411.90917657433147,-37.94969456926361,793.7419971544568,-73.22145772057442,0
147.0,2.4500490000000004,482.54986947489897,527.8444598598362,534.8911750142622,105.04285930455124,688.4953344280241,-161.3893550451332,0
148.0,2.4667160000000004,556.938775363777,417.32290321425353,620.376043442211,226.7727867692737,597.3307846991713,-217.73296781587916,0
149.0,2.4833830000000003,613.481482349456,315.470539424535,672.8964653507196,330.8332925590087,521.8384401708746,-245.6644666973773,0
150.0,2.5000500000000003,652.7120252659113,221.30061350906936,690.6925305927084,427.7859350595128,450.3082391177368,-257.64935692790846,0
151.0,2.5167170000000003,674.2510177693213,138.8729528340634,668.6983537750972,524.0006113144686,367.8871174853017,-268.82986240929165,0
152.0,2.5333840000000003,682.5564471812054,77.01432771896067,604.6884373167683,615.4799697634246,268.1686583488744,-289.6428034765927,0
153.0,2.5500510000000003,684.6799791758899,41.206926257262246,503.773088689889,691.8447656650908,157.03819274087024,-320.0474929060749,0
154.0,2.5667180000000003,683.9386504062378,27.96291197351809,379.7317416015514,744.9748004209206,47.797942724589085,-349.8608557775847,0
155.0,2.5833850000000003,677.4492955617649,27.976829204857182,251.9857711931504,773.6421167366957,-45.951001121718825,-366.1205678365368,0
156.0,2.6000520000000003,659.5097236223671,31.859861646670858,138.14283683970123,781.2112498339814,-114.49014648478656,-362.2165389837194,0
157.0,2.616719,626.0528051458685,32.31861005815799,46.22711314517308,770.3787286887094,-153.2646000383725,-341.3255425046207,0
158.0,2.633386,576.7474119611726,24.962343004279603,-26.858732279222107,741.2176517658133,-162.65311873817973,-312.9889516877124,0
159.0,2.650053,516.2071395453764,10.330230698706464,-88.63869818847003,694.5108032228105,-146.74400735917428,-287.24260557500327,0
160.0,2.66672,454.6680387411385,-5.279946846888842,-142.2788689637341,635.1502695269105,-112.52248444647068,-267.42542955425426,0
161.0,2.683387,404.4667320557983,-13.038598155571652,-184.53689669624376,570.0189641877664,-69.98520149346126,-243.85465887767432,0
162.0,2.700054,371.5034940887687,-7.824580646063629,-212.46070394088025,503.19012822240006,-30.192716230256984,-199.0893146655249,0
163.0,2.716721,349.20662394702424,7.607956408559762,-230.51119440173036,435.68591790240816,0.1991728308013332,-127.1247174105922,0
164.0,2.733388,323.0290940762958,25.384498289049933,-248.3445573760416,369.71450534451697,22.616561808876945,-45.40954447979155,0
165.0,2.750055,281.9707177534,39.85933693536597,-271.4018866488095,310.19667918606257,43.01922443318748,18.512055611890272,0
166.0,2.766722,225.61254472486968,51.35901069904921,-296.3716656953407,261.2024820220083,64.72920967351887,50.88595603257421,0
167.0,2.783389,161.64635531432413,62.61653222459086,-316.323320655422,222.7124431257534,85.41124187183414,58.90746085817746,0
168.0,2.800056,98.75878500237764,72.85378602803064,-327.48655707113033,191.3033207161572,99.75544786154524,58.83290178690044,0
169.0,2.816723,41.430887814075874,76.74881000698055,-330.353170045808,162.45111920682783,104.10055971372448,62.68636441030668,0
170.0,2.83339,-10.521207170600253,70.058523104019,-327.03000853468643,132.1230784530423,99.7608642990668,73.80595924078635,0
171.0,2.850057,-59.1742140821124,55.70925790726776,-319.1382509914255,97.93671396183558,92.76047797054753,89.23303993229628,0
172.0,2.866724,-106.25110705207084,42.79073171644528,-306.81366021413623,59.73864740677637,89.43524263164335,104.62694473366687,0
173.0,2.883391,-152.94447125642512,39.32778990784707,-289.0323676658094,18.57493848433816,91.7574371907048,118.21715401634972,0
174.0,2.900058,-199.9580596492364,46.56596337206058,-266.0613771107565,-25.17517727392762,97.10774393031052,131.15116776641787,0
175.0,2.916725,-246.5510794156831,59.07763609492404,-240.9166809455377,-72.06889253797347,101.65224011193646,144.81652522174403,0
176.0,2.9333920000000004,-290.03012371510613,68.73936867844915,-216.3477745100857,-121.90800806619774,102.5617526887656,158.5341495892934,0
177.0,2.9500590000000004,-326.92803501680913,68.97494517946754,-191.10303291131603,-172.61487014113726,97.3850139476884,170.04632014065197,0
178.0,2.9667260000000004,-354.79038038553466,56.76482285566286,-161.65188726810328,-221.08070914719508,83.15283982042806,178.05945125681313,0
179.0,2.9833930000000004,-372.8630718349616,32.409310957118564,-127.62426725617284,-264.5489809381243,57.64438316845919,183.6166681748365,0
180.0,3.0000600000000004,-381.6138194196667,-0.8783196168663188,-93.2894087685897,-301.2459583209318,21.86889918571812,188.19485971442705,0
181.0,3.0167270000000004,-382.25913472431887,-37.40871079254392,-62.613715741936176,-330.5224275893453,-19.562865777823102,190.9877034342935,0
182.0,3.0333940000000004,-376.7363017190592,-71.47456023483329,-34.44610593355241,-352.75704755058985,-61.36293662145175,189.3393608941329,0
183.0,3.0500610000000004,-367.24153806429297,-100.7211583018656,-4.489001329154812,-368.8703785296793,-100.66408079204882,181.6906409234047,0
184.0,3.0667280000000003,-354.9278430509496,-126.5340517332628,28.48097746771609,-379.6579456599042,-137.07429819252934,169.10257341799968,0
185.0,3.0833950000000003,-339.3634948607714,-151.34064297867377,60.42835598606527,-385.3840185021975,-170.60722101718954,154.3964541142155,0
186.0,3.1000620000000003,-320.1636179990759,-176.88888493663035,86.75275711513339,-386.06471538165385,-200.37387653288613,140.89027198790612,0
187.0,3.1167290000000003,-299.0825971807144,-204.6011100816238,107.98317580918824,-382.51378414152776,-224.94198393568064,131.2384878026221,0
188.0,3.1333960000000003,-279.5721176234885,-234.2889178996801,129.30932645225906,-376.9156712061906,-243.31700027975816,126.07604808041036,0
189.0,3.1500630000000003,-263.8083961074341,-260.45595043739786,153.77468659113669,-371.5772165138008,-255.46347843896584,123.79895277179908,0
190.0,3.1667300000000003,-250.6175688126026,-272.3709916390371,177.09033149372462,-367.0379456388211,-262.0224004543461,122.00558638360542,0
191.0,3.1833970000000003,-236.8538736508126,-262.01497379416605,191.49295041618,-361.9293418795396,-263.47094496069553,118.8392760609257,0
192.0,3.200064,-220.5016467365607,-232.72455113633083,195.04799960934147,-354.5599934959809,-259.3450646354036,113.5087850764939,0
193.0,3.216731,-201.82170460615907,-197.40806282684815,194.67886311404143,-344.27773826678714,-248.37526728478343,107.0022926937383,0
194.0,3.233398,-181.7879932868566,-166.9863595533046,198.3797297297348,-331.67475019168563,-229.95978842844076,102.34497303684184,0
195.0,3.250065,-160.38822113439232,-141.97859905765972,206.3237565638994,-317.9638675420094,-205.77950569884564,102.45086145555383,0
196.0,3.266732,-136.60567314864255,-115.85241417193228,212.4046020050946,-304.121777060033,-179.3250877566203,106.84797985314516,0
197.0,3.283399,-109.47116737407468,-84.20227239005033,213.51534394703216,-290.62332939255106,-153.1190911925021,111.44056774256951,0
198.0,3.300066,-79.1957551842525,-48.244442592424406,213.4322657469386,-277.8437838215792,-126.24179066694342,112.1387372007188,0
199.0,3.316733,-47.65548993074101,-10.150421699513272,217.07998341052632,-265.85273096230287,-94.49779298769069,108.0678940318904,0
200.0,3.3334,-17.274949664411373,31.20489716761575,224.81187868135004,-253.28800444767683,-53.36549891748279,100.94809013994208,0
201.0,3.350067,11.35842136595299,77.02085064024757,233.730182088308,-236.93930681785488,-1.9416682768938824,92.426193849348,0
202.0,3.366734,40.61061136467593,122.7142191704941,241.4243567621771,-212.97523142055567,55.57781672111672,82.67830511816904,0
203.0,3.383401,73.62907799408708,158.54914886439124,246.6335631141485,-178.86818334499276,112.86296287961436,70.50006455337146,0
204.0,3.400068,110.61426894239352,176.42240914167192,248.3004359834785,-134.66023646921255,165.50103397747912,53.74081936955692,0
205.0,3.416735,147.5034073673066,175.05844483376654,245.35040379865,-82.81827223911107,211.5514987382515,30.460207337345867,0
206.0,3.433402,178.5450763278825,160.02737481904504,236.0993036872835,-26.96190423426749,249.5815834003551,0.8070258098396568,0
207.0,3.450069,200.4138083494794,140.58994554969448,217.39001604153535,29.447150401308384,277.81188586579947,-32.492216602407886,0
208.0,3.466736,214.29109613202127,125.30994325590096,186.49388508659044,83.97492928494646,294.4603341626227,-66.12013454772503,0
209.0,3.4834030000000005,223.94337416827508,117.63857841141078,145.32222598934726,135.76116520163097,297.80841675851224,-98.13089387458464,0
210.0,3.5000700000000005,231.25472671936356,113.86790145171273,101.38803590985133,185.01703973108292,286.6604774768444,-127.436638385667,0
211.0,3.5167370000000004,233.4567102883636,105.80691607566492,63.63515139434109,231.2500605120647,261.68664960493487,-152.55190235583126,0
212.0,3.5334040000000004,225.1670900850807,87.30597426242215,37.79518878186582,272.4892618205597,225.93666697945253,-172.3207611624759,0
213.0,3.5500710000000004,203.55347582810165,59.4690039702484,24.593342956789076,307.18178140398163,183.5911449650791,-187.32026125774175,0
214.0,3.5667380000000004,171.47081561977507,29.3837900484053,20.37146018904739,336.2501057710712,138.67454511684554,-199.26036714472963,0
215.0,3.5834050000000004,135.42194357858148,3.806190260770991,19.79204865780995,362.0958740727235,95.0690172865807,-209.2831919988207,0
216.0,3.6000720000000004,100.68622954955298,-15.153349197584417,19.353534453896422,385.7946466567661,56.44935233749986,-217.49105820380657,0
217.0,3.616739,69.04076476553003,-28.782111128557773,18.796970411197652,406.2571122150701,24.771587199803125,-223.42759154467925,0
218.0,3.633406,41.19267063232503,-38.60594399399557,19.569830534462987,422.0164765006057,-0.998965812980834,-226.2529658168596,0
219.0,3.650073,19.56699281915672,-45.35623943915692,21.970201783361027,432.827427738764,-23.393913777775257,-224.8385673744145,0
220.0,3.66674,6.487402984359159,-49.38356821563022,23.42462816709914,439.4420719222841,-43.19558038135828,-218.27589181582564,0
221.0,3.683407,0.1320816534144745,-50.6643220331357,20.57291131262652,442.7084135409476,-58.28571763760458,-206.43578560791093,0
222.0,3.700074,-5.108801951018225,-48.78670878992027,13.867073529167028,443.0404482229155,-65.88622835305469,-190.0918827934646,0
223.0,3.716741,-13.481406690379655,-43.64601731108028,8.29333254911289,440.1248333621202,-65.08825802820976,-170.51745979460108,0
224.0,3.733408,-24.620757289847543,-35.95041560994107,7.997677076227524,433.1630001213508,-56.8863059206148,-148.75573150050218,0
225.0,3.750075,-35.65209059371523,-26.637724170558855,11.785703576203815,421.8747029647709,-42.98284148073407,-125.02109202180874,0
226.0,3.766742,-44.46653231942939,-16.125862866489733,15.296538761637123,406.92160874164415,-25.62732299941474,-98.89944182016971,0
227.0,3.783409,-50.10395279267089,-4.58489615286709,15.665486642192812,388.8120379204325,-7.841197126585769,-70.54153295454545,0
228.0,3.800076,-51.82433938510229,7.330488803031273,12.477349785789633,366.9202670956661,7.69331668536238,-41.68638943093734,0
229.0,3.816743,-49.63675172395188,18.420117678374364,6.62213433510434,340.4143161662049,20.198796338453704,-14.870968796392985,0
230.0,3.83341,-45.27366044074285,27.474893581735778,0.8278340806720603,309.98503847427435,30.60800844237804,8.800669908306652,0
231.0,3.850077,-41.15308324120731,33.77783349492639,-0.3991182895778333,277.92067597882925,39.91758512147377,30.63534101536157,0
232.0,3.866744,-37.97578661257479,37.419435692767536,5.74933048546151,246.33216888091283,48.325784193489966,52.5044091169354,0
233.0,3.883411,-34.08494512023347,39.46710641555705,17.187040553106208,215.75949490445677,55.78441539010503,74.33324319017547,0
234.0,3.900078,-27.60579318640477,41.570243799882775,28.83884275139832,185.60561138038423,62.5123466716062,94.20471058860012,0
235.0,3.916745,-18.74127091489636,44.53361054553631,37.663719522242445,155.47006452695405,68.29114050308456,110.82680539765111,0
236.0,3.933412,-9.78121492871676,47.01382455649109,44.82143510028133,125.80320675390954,71.42749296063417,124.9311718988,0
237.0,3.950079,-3.4889655926528658,46.63807575336803,53.31941859830064,97.47490594865906,69.4155536065073,137.9616235873818,0
238.0,3.966746,-1.5216111458842734,43.003152879932856,64.90674218314734,70.99924241582937,61.426090012457806,150.1342811479312,0
239.0,3.983413,-3.34925332922404,38.56924740675037,79.3950177091131,46.28525996784737,49.936256030139134,160.365702183451,0
240.0,4.0000800000000005,-6.179588888421165,35.74268718003968,95.69675064834742,23.009911687789813,39.18444505637728,167.98231399832952,0
241.0,4.0167470000000005,-6.755368716932285,33.853899046553494,112.52802507160422,0.9580294211668569,31.81087895111157,174.0811523175966,0
242.0,4.0334140000000005,-4.284222195325773,30.0731665597668,128.50613048305777,-20.11428020495641,27.33632670357141,180.9489583542902,0
243.0,4.0500810000000005,-1.8660556230300875,22.572728991199885,142.7589390960356,-40.67876458066345,23.54423300043126,190.26280116015167,0
244.0,4.0667480000000005,-4.337504976724573,11.17495772626399,155.7840499676878,-61.151041769766366,18.229094039854157,201.8470019702834,0
245.0,4.0834150000000005,-13.820811708162822,-4.588946759595343,168.77023828125473,-81.34990698713122,9.640297447332028,213.6379560199946,0
246.0,4.100082,-27.36836039673853,-25.74724764570201,181.4046697523933,-100.17736255028508,-3.1501433084140147,222.56241716187364,0
247.0,4.116749,-39.6073293096195,-51.70577292134067,190.7927014583084,-115.70182043797573,-19.252464825169547,225.89280013795417,0
248.0,4.133416,-47.7820804617438,-79.44244033873787,193.2961399755948,-126.08425240383691,-35.94511253184057,222.34238471258524,0
249.0,4.150083,-53.69943265022684,-105.37525498851102,188.0116197151197,-131.52520342054115,-50.44588657243697,212.42773054609592,0
250.0,4.16675,-60.943316453476605,-126.74073095330984,178.681966726759,-135.5408847044311,-61.69273774059524,198.51777780118869,0
251.0,4.183417,-71.18194047890302,-140.9356169790857,171.5444631503325,-143.3143116310975,-70.37525983704333,184.60253402499444,0
252.0,4.200084,-83.31811327486842,-145.33971754903592,170.15601526262438,-157.9173958077882,-77.7917287895999,174.78904712326263,0
253.0,4.216751,-95.29944446694176,-139.52982839192632,172.02927373306642,-177.97241844918554,-85.36254282139384,170.72970954166587,0
254.0,4.233418,-106.33001788418048,-127.7917973065528,171.111643551475,-198.64735788418847,-95.12805139870784,170.3334409142165,0
255.0,4.250085,-117.57596157872108,-117.67021883562244,163.7450761094035,-214.479859528518,-109.06381973109688,169.2623735018264,0
256.0,4.266752,-130.7550507633897,-113.46685626320875,151.2530346244195,-221.8834437915393,-125.81924325357149,163.77991677551398,0
257.0,4.283419,-145.97220334625848,-111.11276707876014,137.0021482219802,-220.3725053528124,-138.5947143821657,152.6317244694276,0
258.0,4.300086,-161.15472085722465,-102.24061937296445,122.8359321945714,-212.0319547853942,-139.47325782776738,137.08065946743358,0
259.0,4.316753,-173.78254686577858,-83.96681528460327,108.59608909277534,-199.4801219091038,-127.32407122925224,119.60804011282204,0
260.0,4.33342,-182.8968189206296,-61.808429055231045,93.27426879860792,-184.1905241810041,-109.0557173699426,102.38141410634728,0
261.0,4.350087,-188.98670970969536,-42.35718884754118,75.87500606281267,-166.86909856291706,-91.52560599948988,86.43534263707463,0
262.0,4.366754,-192.05327622340272,-26.56592240371272,55.999897172890655,-148.75331839788987,-74.49880481965249,71.68716062804872,0
263.0,4.383421,-190.5697978232327,-11.597776036340278,34.07596704131417,-131.47309238533205,-53.132256853184295,57.50601980307343,0
264.0,4.400088,-182.9400029811848,3.971157501954598,10.939979535492578,-115.62668747832406,-24.937765174762035,43.677849569686,0
265.0,4.416755,-169.8855931581451,18.971067986991017,-12.724564567862274,-100.06274147462877,7.901345547108819,31.004485314767656,0
266.0,4.433422,-154.8344011540738,31.725014780383468,-36.53252909187385,-82.26906844844133,41.6050096326809,19.851840351451948,0
267.0,4.450089,-141.22172198928337,41.34476360473266,-60.11024177485124,-58.623959191466405,74.42635234364676,5.681122358938358,0
268.0,4.466756,-129.06358730890452,47.87744192146042,-82.77085229380998,-24.42970418904139,108.15016293904506,-25.082624489879613,0
269.0,4.483423,-114.69150279072966,52.85721883135736,-103.74824416963348,24.11449157339147,146.4379229027419,-90.38230457458876,0
270.0,4.50009,-94.51159931293458,59.213448230497846,-122.87697216513276,84.79760759019835,189.17214763971813,-195.5210696373543,0
271.0,4.516757,-68.77085823031648,68.6750924292326,-140.6575329723053,145.2686661369258,226.9575341558704,-317.8197386737746,0
272.0,4.533424,-41.16968417189689,78.84854716972562,-157.35233695261178,186.46145910844285,243.8605273581918,-413.9548128583425,0
273.0,4.550091,-15.62408758064234,84.21328420519211,-172.22333531500283,193.20087822692733,228.2803694525532,-448.6456131890564,0
274.0,4.566758,5.634915995517711,80.76200829628698,-183.87350409178103,163.2313111627157,181.098865892472,-417.64438125367167,0
275.0,4.583425,22.285554358836748,69.4330608903403,-191.40576121158225,107.42941326013715,113.75875378280476,-344.92578563363986,0
276.0,4.600092,36.88103041056738,55.50537173014942,-195.79730995604783,42.51700367295107,40.66685163096621,-262.11619051880643,0
277.0,4.616759,55.25089333392261,45.20638774922242,-200.57057726859,-17.146188434878077,-26.71288867142886,-190.75523065631663,0
278.0,4.633426,82.65697919058204,41.47797029652635,-209.68740129453087,-63.81372111332465,-82.13240882365082,-137.4039943335822,0
279.0,4.650093,117.73076433606856,41.54235560532364,-223.03840105661985,-96.3799116241808,-124.0823220641858,-98.0997028514163,0
280.0,4.66676,151.67136587583042,39.68089793856176,-235.61355787786448,-117.96519826836388,-153.3044864534369,-65.55470447090934,0
281.0,4.683427,174.9933928900919,33.687841162716,-243.62672462999095,-132.2336685290676,-170.40791501829534,-35.17785460314482,0
282.0,4.700094,184.69124145430123,27.372370856720583,-249.33014695677883,-140.24892391176252,-175.56517780499925,-7.552668892606585,0
283.0,4.716761,184.64502001939377,25.52094191790813,-256.70623563567153,-140.58087184190185,-169.17483508413227,13.559341385388253,0
284.0,4.733428,180.581626582124,27.9617540034793,-264.9744679598069,-132.4373574444153,-151.9467480676853,25.54462697403293,0
285.0,4.750095,175.90271082168906,30.215659739537536,-269.6875428674318,-117.76094220292936,-125.25195401891152,29.3202790801045,0
286.0,4.766762,171.50143034773853,28.70783102231137,-267.98261255405964,-99.83114633464042,-92.18793805526376,27.641885801592544,0
287.0,4.783429,167.5564408179124,23.547644666906493,-260.2062216137855,-80.85525901037366,-57.73394129387096,22.037226360381133,0
288.0,4.800096,164.30014863930927,16.965711621438444,-248.5422454497213,-61.93768026661159,-27.14832084365873,12.459458223995032,0
289.0,4.816763000000001,161.28895963352812,10.988437287242531,-236.0289606121358,-44.71198535014686,-3.6922667360471673,-0.6826868910710302,0
290.0,4.833430000000001,156.88268746760693,6.996062830165855,-225.21982825515937,-31.34484643189929,13.00525485861744,-16.11809404729304,0
291.0,4.850097000000001,149.3075441701208,6.208528705154638,-216.10625914513503,-22.52351546883077,26.605171109958444,-33.69191885716286,0
292.0,4.866764000000001,138.59867947414114,9.37228912341568,-206.0057915994644,-16.456921914483633,40.6191060103654,-54.92791825263121,0
293.0,4.883431000000001,127.14282343983004,15.840410954163085,-192.34406751926176,-10.527681588896831,53.94544251351598,-80.40683676213729,0
294.0,4.900098000000001,117.57730688519771,23.481930857478652,-175.16596027367987,-3.796003555050652,60.88965849971613,-107.31307541414084,0
295.0,4.916765000000001,109.94046705494556,29.81692663984667,-156.51040103757018,2.079348652822232,57.36390880065791,-130.52580821100594,0
296.0,4.933432000000001,101.59834265668408,33.16209368201749,-137.72624894531222,4.03305653967144,46.1890613932529,-146.10569021507158,0
297.0,4.950099000000001,90.86285212778574,32.885206562370804,-117.65213079809834,-0.160858579335426,34.21064275285833,-153.53812174466452,0
298.0,4.966766000000001,80.59346990748921,29.30457162819566,-92.93731294970064,-10.151047975983367,24.940322446192926,-154.9943852149867,0
299.0,4.983433000000001,77.19247577678908,23.93542655328368,-60.1859337734436,-23.159088545642035,16.516342939024277,-153.05173767094325,0
300.0,5.000100000000001,85.14113681069458,19.677506107081005,-19.106304697905653,-35.94686311868391,6.542311943579154,-149.29678380573142,0
301.0,5.016767000000001,102.25245602121085,19.77500655362712,25.4791640957152,-46.63955176478402,-3.994346345567733,-144.48447217563563,0
302.0,5.033434000000001,120.38169046412632,25.455160859164657,65.22474297317328,-54.85497969243895,-12.495776893542168,-138.913244206785,0
303.0,5.050101000000001,130.88948956762226,34.50526361065524,92.65253768215476,-61.02651491564097,-18.31586187942701,-132.19071895745563,0
304.0,5.066768000000001,129.65819402766198,42.94317557669381,104.769421453446,-66.4042860772456,-23.018100028124632,-123.42326603210654,0
305.0,5.083435000000001,118.00240413116748,48.11339501801592,103.86050956968174,-73.07749755024349,-27.924958448307805,-112.48958793511372,0
306.0,5.100102000000001,100.58707934145887,49.63930259144491,95.93403182609728,-82.56974639479608,-32.63464727328079,-100.75286534434444,0
307.0,5.116769000000001,82.96359499777836,48.04616936530993,87.89788559051695,-93.97911091856164,-35.86176597425968,-89.66278045089243,0
308.0,5.1334360000000006,69.38938473816026,43.85889043025741,84.5662627553018,-104.19589720484328,-36.97416602975788,-79.20594930080733,0
309.0,5.1501030000000005,61.07906536749598,38.28369200967596,86.78091708988616,-110.45500113673552,-36.24431626410126,-69.27164398682326,0
310.0,5.1667700000000005,56.49100275802638,33.75588116397691,91.84495525461044,-112.65148645768927,-33.87804511749249,-62.05086553530661,0
311.0,5.1834370000000005,53.87748424642192,32.647348727975725,96.40029960801635,-113.4586288407968,-30.175113710790384,-59.84883947751801,0
312.0,5.2001040000000005,52.6987712585962,35.04230577409655,99.04530053616496,-116.5901681545772,-27.67751345090364,-59.16478334744848,0
313.0,5.2167710000000005,51.92587403601337,38.3514925675037,99.04473256564384,-124.24030195705026,-31.37485318205021,-50.82352406686097,0
314.0,5.2334380000000005,48.72933835720019,39.55818379480565,92.88226078542765,-134.79316513788183,-43.8224543856914,-30.019107779709948,0
315.0,5.2501050000000005,40.58021813622312,37.39542354060603,75.41263340986754,-142.71300389675426,-60.49915816362018,-4.177093327295856,0
316.0,5.2667720000000005,27.746068859414336,32.2244465264174,46.424664777374886,-141.78999284715184,-72.89168159632143,13.378740806973893,0
317.0,5.283439,12.416917715405964,24.93688229930373,13.697333487778488,-129.55953444234723,-76.29922313459545,16.556402780675946,0
318.0,5.300106,-3.752820715581449,16.498902736631145,-13.121744518554864,-108.88327095118186,-72.79660097387297,10.140666430185352,0
319.0,5.316773,-19.817961195218,7.3299669886719965,-30.724612338928004,-85.40742304068824,-67.36065650460797,2.2868248819959165,0
320.0,5.33344,-34.03530341138271,-3.493925985936044,-42.501125471456064,-63.65051886347415,-62.98400915655385,-2.508238051742863,0
321.0,5.350107,-44.560895252948086,-17.298686718395885,-51.91767324133346,-45.26934652842949,-58.66195594535663,-3.71379107841833,0
322.0,5.366774,-52.36352542807956,-33.442318335407286,-58.19393713588095,-30.204807714287316,-50.36329499498859,-2.0576773680276554,0
323.0,5.383441,-61.0768605544185,-48.309129985934085,-59.102061237432025,-18.29791924846384,-34.44215232385959,1.9930180284771344,0
324.0,5.400108,-71.77586655792062,-56.68991360340182,-56.04041146871175,-9.267635639930813,-11.405262164462185,8.365345850989918,0
325.0,5.416775,-79.30852623555944,-54.49213208848387,-54.29319241452044,-1.9457537282637145,13.534200213463496,17.019978577744354,0
326.0,5.433442,-76.61460177052145,-41.9666721552795,-57.90790895037209,5.262510262030457,33.64561055296232,27.261571609391385,0
327.0,5.450109,-62.3901527977047,-25.559871881742264,-65.30093689735864,12.986387341053389,43.990542107935184,37.24372412272679,0
328.0,5.466776,-42.06116159471284,-14.89871016311099,-71.06659833899919,20.43968189389284,42.60900514126372,44.553609320712354,0
329.0,5.483443,-21.593403609719807,-15.453374174572993,-71.79315639105346,26.384131906355,31.216235772871563,47.57289321496317,0
330.0,5.50011,-3.2518011685898864,-24.012121949251284,-68.75816703295433,30.5136546252902,15.76756836439904,46.39045009553144,0
331.0,5.516777,12.520509906486724,-32.3918182841728,-65.39808430794314,34.401051680989745,3.994734128055998,42.9675900524776,0
332.0,5.533444,24.55646224816314,-35.172413230613984,-64.11657609185187,41.117058348923294,0.2210499688116769,40.75016633498104,0
333.0,5.550111,32.17989374478922,-32.9043834770743,-65.54085157392691,52.99574399013233,2.933438499375604,42.97159155688789,0
334.0,5.566778,37.21488864893964,-28.891225270815973,-69.06979303313413,69.20545031699056,7.623862349950021,50.00945825671217,0
335.0,5.583445,42.66685886176873,-25.08864904639052,-73.7619713274805,85.72953205792192,10.729955930847677,58.81365247538884,0
336.0,5.600112,49.50196061217823,-21.436505248854623,-79.4482483565037,97.82203004835915,10.7385114932112,65.74470125868937,0
337.0,5.616779,56.28363147193869,-17.368329286519632,-86.4461642055544,102.71959375594888,7.477591444240935,69.48548344015728,0
338.0,5.633446,62.658346716414414,-12.700106043731918,-93.38995099033022,100.88151902924038,1.842615339166492,70.8990139712078,0
339.0,5.650113,71.64643335822777,-7.207704955591311,-96.71086718008732,95.0411999234734,-4.129042889008934,71.38245551019703,0
340.0,5.66678,86.07589416479394,0.1776084876410428,-94.36415172155984,87.42976780312108,-7.638601664572349,72.27056819977983,0
341.0,5.683447,103.02661816791696,11.151217619197816,-89.47452689571777,77.65619374318811,-5.9361675278953925,74.7983715673596,0
342.0,5.700114,115.25103340538296,26.271174264737823,-87.78965199254864,63.91694964459006,2.42119457279348,79.44139800340207,0
343.0,5.716781,119.45924119519132,43.31055482991981,-91.40430595041045,46.19497597445805,16.248390857127475,85.23180727391318,0
344.0,5.733448,120.13585879323348,57.95214130897334,-96.98707863536852,26.97427557404617,31.85562460331793,90.24629726946746,0
345.0,5.750115,123.246026653574,66.55209573068768,-99.88102501118196,8.487679039982467,45.17997224255286,93.29088863208828,0
346.0,5.766782,128.59760862826607,68.44664643373174,-97.80904868423818,-9.130263030206748,54.20605304267372,95.00397977971512,0
347.0,5.783449,130.26602812881296,65.82962131782094,-90.78939924694706,-26.19244415438387,59.49047722796772,96.82330743239363,0
348.0,5.800116,122.64615430427516,61.34130642811051,-79.58222591634495,-41.75323503471782,62.33592994622863,99.26167481797604,0
349.0,5.816783,104.29925717348144,55.55592761304492,-64.91664638941343,-55.01456134737937,62.41144655187011,101.86220098105083,0
350.0,5.83345,77.19925304487165,47.05735261919193,-47.46823747124087,-66.96413519681373,57.510769055744646,103.96232365213731,0
351.0,5.850117,44.19976787343212,35.113397964639425,-28.23198655435242,-78.48150030278889,46.37736590499605,103.96244800681376,0
352.0,5.866784000000001,7.664561318469524,21.683070917419023,-8.824498336388036,-87.54826799105693,31.803638797028093,98.60356518006928,0
353.0,5.883451000000001,-29.841873454227372,10.185662185827086,8.896881188320913,-90.7682001296312,19.668914243362,85.66897413566153,0
354.0,5.900118000000001,-64.73251087796193,2.284150185806657,23.372220514802905,-87.79486263681301,13.846391450356716,68.04844856699407,0
355.0,5.916785000000001,-93.88565166400798,-3.675515881508375,33.400854942827024,-82.26842767746578,12.724352588723097,52.84653302576498,0
356.0,5.933452000000001,-116.9834598454644,-10.942362129523364,38.607341136422406,-77.91378020050485,11.724521157480368,45.20256436214059,0
357.0,5.950119000000001,-136.0633647436427,-21.737975281492552,40.66375463746155,-75.17011763823132,8.358019551374698,44.41939128869729,0
358.0,5.966786000000001,-152.4362363589159,-36.45626936727455,43.20075012602555,-72.08228359515192,3.689251089008874,46.59328476060838,0
359.0,5.983453000000001,-164.6889122557763,-54.293516337346574,48.86045551088516,-67.14688152219102,0.3174809693378293,48.57936316670334,0
360.0,6.000120000000001,-169.9462420234724,-73.75637906938762,56.14231489120556,-60.33583501742598,0.5770224808057116,48.4656521309894,0
361.0,6.016787000000001,-167.00621991221095,-93.01098184659168,60.52720556846995,-51.9541410694144,5.047160349657652,45.39340674638163,0
362.0,6.033454000000001,-157.9917524874767,-110.49455207873072,59.375612496794,-41.69034344679604,10.9875374143114,41.19983104956098,0
363.0,6.050121000000001,-146.63163618095086,-125.13148729615644,54.48228431839186,-29.421029132729387,13.863851534446418,40.00753098096924,0
364.0,6.066788000000001,-135.44121623831705,-135.73143370902977,49.34706136452584,-16.738598073579116,12.050099266889966,44.06314455157523,0
365.0,6.083455000000001,-125.35764425747504,-140.9008029796237,45.780163576884256,-6.830184194333383,8.628362433833834,51.325093985260665,0
366.0,6.100122000000001,-117.32550422350523,-140.41058780923154,43.99697392775527,-1.9859339945658951,7.737536006382524,58.09871627953674,0
367.0,6.116789000000001,-112.44642679187584,-135.92148800604758,44.0034223982157,-1.2397439039893592,10.87697647133164,62.37336435088452,0
368.0,6.133456000000001,-110.10057546385114,-129.0562148307557,45.70386145100336,-1.160296312737645,17.14169829517391,63.99242411517238,0
369.0,6.150123000000001,-107.05628081694516,-119.35872386585628,48.83447567841949,1.0154078610304356,24.82965340112755,63.489123227946536,0
370.0,6.166790000000001,-99.66683753749405,-105.5678596320726,53.16537906034862,5.708975859612342,31.77090093151439,61.81089010887504,0
371.0,6.183457000000001,-87.13372525605735,-88.26102559482105,57.91467847871721,12.171859691381666,35.637602655194385,60.11786993357066,0
372.0,6.200124000000001,-71.90909373126125,-69.51347968002634,61.2326643307152,20.0443198058154,35.616968764690185,58.87942514632816,0
373.0,6.216791000000001,-56.50999178412601,-50.11339855841871,61.18628028613403,29.347718706712502,33.70481314787276,57.23603660543985,0
374.0,6.233458000000001,-40.56252834516883,-28.73365485663718,57.17315592257928,39.80269046386073,33.03416466199968,53.630353214376015,0
375.0,6.250125000000001,-21.778308629238197,-4.226934867018638,50.11451998419584,50.68075593678397,34.38655114292035,47.4356005468741,0
376.0,6.266792000000001,0.4023011570881601,22.209634798478312,41.85135288492707,61.04907884774181,35.45112737449412,39.98638901443444,0
377.0,6.283459000000001,23.184467968528097,47.39695991433963,34.60755307795347,70.11424977264116,34.25128235318674,33.39310818345641,0
378.0,6.300126000000001,42.667309125288654,68.11995871243766,30.188257686413017,77.50204857751615,31.92060819639543,28.16616442308379,0
379.0,6.3167930000000005,56.84308296023045,82.57959922990094,29.06726531777069,83.05797658762137,30.58281366284956,22.966949546776856,0
380.0,6.3334600000000005,66.13523802420181,90.37525755700976,30.818781541586173,86.5742429322151,29.47466439492661,17.11842532415308,0
381.0,6.3501270000000005,71.96453509796156,91.84290532327964,35.89130912365559,88.41998282786406,25.305375283856105,12.380562677750047,0
382.0,6.3667940000000005,75.34434526387707,88.36931215647829,45.80978719301318,90.23476663002448,16.814121631734636,11.541169963553289,0
383.0,6.3834610000000005,76.40600375221464,83.46256505246095,60.38715576106209,93.66527972896084,7.7689487537402435,15.351374282317718,0
384.0,6.4001280000000005,74.74443786715271,81.8280619340301,75.77129338357528,98.11217946596432,4.349064820649166,20.72214908466637,0
385.0,6.4167950000000005,69.90550767758137,85.3680634884476,87.13591587622267,101.29940340068568,9.029403448836334,21.88819825419843,0
386.0,6.4334620000000005,61.64044243894397,90.1798137868552,93.05309982915747,102.96937895086076,17.63818886319473,13.972083235657646,0
387.0,6.450129,50.52481156544248,89.149783874713,95.82684001973738,106.50958457088596,23.632066318017102,-4.005799867447962,0
388.0,6.466796,38.59030106079922,78.41320142667574,98.06884968156513,115.44225334620764,24.928440972075727,-29.22232467624029,0
389.0,6.483463,28.053212164715944,61.14694313103385,100.71929212621146,129.2137140132806,25.23365720047442,-57.28825807838244,0
390.0,6.50013,18.686682055237,44.68253390091651,103.95108426730872,143.69337909838947,29.10107184436849,-84.07396384990736,0
391.0,6.516797,7.743591733511765,33.55635471721389,107.71096559303872,155.05168727243634,36.950157002157766,-106.42862647659828,0
392.0,6.533464,-6.566578645405214,25.42489037066596,111.23858739510676,162.04716115134556,44.39829971106367,-122.26399994515168,0
393.0,6.550131,-22.483926369335443,14.348979962433994,113.7872995081374,165.08553498743908,45.44019270226447,-130.41760835039906,0
394.0,6.566798,-36.32951604222691,-1.9250251547160584,115.1931706361097,164.32401421385117,36.96277262737464,-131.01595304256244,0
395.0,6.583465,-46.157025452701305,-18.96233114207859,113.78919702312632,159.36742915074183,21.38485717983562,-126.23232765966432,0
396.0,6.600132,-53.36052163958856,-30.2725334997668,105.37808611230008,150.8906500618399,5.215425398072485,-120.09488064747902,0
397.0,6.616799,-60.74948795312713,-33.92786642569041,87.56557928637699,141.83209687217806,-5.102914634522984,-116.86914941307192,0
398.0,6.633466,-68.94545777742736,-33.604827107403395,64.42489586417577,135.63426768783555,-6.669634708610427,-118.9043733604206,0
399.0,6.650133,-74.91282130262913,-33.15955282273565,43.685328147859984,132.81114448923776,-1.0932464679401876,-125.01824400979962,0
400.0,6.6668,-74.77706983959766,-31.213036155808098,28.95391697195949,129.78878535386417,7.252268655285564,-130.88468987239244,0
401.0,6.683467,-68.02475681355914,-22.434134845675576,16.765571004327594,121.16084339450995,14.73201077831652,-132.1018465667876,0
402.0,6.700134,-58.057554159655126,-4.307871825273433,1.688419951400709,103.0109278822744,20.5439820638548,-127.22477150490988,0
403.0,6.716801,-48.62980659572358,18.795337484347847,-17.443107852007675,75.33123120458819,25.26328349065503,-117.46116343081118,0
404.0,6.733468,-40.675843374102406,38.87940944407703,-37.12200420922191,42.6713169957426,28.826573993570744,-104.49106143767683,0
405.0,6.750135,-32.886004345053976,50.21935258126564,-53.1377278337317,11.943386243632576,30.96350807172021,-89.84492689411695,0
406.0,6.766802,-24.4802452922275,51.46137568063664,-63.29090428957303,-12.128894293650127,31.640107839503177,-75.10648464904746,0
407.0,6.783469,-16.36249217192949,44.31361160299645,-67.20405820833085,-30.010825819830597,29.631059689783424,-60.77723167161429,0
408.0,6.800136,-9.625817234214889,32.41453856653794,-65.44297669396693,-45.31437952830058,22.55630206681673,-45.506173265526485,0
409.0,6.816803,-4.211246307666873,20.09949959185581,-59.15560172236394,-59.83978666451819,9.9368026672295,-27.872036079004356,0
410.0,6.83347,0.2133383962070586,9.606284175667934,-49.71674094250538,-71.24155228161186,-4.918797197501889,-8.740640567030475,0
411.0,6.850137,2.987918025239482,-0.4401940797774131,-38.32154813993877,-75.40883433957532,-17.02162093238092,8.68040741781719,0
412.0,6.866804,2.9671248907632477,-12.06024890331058,-25.973411185637097,-70.50862913987929,-23.041842481090374,20.981054270491377,0
413.0,6.883471,-0.3136359852599142,-23.76955922319265,-13.913572533450228,-58.92807797047813,-22.603992639753542,27.326479345251144,0
414.0,6.900138,-6.427354776530296,-31.354869352446368,-3.901394321934314,-46.22314433696991,-17.794124532121,31.155746884233405,0
415.0,6.916805,-14.189196520508222,-32.91814052681403,2.5613237617116016,-38.60278097808283,-12.461343991687173,38.63332479480371,0
416.0,6.933472,-21.73025904389271,-31.07137089543837,5.473984721225714,-40.63271995122299,-11.192971124014212,53.88190563698147,0
417.0,6.950139000000001,-27.358319027421487,-29.14303715186611,6.086302958774333,-53.7525988568516,-16.758338202902653,74.9716629289721,0
418.0,6.966806000000001,-30.701776935477987,-26.832850657882982,5.452439066775139,-75.6373919615694,-27.162772597018357,94.52662535416462,0
419.0,6.983473000000001,-32.58077673783484,-21.334957870192078,3.955538168803775,-100.49740340425598,-36.14224203071335,104.47874590232904,0
420.0,7.000140000000001,-33.97715345870568,-11.945670296842655,1.6981654762797558,-120.14049999198063,-37.76041167105956,100.79792018892915,0
421.0,7.016807000000001,-35.740055441660125,-1.3695535548819129,-1.5154448226357424,-125.70754676237848,-30.10262702944244,84.36278553105205,0
422.0,7.033474000000001,-38.90161653782864,7.611266785397206,-5.8864744736800825,-110.76709658639383,-14.75579490677194,58.54830930357112,0
423.0,7.050141000000001,-44.353999426372354,14.48957698383792,-10.589535651694488,-75.50966650137079,4.900762206561946,27.304886400246595,0
424.0,7.066808000000001,-52.04356058258588,19.422527586954423,-13.947753207668676,-28.933225289574807,23.844358716965264,-4.917997231049165,0
425.0,7.083475000000001,-60.72750843774304,21.840632809328447,-15.461087779679657,14.28878622577034,36.20276833006993,-33.36613370747921,0
426.0,7.100142000000001,-68.51816257846916,22.59404912941211,-16.95975696472461,41.141964059390034,38.12713702007582,-54.16387591093955,0
427.0,7.116809000000001,-73.66864951903624,25.58760876970931,-20.88557173897127,46.58615629047081,29.64271855103688,-65.2110443482397,0
428.0,7.133476000000001,-75.05389745582511,34.07026818828682,-27.43169403829026,34.6109813026471,13.3028460815442,-66.25491679322738,0
429.0,7.150143000000001,-72.30700897667737,45.24335900337592,-33.69483298079446,14.30733968814983,-8.11037011158164,-58.7492601605335,0
430.0,7.166810000000001,-66.12560946185421,51.44412588089763,-35.96283530612678,-5.582195823364246,-32.34250445945616,-45.50152211600941,0
431.0,7.183477000000001,-58.80310628740996,48.01528898128683,-32.90736695740908,-20.479763423629816,-57.03304643049196,-30.050082079464136,0
432.0,7.200144000000001,-53.78334848047261,38.2233736555289,-26.2386728131894,-30.92962057310767,-78.88479427568129,-16.283695910864804,0
433.0,7.216811000000001,-53.50055880733806,29.136525637947763,-18.50895051157699,-40.90798476259626,-93.93478164235304,-7.800994113781524,0
434.0,7.233478000000001,-57.36092862776284,24.161980556733063,-11.173963613241646,-54.56052483807209,-99.78517854600798,-6.139654628987672,0
435.0,7.250145000000001,-62.437832442224106,21.070115618850224,-4.5773828728251065,-73.19444109294498,-98.20661150480468,-9.308721001931891,0
436.0,7.266812000000001,-66.29458969257118,15.986398698234913,1.5441815886024566,-94.54483280101527,-94.73030506567945,-12.988604678949386,0
437.0,7.283479000000001,-68.71003887094786,7.168564175342304,7.826161623935532,-114.85288441896184,-94.35020804861723,-13.892282539254383,0
438.0,7.300146000000001,-70.84168074561823,-4.9382445725418895,14.73159550895926,-131.5748039203372,-97.01937874945703,-12.15054759735028,0
439.0,7.316813000000001,-73.52180767430264,-19.359162244477428,22.3108648003274,-144.0538738522823,-97.62157582756696,-10.573204551168986,0
440.0,7.333480000000001,-76.4886899966594,-35.34468097192543,30.72265620966185,-152.45703997413702,-90.67404674682062,-11.866654598376616,0
441.0,7.350147000000001,-78.58976643512055,-52.14818443075512,39.77516787459858,-157.2109137308648,-75.07946499775382,-16.605707042198958,0
442.0,7.366814000000001,-78.50627718101416,-68.48673137675011,47.33064463561606,-159.38772505910944,-54.70375990056424,-23.09888011694879,0
443.0,7.383481000000001,-75.66966426413344,-82.24688048106132,50.01139753299103,-160.5823002123205,-35.22315053617427,-28.32176202041209,0
444.0,7.400148000000001,-70.69682688199059,-91.63362447568278,47.0707315786683,-161.87872557861772,-20.547423215710094,-29.56465759684505,0
445.0,7.416815000000001,-64.95154478254987,-97.10438881887193,42.3999913871618,-163.44839126887337,-11.1946621881026,-26.414738166741387,0
446.0,7.433482000000001,-59.58076397264752,-100.46705463360036,40.845716644232056,-165.79668670424996,-4.8992567501818485,-21.125153705946985,0
447.0,7.450149000000001,-54.63962546110706,-101.03258647110432,42.96803032287276,-170.95807860549786,1.6871257103428765,-16.70892141461738,0
448.0,7.466816000000001,-49.04308257572875,-95.08373336487276,45.402228630974754,-181.13828910702316,11.384747470166763,-15.07918350708428,0
449.0,7.483483,-41.78278534143846,-80.98979444816433,46.078022611063446,-195.3720778949007,24.63013654601447,-15.998221615261096,0
450.0,7.50015,-33.53423262199199,-62.414063883367305,45.85234280996593,-207.68854077777385,37.07789743274773,-15.00451302469678,0
451.0,7.516817,-26.828023808571597,-44.3759244770685,43.98222404674696,-208.92129124822569,39.31658172942841,-1.837250052537673,0
452.0,7.533484,-24.19908529448751,-28.303763283143347,35.45894575284963,-191.33029368248808,21.99620910470832,34.95571203316496,0
453.0,7.550151,-26.152856509315704,-12.849205039701154,15.475225581501803,-154.69115904509533,-14.756111383460892,95.18714801319966,0
454.0,7.566818,-30.98885147177728,2.227285645438497,-14.543539264631516,-111.01739862177392,-54.90105208717856,155.60514233168954,0
455.0,7.583485,-36.15428725363603,14.881360934252951,-46.30383224970901,-80.99024751358725,-72.90145718350792,178.10717485621666,0
456.0,7.600152,-39.51780076427326,23.106126764818608,-69.4973053732997,-78.91537241206822,-53.82368529649384,141.78595991499088,0
457.0,7.616819,-39.93463478485256,27.693429336703996,-78.28679368882877,-98.6404468125816,-9.16024079769668,68.7321916199192,0
458.0,7.633486,-37.36635282401309,32.071446022204206,-74.95242843453622,-118.37792120969996,31.73794345492499,7.924315053396995,0
459.0,7.650153,-32.62450690849775,38.58017661291016,-67.44496505810498,-121.16563125367904,47.072393683835294,-9.398090210686943,0
460.0,7.66682,-26.61857878395395,45.46918553497167,-63.16163156945677,-107.3359724596846,37.00504527987038,8.199985117866301,0
461.0,7.683487,-19.48443089865477,49.02076968139289,-65.27080199693421,-87.4610926574828,16.316263367456457,31.482094482285763,0
462.0,7.700154,-10.455314927241824,48.17340222014865,-73.56836958664776,-69.1272881041206,-0.5000585568809379,39.925473730833495,0
463.0,7.716821,1.2257590121072444,45.35926255021191,-86.2366270952143,-52.83535451837631,-7.384842818560174,31.706687767079245,0
464.0,7.733488,15.13776659068722,42.98805908068916,-100.40188650161572,-36.26009669568173,-6.490612602906316,15.740215959748308,0
465.0,7.750155,29.09641844252984,40.75470260862706,-112.8470932715846,-18.290542206891143,-3.970228667393316,1.0487347554466917,0
466.0,7.766822,39.555625289057694,36.66339435048744,-121.2238462559765,0.4598005631794571,-5.588428291085308,-7.813790094421911,0
467.0,7.783489,43.43201119574907,29.80722137120856,-124.70771151302888,18.6615687635242,-14.004669056114713,-9.877145163470752,0
468.0,7.800156,40.55000328012605,22.171862195339774,-123.65456505075502,35.125020106636505,-28.078668077361154,-5.913987052383951,0
469.0,7.816823,33.9906664034944,17.906212747629557,-118.11022071895174,49.369755259303005,-44.09920381982817,1.743983121698604,0
470.0,7.83349,27.246954305170743,19.603847847363497,-106.49090363743348,61.82906063910529,-58.20744166715035,9.184851162293546,0
471.0,7.850157,21.26318984131985,24.43319224578217,-87.40480048292378,73.4639355661925,-68.08471060469977,12.533863115636777,0
472.0,7.866824,14.890068624788654,25.2708544689264,-63.89685490986595,85.07071708366904,-72.77449212471029,10.08456279064315,0
473.0,7.883491,8.115650603870453,17.093669450185644,-44.03221008623312,96.71683300609136,-71.83995663541099,2.6829856183947327,0
474.0,7.900158,4.017100908099408,1.6386403047409734,-34.78294537616784,107.40772234404189,-65.34034724544466,-7.771389794301839,0
475.0,7.916825,6.533434860362002,-14.67847135248859,-34.97111732387897,115.27708930537683,-54.27722913681839,-19.8276401455714,0
476.0,7.933492,16.08886441278637,-25.48923913275008,-35.12059535051821,118.66284438152698,-40.3304387136219,-32.60054301927519,0
477.0,7.950159,28.283340968936816,-26.3680719634078,-25.390269549008245,117.55686613706531,-25.22597648207476,-44.62082032404865,0
478.0,7.966826,37.4920053724714,-15.79550499231676,-5.131738420202487,114.23322018695774,-10.963215046426187,-52.58920039326112,0
479.0,7.983493,41.42144974707457,2.2213351232070018,15.539682439644409,112.24183977120384,0.0988147981391405,-52.04108317624932,0
480.0,8.000160000000001,41.9884105231468,18.3045535330239,25.563868047428212,113.85654159117796,7.2591720960396735,-41.22231402702651,0
481.0,8.016827000000001,42.179584633584014,24.049488125391388,23.87127411440341,117.50175948695843,13.428100194843273,-25.29116087854265,0
482.0,8.033494000000001,42.68488371184546,18.905050013298837,18.41628449192628,118.0005579235232,22.598046959444293,-14.594946310112832,0
483.0,8.050161000000001,42.19974697189723,10.49244432379173,15.890649616363014,110.81459256441664,34.63045403560666,-15.986222927533646,0
484.0,8.066828000000001,40.57649332767395,8.670027015309007,15.96155157354476,96.79764479070788,44.61527450292384,-25.814993909161984,0
485.0,8.083495000000001,39.72302561579681,18.355827209113432,15.2950849951166,82.32995392567916,48.20646641360732,-33.08328959919109,0
486.0,8.100162000000001,40.25827365490627,35.65903750549828,13.976503723948788,74.20508559246971,46.006816659604624,-29.927404479751097,0
487.0,8.116829000000001,39.25957943889803,50.24422319950543,16.323310952585153,74.03958232431759,42.22458764658206,-18.520941363881654,0
488.0,8.133496000000001,34.0931301557338,53.15655806854838,25.58576405702493,77.49407942353199,40.2646410184874,-7.64371820225052,0
489.0,8.150163000000001,27.647355945694176,43.73638365024537,38.50933276656291,78.95071496524187,39.76437538751461,-3.257161094379791,0
490.0,8.166830000000001,26.09271642801111,29.150974687294497,46.502100851580906,76.64953959787448,37.17331967855352,-3.656926892274141,0
491.0,8.183497000000001,30.4911158903206,17.998118705894615,43.63773758489376,72.84850686640726,29.607955310609363,-3.803895559243858,0
492.0,8.200164000000001,33.91770400137979,14.76813961607776,32.98557448781227,69.78559450402004,18.553241404342764,-2.2685301862306564,0
493.0,8.216831,29.09722728453226,18.43798145130206,23.371906354782364,67.27359056658386,9.00532555089903,-2.3193434331985,0
494.0,8.233498,17.01175459913862,23.91609829094122,20.57205117708157,64.59189513819464,4.638159977647527,-7.3643194589857375,0
495.0,8.250165,6.202791983319232,24.94815614444862,23.639527964271554,62.91153150556063,4.556976608589165,-17.20069821053619,0
496.0,8.266832,4.725076876520449,17.981230989877254,28.391217881485947,64.29098101847501,5.152100140330924,-28.58811872651108,0
497.0,8.283499,13.427291585861918,5.351126475678296,31.095183456854123,68.85436489164358,4.613413079015508,-38.161575545487736,0
498.0,8.300166,25.589538375175323,-5.467338412304008,29.41143249409655,74.24149198067433,4.867569214935837,-44.29811055624414,0
499.0,8.316833,32.46035170765386,-7.837852738725084,23.158210469814595,77.72238609905247,8.596089756334962,-46.74909065563928,0
500.0,8.3335,30.07074385462281,-2.2604027211448208,14.66947335783913,78.136358643415,14.834514426320544,-45.44641629381936,0
501.0,8.350167,21.19814710929884,4.404724763295395,6.686967601716342,76.23479949919349,18.92785998849157,-40.32985778993398,0
502.0,8.366834,11.33216402479229,6.6402535219609735,-0.2888945529735969,73.91059249243489,17.472084053394944,-32.13869368005393,0
503.0,8.383501,4.101282362446232,5.80983187639655,-7.760509683379805,72.66083854373022,12.531160549317011,-22.782589632435894,0
504.0,8.400168,0.4613759059233606,7.123210880263764,-16.491170601879208,72.25819967937773,10.47692865800061,-14.842497659124737,0
505.0,8.416835,0.1530506595379589,12.60335367923763,-24.63797780781928,71.44805471748191,16.963356886969596,-10.802904484385856,0
506.0,8.433502,2.800444772128119,18.95484667731949,-28.933967299973222,70.16320037635023,32.884006589795334,-12.26449064789271,0
507.0,8.450169,8.308397409871967,22.16756960141697,-27.65680932981504,69.98957213468056,54.50254125835028,-19.177036749971546,0
508.0,8.466836,16.445007211821153,22.284236016843806,-22.09244643548922,71.82457156413297,76.70143222263778,-29.716274108518448,0
509.0,8.483503,25.62394884434452,22.677232817825267,-15.32526512085412,74.12362653594808,95.52541252440447,-41.22912808702057,0
510.0,8.50017,32.85093082090781,26.06485922206701,-10.67685674397947,74.64554102767607,108.3656477455438,-51.71206775211107,0
511.0,8.516837,36.11675145027348,32.79267482704594,-11.277295413643516,73.52974820828383,114.10142712017792,-60.9479811167572,0
512.0,8.533504,36.45761134370705,42.14457103547031,-19.29538100601773,73.31493357291922,114.70602571841846,-70.53313855931546,0
513.0,8.550171,36.27266327893683,53.34796228894197,-34.511742704150265,75.42761303583492,115.6124399080008,-82.42869963163429,0
514.0,8.566838,35.926988232923044,65.22103071602723,-54.02811001174648,77.31252118911173,122.3434458921094,-97.01377590520153,0
515.0,8.583505,34.09121479698197,76.49790088282845,-72.9134022583799,74.01369372050107,136.18889918496694,-112.6204912349232,0
516.0,8.600172,31.758771143656237,87.18434073491778,-84.58678081942608,63.188059874960246,153.69205991108407,-127.01513561829525,0
517.0,8.616839,33.21744931131492,98.63849367347215,-82.7861361741538,48.21512561150718,169.93366226953387,-138.67726307156238,0
518.0,8.633506,41.21325108916464,111.7130864196325,-66.30186275458678,35.45787003905084,181.6148555841681,-146.30697872498595,0
519.0,8.650173,52.80198093294503,125.39161272022324,-41.58026985559387,28.1859405169793,188.0696166187868,-148.37522958343456,0
520.0,8.66684,61.84102596831791,137.67824196464417,-18.34574111124392,23.706355655783145,191.15765549483257,-144.5093815160767,0
521.0,8.683507,64.66798592400406,147.54113070918396,-2.220780236756811,16.86387625350771,194.06953090218045,-136.44052929660614,0
522.0,8.700174,62.08242498802392,155.9184701455683,7.83691544515705,6.326667617152728,198.78907157570404,-126.17351796893738,0
523.0,8.716841,56.96865497146693,165.13280260062987,16.24317678509256,-2.6723907103858453,204.3388171995783,-114.02057548933765,0
524.0,8.733508,51.89854581657019,177.03361904625496,26.63775759530793,-2.05317044178323,207.9811407453801,-99.66332551990747,0
525.0,8.750175,48.74711724827896,191.1717324201748,40.20161936152321,11.5907314629816,208.48578604622045,-84.18193360349534,0
526.0,8.766842,48.64031073090148,205.03097763998016,56.12743279608424,31.74180518363309,208.60351337239592,-69.56527939609146,0
527.0,8.783509,51.12532422509854,216.224846192122,72.80413465771254,44.697557885170525,213.82736884237204,-56.57158517359001,0
528.0,8.800176,53.87244845367829,223.6545710180814,88.74076317611811,40.396369956439045,226.73073908710955,-44.016867781874566,0
529.0,8.816843,54.2463291624366,226.12954706545264,103.30354293053657,22.854756558627884,241.6339642172788,-29.92331808832969,0
530.0,8.83351,51.811740958683465,221.33488665700455,117.2816468799262,9.536333000099244,247.0240053166265,-12.895529129195571,0
531.0,8.850177,49.105842951238486,208.0731193174462,132.0675313627036,17.853042107654655,235.8639497555675,6.789702469099067,0
532.0,8.866844,49.439145585873305,189.40570970500767,147.6666048938146,49.208542495084615,213.42653867021312,26.394696414874147,0
533.0,8.883511,54.120654104190685,171.5132678904347,162.52634614489543,85.83423600624775,193.03950919159416,41.80504869914543,0
534.0,8.900178,62.14829259915631,158.06249243939914,175.81905997360002,106.30305718020166,183.5120227321254,50.853087123608645,0
535.0,8.916845,71.72224083677985,146.11419446014594,188.08633514851124,105.28097442758208,181.96733229469947,55.09050097763419,0
536.0,8.933512,80.79569540666265,127.93397692088382,198.20242451072835,95.24723697828988,178.6631173796232,57.39529237278479,0
537.0,8.950179,86.56604747450345,96.63371618995826,201.3361411785717,89.33493785732384,165.95714381080006,59.21547952434851,0
538.0,8.966846,86.35725122001864,51.03530451077641,192.6772829291105,87.8915832407396,141.79889139324254,61.3974707490548,0
539.0,8.983513,79.96470102110001,-3.557968502587169,173.4272760064722,83.0818828160487,107.5760339740395,65.99166558928206,0
540.0,9.00018,70.2048254103468,-59.42201493778845,150.8995235551822,71.40615645220713,65.24288906505896,75.23433054911786,0
541.0,9.016847,60.35687746443412,-111.59563393474863,131.81877240906414,57.79613097660393,16.698928383244137,89.26953686101393,0
542.0,9.033514,51.49348262098926,-158.9650675360611,117.23970618283694,48.58808064836605,-35.08182732052239,106.006192997012,0
543.0,9.050181,42.52357317955142,-201.56792734446395,104.59838062842572,43.662524329556526,-86.27779955639964,122.77714472970732,0
544.0,9.066848,32.352442315132635,-238.89010661230455,92.28460869149498,37.1543383311417,-135.2940595705346,137.34568390305338,0
545.0,9.083515,21.79904537544371,-270.398163874127,80.61357832964333,24.71564559502861,-184.52363934378772,147.78553019526225,0
546.0,9.100182,13.09125017536372,-295.4133660062428,69.89872307139666,8.079312584080746,-235.97521462284183,152.5492313575357,0
547.0,9.116849,6.745760389976656,-312.00691432058954,59.098272312426495,-7.316127302341178,-284.3050826463652,151.33340413613368,0
548.0,9.133516,-0.2231029638636176,-317.9512222893068,45.865009658408326,-17.556000017493524,-317.2458977730983,145.79762252462046,0
549.0,9.150183,-10.833977002719037,-313.7599391636396,27.70799432348833,-23.01405690633027,-326.28900438967355,138.68734433385129,0
550.0,9.16685,-23.54813630532147,-303.4668820751659,4.040784205679167,-27.229482714310983,-316.1228702417393,131.39099415598884,0
551.0,9.183517,-34.3077829621563,-291.102939556186,-22.653756659103685,-33.67055161135893,-300.5343721311369,122.23122870640732,0
552.0,9.200184,-42.912892129969855,-276.754008100716,-48.23535279626191,-43.27779348251289,-289.6426998738272,107.62938236882096,0
553.0,9.216851,-53.72581562464064,-257.1125999171818,-69.4614594182859,-54.72583788062919,-283.8894596778807,85.25670956480694,0
554.0,9.233518,-69.58861176805412,-230.3927377571231,-85.0367541128544,-66.43041845029181,-279.0667105908991,56.342519349726864,0
555.0,9.250185,-88.04653949914236,-200.24357834634696,-95.02901936719212,-77.47948618516406,-272.7148564618472,25.408191377465748,0
556.0,9.266852,-103.95586448511236,-173.97302505916176,-100.37344902411031,-86.80197830210506,-264.60911178950016,-2.364244461247297,0
557.0,9.283519,-113.2193722666157,-156.72954537941985,-103.01009911064052,-92.97361442555685,-254.3595877531916,-24.41693043929632,0
558.0,9.300186,-114.17025588540425,-147.8795339537942,-105.6391651072687,-95.76115450946368,-241.08950894626776,-42.23135016386185,0
559.0,9.316853,-109.33603741158076,-142.89759632263284,-110.8058359489261,-96.88781962410552,-224.5354975114072,-59.720566234282806,0
560.0,9.33352,-107.01990862399178,-137.48966219045383,-120.78543524411194,-98.29833954081268,-205.1939493452608,-80.32169838604398,0
561.0,9.350187,-115.5842624625544,-129.23569195185516,-138.44278755645192,-100.12826776817582,-184.3775870855657,-105.25596910217254,0
562.0,9.366854,-131.22528174445625,-117.21446989164616,-165.72256836958886,-100.8308204573602,-165.1263825576886,-133.44023448469073,0
563.0,9.383521,-135.96086016328957,-102.99101142716351,-198.79402489310348,-98.76829604857316,-152.1058051269387,-162.2097991635236,0
564.0,9.400188,-115.17525199331313,-91.78648835266232,-226.50917230331905,-93.25945303525916,-149.42211166943724,-188.39428043126944,0
565.0,9.416855,-75.06976360435536,-89.65115306830822,-237.6695434081556,-84.58504439332043,-158.3068650518968,-209.41638193769356,0
566.0,9.433522,-37.01726569314389,-97.8315122254884,-230.47920164224357,-73.8981859235896,-176.07724745349068,-223.8583870404796,0
567.0,9.450189,-17.475080695946353,-109.82374044712816,-213.02424752450708,-63.29800562032834,-195.57486388031748,-231.3496624302839,0
568.0,9.466856,-18.084012231700573,-113.728689940217,-194.70793710884465,-55.14650653434357,-206.1882908377176,-232.0518890158484,0
569.0,9.483523,-31.05665000624104,-99.54852674171065,-178.62333519901836,-50.790205321575215,-199.9774665761773,-226.08830972447925,0
570.0,9.50019,-47.38416301467143,-68.24639606591462,-161.42988634049888,-50.26445833621983,-180.35559963241923,-213.35019529108416,0
571.0,9.516857,-60.48225869918687,-33.15857475668203,-138.60243196566518,-53.076758166872665,-161.89763441668245,-193.91425259287467,0
572.0,9.533524,-67.06905539079094,-7.668810784279699,-109.35730233654044,-58.39432373344216,-156.82973001881166,-168.6196800083642,0
573.0,9.550191,-67.15685913074628,8.573182504209377,-77.55256141250929,-64.30844819597806,-162.89456676928037,-139.08039964005764,0
574.0,9.566858,-63.04156183688122,27.086501035388785,-49.07643656178084,-67.58637088786682,-167.1899770983857,-107.26094268524056,0
575.0,9.583525,-57.55552535914288,55.78465638592791,-28.91559206892715,-64.7366640421498,-157.9810138862444,-75.40556318151123,0
576.0,9.600192,-51.99435690396615,91.54690274053245,-19.696651237744707,-54.27369312273569,-129.09602209748633,-46.08993293572839,0
577.0,9.616859000000002,-44.65377550440312,125.70867682556556,-21.096469131730792,-39.15029615354111,-78.5704553432567,-21.285328510426694,0
578.0,9.633526000000002,-31.77179371718336,151.58513495035544,-30.00690954044928,-26.528460995640117,-10.18921836582606,-0.9569589308663352,0
579.0,9.650193000000002,-10.820407835592064,166.6481469961537,-42.139379886932986,-23.08831788762736,65.11395417966457,16.790331270144694,0
580.0,9.666860000000002,17.178054512766217,171.44635084001737,-53.83405470921461,-29.514037089524383,133.96797940120115,33.99875134202598,0
581.0,9.683527000000002,48.67713867847419,168.19251397904694,-61.82958576054679,-40.05516917305029,187.0728675320239,51.941091473712106,0
582.0,9.700194000000002,79.6692790310369,159.53989569565678,-61.77363485016254,-47.30300040081643,220.87158409175456,72.0691552312797,0
583.0,9.716861000000002,105.55758925487628,148.1027063725832,-48.73345898820424,-46.83041941091844,235.736241543573,97.0450648119698,0
584.0,9.733528000000002,120.30142335366725,136.7310530835238,-20.3185885020608,-38.621796477336765,235.08956656964307,129.81912583076843,0
585.0,9.750195,118.69866754684294,128.2250552297,20.893555110431667,-26.359125577731305,225.41270737983535,171.25129783335876,0
586.0,9.766862,100.77957341801331,124.09441044513926,68.5743527797872,-15.279871847557532,214.02596416322703,218.8856627304822,0
587.0,9.783529,72.69074137817869,123.71439817721225,116.5563763534162,-8.813544611981298,204.37963719074293,268.21915731338805,0
588.0,9.800196,42.31872310207096,124.62506520163086,161.53050942559597,-6.479827466990351,193.43061480270185,314.6325283215251,0
589.0,9.816863,14.70272525010616,123.14341341213188,201.98519445818124,-5.168700333096909,174.82390056141998,353.9000684929632,0
590.0,9.83353,-8.29689589900498,115.06025319261134,235.35777145582995,-2.05091563639439,144.97656697263636,381.9594086378549,0
591.0,9.850197,-25.61211226380845,97.4375096622855,257.5247565823649,3.902206384640812,106.09026957628782,395.51482722757856,0
592.0,9.866864,-35.63454024686769,71.00641606809216,265.69996747698406,12.36127170367633,64.43382070598088,393.230488896168,0
593.0,9.883531,-37.09771799601144,40.28150612413192,261.34111691739395,22.525651364460717,26.852568830395573,376.4000092311163,0
594.0,9.900198,-30.81771036265562,10.064725404223726,249.42097995536372,33.28438793540148,-1.8931912202264245,348.8420172072697,0
595.0,9.916865,-20.312171214560266,-18.41415297304887,234.77879241989297,43.24006082978041,-20.58132689931775,316.1418663357072,0
596.0,9.933532,-10.177691428924192,-47.38494897091729,219.56972001703437,51.54003290025349,-31.589239274391016,283.95219059204226,0
597.0,9.950199,-3.189878123095296,-78.39330692963432,203.86404731734925,58.63431539370879,-38.76799324484234,255.670826966465,0
598.0,9.966866,1.2978779194548025,-108.37980171745534,187.37777095790315,65.55425119403327,-43.79655166942868,231.3466538948388,0
599.0,9.983533,6.134804267288233,-130.2054847022303,170.04797444397656,72.36885233564,-44.34619093410416,209.25417044782543,0
600.0,10.0002,13.61537338199297,-137.74237354571935,152.21013227050915,77.55708430751012,-36.80286314462479,188.64323874845405,0
601.0,10.016867,23.72111539093258,-130.8414704304727,135.56904744886174,78.73314339412539,-21.112630464086333,170.57369665462755,0
602.0,10.033534,34.61100326538349,-115.35305486411976,123.26409002565411,74.10269198719242,-2.141964690182392,156.01719826927626,0
603.0,10.050201,44.411564671946365,-98.99027456773284,117.31717789502196,63.83870792758414,14.031529823960089,143.5253731865926,0
604.0,10.066868,52.24303268713609,-87.707475064913,116.0054018562777,50.21930796097652,24.795876320435355,128.81935008465902,0
605.0,10.083535,57.75639631110917,-84.4736549443763,114.62382334037436,36.24655727080719,32.172919740544664,106.52417099346792,0
606.0,10.100202,60.648791615822695,-88.83668862421914,108.16383834015264,24.190012196955,40.03188938219728,72.75875068124637,0
607.0,10.116869,61.2923423662584,-96.59871121879593,92.22319546319508,14.971525848456684,51.04740913765333,26.884603296909347,0
608.0,10.133536,61.21984214423105,-100.5390313617904,62.53567135134396,7.615554094741228,67.31613618108084,-28.75926190846732,0
609.0,10.150203,61.99837907018534,-92.4500114423414,16.07998676995327,-1.2655296133001626,93.11058232500156,-90.52007823794722,0
610.0,10.16687,63.547874611853295,-66.28214240958917,-46.18659264614232,-16.393239787642766,133.5054593441928,-154.40145115506456,0
611.0,10.183537,63.70840125444384,-22.2210569597442,-118.00543551697342,-40.86367615017559,187.1104263762261,-215.45996625945065,0
612.0,10.200204,59.04524658935287,31.02752704378516,-189.9255440432292,-73.47314643313446,240.8031899893584,-267.3808910239589,0
613.0,10.216871,46.39106899891467,80.3962439553643,-253.33433322562115,-108.4148367258581,275.193987847544,-304.12116680107334,0
614.0,10.233538,25.104419813955545,117.76768076073216,-302.7820457626169,-137.39494869493382,277.7339811202936,-322.68286796775544,0
615.0,10.250205,-1.5874676001667805,144.5163781499123,-335.1902750463713,-152.86379680801582,250.11774514990745,-324.36609244274604,0
616.0,10.266872,-28.442850352627172,164.95917180340626,-348.9628435482633,-150.88336766031426,202.507058585501,-313.4852253190679,0
617.0,10.283539,-51.67182359343141,176.91299582108942,-345.54435594217193,-132.4242795446003,142.45685062496003,-294.90787402085675,0
618.0,10.300206,-69.8190399970093,172.0045956270639,-330.24338361151507,-102.49230769753588,70.86783222484198,-272.19416330212607,0
619.0,10.316873,-81.67931429020206,144.79601792345707,-308.73022045726475,-67.62859376225838,-13.446773007545382,-247.18122527691096,0
620.0,10.33354,-85.13055772143665,98.2042098123808,-283.1574425045192,-33.37288400899121,-108.47457392668092,-220.97641306089668,0
621.0,10.350207,-79.11810743864312,39.46898560403216,-253.9379769020553,-3.005086113082132,-208.6068103574654,-195.48834989532293,0
622.0,10.366874,-66.32449256211373,-25.89452058394575,-224.30746482356733,22.390703823064,-307.4751097823146,-174.0303932061773,0
623.0,10.383541,-52.52991457920035,-94.16344659313566,-199.6226168362796,43.0474325833578,-399.4424965404355,-160.35077496969848,0
624.0,10.400208,-42.571863831582746,-159.69719722688598,-181.6125418661869,59.05982732532191,-478.0253877231073,-157.17290326052228,0
625.0,10.416875,-37.44220733085111,-214.1689908065073,-166.24653217995166,69.05206437823296,-533.864113441002,-165.36059121859344,0
626.0,10.433542,-35.56321160272495,-249.3424456251824,-148.73001641946513,70.29690370153477,-555.6943306304162,-183.4007123032242,0
627.0,10.450209,-35.77588803755814,-258.8523645550153,-129.11636472446168,60.361040130645904,-534.319946065577,-207.0961849427916,0
628.0,10.466876,-38.33816606059853,-237.697293783272,-112.15967249163664,38.43111665185208,-466.48296587157006,-230.34787387323544,0
629.0,10.483543,-43.659765073658974,-182.7399891980315,-102.77249432114871,4.978538987050426,-356.44846193129433,-246.78681637767835,0
630.0,10.50021,-50.43431022628028,-95.52889938630548,-101.80870182260767,-39.09715399766885,-215.484362848178,-250.75277909516308,0
631.0,10.516877,-54.528488485178286,16.006185922579313,-104.41315808785406,-91.82021431858035,-59.98735922428606,-237.41124695873103,0
632.0,10.533544,-49.99615287591561,139.67339507179554,-101.16889026860926,-148.24704587976947,91.15145294109804,-203.13729089767003,0
633.0,10.550211,-32.77928054111268,262.1280764794975,-82.07817704285151,-200.09566322194055,219.2746509501512,-146.24488980225044,0
634.0,10.566878,-5.298771064659112,368.6704671385635,-42.52107876242816,-238.52865669593973,308.83304309204925,-67.28423891107596,0
635.0,10.583545,21.820061524803187,441.3525223555081,12.169284342387492,-257.9169804352077,350.649360973854,30.7604566225736,0
636.0,10.600212,34.3165849029552,462.02899625629976,68.61613366180532,-257.0497968477606,343.9417019547557,141.757060075304,0
637.0,10.616879,24.014294131518906,422.05393457284725,114.96409225753098,-237.5725500792883,295.1510888194965,256.1246226709184,0
638.0,10.633546,-4.509685453309785,329.5830928317476,150.02058038703788,-202.7710104987052,214.61022851861503,362.0851813893303,0
639.0,10.650213,-37.77585563557763,205.04770672830315,181.4527514680567,-158.0505461370783,113.63180365813864,447.8257330161509,0
640.0,10.66688,-63.32472629161592,69.3345374391952,214.48979068089704,-110.71421744128368,2.715507241017645,503.43960694395344,0
641.0,10.683547,-74.72670881785238,-63.34915750363864,244.2992668282201,-67.40003490657358,-110.04796059603534,523.0554876395292,0
642.0,10.700214,-69.9233431131538,-185.65813143537176,260.4268036729146,-31.425665471755543,-220.1587601161187,507.5880960327778,0
643.0,10.716881,-49.997358745228055,-295.4399763692896,257.5877737283737,-2.8654681026410374,-325.45511757776734,466.02325267002783,0
644.0,10.733548,-20.571407838660846,-393.0515332070954,240.6449025656325,19.347275534064323,-422.1933826111689,412.50518238786833,0
645.0,10.750215,8.960563103253406,-477.724437919368,218.75590721045316,36.37726554328496,-502.4245693993279,359.955002112461,0
646.0,10.766882,30.0865332393032,-546.6682612859232,196.3063418664977,50.67857071642906,-556.2496187266688,314.21352719483184,0
647.0,10.783549,39.26440824461768,-596.6813705598632,170.9324222212967,67.22538075546191,-576.8690253212009,272.27397118799377,0
648.0,10.800216,37.9749939579168,-623.7593706028091,139.0256702902917,91.85253914838692,-563.2808195311899,225.55693907842303,0
649.0,10.816883,30.490767629667843,-620.9921721574868,101.79007035981218,126.62412934665372,-518.5452516010117,166.20577937253003,0
650.0,10.83355,22.55675242599112,-578.5046546116123,67.33101564705393,166.42550516241863,-445.1963884612072,91.8444974102794,0
651.0,10.850217,21.34043900597351,-485.5192662856461,48.01453523260251,201.85181069487183,-340.4177745192703,4.73980106040269,0
652.0,10.866884,34.44901071937599,-333.4238924025516,54.21281523371427,227.1897619788487,-195.3795516561148,-93.44015624241648,0
653.0,10.883551,66.61228022331285,-120.91692679267292,89.22918312649392,244.8614126409845,-3.126854178708008,-205.22888412560985,0
654.0,10.900218,116.3608379479302,140.40582993929962,150.4999752196511,261.16538156116223,229.52298814440888,-335.7072221837812,0
655.0,10.916885,176.98150204787098,426.2968434323397,233.92905715959864,279.53480029190536,479.8802285683665,-488.185551973192,0
656.0,10.933552,241.4787316239412,708.3771925702342,333.31674656109465,299.77711680456946,722.8837086803106,-660.9480607097594,0
657.0,10.950219,304.9481049042564,963.4847455557632,436.06675918313147,322.854696095065,947.2745258194508,-846.0514177000243,0
658.0,10.966886,360.10684226791227,1174.9763275193573,524.8629013858208,356.4299501467322,1158.8741220010788,-1031.832217166281,0
659.0,10.983553,391.0265785393662,1327.36024805936,586.4841008726052,419.84003635587135,1371.916471922964,-1211.092650661958,0
660.0,11.00022,373.1810881410281,1403.2142526661275,617.1252618154335,547.093054378991,1600.0558972366148,-1389.812064330989,1
661.0,11.016887,282.1529850763794,1386.2600074176,618.2201860727035,779.7102800557916,1849.7058535699464,-1583.7813956387677,1
662.0,11.033554,107.3559301265019,1265.498162112121,588.5809875829902,1137.906590929437,2105.3155018411708,-1796.6213729642752,1
663.0,11.050221,-135.9614921968711,1036.959346388007,520.469943813104,1577.3962214891735,2307.114559101557,-1994.8043585274308,1
664.0,11.066888,-404.4671704031526,709.1078387223338,402.8076188583325,1975.6355835619609,2352.523141155739,-2111.2268712791742,1
665.0,11.083555,-636.6771105856772,315.4763349537485,232.02647286593756,2185.090922626991,2147.854160826171,-2082.128099253035,1
666.0,11.100222,-769.1413238739522,-82.37261915905519,19.943836769829296,2109.859847636259,1673.496449904487,-1866.723943297888,1
667.0,11.116889,-754.9465455663899,-424.7144186358613,-223.6049557606933,1715.370042847209,989.8323494597836,-1404.89229579607,1
668.0,11.133556,-580.6623369673024,-702.2471306449013,-520.0479870424017,982.0522600183392,178.20893466758443,-572.955021988412,1
669.0,11.150223,-273.04152373948284,-966.3146083551484,-887.6269353005134,-73.71836328842596,-709.06798988697,731.3516048610285,1
670.0,11.16689,96.3324343422928,-1264.701972677548,-1218.4971382825677,-1290.775068111987,-1640.6457178646422,2367.2171333997712,1
671.0,11.183557,398.04957414046487,-1554.2072079395457,-1228.1400765531905,-2346.9753591178305,-2565.760382977513,3825.707460617962,1
672.0,11.200224,477.409348349256,-1698.1232667696886,-666.8782695443955,-2956.05757346627,-3386.167921432097,4465.481870223119,1
673.0,11.216891,285.246492701781,-1583.7145874404791,339.51530361851064,-3084.6440611225416,-3959.530086581897,4010.540979008925,1
674.0,11.233558,-16.367118347637707,-1243.4926762995383,1240.6705709169046,-2913.7390547297277,-4137.794423906056,2823.7363938239023,1
675.0,11.250225,-165.20985277114545,-834.8982383104062,1469.6847616528953,-2607.4163186815854,-3834.539572708092,1631.5084956566868,1
676.0,11.266892,-49.77014957705515,-499.7229097990329,917.1838531138724,-2198.2406758555258,-3089.6382558668565,966.78155845815,1
677.0,11.283559,197.9229289432079,-267.9802156396676,-22.31390148872828,-1680.1777500328124,-2078.967268808298,864.4949011660949,1
678.0,11.300226,362.9908114186549,-92.41757724060878,-827.1712474893691,-1111.2105430491229,-1044.031853647953,1003.3324394437872,1
679.0,11.316893,347.8635305513106,66.66292089544382,-1219.756994168154,-589.145984259249,-183.42464223039607,1046.5372517266032,1
680.0,11.33356,211.20266998209465,210.826869102628,-1228.1563331831435,-173.54453397952045,415.7743157019791,862.5659215544665,1
681.0,11.350227,70.00153797015777,329.50128279595833,-1017.9376360488864,138.39470192569885,769.9233622571958,522.9081221339392,1
682.0,11.366894,-1.8923143226797308,421.21786756777135,-734.9038343910192,375.1024577440335,945.6963936962755,175.36922368701,1
683.0,11.383561,-6.085243327987412,482.3677647701192,-469.25267729942425,549.7341897647077,1011.78285847144,-70.82542756056186,1
684.0,11.400228,8.146896883645091,492.3966940782568,-278.20868950406225,655.8682413949947,1015.6722217187184,-186.327649630624,1
685.0,11.416895,-6.178243196125546,426.7034895734776,-182.1343587739522,691.5616318784162,979.3638012317322,-202.357707757188,1
686.0,11.433562,-58.90758706492974,284.1496293143259,-143.41177810117327,675.1907144153311,904.7108915521484,-169.40345570687398,1
687.0,11.450229,-125.7579446822818,93.04245322121356,-89.77624653778406,635.2910808412141,785.4977721069154,-126.81023568050868,1
688.0,11.466896,-179.3372294308116,-110.0941638172404,18.61643541844848,590.9335779534895,622.9830547314532,-95.68538271828729,1
689.0,11.483563,-212.5810574595636,-299.63768263883003,153.14134038556452,545.1516856184803,435.1226283822752,-84.83869813447836,1
690.0,11.50023,-232.58528285469103,-457.95885011835617,255.21323919268136,493.5213477290741,251.91936336807024,-95.6045197161328,1
691.0,11.516897,-239.0536425904052,-563.2733601784628,301.82776696256394,433.8326298275777,102.65234068505856,-123.88887701031514,1
692.0,11.533564,-217.5256019143718,-591.9191063704079,322.0155184798534,367.2332973210389,7.344695478250934,-163.64696735114563,1
693.0,11.550231,-156.8456324388241,-536.5387010214733,351.390241746408,294.8340208695465,-23.841266723266248,-210.5564912692387,1
694.0,11.566898,-65.32522751665638,-413.2178006898698,387.03261587713,217.1351840281034,11.330883478158787,-262.3984684010684,1
695.0,11.583565,44.27724169958165,-236.98347801101687,399.623464802157,135.2358947534914,107.82064188074948,-317.3600518386876,1
696.0,11.600232,186.28775067461365,7.860133377697338,377.8367864066871,49.35461450352364,253.1574681112233,-373.7326814305578,1
697.0,11.616899,393.77141996067365,347.217582765659,336.3570579320634,-42.53785122181614,427.6831824976716,-430.9454536461856,1
698.0,11.633566,649.3514936481017,742.180906002565,279.40345279324663,-140.07194484511405,606.382228029132,-488.9041895368507,1
699.0,11.650233,831.1882099529636,1048.9535710139255,181.5602090801939,-232.67792768617045,763.27179446116,-544.890964851864,1
700.0,11.6669,777.9401016971092,1106.2009391672973,21.51745278822919,-298.80916885487505,877.2343965594715,-590.9521814205002,1
701.0,11.683567,444.8283520475432,891.6793690282556,-174.56848643974536,-316.295749262228,935.595595488167,-614.4652587258742,1
702.0,11.700234,-23.982741937210704,562.9711474233409,-340.9515902570783,-276.0703871466378,931.8158238067068,-602.2520738790754,1
703.0,11.716901,-405.65484545796255,316.19043201405725,-425.7860906369596,-188.2755258265131,859.2999680711314,-547.370883927973,1
704.0,11.733568000000002,-569.0240003093015,225.005046665242,-428.3481324696115,-76.92680012076391,710.6863403468446,-455.5534523162938,1
705.0,11.750235000000002,-532.6721534281241,227.3013201552777,-385.9153188580933,32.03703524238054,488.782454874898,-345.8183678292987,1
706.0,11.766902000000002,-398.42343580256926,227.3122777385119,-337.3212702631453,121.1640718169337,219.61920955637584,-242.86483203118303,1
707.0,11.783569000000002,-262.758315052223,178.2638117334401,-301.91213456301426,184.8655889196333,-50.21905159592703,-166.17608388363905,1
708.0,11.800236000000002,-173.83301569646443,88.16233117377942,-280.8217219291648,226.0066226485696,-275.2836767724539,-123.3794369685178,1
709.0,11.816903000000002,-133.06496343587173,-15.116441600161368,-266.34201911205247,250.2518713941257,-434.15950602125713,-110.7421941052552,1
710.0,11.833570000000002,-118.04621487035492,-112.59798882469364,-249.0157764068897,262.407612588472,-534.4190981900695,-118.31118071396534,0
711.0,11.850237000000002,-107.18328810846062,-201.13775884912707,-221.28546178016623,265.59397631969125,-598.2507214118153,-135.7845621199914,0
712.0,11.866904000000002,-92.83948372321689,-285.28155169479,-179.85479130172266,261.5497601983276,-642.9890884969152,-156.34272367585635,0
713.0,11.883571000000002,-79.87025154094965,-366.892300761462,-127.58487053669008,250.63014918196004,-671.3174253333507,-177.52083035596178,0
714.0,11.900238000000002,-75.82556131974707,-440.43652479766354,-73.22086829947573,232.05188674604216,-674.780236305911,-200.0198893122936,0
715.0,11.916905000000002,-81.83343425657316,-494.4414746895352,-27.3284391541311,205.73408103419968,-643.4124716599081,-225.79350450598525,0
716.0,11.933572000000002,-89.94603653836185,-516.3892325886281,3.5014647398323806,174.6018658945217,-573.0292199822081,-256.0223945077179,0
717.0,11.950239000000002,-87.572749885382,-497.757178156455,19.377843786336257,143.72235265349107,-467.1225091743888,-289.5609976701618,0
718.0,11.966906000000002,-65.52908595708571,-435.7396174414652,24.93177217640583,115.80246560226178,-333.7936194382688,-322.745838940339,0
719.0,11.983573000000002,-24.005385966979176,-330.64973695021104,25.678719333114188,88.49898185175252,-179.48102606769882,-350.2158891953883,0
720.0,12.000240000000002,27.831225563281805,-183.71016697845903,26.236364936668743,57.443886711191176,-4.981237783642246,-365.16357637225485,0
721.0,12.016907000000002,78.18493532100928,-1.2624824875611438,29.79984540405639,20.70046426036544,188.93021593524617,-359.04140179724993,0
722.0,12.033574000000002,119.61770598189332,197.06292427123424,37.83619168004769,-21.03592607702177,388.06755434528566,-323.054045781853,0
723.0,12.050241000000002,150.30822085402212,378.4403295325385,50.58000031467486,-66.52871582593815,559.5035302244066,-252.54889434391453,0
724.0,12.066908000000002,169.0609438724968,512.1309636058531,67.98384842705086,-113.28539124095738,667.121592615139,-151.49154124230856,0
725.0,12.083575000000002,171.40521383897658,586.6515534408232,90.16315112937406,-155.19347772703946,695.332415805151,-32.60272027517549,0
726.0,12.100242,152.4526313220602,608.7680054850609,117.67539504614088,-183.63314200036615,654.430370288383,87.69358608967993,0
727.0,12.116909,111.6850379897356,587.0185262359176,151.21233374426043,-192.24772339844236,564.3095051616644,195.2983256622641,0
728.0,12.133576,51.63480290364008,521.746887599628,188.92811448720016,-180.39318158065487,439.8297366751415,281.39684157059025,0
729.0,12.150243,-27.30277591769528,410.2470514162858,222.9282879866733,-152.53772648044912,291.3451233972377,343.02488538460415,0
730.0,12.16691,-126.00738221008726,255.6615392135768,240.5738217203128,-115.64704305325311,129.94471751696338,383.2771025219384,0
731.0,12.183577,-236.0736125338858,72.13447765118646,233.65359709035224,-77.0271131121203,-33.191133843002106,409.9110448377594,0
732.0,12.200244,-326.4962721246872,-110.37322906983186,210.43813521785933,-42.893445785962186,-189.9516807108013,430.656741315728,0
733.0,12.216911,-343.54700872280614,-246.60329948595017,198.1775062963344,-17.396927409003244,-335.1634675275638,448.0224916580086,0
734.0,12.233578,-242.144370472578,-298.2153556558533,225.14502630472285,-2.414866060427321,-463.863087034054,458.5641898927565,0
735.0,12.250245,-38.73066006514754,-272.39431890018545,290.87078541294954,1.9711492328396805,-569.4581639862967,457.3300657321921,0
736.0,12.266912,172.67613523543986,-232.4135988648564,356.62749660573763,-3.1358886606531997,-644.6661069722007,442.8455127567103,0
737.0,12.283579,284.2715089080894,-249.320606708356,375.4708360033154,-16.078178691529065,-684.0062743251183,418.0526301740433,0
738.0,12.300246,262.656750391762,-337.66048073347145,332.5394195079072,-35.2956584365379,-684.388444229056,387.2464188472831,0
739.0,12.316913,163.07236328816143,-446.69594255662366,250.14955615100536,-59.52954738796152,-642.9384371694538,352.5972348842677,0
740.0,12.33358,63.58312630370883,-510.2039684244052,158.2295291413902,-87.42247824538256,-555.7735670607992,313.247999503868,0
741.0,12.350247,3.8396746352761895,-493.8918859470968,70.25121199559345,-117.28289765602446,-420.45098089885175,266.87735047962616,0
742.0,12.366914,-19.11188742944096,-402.0646069271873,-14.463608796532707,-147.60400754175595,-240.07562936089948,211.495969772467,0
743.0,12.383581,-23.171937692352596,-258.6652288342312,-97.83506597437008,-177.57296696308086,-26.13134191095274,146.0961434806008,0
744.0,12.400248,-21.99986909247312,-90.24299019857332,-178.3742068532403,-206.2347162132533,200.952589570387,70.82342841375183,0
745.0,12.416915,-21.44160694679384,80.68746895928359,-254.24224795952009,-230.40098856472144,414.5012779984472,-12.614470914339446,0
746.0,12.433582,-20.170317206971003,236.1635193432599,-324.5649862862247,-243.2530171323913,587.7884271664302,-100.6640696546278,0
747.0,12.450249,-12.012858893787648,360.9026032901551,-386.3931761604204,-235.52301649394752,699.9054731310725,-187.7593301220483,0
748.0,12.466916,5.618753186601781,440.3324780858021,-432.5950177884059,-199.43447002327773,737.2623197805428,-266.0784928825172,0
749.0,12.483583,23.54451183758964,461.73686116900274,-455.1299101392205,-133.91447086155705,693.3457759664088,-326.6039430530528,0
750.0,12.50025,26.40278549941504,419.7375066236767,-451.0099338324117,-48.15268048239737,571.7404411192027,-362.6723743225509,0
751.0,12.516917,8.617932071166216,321.7949990772175,-424.6734061611729,40.06907764255834,389.69157414432334,-373.71541203484935,0
752.0,12.533584,-19.08712198384441,187.399476656688,-384.7195827161359,112.08956418871244,174.92757975163502,-365.57696089080446,0
753.0,12.550251,-39.87694695578168,40.086287179806575,-338.6714569432668,157.38488959700413,-43.720973586571326,-347.4406174065216,0
754.0,12.566918,-44.07507976554936,-101.6948189419087,-289.94495016565355,177.05379137323524,-243.70077492431471,-328.30160595565707,0
755.0,12.583585,-32.90326482177829,-228.35515679519025,-237.9373687265048,179.6359618520504,-410.0551566914573,-314.3414037779833,0
756.0,12.600252,-13.973687629178894,-336.7494939725676,-180.39687749296812,173.75213935672298,-534.0841461902878,-306.823885274422,0
757.0,12.616919,4.861064083555899,-425.3744909438967,-117.31860804324803,163.86733323484935,-612.5523340298015,-301.369140981963,0
758.0,12.633586,19.815231515818827,-490.4672834478612,-54.51937105798221,151.26319285742082,-646.8226405401825,-290.2589675537169,0
759.0,12.650253,32.24532089054492,-524.1894769975222,-3.316757792229822,136.7863852699063,-641.0732345177017,-267.06017604988665,0
760.0,12.66692,45.83106412843836,-516.3123398834439,25.72189536514261,121.282987834729,-600.2081430652828,-230.11133492456395,0
761.0,12.683587,61.82777059441719,-460.4886728800566,31.892922382531548,104.3104779605838,-528.6056175356766,-182.0845658443832,0
762.0,12.700254,76.96533684032235,-361.6270197758262,28.56704388727845,84.53653773593535,-431.3269231453744,-126.6201120490335,0
763.0,12.716921,86.73534586425876,-236.79498798070003,36.09565883426637,61.77823024886614,-317.2503699040733,-66.1352253191904,0
764.0,12.733588,90.78310373559096,-106.50865093032772,67.53675008388761,37.27247744232743,-198.95214946926063,-3.667987295286492,0
765.0,12.750255,94.20252883171852,17.066150053115184,120.41627855443352,11.963233216023273,-86.05227699647976,53.50118734388492,0
766.0,12.766922,103.40098461142188,135.18938523285362,181.42762847384392,-13.148349765921967,21.4214666275613,93.83020140281889,0
767.0,12.783589,121.56920763786792,257.0809867062074,237.2539893053431,-33.38042737667945,130.12521515968538,106.70620182638294,0
768.0,12.800256,148.28780518812445,388.9774023317026,281.9275674654649,-38.577690802250736,242.50701342504777,87.60410975920485,0
769.0,12.816923,181.95427209788983,527.588871240735,317.8865479243062,-17.986044810106065,350.00412733811527,37.72368071200454,0
770.0,12.83359,220.41550582964143,662.9208091758572,351.7975344121402,31.43563289503252,438.4322432074233,-39.21049151815271,0
771.0,12.850257,258.0541039612766,784.7470823404046,387.7797380316267,102.3176147934513,501.1681208757171,-136.4576122878328,0
772.0,12.866924,282.8744510444544,885.1400586082875,424.69410527422735,183.97991536570103,548.2525979111379,-242.30440380342745,0
773.0,12.883591,278.6450162246876,958.1444360050232,462.2698619836348,272.897499643347,602.6966551994042,-345.4850068593409,0
774.0,12.900258,232.611727203928,1000.8583305382272,507.2840799928355,376.10499754527706,687.0437013603798,-445.9595354038936,0
775.0,12.916925,143.05449042406178,1013.8023311638052,565.4523427263997,503.9735780465895,813.1319203004039,-556.5817361208492,0
776.0,12.933592,19.583500101582096,997.1843898229156,624.5912893205067,659.3613681169455,982.8860741594953,-690.7365853524093,0
777.0,12.950259,-125.1807195442282,946.5525031203692,653.9103328847967,834.0397903761888,1193.351242223257,-849.1229661711383,0
778.0,12.966926,-284.4696658577639,853.3215037489822,627.6983372989962,1015.6255150455022,1435.470833253894,-1017.6598867784244,1
779.0,12.983593,-454.7449744230397,710.3985441599293,550.2316300757526,1195.5848828935514,1685.5012613933934,-1173.0670161176358,1
780.0,13.00026,-621.0864550373367,518.3889272917238,455.2825376878295,1365.7794243564183,1895.51528248063,-1284.3875236656108,1
781.0,13.016927,-749.1942813160472,285.9186554255582,374.5867977832445,1503.85282405337,1990.501686561407,-1302.8206132473886,1
782.0,13.033594,-800.4684668018967,22.149849704578862,296.8270789687616,1563.375991893988,1881.212867549344,-1147.204204582923,1
783.0,13.050261,-756.8156602803007,-266.8967410517737,164.25140766018973,1484.3182911941776,1502.4785294198675,-718.0771090596882,1
784.0,13.066928,-626.0621261442341,-565.5724183693774,-64.41720219880544,1222.096873752584,865.7244943765369,23.688639948315284,1
785.0,13.083595,-426.4698717078554,-836.9192822692569,-339.81970942320584,775.2560860022078,74.74190945833466,952.2248226511828,1
786.0,13.100262,-177.75332482309477,-1045.744090244882,-534.0557990155498,189.05847624330136,-739.5467109845176,1781.804573917762,1
787.0,13.116929,91.43823527599577,-1199.7243724163743,-542.1236259646571,-467.814902915689,-1513.4964828807042,2253.597668303403,1
788.0,13.133596,339.6942235354751,-1342.1489928707222,-363.8932854997081,-1127.5364813241074,-2251.8288226371424,2342.643670080218,1
789.0,13.150263,525.2199704565948,-1486.5853703525067,-91.03026600873056,-1722.3868254242466,-2917.260141761969,2245.684631825687,1
790.0,13.16693,622.8255573960946,-1578.3933178272591,162.81833930732722,-2172.29669907297,-3357.833638613156,2162.3783199849,1
791.0,13.183597,631.916835765039,-1541.524733667387,316.1313687806012,-2397.2967962310904,-3393.4898039842487,2122.638033555553,1
792.0,13.200264,573.8808218861598,-1353.5478672802333,335.48246545667433,-2357.263649141244,-2979.492760526693,2014.3628829071015,1
793.0,13.216931,482.2441434909799,-1061.8814062513338,229.34162003389872,-2080.318237276955,-2263.5063763611124,1723.9832902531125,1
794.0,13.233598,388.4915088791869,-737.6912949569158,34.87896843851874,-1652.464172586645,-1480.0306642199048,1238.4863103086068,1
795.0,13.250265,309.3659460527826,-430.4111003880648,-194.8057252096047,-1179.676964037876,-803.5559427155121,652.8755440722728,1
796.0,13.266932,244.33563269166387,-165.18150768009707,-400.5531540673306,-750.0936436466452,-296.62914087561603,109.63956555746547,1
797.0,13.283599,185.3577788138444,33.67376684313085,-529.9064859761729,-414.5559273350617,43.63964163636458,-277.9247166475154,1
798.0,13.300266,129.3144996819324,137.3431361478553,-557.6938674510131,-187.11281542451636,233.589014026494,-471.4143922812999,1
799.0,13.316933,81.36654101081184,140.25428836274878,-501.8471983078037,-55.688794024495365,301.12939282050235,-503.6613454811845,1
800.0,13.3336,48.20334623393238,86.98997656295433,-412.9585816925076,6.616789445405663,302.7628740269185,-443.3920154171543,1
801.0,13.350267,29.702027701512336,58.26541995953697,-339.2285099124347,31.58355006386249,311.4161146150106,-358.5835179227266,1
802.0,13.366934,15.847028914272713,119.1978387472964,-297.3672892039108,45.43876606561789,377.2809770794548,-295.2040447954175,1
803.0,13.383601,-9.716431479155062,272.2503538656425,-272.9746109372215,59.99920475309651,499.26804651538646,-271.0769895682148,1
804.0,13.400268,-60.667918195162464,454.30020312230846,-242.687452382996,72.05834198808661,631.498408514904,-280.4891878788881,1
805.0,13.416935,-138.09818433184284,581.7517986528187,-195.9548287112897,73.2629801592621,717.8565685054677,-306.1594929084676,1
806.0,13.433602,-227.0596149262397,608.9312247580741,-141.75792637968087,61.806769657444704,729.1722769628394,-331.7357355175464,1
807.0,13.450269,-302.5754627869708,553.8270957930383,-97.87116902193009,44.89135247500035,677.8812415084913,-347.434950208047,1
808.0,13.466936,-341.3276965225124,473.8768029011932,-74.0892661343958,31.485845857376624,602.0292876479687,-349.0951871224188,1
809.0,13.483603,-333.5644098472636,417.2083101541704,-67.98179120982958,24.82773334722169,534.8734954781518,-336.5063010377586,1
810.0,13.50027,-289.1231578396165,392.1638045238708,-75.72030377994413,22.427410584066084,486.23122910836025,-313.2038825091997,1
811.0,13.516937,-230.80267892303675,376.6148820727501,-99.302226454035,21.985632930106192,446.53732382791793,-285.33877767354466,1
812.0,13.533604,-177.17005836816546,349.3553039025895,-140.01199232072724,25.19170411603123,402.5716852482676,-258.88751937356375,1
813.0,13.550271,-131.0678391120569,308.87724662332766,-191.17531784485385,34.77140729278678,348.92556876330616,-237.3126447896667,1
814.0,13.566938,-86.28237662565861,267.6148770981736,-241.31076664057844,49.747067087932905,290.26032547460727,-221.0851798764567,1
815.0,13.583605,-41.99722774532325,237.79171329653013,-280.591978254807,66.4411728687294,236.7703382415175,-208.8060593499825,1
816.0,13.600272,-5.979202141506928,222.14406227895512,-302.1371891480499,83.7126593684079,193.87411585053312,-199.11378607301333,1
817.0,13.616939,14.338067038401096,208.40445018398933,-301.1279346358941,104.15638964689164,151.1583682142524,-192.122868686736,1
818.0,13.633606,18.5903023674338,171.4274135052873,-277.3133792888931,129.45437458659782,84.88068093332178,-189.2256271942805,1
819.0,13.650273,11.532221137494147,91.65506177443024,-238.99881409662956,157.17718938457978,-19.90148949638461,-191.7421859476891,1
820.0,13.66694,-1.544564928590692,-22.79757839356433,-201.5563048078359,183.4263967906727,-148.53359234431582,-200.10631887500443,1
821.0,13.683607,-16.447536509939802,-138.87289636602958,-178.23206507661737,206.34133582088643,-264.70354473337204,-213.97298067529812,1
822.0,13.700274,-29.917557805714686,-227.57033452675768,-170.82461394588358,225.14896605374304,-341.3250643625656,-232.11220421104812,1
823.0,13.716941,-40.28397719263254,-285.6298778683747,-169.8603112967386,237.45818742188737,-379.25077957584347,-252.01583590981687,1
824.0,13.733608,-48.38863852625245,-326.77986884175385,-164.04160389109188,239.90856036857423,-395.41565355494606,-270.60378171383826,1
825.0,13.750275,-56.84638114425661,-359.2696708167948,-149.1495994963303,231.22718481946583,-399.8957474071365,-285.92898518673644,0
826.0,13.766942,-67.8162493933205,-378.2461638933319,-128.77500855856334,213.39157724383227,-388.935679116803,-297.6394486771106,0
827.0,13.783609,-81.18678744552122,-375.24687864575503,-108.83943084152172,190.18120088905027,-354.9557700336161,-305.35077813995474,0
828.0,13.800276,-93.94469390392187,-346.5783479232464,-92.46664310459953,165.26080155482552,-295.8997711798756,-307.15967452285383,0
829.0,13.816943,-100.2192762525056,-291.8986632003636,-78.30462105645748,140.71013464595094,-215.01892527753523,-300.3644475777237,0
830.0,13.83361,-92.40791833497846,-210.05364337176627,-61.29971839477178,116.31423165699792,-116.54458169651132,-283.3142859798269,0
831.0,13.850277,-64.23385440266046,-99.41697058007696,-34.553615112124575,90.57629729823816,-3.993124783060063,-255.77746186338084,0
832.0,13.866944,-14.348931620278268,37.45149847671066,8.1527663039898,62.90844657759963,117.61657709544446,-217.4518584788896,0
833.0,13.883611000000002,52.3943756070069,189.53469691356636,69.71364874780504,34.86434054584011,238.6547634422261,-167.28917299778263,0
834.0,13.900278000000002,126.5418557100934,338.6056547113461,148.0394201918698,9.705147021391667,345.3287514416299,-105.4339243309779,0
835.0,13.916945000000002,196.62824376382505,466.23976432900514,236.24245170426923,-8.804845093848272,424.239220578008,-35.55955255035076,0
836.0,13.933612000000002,251.6799977039996,560.2365744504974,324.66209451528647,-17.756623722725145,466.6396658110256,35.512376301295326,0
837.0,13.950279000000002,283.4387026673805,615.1741525379548,403.82639708081376,-16.050119428743155,470.0940060493697,100.53359731798275,0
838.0,13.966946000000002,287.49727425068494,629.4502998474463,466.9239343517472,-4.287097942228792,439.2897279433912,154.34966543779154,0
839.0,13.983613000000002,263.2764255076834,603.9051143730222,510.6446257617347,15.875575631597862,385.2843357937504,195.1398563420708,0
840.0,14.000280000000002,214.0901623318532,542.5711188356818,534.3127903965644,41.77255430588684,320.4923813838979,224.699794698941,0
841.0,14.016947000000002,147.26401408529176,452.624456217869,538.5774740065302,69.43017160066883,252.2974175264449,247.5433185351561,0
842.0,14.033614000000002,72.68757567313097,342.4483910664098,525.0946028188919,94.1621673056388,181.98673766737647,268.3196587261892,0
843.0,14.050281000000002,-0.0435936606850706,219.66992625873212,496.800625374634,112.09454978473934,109.71977487019927,288.693142168884,0
844.0,14.066948000000002,-63.50403172533577,90.63617908858728,457.3401407890357,121.43707151807642,38.80722519756771,306.32701666734926,0
845.0,14.083615000000002,-112.53239824255176,-39.36262315177253,410.0821700237278,122.78327984388564,-25.876177163445043,317.1673450075381,0
846.0,14.100282000000002,-144.42954319520956,-165.86432118393026,358.4342452366394,118.23869145568722,-82.80633420006305,319.1187334444577,0
847.0,14.116949000000002,-159.94372175250126,-284.3358593511731,306.79023560247964,109.42497920702044,-135.55335895616264,313.82657643797387,0
848.0,14.133616000000002,-162.8098141791873,-388.565689089636,259.55786222555275,95.86644987350388,-188.66017117900543,304.97599146764003,0
849.0,14.150283000000002,-156.64646788317663,-470.386624159995,218.658206548471,75.90601490000347,-241.72154354620807,294.9054170512022,0
850.0,14.166950000000002,-142.041484725535,-522.3500571836229,182.8566564862536,49.44032543192485,-287.982517307179,283.07195325563185,0
851.0,14.183617000000002,-117.4648352314581,-541.2661123695432,149.32110463550822,18.93598267964757,-318.4908214421239,267.5985042859408,0
852.0,14.200284000000002,-83.30525525478576,-528.0579120112939,113.96893381497456,-12.720359860832342,-326.14585050641745,247.4120356654134,0
853.0,14.216951000000002,-44.04978957781573,-483.103804073777,69.85810956278067,-44.65813156349893,-305.54151144548337,222.4388713775878,0
854.0,14.233618000000002,-5.527539468241873,-402.7285843037698,7.5492950555989395,-77.75157393899845,-251.599774958625,192.56658693709323,0
855.0,14.250285000000002,29.36314304395223,-282.4311195881993,-79.8129791747773,-112.86365380048164,-160.94454806565795,157.24325747037608,0
856.0,14.266952000000002,60.96778308546793,-125.5273131760651,-189.11708996611617,-150.7191691875709,-35.60770574970972,115.7379405409148,0
857.0,14.283619000000002,89.5206693461247,49.50301534186087,-303.7038468091449,-192.8482720983777,112.8262830273193,67.53396876460332,0
858.0,14.300286000000002,113.05634911281662,210.85363858810945,-399.1324155143839,-239.94990230846923,262.2032684743836,13.354397520230608,0
859.0,14.316953000000002,128.34386130840693,327.95138667347715,-456.8956194065451,-287.54788168355776,387.2982624582306,-43.45557838489934,0
860.0,14.333620000000002,132.2833909221115,388.8089361085073,-475.2722627915754,-324.3719843519413,472.3146118654134,-97.01570160076449,0
861.0,14.350287000000002,122.41506855870412,401.4152057614469,-466.7752648723258,-337.5156672274574,513.7234874156466,-141.17516069801795,0
862.0,14.366954000000002,97.4889886889201,376.7798708198365,-444.9937908870387,-320.4513427330296,509.23473509456255,-172.0733383714703,0
863.0,14.383621000000002,58.30794695309019,316.1335582816348,-414.8231296153384,-276.13319494211856,450.6976594041382,-188.97900177375777,0
864.0,14.400288000000002,8.680475970374571,218.1743594461364,-374.5648597508882,-213.70900431564328,334.0512895459268,-193.5319370768177,0
865.0,14.416955000000002,-43.07771659578417,90.96668549226324,-323.9912091554601,-144.49643093692458,171.027058085723,-188.52933863813283,0
866.0,14.433622000000002,-83.93466278495558,-51.44189252189776,-267.9813943596106,-80.1243641472386,-16.659622502071393,-176.91956722278724,0
867.0,14.450289,-100.99960364880718,-198.8050906498392,-212.9406930116124,-29.60551973554493,-211.459974069548,-161.5983827031249,0
868.0,14.466956,-90.48145020707862,-342.30825755977094,-160.98538174431013,5.263333964638445,-401.963700563271,-146.2787301051706,0
869.0,14.483623,-63.04648459773159,-466.3260211398675,-109.2113259063804,30.46065283766623,-574.8388799977827,-135.99282729275097,0
870.0,14.50029,-38.65522681088477,-551.8436913510603,-57.20990396151674,53.60467198814602,-713.2368575492,-135.21712218416462,0
871.0,14.516957,-32.44890661772325,-587.439496898168,-14.975463436603828,77.37807308974165,-803.30739312331,-144.61253418606935,0
872.0,14.533624,-42.516292464760895,-571.0865683021518,1.1198553988591513,99.41553600514597,-837.2962085544382,-160.2223594476014,0
873.0,14.550291,-52.20124769360461,-503.6848746485359,-17.19651606961769,117.30294802957285,-810.5695162567756,-176.34629671604938,0
874.0,14.566958,-46.47047578498716,-388.8544875440275,-60.59191036057298,132.18887258463457,-721.2849376741797,-188.40487317921057,0
875.0,14.583625,-23.517915158024994,-240.1231249462275,-106.9839049637432,147.4013778323198,-577.0002157420661,-193.00677700516516,0
876.0,14.600292,12.258974066447616,-80.5945282783141,-135.4370576866844,163.81261834452866,-400.30398792812525,-188.09033561124448,0
877.0,14.616959,62.82574888038783,73.02097941953727,-137.72290064694752,176.88921870908678,-221.616131371522,-176.68803403992342,0
878.0,14.633626,134.82726680449352,229.39346304314736,-118.52562495908148,179.5668968053497,-58.51447842340259,-171.10381468056048,0
879.0,14.650293,227.5014679205788,422.5407956491605,-83.13036613800452,169.2774116362381,100.39470030552476,-190.2628805580519,0
880.0,14.66696,326.9950616793506,684.6201481549795,-23.6749667449408,152.12488971581564,284.95171068727046,-249.6336318174797,1
881.0,14.683627,410.2973404440912,1009.1388779582326,79.49717563201949,140.30696006124464,509.2373491742718,-352.86633711767547,1
882.0,14.700294,451.565059736879,1336.331121684977,237.83968588309384,146.55935140173915,747.955966758401,-493.63935733539233,1
883.0,14.716961,429.4295988860896,1579.1818436984818,434.9824839208469,181.0808497468872,952.7948398022144,-665.3964356599178,1
884.0,14.733628,336.36640655396855,1673.6860689401774,631.2735679344341,252.2227740348532,1095.4497397666555,-869.028593903741,1
885.0,14.750295,183.45648036358912,1610.9366189641105,789.94765220248,368.9389369800657,1193.588816564656,-1110.8706980448574,1
886.0,14.766962,-7.04658173126928,1424.5091070716303,895.6202035716916,541.4969313042653,1294.69003968691,-1390.4172028679675,1
887.0,14.783629,-216.03921192132947,1153.320928812167,947.5061282448596,776.6343539767545,1435.5524539947926,-1684.590346988245,1
888.0,14.800296,-433.5698457443981,820.9921245442415,941.762106040342,1066.9628543639883,1612.7811534171342,-1941.56545370802,1
889.0,14.816963,-649.5971812443754,442.2994563758429,863.2962226603911,1381.3603612977738,1781.076891747289,-2094.843820283333,1
890.0,14.83363,-840.0722271747472,33.920057346935735,691.136142463263,1664.1874703827436,1869.330512525165,-2091.6546869056265,1
891.0,14.850297,-964.7863117034028,-384.1336203578429,414.6536943383859,1841.5157092729685,1796.1765466930738,-1910.745822591404,1
892.0,14.866964,-981.8434832557372,-786.7155979082725,55.67673221279359,1825.947676091464,1480.215840149102,-1545.9235905511182,1
893.0,14.883631,-868.4111006243318,-1138.3108057025324,-320.28480000171623,1525.4867943902668,859.3686262172382,-962.4390545981596,1
894.0,14.900298,-633.5489430824136,-1398.9179978114516,-621.0635001202654,883.9054843805045,-62.80895768073998,-79.26252049980485,1
895.0,14.916965,-316.1525377558792,-1546.141929508589,-766.9127948172077,-40.3223494658394,-1160.4166022056727,1155.4374580796048,1
896.0,14.933632,30.338068472290864,-1594.453360582274,-727.0438649699798,-1028.431461299837,-2186.1176494077563,2612.878258778297,1
897.0,14.950299,357.75277359091604,-1587.7216349514806,-535.5871569868747,-1791.5341830705663,-2878.692827340704,3921.091621665693,1
898.0,14.966966,634.7224170416404,-1563.111785685339,-281.30571257060217,-2164.712266837496,-3109.030348961738,4648.6862483916575,1
899.0,14.983633,844.0398597216586,-1516.894747637281,-71.64291991576691,-2208.0838893534947,-2930.281950270503,4618.463643714471,1
900.0,15.0003,973.9236213364654,-1409.359130237177,15.454236716823344,-2097.981143675556,-2501.5551624696504,4016.85197821238,1
901.0,15.016967,1014.4547457436328,-1204.633645811548,-36.68002870420352,-1949.7643014685543,-1979.154480264023,3178.3806884864225,1
902.0,15.033634,961.1749595126804,-901.4194014176752,-188.45009836320423,-1770.348357427033,-1453.5733555308552,2317.2676059748264,1
903.0,15.050301,821.0829895124771,-530.6146254011726,-376.2880720441637,-1533.2433676144065,-943.0011037830031,1486.6331953720935,1
904.0,15.066968,616.1561772074132,-138.20746399476883,-544.4793497462039,-1239.8278276708602,-433.76946762060754,707.0199398022071,1
905.0,15.083635,380.5662874149688,227.0570060716261,-658.0610313143175,-916.1002223517172,63.03564527915094,44.04823313016516,1
906.0,15.100302,151.073734656816,524.1356306374685,-698.4614928883968,-592.0167815452023,492.0419096338617,-429.5066769928405,1
