Frame,Time,RightHand_Accel_X,RightHand_Accel_Y,RightHand_Accel_Z,LeftHand_Accel_X,LeftHand_Accel_Y,LeftHand_Accel_Z,Label
1.0,0.016667,34.231076459861896,26.085129658937166,20.765632370852103,9.595443890311412,2.907215743653954,13.733052406261,0
2.0,0.033334,27.27670357337172,22.064658014601104,11.19259336167646,7.540916015909092,1.9264694881052655,10.288765537651424,0
3.0,0.050001,19.129177158848258,16.28979576747954,0.4604131968620187,5.531805781146097,1.0596420800832171,5.79683192752354,0
4.0,0.066668,11.59066185028294,9.10260273922895,-8.150086519032067,3.262345169875449,0.5257014581998003,0.4569656445066328,0
5.0,0.083335,5.61903526526178,1.4262474634709417,-12.829658709713025,0.5051894718423975,0.3294142938670863,-5.335639772662937,0
6.0,0.100002,1.045052887009977,-5.313863957982891,-14.043500596921938,-2.059029465684458,0.4222099958936055,-10.429906083154188,0
7.0,0.116669,-2.8228743071433198,-10.038541524958454,-13.649780825035933,-3.724666618984197,0.6682215120737276,-13.05768565848764,0
8.0,0.133336,-6.333439235172799,-12.69944157960535,-13.410639685245616,-4.957215282240515,0.7566787351559199,-11.840874935212987,0
9.0,0.150003,-9.22316654948057,-13.955192989571088,-13.992128478183616,-6.746866012400907,0.4791237908124298,-6.970654221469469,0
10.0,0.16667,-10.994463713382352,-14.330306230348056,-14.792834488477768,-8.927873675525653,0.0979681585031156,-0.4465248740290248,0
11.0,0.183337,-11.342154254749396,-13.88408421410223,-14.58671882601707,-10.04428098732706,0.125830179406166,5.136194981489093,0
12.0,0.200004,-10.413551710060316,-12.572792193246029,-12.685685361068646,-8.99724385550368,0.648915012963063,8.301522270598674,0
13.0,0.216671,-9.059109150942252,-10.647938053544731,-9.795021359123265,-6.261593495929603,1.0622734253419084,9.337562808708244,0
14.0,0.233338,-8.667204509433127,-8.58376733256799,-7.608967646719206,-3.488521597540133,0.5825709652640988,9.433596581512768,0
15.0,0.250005,-10.045153258468702,-6.716289317929319,-7.164317370453351,-2.30452787555759,-0.960034546987629,9.235070348046536,0
16.0,0.266672,-12.275176942115102,-5.084976518890396,-7.477924878834218,-3.249556022356275,-2.7575414045943223,8.081091418869526,0
17.0,0.283339,-13.25775413324725,-3.6098443884337374,-6.230946710917737,-5.376984986123532,-3.477515314523873,4.751460738366863,0
18.0,0.300006,-11.618527839330678,-2.2964045516942617,-2.193994133588416,-7.03698342923893,-2.3260640677035944,-0.7378496389199005,0
19.0,0.316673,-7.69682501297622,-1.2603269891668003,3.1973569959028376,-7.399603636440936,0.1957796074612712,-6.313154962641335,0
20.0,0.33334,-2.803313186638446,-0.691973310233296,6.9892889346594265,-7.05645880705367,2.698650778899812,-9.386300241496231,0
21.0,0.350007,1.7323520413313285,-0.8439284855038843,7.19424442282289,-7.050842971097815,4.065161970324857,-9.13898042177235,0
22.0,0.366674,4.715568419637098,-1.941604384283095,3.739107619161997,-7.740480906462011,4.077870792418535,-6.840121994032875,0
23.0,0.383341,5.034958235988936,-4.044884134355201,-2.616281176470304,-8.777537286954932,3.0916357684696902,-4.223975775244559,0
24.0,0.400008,1.972975664812412,-6.962387368136426,-11.167095646344626,-9.74875877922148,1.520868204726974,-2.2029292988022684,0
25.0,0.416675,-4.104012039696139,-10.05687746864145,-20.52447946203077,-10.459787071245168,-0.2548974107007218,-0.9559875714219608,0
26.0,0.433342,-11.013134940239285,-12.034213986076416,-27.738229743862064,-10.763937654390894,-1.8082583712625035,-0.4266844284178999,0
27.0,0.450009,-15.256086013121354,-11.521035867491252,-29.63541168521234,-10.48298465161959,-2.816260462188948,-0.343802258951972,0
28.0,0.466676,-14.498621010953276,-8.501938241058362,-25.845803888525097,-9.57873088571002,-3.300191184414942,-0.1010323224119994,0
29.0,0.483343,-9.689488571247056,-4.865304272388769,-19.72839560717424,-8.227975303586108,-3.474789477984686,0.9307506236164592,0
30.0,0.5000100000000001,-3.971264767417714,-2.825789701372428,-15.16205307374354,-6.67332567660143,-3.3077638211006497,2.885333997934357,0
31.0,0.516677,0.1275979728565608,-2.865782277910752,-12.656394810911795,-5.120985453401708,-2.50633714081671,5.220959084340582,0
32.0,0.533344,1.6664788806491966,-3.559366563958301,-9.41881386810434,-3.7810173067826502,-1.0558910641161106,6.890141709821812,0
33.0,0.550011,0.6410982662907809,-3.067171380957295,-2.814859958873994,-2.810719838047464,0.5139122992847067,6.6844214734632885,0
34.0,0.566678,-1.907265618628388,-0.4014114688777496,7.196998789470992,-2.121632563588606,1.5639714360514634,3.9225717839252474,0
35.0,0.583345,-3.644133779252375,4.270523845589187,18.621393780403952,-1.3755311986119054,1.8875282529791,-0.774396352045745,0
36.0,0.600012,-2.4708480974977416,9.799071520922393,28.997030209513007,-0.291440573700229,1.821481659214793,-5.649683538792472,0
37.0,0.6166790000000001,1.4035083262010517,14.54104770283632,36.12911132937021,1.1257552482455924,2.001525640402534,-9.084019011019858,0
38.0,0.6333460000000001,5.531010492771765,17.201636140750168,38.45886770116271,2.773542742203394,2.9114676584596384,-10.558762208992633,0
39.0,0.6500130000000001,7.422764054841389,17.460630060484853,35.71854143387464,4.735473568894672,4.423356618427109,-10.38667903402284,0
40.0,0.66668,6.439067632131367,15.742259133487437,29.114337157297506,7.024217168949871,5.771315876391746,-9.064793802672671,0
41.0,0.683347,3.7152557156465527,12.46652472899678,20.58448964795612,8.932863097430065,6.099242134627128,-7.129143232187696,0
42.0,0.700014,0.8367376499441375,7.820216870718776,12.067075840656852,9.11397114629868,5.109008452043755,-5.122951978090438,0
43.0,0.716681,-1.123900899535585,2.31680334903243,5.243017539163004,6.801083930737472,3.260218706511162,-3.28224326208233,0
44.0,0.7333480000000001,-1.7489100630734489,-2.822011241941624,0.986400119634756,2.81908732857039,1.3925553297933415,-1.393026546382723,0
45.0,0.7500150000000001,-1.0247242887956385,-6.175758161384548,-1.303129814537925,-0.9834475652155534,0.1112214505661487,0.8646522402627062,0
46.0,0.7666820000000001,0.9876650974969082,-6.976595555785698,-3.1200186171203947,-3.2706510717180515,-0.5205207179424598,3.477941325080144,0
47.0,0.7833490000000001,4.1072250545356574,-5.5761532060496215,-5.3124905295121065,-4.047091732209067,-0.7650997642818085,5.991563440733886,0
48.0,0.8000160000000001,7.426962781504341,-3.439503703765544,-7.626282625509475,-4.162755264847967,-0.8441072258745128,7.74276615404447,0
49.0,0.816683,9.227637416198004,-2.4832622162567954,-9.648391300170694,-4.277660162695315,-0.8933283329654782,8.28252724817997,0
50.0,0.83335,8.394304036684275,-3.5735836274458004,-11.157563275227426,-4.346227197537308,-1.169080208532053,7.734265851976635,0
51.0,0.850017,6.081698231685001,-5.280005296373036,-11.26987788138156,-3.9695749320403424,-1.9766940608051704,6.673206789514194,0
52.0,0.866684,5.245680506286997,-4.69213400465314,-8.423722572153313,-2.999904020422319,-3.1374760427306185,5.423593146094783,0
53.0,0.8833510000000001,7.816853629577561,-0.2234729625827076,-2.296588680212768,-1.6370398744022188,-3.719970116573842,3.538630247977586,0
54.0,0.9000180000000001,12.501457445103783,6.403594259759379,4.688077059057302,-0.1342198799732258,-2.789830770374671,0.2991180828288842,0
55.0,0.916685,16.019858449511204,11.460963539973044,8.882621915211306,1.2673553391860144,-0.5228803738775363,-4.266821414419531,0
56.0,0.933352,16.372496590102703,12.48092899230792,8.581055604866156,2.187515338764757,1.7563915774669945,-9.14389634713967,0
57.0,0.950019,14.225626881461672,9.87479315801857,5.104597461428404,2.2405437882756707,2.701517296015073,-13.066949895348037,0
58.0,0.966686,11.393937414320238,5.687380550157672,0.9530415562826752,1.387516724632882,1.888566107237658,-15.251983926390247,0
59.0,0.983353,8.89401379153574,1.5921868944139277,-2.3776260071142232,0.0172887814563487,-0.1730772481680816,-15.556093557153556,0
60.0,1.00002,6.539475811700772,-1.820060059705178,-4.858649684852649,-1.2074783474618072,-2.442054037240521,-14.29492853301382,0
61.0,1.016687,3.811678078245726,-4.507512623203354,-7.029050983761362,-1.4233092656984008,-3.721636738561162,-11.9007397777324,0
62.0,1.033354,0.8446628393225888,-6.305788807468971,-8.991191917946036,0.2060578499594572,-3.2641599043139427,-8.520213964177241,0
63.0,1.050021,-1.3876600358870856,-6.82632034577861,-10.074629819721707,3.785261656102968,-1.4702317695676368,-3.9972181329141416,0
64.0,1.066688,-1.860120262748766,-5.869475461925663,-9.270412709086276,8.090716070527616,0.2234842309735842,1.531255139020272,0
65.0,1.083355,-0.4989957830206341,-3.892369519526447,-6.086131168703552,11.088763224541893,0.5345326203653873,7.127715362601066,0
66.0,1.100022,1.6705561718066004,-2.0270637977084034,-1.229647781061412,11.455382369413451,-0.5896885259396779,11.454901727909906,0
67.0,1.116689,3.4804583682338723,-1.3611783094370615,3.5193574892378003,9.604488108827503,-2.1800038398886583,13.725362975346634,0
68.0,1.133356,4.715259566276183,-1.9036494309398853,6.446373068201306,7.108249118269805,-3.322243133307296,14.096967132248151,0
69.0,1.150023,6.109152623108234,-2.4403739773291235,7.087051988529782,5.245254631588071,-3.872310906078657,13.190658435072155,0
70.0,1.16669,8.23690727881684,-1.773262991242068,6.12423866000549,4.288863792606438,-4.310837673030534,11.43593033721964,0
71.0,1.183357,10.695639625456348,0.1007208969545082,4.337425287162203,3.97863766623064,-5.046791502971652,8.895334196338423,0
72.0,1.200024,12.599605947674595,2.412618659292358,2.1676238117006825,4.185568818863424,-5.733572623564946,5.5238621630338764,0
73.0,1.2166910000000002,13.62503633930019,4.846790827401045,0.0273335726398959,4.889605206764674,-5.288880969540299,1.458952181143373,0
74.0,1.2333580000000002,14.150153655967522,7.622065698872323,-1.83142659380071,5.764481560696426,-2.865183546451722,-2.8921792979977226,0
75.0,1.2500250000000002,14.37711096045392,10.319645270792666,-3.875415903824658,6.189967952756341,1.1312080145522194,-6.941480829919222,0
76.0,1.2666920000000002,13.662942914697354,11.33996191796291,-7.065375569834696,5.778426927413963,5.161889618761792,-10.132926837341152,0
77.0,1.283359,10.889449606618372,9.219476069302038,-11.685949280776205,4.753204652938557,7.719511921753194,-12.219737754301526,0
78.0,1.300026,5.469081005951415,4.534507476297151,-16.53426644834964,3.755890659655528,8.272173931195127,-13.35581651862429,0
79.0,1.316693,-1.8350082761117137,-0.0424644059054482,-19.45567347527477,3.2208193134184318,7.171431622421015,-13.705324984879628,0
80.0,1.33336,-8.782453741788618,-2.00719736602687,-18.827742648711087,2.716386717358488,4.968765345586182,-12.84299483817345,0
81.0,1.350027,-12.566884479503006,-1.2301308530923944,-14.84148221445664,0.952924039799064,2.081406156684628,-9.895990627081922,0
82.0,1.366694,-11.624504018959874,0.2993404479291828,-9.552214925126725,-3.005295550068026,-0.9480072497650862,-4.755050516199002,0
83.0,1.383361,-7.018832523549066,0.6966675779955671,-5.372653601202527,-8.250942717241587,-3.298641145897735,1.0415260398940034,0
84.0,1.400028,-1.8538315945149595,-0.0988492191666539,-2.9524207069011164,-12.20499665269188,-4.355398934716086,5.271688115387882,0
85.0,1.416695,1.011009219345448,-0.5673584107735841,-0.4962188351424212,-12.659320343342824,-4.214621878336698,6.963019913147008,0
86.0,1.433362,0.8274637330756635,0.7322488945628165,4.293244000045538,-9.513078815294351,-3.416299792664092,6.957192854171085,0
87.0,1.450029,-1.1731692585836349,3.661659004440724,11.474472232349209,-4.551350886396662,-2.322809971194795,6.609376726728408,0
88.0,1.4666960000000002,-3.3213247165705333,6.599144262125497,18.592199179338877,0.0597873042347057,-1.0660764561102796,6.411100723330552,0
89.0,1.4833630000000002,-4.773928311213133,8.055817160684661,23.12174327183905,3.054975011573157,0.0508085124546129,5.925626697810824,0
90.0,1.5000300000000002,-5.726082463162824,7.850626212354616,24.327249997299063,4.403597619749808,0.5245548027497027,4.57472779061925,0
91.0,1.5166970000000002,-6.935615036206476,6.491866798882709,22.548631548086384,4.807727592863324,0.1204398518191589,2.1766427093949416,0
92.0,1.5333640000000002,-8.950130020457756,4.16735391787017,17.90533955378618,4.9296143420695895,-0.8156959686487617,-1.0707903279079614,0
93.0,1.5500310000000002,-11.317383499216657,1.1356512688414218,10.685126600259286,4.999359285417963,-1.5776508961966655,-4.75458797947414,0
94.0,1.566698,-12.54217277948701,-1.4884148921452869,2.32374246170587,5.008061254922811,-1.6121849087124205,-8.26382702309072,0
95.0,1.583365,-11.249751987815875,-2.4383521141673783,-5.109405482566498,5.010253326788531,-0.9191402632943888,-10.753012455879173,0
96.0,1.600032,-7.560750534097147,-1.6220243420060108,-10.27233187131064,4.982016739057864,-0.0292626563755197,-11.286817520620072,0
97.0,1.616699,-3.2657527867638465,-0.0150558963594111,-12.975888535000346,4.467375407612767,0.4645830178391885,-9.287941773981435,0
98.0,1.633366,-0.7062436314423404,1.4220871962103818,-13.86784246110569,2.7644213391027423,0.3667793521501207,-5.084004335796186,0
99.0,1.650033,-1.2323325375453145,2.0625979856493863,-14.066551273078597,-0.3135491071226148,-0.1586360291061476,-0.0301662770799615,0
100.0,1.6667,-4.061923659036913,1.4736768190146043,-14.187092729083057,-3.997642446865769,-0.9108421941715156,4.094991376528227,0
101.0,1.683367,-6.533683366773763,-0.0505042578773968,-13.300516275216724,-7.043831671564121,-1.7141606907920328,6.022972882201753,0
102.0,1.700034,-6.242993829752999,-1.2162923593852302,-9.870610225452443,-8.643429012810154,-2.312869650960631,5.550266886954463,0
103.0,1.716701,-3.25486025992888,-0.9293940246263424,-4.124335731267792,-8.797634547118932,-2.5293033023000224,3.414491807834908,0
104.0,1.733368,0.2562670614452491,0.5412975837621428,1.5418258486974017,-7.86451079935785,-2.488157911529461,0.7184376186959405,0
105.0,1.7500350000000002,2.419236965983277,2.338095118097662,4.916447700936359,-6.017107765348982,-2.460842415142514,-1.6911948940048152,0
106.0,1.7667020000000002,2.979180456748299,4.425348294460843,5.908786276616929,-3.318061774370441,-2.508482968314898,-3.5535021262729343,0
107.0,1.7833690000000002,2.494849741067877,7.189569733409865,5.850769163833075,-0.0861166962481744,-2.404652642445403,-5.074025522926361,0
108.0,1.8000360000000002,1.3145883215056469,9.786027705895512,5.544835879803334,3.007923548091495,-1.9308493936570632,-6.472682653407508,0
109.0,1.816703,-0.469516222502899,9.982769327350915,4.470240815591814,5.031886055227568,-1.233716147616211,-7.571501990435756,0
110.0,1.83337,-2.6794045092473597,6.292875138842773,1.7002906265398383,5.057411027871583,-0.8144189136127159,-7.870292526083965,0
111.0,1.850037,-4.842372627240302,0.002003725698971,-2.842579239463827,2.879076803896181,-1.023736067835441,-7.205272840604575,0
112.0,1.866704,-6.2198622372072885,-5.48080474410954,-8.015919122550587,-0.4174823353502068,-1.6165864224283255,-6.252257100395156,0
113.0,1.883371,-6.346486271979864,-7.440297317269373,-11.852219296581236,-3.1234224951744247,-2.003465160398708,-5.982459679350867,0
114.0,1.900038,-5.680356060233226,-5.773236596454936,-12.482214009099456,-4.3398520294838825,-1.871297364222188,-6.56813339868398,0
115.0,1.916705,-5.225466141361091,-2.211931840071216,-9.597417115251638,-4.511211725701012,-1.3338137865433328,-7.210036126433707,0
116.0,1.933372,-5.149471655687243,1.6952052725341842,-5.101580857984686,-4.632898179952758,-0.6556800618081327,-7.127206179456349,0
117.0,1.950039,-4.090726442733956,5.483715681753805,-1.4650262438886563,-5.243767254718071,-0.2354876099794038,-6.442464968647224,0
118.0,1.966706,-0.3290852462594769,9.03426938700449,0.4973798195111549,-6.12445769506529,-0.7255077926711446,-6.024986964795062,0
119.0,1.983373,6.19370877517864,11.474615410908896,1.4136941790413162,-6.716271712886293,-2.537477467976966,-6.550735566954808,0
120.0,2.0000400000000003,13.131636845420555,11.208030440128972,1.3804583121255396,-6.822456658249526,-5.0132334272574655,-7.733252820741775,0
121.0,2.016707,17.148285132704174,7.333738461991698,-0.5006539022519365,-7.004757871325057,-6.620317976088129,-8.560564520917119,0
122.0,2.033374,16.19903999333289,1.0196248652350637,-4.380905838341891,-8.196407076016005,-6.446164721109229,-8.402903713198304,0
123.0,2.050041,10.758931089734755,-4.879640034760978,-8.266047814708141,-10.694647815325988,-5.234178861078935,-7.818866769868462,0
124.0,2.066708,3.381932785006611,-7.634134842458286,-8.956812459811013,-13.419020176676083,-4.405249574446647,-8.042658385316297,0
125.0,2.083375,-2.7228679856533886,-5.876888804772779,-4.467622221802195,-14.331469088039704,-4.052794170062107,-9.54066915018617,0
126.0,2.100042,-5.162879897586787,0.5697705828787388,4.600231160909554,-12.041607513854894,-2.3578716525181886,-11.32398966418908,0
127.0,2.116709,-3.066828637204595,11.206833023754298,16.19372880804231,-7.265615954041329,2.866990933185537,-12.34322936221031,0
128.0,2.133376,3.098763438629991,24.780478717151887,29.18854614861605,-2.326831349283251,12.299203697834812,-13.91986160669221,0
129.0,2.150043,11.665862336152792,39.01039304823305,44.30624497123105,1.2807291202256137,24.566506704038023,-20.052273830022116,0
130.0,2.16671,19.73103237166724,51.307244726809415,62.62841243821551,4.623543103634495,36.99648308798503,-34.26637972594131,0
131.0,2.183377,24.49765460394044,60.86754125777864,83.58284469154155,10.072946443194471,47.10124735095402,-56.245565086453794,0
132.0,2.200044,25.687731812742683,69.78937759965478,104.41117142457176,18.29338010090229,54.04367056309014,-82.00989699145293,0
133.0,2.216711,25.63873073411059,80.23095220958011,121.08080814864218,26.981786631300963,58.52979309224234,-106.58499433019702,0
134.0,2.233378,26.362505410206676,90.0086313835712,129.9396065106119,33.12338125972358,60.96268579206509,-125.6379008998397,0
135.0,2.250045,27.6303699939357,93.0312105582391,129.85838597997312,36.41571676801067,60.38344383594462,-135.71873798813428,0
136.0,2.266712,28.00957076272433,84.88065984827222,123.30084565895991,39.580973205184456,55.52631855932293,-134.8851127142454,0
137.0,2.283379,26.10021704904588,66.42179575713325,114.16332787389432,44.770945777605846,45.95433892375672,-123.63082185178644,0
138.0,2.300046,20.746313651856465,41.869128207743216,104.06152904489343,50.46218204273878,31.814609141485317,-104.76643867263826,0
139.0,2.316713,11.803270846689012,15.206337452494273,91.73934898137712,52.86971207319792,13.604041955707956,-82.05371757195152,0
140.0,2.33338,0.9467346073495309,-11.28475394228434,76.19720459202533,50.00272065852676,-7.022463061994891,-58.57628974536047,0
141.0,2.350047,-9.369597692902705,-36.45176412658486,58.8065665056962,43.29348129118299,-26.845906540896053,-35.742125414732435,0
142.0,2.366714,-17.745706482332707,-58.95060912720287,41.41685550702957,35.388347130715594,-42.57206848196164,-13.046876554534196,0
143.0,2.383381,-24.0852645563015,-76.75466525849825,23.37381077922131,27.3909716114168,-53.02922077753455,11.426376071534548,0
144.0,2.400048,-28.563494039718552,-88.40384705334382,1.9892836608882816,18.656194716469507,-59.341080199597975,39.35921256703923,0
145.0,2.4167150000000004,-31.17782348731209,-94.32256739823411,-23.86440911618153,8.641716771457244,-62.77302824205682,69.98458010953783,0
146.0,2.4333820000000004,-32.246784727883686,-96.1203790937567,-51.93312604805123,-1.9339185674137256,-63.26669537376964,99.64304566040045,0
147.0,2.4500490000000004,-32.54135556851856,-94.60895276749022,-78.72683047306666,-11.983047983715467,-60.46555751091125,124.24770645307326,0
148.0,2.4667160000000004,-32.27418653914893,-88.64546920682908,-102.01556397614556,-21.31844281615283,-54.92260875027048,142.15195933516208,0
149.0,2.4833830000000003,-30.466741163747933,-75.92254589174095,-120.59338081405416,-30.084271890273925,-46.99575649263825,154.2185619682865,0
150.0,2.5000500000000003,-26.23780732555948,-55.56995585379991,-133.28809450122236,-37.01115248067771,-35.31121378307007,161.4105574904262,0
151.0,2.5167170000000003,-20.37612263064246,-30.651017674845477,-139.65963204125427,-39.49324298472172,-18.41141459436306,162.9697568195398,0
152.0,2.5333840000000003,-14.827715402690888,-7.523637195242033,-141.02131379359798,-36.32382565651549,1.5717264150611143,157.05336488783752,0
153.0,2.5500510000000003,-11.0673939319245,8.117796193269374,-139.64028618013978,-29.83219326676668,18.490671740209272,142.91682202514377,0
154.0,2.5667180000000003,-9.674843483722068,14.435394577585908,-136.84461306865748,-24.389241748090072,26.303319847642825,122.48210012202674,0
155.0,2.5833850000000003,-10.61597363548682,13.072250634766547,-131.94738627003164,-22.86393929882857,23.141033425668724,99.68512211547818,0
156.0,2.6000520000000003,-12.622940874289425,7.265048798190986,-122.60326779850776,-25.03553308288157,11.718818253675096,77.95947859410022,0
157.0,2.616719,-12.994473563660817,0.5520459433583396,-106.78685140079762,-29.02801324973946,-2.987790671805498,58.461130679706265,0
158.0,2.633386,-9.795720000648666,-4.8792472246635965,-85.96219168628494,-33.29762310487219,-16.440726838026592,41.10510714913923,0
159.0,2.650053,-4.352169026745724,-9.90411274879326,-66.0299980833344,-37.15092681638493,-26.296628401567357,26.797057110535043,0
160.0,2.66672,-0.44239425101427,-17.336365180222423,-52.909996928435,-40.17239772519836,-32.76490739611158,17.572999652931372,0
161.0,2.683387,-0.9652737246492916,-27.95925276190462,-46.64770566546088,-41.76647456392928,-37.52031831977136,14.499720209924607,0
162.0,2.700054,-5.682377953974407,-38.308059351033485,-41.56531469330046,-41.28565865905394,-41.57593658347737,16.03916757952707,0
163.0,2.716721,-11.246854302753302,-43.17352973208788,-32.65050925513701,-38.44418404979452,-43.62554452391609,18.470948536233923,0
164.0,2.733388,-12.954715426082764,-39.88056625668968,-20.47358750046066,-33.589517036858226,-40.97562463382996,17.99364255960079,0
165.0,2.750055,-8.120714965112942,-29.89916356813584,-9.689403842727392,-27.715522586192723,-32.7926896653082,13.29062543914587,0
166.0,2.766722,0.8706266704135137,-17.326967872972503,-4.119573126389667,-22.159251265590957,-21.88572135846702,6.415453987987755,0
167.0,2.783389,7.8067950327357245,-6.405656264460863,-3.796504144460389,-17.864988354829492,-12.346197825975532,0.5498226063921092,0
168.0,2.800056,8.34452647689075,0.6708549965192614,-5.647006505763083,-14.815752273081626,-5.812387017920502,-3.0313530474683263,0
169.0,2.816723,4.274451999569145,4.714556424753819,-6.079384011511862,-12.526448231382744,-1.0981966855622558,-5.139956209660038,0
170.0,2.83339,1.4818577661263763,8.067088192442663,-3.325826978837791,-10.90230333064569,2.9039186944214084,-6.845178358843741,0
171.0,2.850057,4.079171634390399,11.8940420936073,1.9102273753627104,-10.094893416026244,5.575936948374171,-9.100849272968484,0
172.0,2.866724,10.99190365222071,15.439352077943308,7.769196072018206,-9.953124032917508,6.05812972356011,-13.25023223568703,0
173.0,2.883391,17.81203099067624,17.78906703275546,13.216974669546984,-10.17766204110342,4.76212315829522,-19.687266498627228,0
174.0,2.900058,21.297502586087248,19.371345519655684,18.9275847954322,-10.452242815710784,2.746118558935359,-26.53535838828512,0
175.0,2.916725,22.052476982109496,21.46390474954873,26.271023471381188,-10.064306289134228,1.0928451286964247,-31.636467902901508,0
176.0,2.9333920000000004,23.463670926579997,24.87976992564681,35.36181219547878,-7.898798556211383,2.003748843614366,-35.2871565360004,0
177.0,2.9500590000000004,28.786432572448945,29.75451188789693,44.683952524388005,-2.486885808503007,9.58790646237604,-39.59828156019667,0
178.0,2.9667260000000004,39.58904566159664,37.36468775392575,53.785768115418975,8.932074750603537,28.447944799626733,-46.37823337472793,0
179.0,2.9833930000000004,56.72015402265708,52.82671872848909,66.4569332124444,31.059251779964484,61.56684336235246,-57.33325941087955,0
180.0,3.0000600000000004,81.93287622197724,85.05889366903604,89.88861404628817,68.70234750093692,109.71766569175465,-75.58201823601497,0
181.0,3.0167270000000004,117.4254766249451,141.6747851071317,129.63185742976304,122.99649925591368,171.97400038243708,-105.51467687298413,0
182.0,3.0333940000000004,163.05589293634375,222.5203992588769,185.43033575137437,189.1121867595511,245.71219316725603,-151.083909595725,0
183.0,3.0500610000000004,214.02268789105264,318.4557401393595,251.89437127574945,258.30151700323734,326.2911311697424,-214.1337333400261,0
184.0,3.0667280000000003,261.5316607829809,416.21330128145,322.4304124425906,322.4708414729419,407.58367794721846,-292.9677030430154,0
185.0,3.0833950000000003,296.1041853906921,503.630694536996,392.1693807008038,376.11389725153714,483.18088512368377,-381.3232091186279,0
186.0,3.1000620000000003,311.37487169659283,571.6156287911406,458.0077193563119,414.15810724052767,547.1774970977925,-468.87608498752735,0
187.0,3.1167290000000003,306.0532092735472,614.726784808056,516.8778194134819,430.09728734699087,594.2784553581159,-543.2863522506866,0
188.0,3.1333960000000003,282.37099505561144,631.758673062807,563.7336673632019,417.9767475543388,619.9884082417931,-592.6303774455378,0
189.0,3.1500630000000003,242.17933757273164,624.8760031603526,590.7941055191416,376.3114557053424,621.6510538773878,-608.205709265046,0
190.0,3.1667300000000003,185.5996773973008,597.9736285604494,590.3571979336748,309.82115609502887,600.048539510854,-587.7848647833387,0
191.0,3.1833970000000003,115.19635913543326,557.0280346743125,560.6637660649301,227.53649564078637,560.0642862209081,-536.4737520651084,0
192.0,3.200064,40.143649972922375,510.9620730494319,508.5062580222302,139.069026161926,509.1141784962659,-462.6024238753354,0
193.0,3.216731,-27.92183038064748,468.7070445659508,443.665003028124,51.65918961280455,453.9927128871064,-372.3643850082258,0
194.0,3.233398,-84.8036279261776,434.0530032164327,370.5777516487675,-30.57699801864993,398.6315168011741,-269.1005462235138,0
195.0,3.250065,-137.01614921364413,404.5601296962386,286.91626253431497,-105.50444403198507,344.7269705019972,-156.20226812202162,0
196.0,3.266732,-193.90568325918585,375.0823530842924,189.7152432992271,-171.34575197138747,293.8605140200969,-38.24065872580948,0
197.0,3.283399,-258.07472681880245,340.181303691181,80.9960585346195,-225.9541147402805,247.31285300223183,80.45116968204951,0
198.0,3.300066,-323.1080535206923,293.29540554432765,-32.5289798142629,-267.51860415409044,202.9788172802937,196.5171304326517,0
199.0,3.316733,-377.5905578577938,226.804411321016,-143.45705325038108,-295.8180517670828,154.19893834161155,306.7452593159415,0
200.0,3.3334,-410.7974178763574,135.63427628546225,-246.38632775140871,-311.99570597318893,93.8065971552613,407.4593191949865,0
201.0,3.350067,-417.50965661288353,21.114660290359467,-337.58486368798185,-316.62173770291923,19.296371255812826,495.1215558466147,0
202.0,3.366734,-399.5087991830802,-109.1296926730314,-414.1429312331353,-308.7223931107534,-66.60856599642463,567.2883675830633,0
203.0,3.383401,-361.79803419665393,-244.72383848944696,-474.8812998510717,-286.84420285920885,-159.05258798457567,622.7267322372317,0
204.0,3.400068,-306.4229902296379,-375.6926240909277,-521.4588925699818,-249.8920487012608,-252.8601817028868,660.8393110710189,0
205.0,3.416735,-230.2706176831922,-493.116318076595,-557.2072113945086,-196.5889514294903,-341.88274624751773,681.5796890656192,0
206.0,3.433402,-128.75357850022988,-588.7737913264975,-585.1095230365828,-124.7505388911016,-418.7227421648431,686.3415072374025,0
207.0,3.450069,-0.2684388607804422,-656.4655401475851,-608.4222766384377,-31.263128418606613,-476.59108020388805,679.2858772471288,0
208.0,3.466736,153.3731432341086,-695.1192713134745,-633.9240426999095,86.9327838169622,-512.0275523483134,668.6798863135923,0
209.0,3.4834030000000005,329.6309275532274,-710.1881058088818,-674.2906922387863,231.1870374515533,-526.0816131970304,668.1831997670728,0
210.0,3.5000700000000005,527.4349580920813,-710.0897662585614,-747.1734379622785,400.3985296328022,-522.4937753330826,697.4617615639293,0
211.0,3.5167370000000004,746.4058079269214,-698.8552307619215,-871.322300276393,591.3976435598363,-503.0527496045764,780.8497555645366,0
212.0,3.5334040000000004,982.1586137259536,-670.0451920279866,-1061.3623710833729,797.0738159436539,-462.1497454439627,943.3612219816785,0
213.0,3.5500710000000004,1219.271154978043,-606.8515910729567,-1323.0224301635794,998.6582263963004,-384.423014967427,1204.220447046761,0
214.0,3.5667380000000004,1426.6424631197997,-489.897953926466,-1650.333105378233,1154.492101515394,-250.36440693915017,1567.944680517816,0
215.0,3.5834050000000004,1558.3302941009715,-310.7656539296749,-2024.438580244336,1195.6243177419638,-52.37401432224097,2013.1894993388116,0
216.0,3.6000720000000004,1556.1415892928887,-88.36626497911652,-2409.6596379339508,1039.0245708321386,183.61442307200235,2481.7009746003177,0
217.0,3.616739,1351.2080762072094,118.89094408556,-2737.49144716458,619.673400282307,385.63704166162506,2868.7884507750305,0
218.0,3.633406,877.0019240021844,224.2471581071372,-2873.286993524844,-66.28396011336679,451.4129718791393,3012.10032796729,0
219.0,3.650073,113.62063140463115,165.25565486774113,-2587.7357345501264,-918.6231294235664,301.41032106158906,2685.400918310016,0
220.0,3.66674,-845.3119880881609,-25.10983148420706,-1599.1696316398682,-1713.0041540315365,-51.246387363904574,1643.1307233553605,0
221.0,3.683407,-1763.427073989442,-207.06138516696143,239.4193600948679,-2151.369878268185,-474.1165941640662,-215.9635787398768,0
222.0,3.700074,-2339.973650335387,-237.41408535700955,2658.0017607770983,-2016.0349254084367,-787.3268459324883,-2604.8177950950667,0
223.0,3.716741,-2380.559905770763,-110.51753501284968,4871.694779251633,-1349.1256105686766,-894.9457424325966,-4779.046555897421,0
224.0,3.733408,-1928.0147421498395,27.74540920656225,5958.6668216174985,-472.1235578344273,-844.809258862295,-5896.775296097205,0
225.0,3.750075,-1227.358986374683,28.549096151462948,5532.3830303919385,229.9369846100551,-753.07297530711,-5616.80160489517,0
226.0,3.766742,-559.4376711479094,-121.57170157623672,4048.060288279026,564.7516680881054,-694.3050989592637,-4343.39124814475,0
227.0,3.783409,-99.34231439320992,-322.5004562455684,2386.3109143760767,579.5235470610331,-674.2234212972139,-2844.117946889253,0
228.0,3.800076,109.76149022732318,-472.7138003153051,1175.6109121601862,412.626835429797,-664.1961293255451,-1673.0081727801075,0
229.0,3.816743,109.94097182628964,-528.9602681518866,524.5562203972365,162.72624361239815,-626.7605571593264,-953.643400523088,0
230.0,3.83341,-19.196810884279035,-498.4337565370141,234.6065487434235,-119.43916252213064,-533.5406631012215,-551.3376679661533,0
231.0,3.850077,-190.7143104953205,-420.07753870032775,93.2461772600176,-388.2464956086478,-391.6392179631115,-304.2987917058296,0
232.0,3.866744,-334.8075395617887,-344.94719525760183,-11.803761515735868,-592.2887337697055,-246.73277707532012,-117.33183497817951,0
233.0,3.883411,-416.6597051343874,-308.02384258289686,-113.92994177248468,-696.1856478928489,-147.03205057556016,46.08508443324758,0
234.0,3.900078,-436.2768315082171,-313.1180033190707,-212.1014904184582,-699.0352843423842,-108.21292824364296,191.96421667303755,0
235.0,3.916745,-411.78967496453146,-344.38685020820066,-297.75563818513194,-630.8084501550923,-114.26438839167068,314.85175577164125,0
236.0,3.933412,-362.45350128848247,-385.1990427990419,-366.5853181866378,-532.7645568680464,-140.78968070133322,408.063392532684,0
237.0,3.950079,-302.26703916660387,-425.4019668858679,-421.6593571496737,-438.2528697589879,-171.85821492703369,469.7870080462692,0
238.0,3.966746,-240.09622296065845,-458.9596154140643,-471.66752250836754,-363.9879006485783,-201.52903357685443,506.2545248699357,0
239.0,3.983413,-179.8461198078947,-480.406778184827,-526.2289702355642,-310.93498372008014,-227.5863273105725,529.1191330064748,0
240.0,4.0000800000000005,-122.5018864109311,-483.89363412700607,-589.2994617068643,-270.4490971561427,-246.4612196290228,547.8368654295156,0
241.0,4.0167470000000005,-72.23982984021693,-465.66448234620464,-653.3704604746213,-232.2636682319726,-253.6162214604641,564.4691428743267,0
242.0,4.0334140000000005,-39.67811608519595,-427.63165031258194,-701.2514577442064,-190.8413359928277,-247.63258787812885,576.1752794419897,0
243.0,4.0500810000000005,-33.809171686114624,-376.9520346421818,-719.0136001088666,-147.24267589250692,-232.1429523904349,581.4698575048167,0
244.0,4.0667480000000005,-48.62140952011247,-321.5512684500593,-709.160735633878,-106.58508277608568,-212.95963211446943,583.0978109463003,0
245.0,4.0834150000000005,-62.69158699426493,-267.28763878863447,-687.8549924980038,-73.62201341910854,-193.92005641380644,585.7589606232513,0
246.0,4.100082,-57.48561984961268,-217.84451297939603,-668.6741610691154,-49.40446925014325,-174.926493408668,591.8839271360846,0
247.0,4.116749,-34.379618252579874,-173.66190285568416,-652.7575811908329,-30.907157304657066,-151.91293808548295,599.0084362295718,0
248.0,4.133416,-9.22939503583334,-130.98804754000696,-634.4252917464395,-13.211077329526034,-118.75053017735812,600.7439025686563,0
249.0,4.150083,7.419110981631114,-84.51172748637569,-610.7105861711098,8.130193662056312,-71.79465455837095,590.8771346565825,0
250.0,4.16675,18.89149532888984,-31.56431930742951,-583.2419188162348,36.24187373242482,-13.471995833845586,567.0111706573156,0
251.0,4.183417,33.13805920353333,25.857944333927577,-554.954687630861,72.86826547348485,49.88706247990555,530.3574267808826,0
252.0,4.200084,52.11867696029458,81.63979891603437,-527.95977311917,117.83270212671444,113.18461485817696,483.1573117706414,0
253.0,4.216751,71.29515093905617,128.58202327639566,-502.3636898585869,168.6155128944527,173.31108363664427,428.0673548766468,0
254.0,4.233418,84.57655760060312,163.6664288582805,-474.64866390437976,221.0469056372565,225.06162906071387,370.3755305368476,0
255.0,4.250085,88.08018173727046,191.13806948648855,-438.7833450877612,270.3704976810261,259.4988186885232,319.18747929146207,0
256.0,4.266752,82.09895067306712,218.9480886933557,-391.3858281605762,312.0752021348488,269.55179438657683,283.263572221788,0
257.0,4.283419,71.21068104033813,252.6614369262923,-335.0350686895503,343.36287812074875,258.3610610092441,262.49728627516447,0
258.0,4.300086,61.43258036545985,294.4650164457226,-274.9318010081937,364.587289119057,240.56585690612297,244.12368563864163,0
259.0,4.316753,56.38393228008809,345.72060964199807,-213.5860665316923,378.0180745353983,232.3997892426468,212.3471429522058,0
260.0,4.33342,56.72514956787481,405.62527391717344,-150.66712471190482,384.6964332603445,239.36726411756237,164.11621398702994,0
261.0,4.350087,63.91060174405966,466.62258214752217,-86.71316924789149,384.13806348949777,254.77108982729024,111.89040656103488,0
262.0,4.366754,83.14824565397582,514.8478011745449,-23.968178413774915,377.540243464603,269.54252340114215,69.59157976784175,0
263.0,4.383421,119.62293740735896,538.1381568895908,36.81458454591234,369.23610547688446,280.55952199437854,40.37654336981723,0
264.0,4.400088,170.77944899845346,533.7192307894383,97.83273870154642,364.0025873108997,289.662430793793,19.316607045567107,0
265.0,4.416755,224.80203495952355,507.58155654521306,161.02341721746967,363.825418870101,298.66687992332004,2.265556310764348,0
266.0,4.433422,268.4397376405996,467.83158839097473,225.0677517461237,367.2011593166309,307.41038933490745,-11.435245202630345,0
267.0,4.450089,295.72870986094625,420.55926683752807,287.23004024066887,370.47874316973855,314.650519177223,-21.71695143714161,0
268.0,4.466756,310.0240781256422,370.9036741585239,346.6672225647909,369.9686322997735,318.6523400229752,-29.276474427413675,0
269.0,4.483423,319.7729810461004,323.9949048744214,403.5260588215712,363.8507277156947,316.92529649552694,-34.527742390982176,0
270.0,4.50009,331.5041040451781,282.1191194139553,454.916903321915,352.5524658041924,306.26884136776425,-37.12956060681087,0
271.0,4.516757,344.31028254585715,241.80285714946197,493.7028278037159,337.144620666185,283.7354100771439,-36.94168079529845,0
272.0,4.533424,350.8812167807956,196.40978118808312,512.7685491649611,317.74337760427585,248.74099882038288,-34.54645273550952,0
273.0,4.550091,344.96644047263226,143.49978089160263,510.9223323787784,294.48239312086423,205.58248068468595,-30.78706508146478,0
274.0,4.566758,327.64762002926113,89.1916008380765,493.9419143877802,270.02591058284986,163.41159092566812,-26.57641048996798,0
275.0,4.583425,306.2603075758775,43.91563618829782,469.1398781507472,249.3950609396186,131.59205909188324,-23.19605984653393,0
276.0,4.600092,288.2710269633935,14.211234493598432,439.8550527825648,236.1192058544101,114.04656893119316,-22.11699264026589,0
277.0,4.616759,276.578097251989,-0.2121408638095854,406.674319973773,229.2019281172992,108.60470287039304,-24.416206863573137,0
278.0,4.633426,269.4150064487528,-2.7597470670526008,372.4792854203513,224.2969248660947,111.30531434456074,-30.71559183965668,0
279.0,4.650093,262.462904446485,3.7407385805820432,341.96971318591824,216.9314611131374,119.69454193715409,-41.19644838010963,0
280.0,4.66676,249.7325702067316,16.63564045458263,314.6811835302084,204.13094138902056,131.88250261939973,-54.592056687584055,0
281.0,4.683427,224.77700792493167,31.769301610711107,283.087751945567,183.92209751126703,144.3481716840795,-67.30119072157831,0
282.0,4.700094,185.6480300292404,44.33263871011582,242.80951236561685,154.6603350510735,152.3273526875435,-74.59046196226953,0
283.0,4.716761,139.2299685280616,51.61384226083184,202.3109881216556,115.95182421752943,152.6557629157517,-73.08509727681623,0
284.0,4.733428,96.678649303393,54.177262172189685,175.50191390092755,70.7256662831984,146.03110311331423,-62.50991447920256,0
285.0,4.750095,63.41446044306976,54.06192663909533,164.83580499849137,25.40423889020725,136.13715465523975,-46.37287126488703,0
286.0,4.766762,36.22187599246065,52.16988982142003,158.57126294006815,-13.858962397560834,125.88540726144149,-31.087677920335423,0
287.0,4.783429,9.47578690207038,47.38694668355161,145.29497220033377,-45.49247588893077,114.20476462992032,-22.25863810137501,0
288.0,4.800096,-19.2790607076546,37.80423659570851,124.70420430885906,-71.80251911678324,96.99160775109756,-20.27838036068014,0
289.0,4.816763000000001,-49.16313170991221,22.74162603671617,103.10025212768134,-94.14361828162468,71.6366597647482,-20.21694616185089,0
290.0,4.833430000000001,-77.68160295802119,3.780062858708191,84.09738373408915,-111.24997480755611,40.53037073352008,-16.902304529847356,0
291.0,4.850097000000001,-102.27297010314835,-16.17759476345122,66.42638904207693,-123.25947619406512,10.025837171508364,-9.89189873008446,0
292.0,4.866764000000001,-122.24369557297769,-34.920831108480336,47.9794951469552,-134.62073074407442,-14.03624845363925,-3.0333963385365643,0
293.0,4.883431000000001,-139.36164352727948,-52.14429280439749,29.293568906598985,-150.70991056392046,-29.947147989420344,0.407339144881961,0
294.0,4.900098000000001,-155.64903727332862,-68.98695823985074,12.883195911589748,-173.02894125737703,-39.638567279524906,1.1750677776562657,0
295.0,4.916765000000001,-171.1752427230275,-86.59927954490458,-0.1003995235640405,-199.23243009286,-45.20437068100112,2.5912540169887803,0
296.0,4.933432000000001,-184.73363342485192,-104.87865086119518,-11.493561940413336,-226.03742561211504,-46.62661444503323,6.9690167238757885,0
297.0,4.950099000000001,-195.76454278312855,-121.8351622787436,-23.62980722594557,-250.2952750233781,-42.73641249856358,14.216300865796788,0
298.0,4.966766000000001,-204.70356130027108,-133.75989975639808,-36.08670631586018,-268.6177479346233,-33.165884816459496,23.04149686115113,0
299.0,4.983433000000001,-212.12556403624976,-136.79252414601137,-46.56536767455989,-278.10933486816856,-18.752361302678647,32.050045325102815,0
300.0,5.000100000000001,-218.1322804080953,-129.66039934107965,-54.76572271841695,-277.7024544100609,-0.98731342680625,39.52976770241046,0
301.0,5.016767000000001,-221.9168300309047,-115.45539223290018,-63.51814448873741,-268.4222424866824,17.858286465637722,43.47755056823036,0
302.0,5.033434000000001,-221.64587525638157,-100.54833206809836,-75.60297479986869,-252.80920400676587,34.1994472791752,42.93631604776229,0
303.0,5.050101000000001,-215.3932929031258,-91.26172772049824,-90.62516069186223,-234.1200412371736,43.60925850083355,39.08760005548832,0
304.0,5.066768000000001,-202.3783736909321,-90.42337316373528,-105.21201118546932,-215.07913797185563,42.5155731047192,34.244827359052394,0
305.0,5.083435000000001,-183.0154153612812,-95.58523559781877,-115.35048960521328,-196.7510962019069,29.732229545287343,29.593439269040303,0
306.0,5.100102000000001,-157.98613386625277,-99.9121940842337,-118.71056258930074,-178.74030326601343,6.801676530172944,24.09404113207313,0
307.0,5.116769000000001,-127.6920228080656,-95.35136448505742,-115.80084477431632,-160.4285579458265,-22.368193380953823,15.365142205074884,0
308.0,5.1334360000000006,-92.55675565233574,-76.17584701003004,-109.27779872954792,-141.8587979362563,-52.35264186240015,1.56165721159753,0
309.0,5.1501030000000005,-53.6246928049717,-41.26458497858748,-102.17795233186274,-123.69833781282836,-78.28800786931768,-16.804522429499155,0
310.0,5.1667700000000005,-12.712559131198171,5.40375719359984,-96.82849445106125,-106.65436112771954,-98.18789716629082,-36.37970795008205,0
311.0,5.1834370000000005,28.363905585141826,56.12889449053465,-94.49811610392932,-91.05030738171467,-112.76105686448298,-53.09173107338291,0
312.0,5.2001040000000005,69.19628744137046,102.0448313491593,-94.69149490346656,-77.16496382893327,-122.75965164560355,-65.37662390763931,0
313.0,5.2167710000000005,111.4942569692547,135.38323132070943,-94.85379207359466,-65.76919756227741,-127.45715771881896,-74.83636565054323,0
314.0,5.2334380000000005,157.457194539642,150.87918408908314,-92.14430514686975,-57.60649663244007,-126.2625186654154,-83.82636916622393,0
315.0,5.2501050000000005,205.88667193535684,147.1967549379636,-85.71957761741054,-52.22301739529616,-121.06913857468416,-93.3656009198304,0
316.0,5.2667720000000005,249.79784354477985,128.41269789598175,-76.26760870957432,-47.94883211384578,-115.97842149361674,-103.11539440155276,0
317.0,5.283439,279.9769518982816,103.10625449699415,-64.07617963224841,-43.2520861868671,-114.32709280657367,-111.9416062960298,0
318.0,5.300106,292.4724060362603,79.46828948735666,-49.84449032999883,-37.75326533980069,-116.12866312651542,-118.27315068359434,0
319.0,5.316773,291.5736048219222,60.29122485201965,-36.93788536694703,-31.897628268885416,-118.47557266732396,-120.982657555854,0
320.0,5.33344,284.64487453065254,43.47711505886916,-29.69547996483841,-26.00543608850796,-118.1111889909892,-120.3733198968817,0
321.0,5.350107,275.9667248093234,26.932847621882036,-28.77967454737478,-19.775743901955096,-113.6337060626725,-117.97159824993646,0
322.0,5.366774,266.37923045051656,11.418404646107328,-30.358012741696776,-12.688627980853187,-106.22933645609228,-115.31161670319028,0
323.0,5.383441,255.89661837852583,-0.9264423543201368,-30.357578707559224,-4.885485361022747,-99.20210134991557,-113.02649570817604,0
324.0,5.400108,244.78783554570649,-8.995500790206346,-28.032646361430142,2.5790339073046296,-96.10719045018088,-110.7955032532333,0
325.0,5.416775,233.89099037144143,-13.146022195665594,-25.36150229851128,8.628087222163808,-97.75603226887154,-107.76393558666706,0
326.0,5.433442,224.9108903883061,-13.832731856443932,-24.293898087818206,13.291412370699469,-100.69776999272013,-103.00686978811711,0
327.0,5.450109,218.98887615956104,-10.22192553965092,-24.755563387826445,18.067186306652243,-99.62565175552125,-95.95769775778926,0
328.0,5.466776,214.3406165334472,-0.4695170335374858,-24.533972505079284,25.37135428075946,-91.78881614381592,-86.83225943454909,0
329.0,5.483443,206.6725157640312,16.226120158189072,-20.97478908707333,37.129395999270805,-78.75413361826617,-76.78066781767541,0
330.0,5.50011,193.20515726492732,37.66003671597812,-13.398589359612476,53.25131100413271,-64.0481246390045,-67.28241348733461,0
331.0,5.516777,176.1405180640552,58.635470190024165,-4.4791608129415525,71.65839635617618,-49.93531936057774,-59.04323216766699,0
332.0,5.533444,161.22525407016968,73.19976429516525,0.8283293662343283,89.98433326467259,-36.72948669790576,-51.71656320922092,0
333.0,5.550111,152.2164839575003,78.06790212268669,-0.9709563879821896,106.92044698504634,-24.47033867033399,-44.89977883678214,0
334.0,5.566778,146.97202242829604,75.14149590222571,-7.951281685560442,122.09582103676578,-14.5194267865276,-38.77073949840085,0
335.0,5.583445,139.33940382271865,70.53960683987962,-13.109603359436054,135.35220081958354,-9.142485841922223,-33.32303816063118,0
336.0,5.600112,124.3964997698768,69.99323127568155,-10.134502135954992,146.31015459538992,-9.293505385452372,-27.816674070555244,0
337.0,5.616779,101.49653415153918,74.56998010413065,0.8978629051717109,154.42297746711148,-13.297981172560467,-21.74453593304062,0
338.0,5.633446,73.11992597340972,80.8421327816779,13.975234443765888,159.45300488239909,-18.409932989802957,-15.647982091055043,0
339.0,5.650113,42.19768849785964,84.58019322823344,22.81296413854573,161.84323033879315,-22.893842531582838,-10.075719054639515,0
340.0,5.66678,10.990440907198476,83.71226609072058,25.464970350545897,162.51634936820534,-25.506342902197098,-4.226284291208339,0
341.0,5.683447,-18.582867062588143,78.7667986172853,23.78980399468362,162.59278025104027,-24.05742770257621,3.4344786795897635,0
342.0,5.700114,-45.12156401992776,72.13186710791899,19.605328413535737,163.27175782121478,-16.4004049595813,13.428897379775332,0
343.0,5.716781,-68.57980255921012,66.89995121226404,12.562312069084696,165.08579982575336,-2.8667805182924253,24.81237670993267,0
344.0,5.733448,-90.1203079651927,65.07366016630803,1.8575463463188424,166.89845035716303,13.29753448238527,36.10883787276218,0
345.0,5.750115,-110.61435126081815,66.19662228734624,-11.303307182011968,166.73575858113978,28.51913994715993,46.14884672960245,0
346.0,5.766782,-129.1547250839643,67.98675591385322,-23.787134331886623,164.57297484987834,42.42272067048739,54.69676611021356,0
347.0,5.783449,-142.6839168521742,68.42277795868456,-32.36840147631586,163.58922061868384,58.76375922839719,62.923275697251626,0
348.0,5.800116,-147.24887982677717,67.01937346788826,-35.07658297941753,167.44462406193654,81.78088873276853,72.23799028122093,0
349.0,5.816783,-140.65985937835637,64.01277595577116,-31.60907794049605,176.35856306525318,110.84886944799015,81.7916551451901,0
350.0,5.83345,-124.39021548213832,58.70224285415953,-22.970858918303783,186.62171347077756,139.17163587432157,88.21028826006409,0
351.0,5.850117,-102.5912272659762,49.50680220035,-10.578794453198984,193.9099501115947,158.32416967405075,88.63431916263902,0
352.0,5.866784000000001,-79.59633144841513,36.01106733592613,3.657449567375216,196.39100278326936,163.98380314641315,82.99912321074179,0
353.0,5.883451000000001,-58.77762626499669,19.68536159717391,16.00064138667785,194.58942593963428,157.10424583356198,72.82883697637953,0
354.0,5.900118000000001,-42.64763219418606,1.5132236676919315,21.218246849845368,189.288122495662,140.61696880660236,59.11405974259566,0
355.0,5.916785000000001,-32.49822260165828,-19.765462205954407,15.754062677046123,180.4272456652432,116.89618456901752,42.23668057186717,0
356.0,5.933452000000001,-27.93448017395022,-45.10687699439131,0.1236896986466655,167.6538638551827,88.55826093037788,23.174899201869103,0
357.0,5.950119000000001,-27.313783729529348,-70.73578906090975,-21.93360315933746,151.00939921816828,59.90259003971104,3.721246356282349,0
358.0,5.966786000000001,-28.426975074992576,-87.45447401480374,-45.33026687178486,130.67755705855618,36.72802908719781,-14.690850523344782,0
359.0,5.983453000000001,-28.778051874102367,-86.1798057869238,-64.76142023830563,106.43111995039968,24.65426711071817,-31.87812185860373,0
360.0,6.000120000000001,-26.15767962835522,-66.16127310329702,-76.1770912635684,78.23824127526773,25.746666932255785,-48.230575731577616,0
361.0,6.016787000000001,-19.790088940686616,-37.74687343422882,-78.63070048080961,47.85202767559862,35.391915794834695,-63.4603315432823,0
362.0,6.033454000000001,-11.076853798588097,-14.913779172197255,-75.03708598901069,18.511787926118465,44.80820490169147,-76.47366673138094,0
363.0,6.050121000000001,-3.079218150691129,-4.420471145733833,-71.58420378799055,-8.39847339175884,48.88716183437589,-86.25627700007165,0
364.0,6.066788000000001,1.1030186629553795,-3.3053547140757558,-75.06800062375859,-35.33164243374202,50.01378164806205,-92.5121276935311,0
365.0,6.083455000000001,0.1667220538276437,-5.579588746325993,-87.10802911700544,-65.45204558647306,53.044306417650105,-95.60679484135947,0
366.0,6.100122000000001,-4.418658811745156,-8.361430665131971,-99.70510384606712,-98.1583057180018,58.86556862200717,-96.22903860848338,0
367.0,6.116789000000001,-9.218275361209765,-11.924958529542703,-99.78358019635333,-128.89927188329278,64.26867021673061,-95.19837044295132,0
368.0,6.133456000000001,-11.543584468314862,-17.246910490003387,-81.31389219199818,-152.7781456521035,65.99141947277815,-93.36260180466807,0
369.0,6.150123000000001,-12.105404941680952,-25.11297841028634,-52.26800859138044,-167.6961283493728,62.96348192445144,-91.29482152238258,0
370.0,6.166790000000001,-14.425076233192677,-36.0870592597245,-27.471887091360557,-174.92987369951317,55.61077320468941,-89.08291253781792,0
371.0,6.183457000000001,-21.038700169713795,-49.83342632331903,-15.106092582201072,-177.7660717927116,44.81088279143769,-86.58019723738572,0
372.0,6.200124000000001,-30.82757885953955,-64.65252753318175,-11.970569281135525,-179.53531503611316,31.9259733701898,-83.61054933113213,0
373.0,6.216791000000001,-40.167666408881495,-78.10176468262125,-10.204744751306078,-182.32989283542352,19.111165556637577,-79.88434566148919,0
374.0,6.233458000000001,-45.80204095658069,-88.16056799440281,-5.0115257746442845,-187.1374706102116,8.495558519565133,-75.31816921809627,0
375.0,6.250125000000001,-46.75517949048208,-94.40898433944184,3.747055584287288,-194.62393632620984,0.2889406110636021,-70.564676476806,0
376.0,6.266792000000001,-44.63861101826551,-98.60430487013264,13.967578330728516,-205.06846829056528,-7.89534495702321,-66.55213892496131,0
377.0,6.283459000000001,-42.37859232619771,-103.56852817665153,23.95431539602999,-217.61271714925493,-18.759098017806128,-63.3514168184314,0
378.0,6.300126000000001,-42.04476793981132,-110.65328586377808,33.82218226705748,-230.57044994331196,-32.05415940647438,-60.03514691149861,0
379.0,6.3167930000000005,-43.32682535597218,-118.10334854984998,44.94946743287363,-242.9717009644686,-44.00883319328835,-55.57717348027506,0
380.0,6.3334600000000005,-43.69037171021631,-122.29589205492442,57.94551250294868,-255.2020229309076,-50.022040623424985,-49.3351217194849,0
381.0,6.3501270000000005,-40.04826470947987,-121.00535851397206,71.35040237909868,-267.5736818926885,-47.67443977184252,-40.97718005763688,0
382.0,6.3667940000000005,-31.019791828740857,-115.44460877168216,82.68475134662948,-278.74363914211904,-37.71586320753504,-30.722848158521167,0
383.0,6.3834610000000005,-18.296579689333903,-109.02513458065684,90.71633040852451,-286.5704341944199,-23.463964116754944,-19.363322169716803,0
384.0,6.4001280000000005,-5.626009145154164,-104.53481039738514,96.24745815231634,-290.5689165784099,-9.68341910834696,-7.244913959252202,0
385.0,6.4167950000000005,4.356359967013006,-102.5394641999148,100.5565778236701,-292.27769725868313,-0.8234695538622621,6.29051169726773,0
386.0,6.4334620000000005,12.681924567345805,-101.52739658612714,103.71902599690593,-292.82258941200496,1.2889691424161418,21.357709568824028,0
387.0,6.450129,23.16187457673042,-98.99746784481852,104.94563905515562,-291.50553088619694,-1.4474041644665576,35.889441118910966,0
388.0,6.466796,38.66783908445856,-92.76264746379394,103.95800210448834,-287.4372022286396,-4.980439398297952,47.07476993290787,0
389.0,6.483463,58.40496491831566,-81.57541430483967,101.2515149374612,-281.1479506376864,-6.011192875432659,54.613248289845785,0
390.0,6.50013,78.83830400020614,-65.17723372085989,97.06152849061644,-273.8272889881611,-3.846634197289167,61.57921687441815,0
391.0,6.516797,96.94844582087572,-44.862982810164574,90.47960904467185,-266.2990824383927,-0.8883714159012541,72.23345178915953,0
392.0,6.533464,112.54878533079196,-23.71370525356101,79.87988131059478,-259.5464868716392,-1.755796662436382,89.77555157226631,0
393.0,6.550131,127.53937560313426,-4.346584701596495,64.49423394711783,-255.0475833585092,-9.75637488036579,115.17055080213473,0
394.0,6.566798,142.7201290019405,14.533443601391935,45.62990455283853,-253.431136786034,-22.47057460308917,146.13009781924526,0
395.0,6.583465,155.89577098133265,38.11824193897719,26.255580616280284,-252.9960072820066,-31.903636822902136,177.59043475050413,0
396.0,6.600132,164.29590291333977,70.29598008580159,9.652019228775854,-249.9380032065851,-30.61439246528756,205.5007176190817,0
397.0,6.616799,168.24766922909672,108.03005247489854,-1.8850704487037344,-240.03774746697485,-18.030773592894136,230.3865706192236,0
398.0,6.633466,170.28231805842083,141.80817235240244,-9.06506858900046,-220.7269661548149,-0.7876093954895027,254.87288680745812,0
399.0,6.650133,170.3579564993584,162.4254810055225,-17.498189015693224,-192.5465116170684,12.87104976786204,277.146667018593,0
400.0,6.6668,164.09372532847206,167.22746696541344,-34.73878370086329,-158.5676532523178,19.14723111599301,289.8453525600046,0
401.0,6.683467,146.65959989468598,160.2126169978919,-62.08871309249879,-121.75651582882897,20.20714909740689,287.27687951312754,0
402.0,6.700134,117.28812685188474,147.82878617270833,-90.76356444502878,-83.09776823426193,21.241595474890502,271.45338261732576,0
403.0,6.716801,80.24380760098207,135.38036512293036,-109.2941646863541,-42.33576979055198,26.5860762000735,249.4008004796276,0
404.0,6.733468,43.04843622244757,125.49420794414502,-113.88966704031984,0.3689427480998815,37.36643691261278,226.94355896033392,0
405.0,6.750135,12.659913364911493,117.40488958956364,-109.48687688124512,43.65232523880756,51.20326409448227,206.48905581542368,0
406.0,6.766802,-9.434239743900717,107.28297101146224,-102.37752886447656,84.7109425147381,63.937294791769006,188.1465347176055,0
407.0,6.783469,-28.04795996820721,90.812451885674,-94.8716040403809,119.5688071071544,72.21212018608875,170.92795856376353,0
408.0,6.800136,-48.26884832318803,66.75299999328395,-86.61742685183691,144.5240895046831,74.67437314879061,154.21248902030476,0
409.0,6.816803,-69.4055013027473,38.05352483194774,-77.72087542416676,158.0699127412937,71.20384016544197,139.1947049234365,0
410.0,6.83347,-86.7357893518631,9.208893615457026,-68.95451024991291,161.50872778863737,61.998939617378895,127.72325667094113,0
411.0,6.850137,-98.106551728356,-17.236693650381095,-60.46699344302138,157.78162399284236,47.724631106287504,119.0320826209584,0
412.0,6.866804,-106.53058342012484,-41.29858328666128,-51.82467903626769,149.77301272708684,29.9252994467276,108.95260754289082,0
413.0,6.883471,-116.53097282787274,-63.21848928997254,-42.92683711013672,139.40008794332874,10.93741896478629,93.3105546128334,0
414.0,6.900138,-129.58540896413595,-81.6129843586091,-34.19950316206194,127.93594748762644,-6.683685183911309,71.34686458976327,0
415.0,6.916805,-143.37248131189227,-94.27633117123858,-26.13322140089248,117.08578273670864,-21.241100215178665,45.17985836042878,0
416.0,6.933472,-154.43201493668343,-99.92055512212352,-18.949622186345216,109.46103879429756,-32.96790824607667,16.938253125584644,0
417.0,6.950139000000001,-160.98957917294643,-98.47145567156036,-12.753166729913936,107.1609327742487,-43.83579578101473,-12.055851714054391,0
418.0,6.966806000000001,-163.63565333429386,-90.26059742681424,-7.966150431715822,109.01107842213504,-55.591854312990776,-39.49049407652622,0
419.0,6.983473000000001,-164.19773555930465,-75.60614886966874,-5.214927195751969,109.72138140080766,-67.37151680213725,-61.93665083942224,0
420.0,7.000140000000001,-164.50897254280997,-55.029617016453365,-4.386729751486882,103.91226615537556,-75.48849730837466,-78.82488464538856,0
421.0,7.016807000000001,-165.67141612779466,-29.627507163611785,-4.306596646927759,92.02076286175917,-76.50455104582912,-95.55760905418526,0
422.0,7.033474000000001,-167.5213275912048,-1.4299593130081054,-4.166814295497279,80.48640887378835,-70.74922054918437,-119.17391958070048,0
423.0,7.050141000000001,-169.0196408109277,26.261951770624957,-4.943298905016743,74.90605622299479,-62.40796704691045,-149.93877173765526,0
424.0,7.066808000000001,-169.94344630806992,48.976815315199794,-8.606199613763259,74.71266458522112,-56.40581411674379,-180.02898649295526,0
425.0,7.083475000000001,-171.72814610990775,62.45263909508144,-16.330814579099446,75.39046063326327,-55.3796632450923,-201.53678324660456,0
426.0,7.100142000000001,-175.74272876148143,65.04167043906577,-27.99142713357086,73.54074843992211,-58.23345027635529,-212.8601397557189,0
427.0,7.116809000000001,-181.15834811525727,58.78529806112468,-42.33394741755016,68.48206915228704,-60.25544648665627,-216.3327471340856,0
428.0,7.133476000000001,-185.22165626421764,47.6507087496045,-56.78342307554834,61.00990625329594,-55.83460828039523,-213.1158772955673,0
429.0,7.150143000000001,-185.28579491950848,35.07495662540076,-68.29689566400747,52.490514090966734,-43.21520510849879,-202.7333593478035,0
430.0,7.166810000000001,-180.44459437809752,23.45567099986837,-75.59913320466869,44.46058836207148,-26.800493320453903,-185.88710295294567,0
431.0,7.183477000000001,-171.9586182410539,14.780268633698054,-79.96881462468414,37.82450551981086,-13.83655824718077,-165.5969152766037,0
432.0,7.200144000000001,-162.41460000252349,10.166282577118595,-83.28412348950879,32.55687869640212,-8.916042869974003,-145.5816464166818,0
433.0,7.216811000000001,-154.02179569217378,8.583912752023835,-86.03494436596185,28.690595640989518,-12.09859723346525,-128.3214452869999,0
434.0,7.233478000000001,-147.46071382012954,7.161639519918689,-87.503291274076,27.095850750456204,-20.947220737922123,-114.81875725792572,0
435.0,7.250145000000001,-142.2441529813849,3.8481215505370816,-86.96028682705897,28.672165418465344,-32.184594802608565,-105.4099954968394,0
436.0,7.266812000000001,-137.84864515501454,-0.3336753762442952,-84.2069188807318,33.033804079675626,-41.68656381049272,-99.6714772818264,0
437.0,7.283479000000001,-134.37258221620965,-2.463999057620033,-79.45836934862322,38.40441273469203,-45.54939490887973,-95.75717330654396,0
438.0,7.300146000000001,-132.16798524970113,-1.1281692895721052,-73.06445130147044,42.685328478053904,-42.72511939464079,-91.43025563637622,0
439.0,7.316813000000001,-130.8652101012134,2.2457545314160834,-65.25617064187868,44.56192738020202,-35.97251695771696,-86.47559460863783,0
440.0,7.333480000000001,-129.02581326148115,5.688260917062987,-56.31402986394846,43.93197046532991,-29.29935176158363,-83.04698323792205,0
441.0,7.350147000000001,-124.99898588619968,9.21462860221662,-47.14281412229417,41.667047112778384,-24.50236374238497,-82.56461807368201,0
442.0,7.366814000000001,-117.94204135402286,13.97259336217538,-39.165266241166464,39.1699324030381,-20.73323071408788,-82.51921618165576,0
443.0,7.383481000000001,-108.04326603590025,19.44140326727106,-32.97945583964675,37.71531898841529,-17.052069941478276,-77.27798909660561,0
444.0,7.400148000000001,-96.37958253816996,22.982949321642376,-27.26947177859744,36.9873827117337,-13.6756878008994,-63.27642363863268,0
445.0,7.416815000000001,-84.79044113034143,22.496144092602467,-19.70698101003909,33.95717533252954,-10.119187166779833,-44.1625817184425,0
446.0,7.433482000000001,-75.17486126379066,18.42575676315992,-9.061341371546472,24.932803514468414,-4.402539750486689,-29.411778510107798,0
447.0,7.450149000000001,-68.21026084101952,12.549099612322957,3.880865594877017,9.976618235690877,4.030453608627786,-26.098570437670563,0
448.0,7.466816000000001,-62.77496543466152,5.74484432607194,17.193688576032198,-5.800933183075105,12.245664051292822,-32.80555770493138,0
449.0,7.483483,-56.940011044543226,-1.996697076504112,28.97955524709669,-16.27500791222186,16.573387172614325,-42.1011625330827,0
450.0,7.50015,-49.75137395427734,-9.982918096537317,38.08188416946281,-19.09393047264018,16.432228447001208,-46.84466636638996,0
451.0,7.516817,-42.10955454202743,-16.655517425954645,44.78513763608621,-17.009022810677887,14.28162059674926,-43.97795913752898,0
452.0,7.533484,-35.86324251487746,-21.10970744221337,50.90460971115489,-16.011845738379066,12.828946013662426,-35.55497182366098,0
453.0,7.550151,-32.152778032997325,-23.665227623275733,58.203757801867766,-21.665224754507587,13.183242014305767,-27.08732004535566,0
454.0,7.566818,-30.825471922612127,-24.66752871196749,66.48807171485545,-35.30999231573682,14.84335405177965,-22.757568312060982,0
455.0,7.583485,-31.278791066696314,-23.701249845049222,74.01865331395325,-53.19309153068038,16.348184981871924,-21.80176431152821,0
456.0,7.600152,-33.416219111236614,-20.32670455374638,79.77614104652515,-69.79705669285335,16.026426326408608,-20.334803793379628,0
457.0,7.616819,-37.65855387189812,-14.680439805088508,84.33508432696365,-82.2657354093049,13.013660792183387,-15.809226724082096,0
458.0,7.633486,-44.23933278024731,-6.93483641352454,88.47915980836385,-91.58928789807312,7.993410505568756,-8.742793686284333,0
459.0,7.650153,-52.5192858304309,2.948139220139735,92.06840927592336,-99.91483108752983,2.575053814587109,-0.9393563387052826,0
460.0,7.66682,-60.80764857342936,14.27283261049546,94.53545493972511,-107.64740711027795,-2.34369457264526,6.650090621961598,0
461.0,7.683487,-66.91709527454685,25.03526545687864,95.62465697254694,-113.58253746121471,-7.418257288111006,14.05758071630487,0
462.0,7.700154,-69.27856675619412,33.08124915394467,95.42596969922994,-116.87686603066412,-14.041424035366664,21.18923164207921,0
463.0,7.716821,-67.77547645791641,37.58611460081684,94.24235805148942,-117.76112679688686,-22.88584670956089,27.59363828915284,0
464.0,7.733488,-63.537857163275945,38.78254869508561,92.49848082714774,-116.63817599927576,-33.30968538068472,33.29864731835491,0
465.0,7.750155,-58.0748390415031,36.68291544207966,90.69204827109284,-113.30747745074687,-44.15235069644216,39.000143059253205,0
466.0,7.766822,-52.642951134252144,31.064894408717507,89.75954163524344,-107.03819401984326,-54.92013920041028,45.07998409215452,0
467.0,7.783489,-48.00013868007935,22.51111807447747,91.20047215946802,-97.25615333155577,-65.83230305098994,50.89337792038359,0
468.0,7.800156,-44.23119484465968,12.465793632873782,95.8361666780098,-84.55181782181648,-76.60919401863492,55.41803968055056,0
469.0,7.816823,-40.67530817999921,2.3030944867289738,102.45092080934556,-71.12508354097858,-85.51400587067718,58.45566211305046,0
470.0,7.83349,-36.26736634848332,-6.89560818070642,108.67017946087296,-59.71393825858765,-89.87779710992973,60.74911573724151,0
471.0,7.850157,-30.51663331151628,-13.729991327337595,113.3033477389809,-51.52974493188606,-87.73436583762663,62.89552123817187,0
472.0,7.866824,-24.600852204136636,-16.445893968304457,117.10470454982988,-45.10172998823266,-79.17626679688604,64.77778353760422,0
473.0,7.883491,-21.184218782189895,-13.841276949994423,121.34684821213614,-37.36808249600229,-66.36427071537553,66.57223902870392,0
474.0,7.900158,-22.461507546568104,-6.115338649249115,126.4489451274524,-26.036082028880507,-52.26142619054488,69.93441778881538,0
475.0,7.916825,-28.163149037669783,4.952878418302452,131.99976146471013,-11.171478399408404,-38.92017684791538,76.92534526468944,0
476.0,7.933492,-35.58304835566086,16.391436662338048,137.31197905477046,4.326162587059453,-26.21423877494309,86.34802954539853,0
477.0,7.950159,-41.40704511929677,25.0224139273402,141.5534995575575,15.214286876583287,-12.00812655726182,91.31437639304572,0
478.0,7.966826,-43.30485418890768,28.835658833142844,143.61405924049112,16.88149415412652,5.755578249042755,83.19730213995985,0
479.0,7.983493,-39.89146729667341,27.613025656829613,142.13062211929469,10.221713841809365,26.531417711620588,60.71694963248567,0
480.0,8.000160000000001,-29.74203794242284,22.16965231863041,135.91628455782217,2.553399001082432,47.00920698480263,34.116566443588574,0
481.0,8.016827000000001,-11.380967673359924,13.359803825357131,124.87179500413356,1.233966454805051,63.84199582558608,17.40335082120587,0
482.0,8.033494000000001,15.105109247070567,2.0260550827251205,110.6731491708573,6.9639933617388365,75.9500594941864,16.507376996157596,0
483.0,8.050161000000001,46.739611845867984,-10.571198627589318,95.99268111244166,15.22811142840562,83.66595767708215,26.692045028571403,0
484.0,8.066828000000001,78.68682633758942,-22.89253831884399,82.45064498519078,23.009769918940968,86.5505942480911,39.760142140469895,0
485.0,8.083495000000001,106.84498798442394,-33.97490800332165,69.57291422990741,31.751917513109557,82.98590662011813,50.58909717273204,0
486.0,8.100162000000001,129.38437077688684,-43.99053261634795,56.14679463006763,44.388945708293306,71.63462867505373,57.40427998586253,0
487.0,8.116829000000001,146.22054064221825,-53.29723620665206,41.98120672691677,61.34940816076549,53.28521181854674,59.12026723833448,0
488.0,8.133496000000001,157.83039190870176,-60.35592893838684,27.30366152770981,79.64339665803658,32.11953507870055,53.94152593574781,0
489.0,8.150163000000001,164.8680018753029,-61.004043762593575,10.750150791891604,95.3707579302526,15.055445786208706,39.746775782454506,0
490.0,8.166830000000001,168.31742191788084,-51.35750028614471,-10.304669359228049,107.21180698757496,8.084478774221793,15.38127363232757,0
491.0,8.183497000000001,169.23852556543395,-32.62632471253058,-36.43884961065363,117.37354356692902,11.750866286116878,-16.8815961260209,0
492.0,8.200164000000001,168.2730766896941,-11.993779825788195,-64.3649164757389,128.74518571523254,20.625900421403884,-48.59100919156438,0
493.0,8.216831,165.8429570275973,3.139041528750642,-90.05938558896308,141.26696814196177,28.4338498096228,-67.0207618887377,0
494.0,8.233498,162.91705144382465,11.179619101841098,-113.31825455664637,151.57987449195718,33.45406394854336,-64.62799823532629,0
495.0,8.250165,161.09242328053813,15.120326097861652,-137.6200770076567,156.55681036880102,37.81594116300312,-47.773816623356666,0
496.0,8.266832,161.56517426599623,16.90300541748807,-165.76565412167906,156.8687759055271,42.56111840959592,-32.50027147465746,0
497.0,8.283499,164.24251262784028,15.648754042651015,-197.3840140014392,156.02472635985876,46.059097720991176,-30.16749874386691,0
498.0,8.300166,168.30194798756816,10.54003686207695,-230.48702863295043,155.7096882443742,47.29670309909872,-39.60851167153343,0
499.0,8.316833,173.69160255427178,2.6831689853145164,-263.28028586212235,153.6730858834239,47.903583931083006,-52.78798010976276,0
500.0,8.3335,181.51061833739533,-6.082727459399862,-293.61596827807006,147.2757754409747,49.75684654765511,-63.121673629239446,0
501.0,8.350167,192.22859407099597,-14.49717261382671,-318.0009088787166,137.98781554535896,52.09965112205174,-67.1400537547128,0
502.0,8.366834,203.60240135919867,-21.6168255137543,-332.532480162291,130.95162966201283,51.94184245193857,-63.98689773674067,0
503.0,8.383501,211.1058890204524,-26.443483923104985,-335.24784916589294,130.19519583364234,46.80679730207654,-57.46018206992055,0
504.0,8.400168,210.9321895904349,-28.48185713651118,-327.6591171214235,135.2194814156408,36.94421318980937,-54.97713568861973,0
505.0,8.416835,202.43450245732208,-28.16183689535065,-313.91502885749026,142.41411510086704,25.04262151176113,-60.4202790990204,0
506.0,8.433502,187.69436118385585,-26.22376468769632,-298.1153301139524,148.53803834982773,13.863709748978204,-69.80548745824511,0
507.0,8.450169,169.57840133099177,-22.699047897469278,-282.080846584642,151.929076884493,4.705541457912037,-76.50336475748219,0
508.0,8.466836,150.52726551500302,-16.511096667134172,-265.248520764866,151.77611417746948,-1.7716763888035407,-78.86156239528209,0
509.0,8.483503,131.9040891361903,-6.403893440690046,-246.01826793114915,148.43658827182128,-4.84256502717133,-80.45058284421154,0
510.0,8.50017,113.40504289085372,6.957810047286381,-222.93103103072843,144.28966268655398,-5.102447075181612,-84.30592743909882,0
511.0,8.516837,93.89201341952406,19.95799057521354,-195.1415042176306,142.32291078866854,-5.247577599125281,-89.48186083559753,0
512.0,8.533504,73.53737218387235,28.5654736669064,-162.6275325487412,143.2953240317585,-7.47521185564886,-93.17096616615532,0
513.0,8.550171,54.212107371445946,32.65024503078064,-126.35166779266244,145.24639941304804,-10.298078212765043,-94.22517656646872,0
514.0,8.566838,37.29095124287369,36.84305164160244,-88.06711070808595,146.05484293688033,-9.473093926035473,-93.45069347539626,0
515.0,8.583505,22.331945654453744,46.30842240825208,-49.66373009557678,145.75716887010103,-2.2347226573511048,-91.27098068307237,0
516.0,8.600172,8.549628122264835,61.82312940213424,-12.446730394698058,146.23030453933416,10.27890020492917,-86.6522105766536,0
517.0,8.616839,-3.5788340774427883,78.87309663436528,23.250628602190297,149.28264245477487,24.303084684161,-78.65027111813808,0
518.0,8.633506,-12.990080050186954,91.04438868092625,57.8684703606954,155.20759087161417,35.87825218477753,-68.05521810325646,0
519.0,8.650173,-19.585730256609335,94.48460719917848,91.86210804837444,162.30786587135017,42.67971674624608,-56.68195326273069,0
520.0,8.66684,-24.41370424028006,89.79981838711208,125.1133635492751,167.05125890263776,45.44223181465623,-45.10312601199902,0
521.0,8.683507,-28.6316285522466,80.09580155433335,157.11877390029065,165.2302325296776,47.92194328059774,-32.01912587668513,0
522.0,8.700174,-32.67588250260286,67.43758654455463,187.2468660411208,154.2724045659963,53.92288467765533,-16.878263347613867,0
523.0,8.716841,-36.16170219753976,51.24142893093406,214.2600878219548,135.03781903746193,63.45172683382775,-2.4189566656033623,0
524.0,8.733508,-38.148027986882695,29.58610894813948,236.1054123477172,111.3300462354632,72.33272963691253,7.386807354303356,0
525.0,8.750175,-37.67321181299543,1.3149433927575247,251.32723549543908,88.02694712362555,75.76480630452431,11.746136312466165,0
526.0,8.766842,-34.74378535369093,-33.217181258692435,260.79958952483804,69.5420991647308,71.52402320532052,13.281182237092718,0
527.0,8.783509,-31.14109649458281,-72.23056262710422,267.12922814150056,58.15211745629559,60.16324468469524,14.31266076106884,0
528.0,8.800176,-29.76544281391777,-112.03427832611612,272.0407465211416,52.07106029210412,44.22437585779704,15.5142009533829,0
529.0,8.816843,-32.49253256771781,-147.15037659729794,274.90602347568085,45.662603746168585,28.194944080301227,18.02995128716958,0
530.0,8.83351,-38.48819963468364,-172.96068276213242,273.8969878331269,32.75117767288404,17.326345909528452,24.126212760731494,0
531.0,8.850177,-44.80218344020567,-188.97645826640613,268.02062835191646,10.112945662631352,14.207019502412235,34.935514166468565,0
532.0,8.866844,-48.68126024968868,-198.7890328327472,258.054192369353,-21.52717711685369,16.521720541310213,48.91749981606343,0
533.0,8.883511,-49.3896974317411,-206.18568966170676,246.033047574361,-58.248972794680334,19.265728405705232,62.81818776158684,0
534.0,8.900178,-48.30958537480632,-211.09228764295773,233.8217979258131,-94.19693265328044,18.946578610618307,73.3525275976877,0
535.0,8.916845,-47.91179427379423,-209.1707798566319,221.84684011595235,-124.01906132433469,15.20706430234634,78.5750558151093,0
536.0,8.933512,-50.447919470377954,-195.3876312193508,209.35845812727428,-145.94788310237172,9.51891475764358,79.23972671365917,0
537.0,8.950179,-56.70866099217565,-168.3833451018766,196.0845115170731,-162.3635849304748,3.4733595123406005,78.92560228080711,0
538.0,8.966846,-65.52713195773222,-131.95250000838283,183.04022267268,-176.85045769823932,-2.159519356825035,81.48527083665982,0
539.0,8.983513,-74.60822016097063,-92.37697126848737,171.0717951806958,-191.02073487134788,-7.634096203744324,87.73626869531998,0
540.0,9.00018,-81.87861944763273,-53.91459498752099,159.04190468879827,-204.0608122257885,-13.495609939925922,95.09680101444556,0
541.0,9.016847,-86.17467504287285,-16.707828607981167,144.42484780697464,-214.48765800730487,-19.46999081111062,100.4897500843384,0
542.0,9.033514,-87.3532032357555,20.81867903722467,125.65017338463753,-221.77200913877664,-24.75811258113656,102.7070027125671,0
543.0,9.050181,-86.14054741734958,57.9791092062108,102.9224401658654,-226.16944111706,-30.054098835856102,101.65272333872656,0
544.0,9.066848,-83.24915332463041,91.00187650625028,76.65639767219692,-227.56386995985,-38.33781037446934,96.6976834791479,0
545.0,9.083515,-78.18323135156963,115.87959680382222,46.31354070352268,-225.74695775309408,-52.01132556005697,87.24759707104373,0
546.0,9.100182,-69.43370879416435,130.93558327875263,11.567250091428448,-221.9926676673129,-69.27764965458576,74.38336990374506,0
547.0,9.116849,-56.44644604050393,136.56589361438847,-25.932056759359558,-218.6553658148676,-85.12952069381427,60.384547037246335,0
548.0,9.133516,-41.31714985398318,133.61836081001744,-62.617369183007256,-216.14183263602325,-96.71183767278296,46.56798401805232,0
549.0,9.150183,-28.050092338108332,122.61559944598147,-94.76859744862564,-211.3290558746947,-106.41603645428626,32.77387012666026,0
550.0,9.16685,-19.744140184833935,104.34070646645418,-120.26351417999028,-200.15746338058867,-118.73253980066596,19.076455714504384,0
551.0,9.183517,-16.48487689915254,81.12055647873152,-139.2836781830729,-181.6406530934349,-134.83901562591552,6.783302671997672,0
552.0,9.200184,-16.222426274504294,57.50462911864744,-153.86884487632696,-158.85406117648594,-150.76809050452516,-3.0624528202864107,0
553.0,9.216851,-17.543671229795955,38.95932680236788,-166.48178340294598,-136.11562336519654,-160.0184964317162,-11.76642821117131,0
554.0,9.233518,-20.949685551530404,28.84536519163573,-178.27823415206785,-115.57278454916585,-157.45188835328418,-22.51941536098799,0
555.0,9.250185,-27.40048290418908,26.311006765533925,-188.3831656798684,-96.47654287197116,-141.24058363025793,-37.18113553708454,0
556.0,9.266852,-36.53343814018197,27.490893479158284,-194.8989347002816,-76.94507880544595,-112.20347081950584,-53.871365465767255,0
557.0,9.283519,-46.89646143576003,28.89724354388612,-196.8710790753669,-55.4579073229346,-72.81172775012362,-68.68465154185455,0
558.0,9.300186,-57.59128803796988,29.452532866314662,-195.44479868059773,-30.899301386723423,-27.41320993707825,-80.0775662059319,0
559.0,9.316853,-69.02962771561963,29.74416373549605,-193.0791858252828,-2.652318167740694,18.146925768764635,-90.66378831134116,0
560.0,9.33352,-81.41566510838476,30.577248905554622,-191.80336091120563,28.53150618816337,58.74981776069198,-103.85972212968466,0
561.0,9.350187,-92.50167665855176,32.64138895308607,-192.531730142226,60.44798026844069,91.60702962426066,-119.47117076090856,0
562.0,9.366854,-98.13683005600762,36.41186219282393,-195.52497570982604,90.7459737946946,115.34852969391966,-133.80584983377588,0
563.0,9.383521,-95.98510305855925,41.170125567096704,-200.32324431656525,117.71331817632203,128.64410186700283,-143.5958770133846,0
564.0,9.400188,-87.77067486433543,44.21063324661464,-205.05826754908716,139.67087914264357,130.5706759731994,-148.21293326233967,0
565.0,9.416855,-76.93626877527602,41.88973982495885,-206.8820457754506,154.90276242321153,121.79883621799245,-148.35586852821157,0
566.0,9.433522,-64.98759555240406,32.24010049733471,-203.73633154892195,162.9673327065828,105.14707726187616,-144.59856317316053,0
567.0,9.450189,-51.1272624499329,17.064137300226477,-195.5129614109848,165.3609784911822,85.59530335211457,-137.7318531921407,0
568.0,9.466856,-34.85640843971547,1.2621208622313422,-183.4150250781838,164.37327549150675,69.16435736900692,-129.02136330744568,0
569.0,9.483523,-17.70845463798068,-10.989899378634302,-168.51279699506014,161.53382693179873,59.644069315578605,-119.169058007673,0
570.0,9.50019,-2.1527884070404784,-19.91131591414166,-151.1542403386106,157.05698973238418,55.72344540070682,-107.48080925211286,0
571.0,9.516857,10.39373823548532,-29.093700946570525,-131.78814359868835,150.2921259135125,52.682280943454906,-92.579654287729,0
572.0,9.533524,19.894609091235598,-40.200581240129125,-112.22638176941696,140.53926658713598,47.31331909511592,-74.11639886567893,0
573.0,9.550191,26.792688705162217,-49.42998475218029,-95.6954391663199,127.46054296429992,40.30338246279041,-54.05021872084646,0
574.0,9.566858,31.7980907539948,-50.05148284108407,-85.05926076050636,110.82434002952304,34.12761454676578,-36.05653439887979,0
575.0,9.583525,36.32075959586543,-38.34968605043362,-80.618137683662,90.43770550103278,29.912235512273757,-22.747018089380312,0
576.0,9.600192,42.07502854960501,-16.925916368753118,-79.63862209434755,66.94187767649731,26.35880038518325,-13.073898511544506,0
577.0,9.616859000000002,49.72615107200821,7.30102977150119,-78.20114165671373,42.488181323620616,20.73875426042497,-3.184373519843536,0
578.0,9.633526000000002,58.11378044872868,27.95110658971848,-73.67780221073725,19.793284492066515,10.850869138254517,9.841303424758824,0
579.0,9.650193000000002,65.33461812429832,42.695829353492655,-65.69177074086804,-0.3925251891583701,-3.147782472217356,25.857494170681694,0
580.0,9.666860000000002,71.0906431851326,52.84045150234735,-55.06649985453848,-21.148931547523343,-18.61233051868108,43.28222211010216,0
581.0,9.683527000000002,77.9203797804364,59.7492199857162,-41.91080193762856,-47.470077422136896,-32.863473489850286,61.27867379367736,0
582.0,9.700194000000002,89.44268485080634,62.223995276934986,-24.619698614775785,-80.76850248738342,-46.04265841848048,79.26444056599833,0
583.0,9.716861000000002,106.61829697018038,58.07155117386869,-1.2695521802305123,-115.62612237582788,-60.69649694571138,95.42501354326949,0
584.0,9.733528000000002,125.21786655294964,47.563825254774606,27.25581291284829,-143.96604286087847,-78.08311626123194,107.61106167998123,0
585.0,9.750195,136.9582187360295,34.28119582060649,55.65185856834496,-162.67904251070087,-95.40417624333372,115.83313650372094,0
586.0,9.766862,134.01229994210868,23.011369919788898,76.56855039730996,-175.40689009015858,-106.9793458800996,122.25017656683816,0
587.0,9.783529,113.8440504906385,17.33795785531785,85.31499720574604,-186.7940909810756,-108.13999092803444,128.02886503466823,0
588.0,9.800196,80.75662518011276,18.37470545331964,82.50664277586446,-197.15689730742756,-98.56240106457984,131.2908650680826,0
589.0,9.816863,43.31904775003908,24.968883882078337,72.34794463255948,-203.4678753892288,-82.72890966344316,128.58245278349767,0
590.0,9.83353,10.136425882189812,34.751987461646124,58.89739217195009,-203.84771319080343,-67.60783542440477,117.97598854575445,0
591.0,9.850197,-13.621200682624703,44.292100797834834,44.64540474352297,-199.7091064430559,-59.56577956860401,101.80556524348614,0
592.0,9.866864,-28.204864323345436,48.5478592773502,32.40309443147211,-193.85541037656225,-62.29440305650888,87.85245890505459,0
593.0,9.883531,-38.59016887100449,42.597174843431375,26.601933214164465,-187.82123515070995,-75.84229991321267,86.57402233126759,0
594.0,9.900198,-49.99551251122645,25.834320073038345,30.698278221371314,-181.87148538454957,-96.2571522452069,103.97805938343784,0
595.0,9.916865,-62.87789930245056,3.7449353563132495,43.417074416462526,-176.50811978483247,-116.27633461838845,135.64216341495626,0
596.0,9.933532,-73.16342641495919,-15.76639496675389,58.95645095436391,-172.08769835044092,-127.565079659651,167.92398480384094,0
597.0,9.950199,-77.58219912403369,-27.60900530901644,71.23345269887784,-166.8257179667604,-123.58836933773132,185.29484997273656,0
598.0,9.966866,-77.3898500850207,-31.095894451456417,77.68088435492719,-156.44278727390267,-101.72227401281282,177.86292699190903,0
599.0,9.983533,-76.5773408732394,-28.262668950050468,79.67866910824918,-136.24213406893534,-64.25680719615573,145.08678993855955,0
600.0,10.0002,-77.94746469532987,-22.33942299832201,80.17715121613972,-103.82343445046136,-18.052949534533923,95.06203843526664,0
601.0,10.016867,-81.58353980000227,-16.866919590886916,80.62096910588426,-61.26200497369865,27.910843746397276,40.26498291444511,0
602.0,10.033534,-85.93714505460579,-14.07840079967312,79.864808359248,-15.528272871227278,66.21729452128498,-8.148694055528953,0
603.0,10.050201,-89.40665191164999,-13.585113311389028,76.30320392073988,24.5011703221427,93.03819286732325,-44.20481288081309,0
604.0,10.066868,-91.2703269523399,-13.594963180106973,70.55949634366456,52.94580679949781,107.28878982556148,-67.1335911040263,0
605.0,10.083535,-91.8722546283947,-13.888675525883864,64.98829891941611,69.3483445601789,108.99388087472762,-79.07564937040308,0
606.0,10.100202,-92.21438136050185,-16.737197413877137,60.413832563159566,77.03331748918058,99.27198068522148,-83.59742585635357,0
607.0,10.116869,-93.35806097720864,-23.761637778365085,54.339820421138896,80.17381385691121,81.71116494101807,-85.69897697208786,0
608.0,10.133536,-95.94642623277603,-32.30391402525078,43.17975442273374,82.26039395647324,62.715817154562274,-91.1901715261453,0
609.0,10.150203,-99.82336105999836,-36.49507528319087,26.173648477061647,85.65269344222202,49.17163069332672,-104.51625526759908,0
610.0,10.16687,-103.92130567591236,-32.244012372080604,6.44856607330114,90.8346321673443,44.76038700478446,-127.05094968585702,0
611.0,10.183537,-106.89083212486602,-20.26765315249485,-12.005413772486136,95.83936264950714,48.07852778507566,-157.36363913391995,0
612.0,10.200204,-108.26232885945628,-4.661407916371266,-27.58596976172523,97.59108461797766,54.17604346806834,-192.1229796817553,0
613.0,10.216871,-108.88856927376372,9.915305655880536,-40.720799916796665,94.89385513598997,57.97163824758555,-226.32532842376747,0
614.0,10.233538,-109.84020537432326,19.90994805947839,-51.40538288341401,89.98234357753105,56.77706186874015,-254.16457554569897,0
615.0,10.250205,-110.8199826088714,23.92542622638919,-58.81559001092988,86.50747734696782,50.67666824157418,-271.7973683462775,0
616.0,10.266872,-109.88254430665194,23.17382490840825,-63.30622375932147,86.0453899962796,41.42688188455505,-279.83513621846816,0
617.0,10.283539,-104.50381720102315,20.276336381471992,-67.19194200751556,87.14727279756801,31.139584031232754,-282.43673584364376,0
618.0,10.300206,-92.65694226470733,17.371032050249962,-72.7931395689707,87.71298112355086,21.7053745109278,-283.6692345567415,0
619.0,10.316873,-73.2348339290056,15.751361289873444,-80.35837942349816,87.41311039142944,15.032037969383152,-284.7665480035326,0
620.0,10.33354,-45.74802417517653,16.714409079458754,-88.01391621658433,87.57547881854424,12.96690639090624,-284.21702259371506,0
621.0,10.350207,-9.24241915664655,21.4946095474818,-92.82428534128232,89.67654137970257,16.221003088726864,-279.80345865779054,0
622.0,10.366874,38.277380504825146,30.27952134756598,-91.9868968181849,94.32422513451203,23.73023080450649,-270.7649750452076,0
623.0,10.383541,97.53284106161638,42.18514493731709,-84.55799103044698,100.757802049271,33.68715953808946,-258.1330985680898,0
624.0,10.400208,163.0590231056256,56.356766030423856,-72.83606130003069,107.18915329345644,44.63686300814221,-242.8866828979616,0
625.0,10.416875,220.60386800100525,72.15275138428827,-61.26684295805491,112.91060353263164,54.78021146078707,-224.6297847674271,0
626.0,10.433542,251.8792668389449,87.66453051263,-53.24356080187664,119.82767518540592,60.99841572917103,-202.74485352102775,0
627.0,10.450209,245.2449706726824,99.1158309947725,-49.06989346581575,129.72735724862983,60.337091627593466,-177.5891000167647,0
628.0,10.466876,203.86960989112748,103.46710792382696,-47.03409226216951,140.1690613821582,52.90175307676558,-149.57448397012712,0
629.0,10.483543,143.6148274597549,101.74820843522846,-45.78437766366907,145.90787497471896,42.18523699345765,-118.52291913118792,0
630.0,10.50021,82.43603150308968,98.42107540588142,-45.0520193555777,144.53059349945124,32.30897237326741,-85.10726706054788,0
631.0,10.516877,31.26146336599709,96.9872157963844,-44.562932976612494,138.00327015883,26.033901305793464,-51.83952482325301,0
632.0,10.533544,-7.013598014710915,97.03324410702986,-43.39523481688931,129.07017718760076,25.13240360344956,-21.70312691674109,0
633.0,10.550211,-33.40691630462507,95.5504634224104,-40.65997720939043,119.23609580081224,30.46072269466581,3.78157344474631,0
634.0,10.566878,-49.59210511509945,89.8963749994854,-36.024541593378416,109.88887753652055,40.69135668395666,25.30275184364864,0
635.0,10.583545,-57.01401671566671,79.08473480410174,-29.15973665173818,102.0409901949768,52.19230303902181,45.45146723553562,0
636.0,10.600212,-56.98214476057579,63.5840060494824,-19.41717918994329,94.57473686972672,60.86593315123004,67.42399871048856,0
637.0,10.616879,-51.15669720329485,45.288762053523776,-6.909123900025177,85.13135437766806,63.56475915233513,92.89130100343752,0
638.0,10.633546,-42.05612424286014,27.34416151795393,6.557120105228549,73.13502350826722,58.09135176830635,120.56522901804613,0
639.0,10.650213,-32.74327565767078,12.453123951771843,18.942581303173064,60.435819518071725,43.42950596921369,146.81820140048046,0
640.0,10.66688,-25.71948662177209,0.6749411720837335,30.494111899088832,48.91085496227913,20.821397021487005,167.78686419626263,0
641.0,10.683547,-21.88890106474095,-10.336701619914926,43.23094375058326,38.595548685008026,-5.714465089985733,181.3704675139987,0
642.0,10.700214,-20.087588027277206,-22.325206191345806,57.079563896787306,28.19832285512375,-30.44298282556094,188.0803629646245,0
643.0,10.716881,-17.526109864800553,-34.26971076069937,68.21952547281977,16.593417599708705,-48.36372512745869,190.5141280919697,0
644.0,10.733548,-11.60049117346824,-43.97643304810328,73.17921187572719,3.844883235352523,-57.919220240601305,191.82198402297104,0
645.0,10.750215,-2.186170249689264,-51.51934297589645,73.59360109805249,-8.393851964137099,-61.66666286232399,194.12028050033476,0
646.0,10.766882,7.941797025113523,-59.94235542516677,74.77890497427111,-17.29653057757008,-63.44266296368342,197.76938700314216,0
647.0,10.783549,15.300499059965835,-72.07883700400313,79.96393121889585,-20.57619844762897,-64.32100930812132,201.6225902630229,0
648.0,10.800216,18.146393945703256,-87.70514646593281,87.73170756621016,-18.73234487120981,-61.5332676208762,203.90776462519088,0
649.0,10.816883,16.876462649118857,-104.4797814118564,94.91979834995831,-15.407305071691477,-51.24244412864136,203.4760866565719,0
650.0,10.83355,12.813112756178018,-120.4975138021778,100.10948070925032,-14.614521177893623,-32.08524110845649,200.85859239515847,0
651.0,10.850217,7.139294386791447,-134.86076102804023,103.4496111280753,-17.812709037426714,-6.336505895598108,197.9804255783089,0
652.0,10.866884,0.7330219613785958,-146.56418052966887,104.15706988594924,-24.76880981314813,21.66808551041154,196.08530528347228,0
653.0,10.883551,-5.613916732127398,-153.98891508921605,99.78928334886596,-36.64226536574133,47.74551898125141,193.63249878855768,0
654.0,10.900218,-11.09752913288156,-155.4810433418935,88.34617267732109,-55.78342814542516,68.81902203944298,186.67841125341445,0
655.0,10.916885,-14.885541821291842,-150.0995769911419,70.16520992469007,-81.01662291692121,82.97053586138271,171.99337243985747,0
656.0,10.933552,-16.285358189003702,-137.89629127057276,47.31464893001181,-104.0706637920792,89.72217348731374,150.30704069957403,0
657.0,10.950219,-15.179487231418223,-119.51799235596064,22.06001005038425,-113.18558403459409,90.46688097816418,126.4804956899725,0
658.0,10.966886,-12.07038865607911,-95.3610208457834,-3.348942661431206,-102.30853613332968,88.46511032243941,105.78814529152564,0
659.0,10.983553,-7.430180920062696,-65.11605918927656,-26.328358890697523,-77.1210335362942,88.0891791262591,89.36267046279221,0
660.0,11.00022,-1.2976278001689177,-28.664644928783886,-44.89309120532933,-51.54118615941231,92.85530022363524,73.39633741942659,0
661.0,11.016887,6.499220456486519,12.138475308110726,-59.19521121036416,-37.68201217712357,102.7490087598192,53.12967708270133,0
662.0,11.033554,16.41593392302908,53.073720775865446,-71.40510408709572,-37.661471893162165,113.33575158302892,27.522718933407194,0
663.0,11.050221,29.533113814504546,89.68826290876859,-83.57436105111626,-43.36696122547495,118.6735347830419,-0.1231802176506153,0
664.0,11.066888,46.89786928525899,120.25537208166818,-95.54999130295847,-44.025204358968665,116.7478793280503,-25.892992062613917,0
665.0,11.083555,67.90687945627346,147.27477756820704,-104.98125368269136,-34.78438074947324,112.93311460900529,-48.9479172645721,0
666.0,11.100222,89.62914535038476,175.674329861482,-109.29976259507448,-18.290955059594705,116.51121472743986,-70.81221422046768,0
667.0,11.116889,108.55754347701011,207.16678495103952,-107.7127331791777,0.8533196385978488,130.98452960932042,-91.37765379124336,0
668.0,11.133556,123.5242573692606,235.5495841847532,-101.56498010052437,20.87886244814625,148.28274852923204,-107.44892610050202,0
669.0,11.150223,136.10318968850356,250.0480712821796,-92.85082504218158,41.95964181867439,155.59274299494254,-116.20717439172228,0
670.0,11.16689,147.2643502743299,244.32531466833055,-81.79077406134057,63.24866684735734,147.58786964358438,-118.48380054304812,0
671.0,11.183557,154.90352823460898,220.5140956149247,-65.65790967929641,82.67755793874049,129.12639709343998,-117.08250310011672,0
672.0,11.200224,156.4662937981652,185.45756821918343,-41.231871784136175,98.567652049637,107.34545904566912,-112.91063520299716,0
673.0,11.216891,152.8488624141516,146.56948958975786,-9.296486450158287,109.64356377189142,85.23436000064956,-103.8710170940552,0
674.0,11.233558,147.23001649293926,111.07090128196543,24.419832126853866,113.56365941561052,62.63688429011809,-86.69563246896948,0
675.0,11.250225,140.5950398052196,85.2860260056558,53.401083785590686,107.24527736476722,39.45864718308978,-59.61673233786753,0
676.0,11.266892,130.91165636913,72.04302091852472,74.22880327476406,90.44187457784966,16.224564892690807,-24.94979813861448,0
677.0,11.283559,116.67307020474271,68.2518487490313,86.43104713869705,68.66827609252985,-6.653239543517373,10.441369980934596,0
678.0,11.300226,98.98013547528872,65.73302506062187,90.53532191177766,50.22737929770949,-28.60354440747777,39.4034381115402,0
679.0,11.316893,79.81887417884596,56.657035761043744,87.04519180653037,39.13040294291851,-48.39697872848365,60.62094458845991,0
680.0,11.33356,60.40040081878282,40.15341626618597,76.56613043467134,32.02154737907703,-64.57836931113599,79.17403404127644,0
681.0,11.350227,42.1417124166008,23.34235351512057,60.7253621838776,22.564425654136883,-75.9186807577274,99.90206528644076,0
682.0,11.366894,27.70921008395966,15.212972073277374,42.87930105694801,7.603491090934261,-80.89674146804158,121.2935553831888,0
683.0,11.383561,19.31881613181733,19.793366920941462,26.907459743836625,-11.56941733472846,-77.22662423762479,136.5840756257105,0
684.0,11.400228,15.83750061971977,34.65900979217533,14.510914361747552,-32.7695019027993,-62.90905714027929,139.41590203277624,0
685.0,11.416895,12.43186527237847,54.05023034369913,3.963454733005996,-55.86038201693346,-38.36012337594664,127.608059305852,0
686.0,11.433562,3.947512508317325,72.69419269509388,-7.858226462137415,-81.18712897742338,-7.523532590785995,103.0798840526871,0
687.0,11.450229,-10.557785951002248,88.40132945072958,-21.459070533904963,-106.07142908001596,23.587351192423856,69.94054945727835,0
688.0,11.466896,-26.169997065296016,103.13448676603232,-32.02548769928269,-125.04511318064876,50.25041046707502,32.706017538011594,0
689.0,11.483563,-35.90739392678881,121.5991828522932,-31.25698331065217,-134.39416660075796,71.55274518737613,-4.366873428817282,0
690.0,11.50023,-37.9078484222447,146.8675040150478,-13.842104599908952,-135.5124933552746,89.41015433451412,-37.00009835296032,0
691.0,11.516897,-38.68175023304271,175.91004508941123,16.600133851353494,-133.26190531198864,104.47179042243432,-61.20967144002474,0
692.0,11.533564,-47.140997202508,199.39610363520785,48.702513896101664,-131.6741640140347,112.76574396265666,-75.06966299585397,0
693.0,11.550231,-65.40588974808492,205.99990886930004,71.39880374079146,-131.337451016398,106.65580639293952,-80.26531101560408,0
694.0,11.566898,-87.50310568044358,187.3495610241053,80.82346583237306,-129.79870009091465,79.58255675198626,-81.16219913970194,0
695.0,11.583565,-106.25726097429649,141.15546915176265,79.89643108539431,-123.56473824486882,30.80511234789803,-81.65684065502049,0
696.0,11.600232,-118.6590012632522,72.44246983131914,73.39583924724424,-110.2307226967604,-33.130450916294265,-82.7399942415009,0
697.0,11.616899,-125.46223333434835,-8.20793493886637,65.0999173463616,-89.86791428007965,-101.04331329766885,-83.11688165630423,0
698.0,11.633566,-129.1065914508734,-90.11195434320774,58.09966546859343,-64.81800467879646,-162.60608534863064,-81.62563747453581,0
699.0,11.650233,-132.22607718302604,-167.64209534083028,54.21037884035732,-37.99359626945475,-213.3881847456822,-78.16246182602362,0
700.0,11.6669,-135.81174996320928,-239.6197055254598,51.67602095954827,-11.551758019961268,-255.4324841595952,-72.49550412413068,0
701.0,11.683567,-138.70985064345672,-304.15729281273235,45.71844256734999,12.775408016984503,-292.7278511442886,-63.67988975248548,0
702.0,11.700234,-140.03327734905588,-356.29005777754594,33.621871632152654,33.15775134094498,-326.4192663158869,-51.53282602385224,0
703.0,11.716901,-141.21632887522313,-391.5370562763819,18.62999926024507,48.42742363342022,-354.5452507189698,-38.16750849878496,0
704.0,11.733568000000002,-144.56835543174515,-409.84705605752976,7.196159245991449,58.592859041933146,-374.7331015491631,-27.344441828877983,0
705.0,11.750235000000002,-150.4611871897572,-414.3206893185111,2.667403769367517,63.576769937306345,-385.2060440467577,-22.211469100586637,0
706.0,11.766902000000002,-156.48164342335312,-407.0172513239646,2.8634705003597327,62.18048002178985,-383.5361455151271,-23.813255625391378,0
707.0,11.783569000000002,-158.77626976835327,-387.418430298206,3.4982962297986244,53.43956950939652,-365.9629779903412,-31.691493530122244,0
708.0,11.800236000000002,-154.30055475580554,-354.30228829364285,2.6070950343700168,38.4328378010144,-328.4160108730021,-45.63217467343777,0
709.0,11.816903000000002,-142.65639354805174,-307.85754745508905,1.322743218242231,19.6843693198006,-268.2858019376803,-66.55292977018041,0
710.0,11.833570000000002,-126.12716985304924,-250.10120949271663,1.3527374982101303,-0.6417519135240566,-186.1213641468103,-95.48902438312528,0
711.0,11.850237000000002,-107.63924750265858,-183.8321326962052,2.684722816882223,-20.771196707376465,-86.64434132362013,-131.64970120149155,0
712.0,11.866904000000002,-88.65771131691395,-111.56121948475928,3.3399154287549,-37.971113559119416,21.529142117330263,-171.4975178691892,0
713.0,11.883571000000002,-69.91275823224943,-36.28282551670597,0.0417088350750649,-48.708977544609496,127.34152950610896,-209.7221581150997,0
714.0,11.900238000000002,-54.31064131668612,36.6522144765395,-10.667788129007754,-50.957899173387865,219.60220063994825,-241.28495219350893,0
715.0,11.916905000000002,-46.693236879140535,100.51366618544256,-29.847263320887865,-46.0406709883916,290.13559462572994,-263.039896894784,0
716.0,11.933572000000002,-48.5645479921378,151.96644550665064,-53.679728502645006,-37.7942879069959,336.7069865139549,-274.003221661728,0
717.0,11.950239000000002,-54.637646374805385,194.06785102722935,-74.79611772034123,-29.961651437030497,363.0690306320657,-274.550748987211,0
718.0,11.966906000000002,-57.02737848961858,232.4232508733573,-87.20504487440735,-24.069481087781305,374.60349821293767,-265.47794184664866,0
719.0,11.983573000000002,-52.32823640027858,267.8053064909387,-90.1793699894428,-18.87150823699506,372.65489429242655,-247.5865697778146,0
720.0,12.000240000000002,-43.33622006418452,294.0328504621491,-87.69241000518485,-11.8372793781305,353.8356490145338,-222.0257955751184,0
721.0,12.016907000000002,-34.95012711362043,304.4477097569249,-84.32364421064248,-2.3917147600744046,315.93568930945867,-190.8672165377962,0
722.0,12.033574000000002,-29.797673201129303,299.2343514887067,-81.57496569769029,6.239903290101882,263.10514210089275,-156.71054498135717,0
723.0,12.050241000000002,-26.88399096038241,284.40934984636283,-77.83064225352105,9.716337638007309,203.17259567797987,-121.3378990692699,0
724.0,12.066908000000002,-22.63262349929839,264.71774836689576,-70.94001747606296,7.167586579644678,140.9066062052647,-85.34198971354924,0
725.0,12.083575000000002,-13.218846561423929,239.5133074405377,-60.03616712342536,1.947115996566115,75.99347673468495,-49.57172656093367,0
726.0,12.100242,2.440356161923513,204.52341881372288,-45.480391073886864,-1.8623921881803749,6.604419508021464,-16.2778785808594,0
727.0,12.116909,21.12121512861117,155.9970195228135,-28.13508697502187,-2.27807917915444,-67.29283766260595,12.157138419851997,0
728.0,12.133576,37.50184825894021,93.89585660615708,-8.92561058501164,0.8939532422587526,-143.79157892834684,35.90398089632898,0
729.0,12.150243,48.54553442380964,22.167683771807287,11.175715621949571,7.228438490818308,-220.07467054646736,58.88249171479616,0
730.0,12.16691,55.25022873789617,-53.71908807173716,31.089342853711585,15.590127159959849,-292.2483062079499,86.9388713778035,0
731.0,12.183577,60.33740945859208,-128.83325290380563,49.88849093518533,23.6476945697838,-354.62009375526293,124.46496332698088,0
732.0,12.200244,65.61254529075575,-198.84582486450853,67.16234756794249,28.450290663820084,-401.1059363038548,172.41479093091374,0
733.0,12.216911,71.73829573887289,-260.22477872677774,83.05767244327474,27.675716915654966,-428.5658222591615,228.97132187554053,0
734.0,12.233578,78.7260991665797,-311.1481077156558,98.14778752339458,20.176153576093185,-437.8061751377135,291.333400741906,0
735.0,12.250245,85.26944023420404,-350.6907152585227,113.48195101121532,5.581015151716999,-430.6653498969216,356.5254037996675,0
736.0,12.266912,88.76385966207795,-376.4023784177001,130.58264675349812,-16.022736298937424,-407.54747224411136,420.795451362717,0
737.0,12.283579,87.97147612640212,-384.2830021071172,150.53716432404983,-43.63240224111156,-369.1519691507336,478.80485517692216,0
738.0,12.300246,85.5456401889382,-372.455089957758,172.16607134004,-74.4618257267155,-320.08738569419745,524.014740087312,0
739.0,12.316913,86.45344257814475,-343.80206206942887,191.2018590350197,-103.54214007103712,-269.28157684467817,550.3795855083766,0
740.0,12.33358,93.71145008243074,-303.72419258729485,202.1149238956509,-124.72580694758142,-225.65805991876965,554.0991003527912,0
741.0,12.350247,106.37360487468128,-256.4004362815822,201.14440492874476,-133.2894941737264,-193.05429063554587,534.5560957862554,0
742.0,12.366914,121.40297885730688,-204.521065510642,187.6674406838653,-128.36696763628223,-169.49083184456634,494.68594699112975,0
743.0,12.383581,136.6519785803214,-151.0326079999528,163.47364524009558,-112.87342617790443,-150.82414523435847,440.5778145594624,0
744.0,12.400248,151.75532294693718,-98.79930019610782,131.9521911504915,-91.23503366763296,-133.6377497346794,379.488631687057,0
745.0,12.416915,166.26519536974388,-48.94864442874783,97.91437427138555,-67.40476545907453,-114.06532951775095,316.94108107737867,0
746.0,12.433582,177.60827666416657,-1.0853623572676314,66.67080169041235,-44.29232082337805,-85.55328996435442,254.94805110569064,0
747.0,12.450249,182.16663911621535,44.97396887605001,42.14617485483862,-23.88881724053281,-40.10969144971068,192.2043647625045,0
748.0,12.466916,178.71339447251648,88.44187747890402,25.60525985941196,-7.374555573197625,27.53606896371736,125.45973957327402,0
749.0,12.483583,169.83670637130385,128.35872348197677,15.771239210275684,5.100168078693959,117.2738724443565,51.29697432220455,0
750.0,12.50025,159.64695454926365,164.45657414107356,9.96285706849727,14.727333659602944,224.428648043317,-32.18688379915476,0
751.0,12.516917,150.62254374420573,196.6866460476495,5.768164342814522,23.629671937937417,341.8769475695923,-124.19206348945438,0
752.0,12.533584,142.5301192003242,224.00045218557528,2.194685722638529,33.82269148190686,460.98242778302097,-220.29095577172188,0
753.0,12.550251,133.44554785422437,244.42274799588927,-1.0275628322754704,46.65646993661518,571.4868141796136,-311.86805630836875,0
754.0,12.566918,121.25736473652468,256.63361662990656,-5.588387408567605,62.72710280548625,662.0321614077408,-387.3695304051631,0
755.0,12.583585,104.54290425521066,260.7899713307476,-15.578898949385426,81.47116962262919,722.1297450632835,-435.9790498042461,0
756.0,12.600252,82.89826638374026,257.59858604866645,-35.11955312722275,101.08179504639124,744.7564901267124,-451.392231318908,0
757.0,12.616919,57.033164386525925,247.48115648921055,-64.26493026228111,119.5545608446409,728.168181051381,-432.88466590953874,0
758.0,12.633586,28.35170919855323,231.3001171523945,-97.64377435260305,135.36861322904622,676.2852902186012,-383.9741062774948,0
759.0,12.650253,-1.8535024730571,211.08863788340065,-127.39836824505082,146.50944371915006,597.337876139652,-310.9606357408326,0
760.0,12.66692,-32.60709470981588,188.4255590525799,-147.20358912341507,150.08870049859792,500.2287127086766,-222.06109254656872,0
761.0,12.683587,-62.76166453035324,161.62558799834156,-154.45499868293098,144.65885329415605,390.1487664078144,-126.39045508377814,0
762.0,12.700254,-90.99391283186056,125.84317141776512,-150.84710481170353,132.465977557421,267.5619339200165,-32.82431863076456,0
763.0,12.716921,-116.35744926480008,77.24616356486621,-141.42505642786642,118.04738592266555,132.10530666154494,50.8245906402676,0
764.0,12.733588,-138.09153863403355,16.975036869171895,-131.20928476199862,104.73321646508832,-12.650344915684403,118.6840422923762,0
765.0,12.750255,-155.06564868888756,-49.52532575165806,-121.4164221917938,93.02721208869286,-158.42220749950474,167.82562594401466,0
766.0,12.766922,-166.69274756534907,-116.66422992866586,-109.53507448457938,81.54057646482033,-295.63665802776995,198.33978145378552,0
767.0,12.783589,-174.50260800383796,-181.44899295401075,-93.25200094155372,68.47056347782535,-417.3898613330476,212.00200392903915,0
768.0,12.800256,-181.40943211899764,-242.3863925376263,-73.16966867932061,52.372721896041526,-520.5837746555671,210.7052815128125,0
769.0,12.816923,-188.829040980894,-297.18904473284647,-51.42305193354906,32.40948893019315,-604.2005803050413,195.93497140105168,0
770.0,12.83359,-195.16846962450035,-342.94137373132327,-29.149243712131486,8.625303665923372,-667.4837318405845,169.1937488966079,0
771.0,12.850257,-197.10848374695436,-377.8549137520649,-6.671352017430974,-17.729971752299406,-709.7165041093358,132.53008067002335,0
772.0,12.866924,-191.47075137243456,-400.7687071664187,14.396673778062354,-44.40986779485769,-730.537395300221,88.6367995788267,0
773.0,12.883591,-176.12701483220414,-408.52080452094543,31.014062174514265,-69.09073298946544,-729.8410958451839,40.35469491605439,0
774.0,12.900258,-151.12254329789096,-395.8144940544456,41.13940584739164,-90.00902516204603,-707.7978663815795,-10.381016783043092,0
775.0,12.916925,-120.24127468848955,-359.7122428214229,44.7261372172614,-105.42589197860156,-665.0438973382556,-63.53669457925363,0
776.0,12.933592,-90.13611772658426,-304.77487805652163,41.53490778059597,-113.0220413841289,-602.0754771335388,-120.68544220386303,0
777.0,12.950259,-65.6351577206721,-242.3308874178484,29.594832902434543,-111.00501629929784,-517.5621037500067,-182.90981395656897,0
778.0,12.966926,-45.574780854560125,-182.02131792526973,7.2393646139289025,-100.08172423128744,-406.8362968066925,-248.4634766231071,0
779.0,12.983593,-24.549520356427795,-123.05584919541474,-24.00424640254895,-83.53529798141176,-262.5208854304273,-312.5967563742786,0
780.0,13.00026,1.3347431611946092,-55.279583715172045,-59.46715835433614,-65.17879480670516,-78.38956670979373,-369.7120236913607,0
781.0,13.016927,31.887560817199983,30.31474872846091,-94.28846006344888,-47.97190872013092,144.75985657443175,-415.39840056846543,0
782.0,13.033594,65.07067355601606,133.13812672526544,-126.35325347733352,-34.28416214674318,394.538037754289,-446.7204171405382,0
783.0,13.050261,98.82652744130417,244.5567614135492,-156.3853779300494,-25.47591809603136,646.3875154947697,-461.9346011076854,0
784.0,13.066928,130.0829280496747,354.6118122163826,-184.9710585820341,-19.88725157196428,867.3747119216171,-461.200887202729,0
785.0,13.083595,154.0111422920446,455.0887744382635,-209.7264783375332,-12.033753784442217,1023.961313889364,-447.3431338981004,0
786.0,13.100262,165.63780252279693,537.9205482107013,-225.72301572853647,4.730723522927802,1092.6673656917103,-424.029734243862,0
787.0,13.116929,162.14228035373728,593.9600465178298,-228.2885394412458,33.66092696478363,1069.1638448593878,-391.4850829323932,0
788.0,13.133596,143.63049424441374,614.7278305184776,-215.10749597058964,71.49767790568394,969.3417270100784,-344.5571734217675,0
789.0,13.150263,112.2950847162024,595.5088759194459,-186.36929086101023,108.9035914026806,820.8719893584807,-276.654978274806,0
790.0,13.16693,71.5447338812827,537.7693029545205,-144.0382493085782,134.7624545826596,651.5944078449679,-185.7260743372322,0
791.0,13.183597,26.078679789368657,449.9514886773432,-91.6636420127388,142.23217334901335,482.1622472948345,-76.11735427948176,0
792.0,13.200264,-18.255073514352013,345.3634690265012,-34.71637138024769,131.91321896041117,324.382312090558,43.8360893822229,0
793.0,13.216931,-56.112262808871975,236.7494479567186,20.243716152786,109.15482494185363,182.4425178949986,164.4914547366018,0
794.0,13.233598,-84.68344266822552,130.71818445023032,68.25596432691134,78.75109484932315,55.16936772494175,276.50255171991887,0
795.0,13.250265,-104.0121092141261,26.78388139573816,107.9128506119086,43.100753411190006,-60.93810461851062,372.4774886115773,0
796.0,13.266932,-115.40299292272614,-78.05642711999025,140.01911907266594,4.562347521260687,-168.63344126896394,448.1510213463938,0
797.0,13.283599,-119.72908694088464,-183.5431579598074,164.7618890744558,-33.13245563251832,-268.4781837061345,501.7238307032022,0
798.0,13.300266,-117.2889960900951,-284.2490038890823,181.01232147906376,-66.88052624637079,-360.119173341057,532.4544947249494,0
799.0,13.316933,-108.84466278773026,-372.9035944480749,187.65967240308876,-95.61227687995864,-445.04203138976834,540.5560823308584,0
800.0,13.3336,-96.06888224057266,-446.0835040813096,184.2366664560369,-118.09236946692232,-527.5308621567444,527.9828038448861,0
801.0,13.350267,-80.70045192368684,-507.0827185686896,170.68428065238868,-130.5312798652465,-612.1435352528009,498.2628492761698,0
802.0,13.366934,-63.55593699931429,-562.5500550246361,148.20707756719497,-127.83727152424902,-700.3249462833808,455.3914737308241,0
803.0,13.383601,-44.4270105388401,-615.3715717174604,120.6875418862601,-106.67523663139454,-789.7066569217877,403.4711227663459,0
804.0,13.400268,-22.640079895797776,-660.2261321965716,94.16715994889196,-66.58589666492816,-875.7116655527313,347.6649811164848,0
805.0,13.416935,2.0091424338535253,-685.7930876691723,74.43695540422408,-9.507378275484394,-952.7907553158368,294.7139480842136,0
806.0,13.433602,28.470966901188536,-681.5092730108389,65.859108284631,59.534691411685294,-1014.9661345160664,250.97297079811375,0
807.0,13.450269,55.51215683079862,-642.7281103195354,72.9760388646356,131.27877463843583,-1057.033785118619,218.84931297746164,0
808.0,13.466936,84.3224375393597,-570.5624573897514,101.61306981323034,194.56533452172744,-1075.2084659200782,195.10674310656515,0
809.0,13.483603,117.84353552507348,-469.2602192001656,155.46771491178063,242.2117583092483,-1063.702286437788,172.18396181765493,0
810.0,13.50027,154.6076613535842,-344.9319786426038,230.5246424131522,274.1241621570514,-1006.8751263739846,138.99187097971298,1
811.0,13.516937,184.66888641795248,-203.27191413651263,314.4966749436815,292.93763360558194,-872.4167958838161,77.98122772706915,1
812.0,13.533604,196.1229479123201,-43.56176777386765,393.4391765991546,296.07875078870427,-613.1937760676458,-38.31543275409168,1
813.0,13.550271,186.860460937413,143.71033566468154,458.3694644866746,272.2697722746171,-182.79397113050356,-243.4216473861688,1
814.0,13.566938,166.65695049326462,365.32775126038086,503.6799173183764,207.3952264856416,436.8603498244929,-561.3063462844405,1
815.0,13.583605,145.78758998248557,606.7835015532854,518.9948095554306,100.72304367627378,1208.4050047487935,-984.1760035867868,1
816.0,13.600272,123.95804992036126,829.8295673274336,485.5404423616175,-14.592672535671548,2031.3787164477355,-1458.858439603142,1
817.0,13.616939,92.19615560292176,994.245846317252,384.4078451193189,-65.34979982912323,2762.763259066879,-1900.0532609436573,1
818.0,13.633606,42.62752875574697,1080.6728774540263,210.33091833600264,34.81112492652099,3257.5645508993266,-2234.50423759283,1
819.0,13.650273,-26.4604113569222,1091.1138192725048,-21.628761002255363,333.4034683523972,3416.923279678578,-2447.798957370818,1
820.0,13.66694,-111.02283525806494,1034.3261940993175,-280.4118586855384,797.8426484597675,3228.871816620943,-2585.2605214357536,1
821.0,13.683607,-199.67075024498385,914.6982172355272,-528.5252153185368,1313.6347002726832,2771.092853841793,-2689.4519098961505,1
822.0,13.700274,-272.1572124104525,726.2086289200288,-731.5885614276026,1716.6682400721943,2150.764885516328,-2721.649821361094,1
823.0,13.716941,-307.1529012604177,449.7318850965119,-866.1579165117398,1837.7077988630508,1416.6560783557427,-2536.943733737949,1
824.0,13.733608,-296.5877427384327,67.75355539628961,-922.911554079854,1553.9611651004348,533.7137303530229,-1938.07827722582,1
825.0,13.750275,-251.28552411882612,-396.7668917847909,-902.4097529743156,852.7414987855825,-530.7756584911667,-793.1061149519172,1
826.0,13.766942,-190.99471046657465,-849.9257468471428,-807.5924673181332,-118.70921176444226,-1684.13043103566,813.8755396279349,1
827.0,13.783609,-129.18922439408675,-1154.784900344852,-642.60696643254,-1078.5573456757866,-2694.5945697989678,2495.012107740644,1
828.0,13.800276,-65.83151507080137,-1218.4001463302975,-421.7925798240643,-1740.175958166658,-3335.8434813218155,3688.088401516377,1
829.0,13.816943,9.471758569948284,-1063.487140054086,-180.5092276233706,-1975.210937951599,-3548.3423096996285,4007.779623789119,1
830.0,13.83361,108.91873036188922,-807.7763410753305,25.49491393965268,-1877.7575750719327,-3440.007903059187,3534.9146706277565,1
831.0,13.850277,235.9620443589636,-570.0891237298539,137.9528131186,-1671.2015025965306,-3150.0522644266293,2739.6965136083363,1
832.0,13.866944,375.4737091351167,-400.8973121106646,123.67716814586484,-1542.3868604007023,-2759.466421566962,2102.4510050681265,1
833.0,13.883611000000002,492.7101463614325,-289.0063016245864,-4.847955124413929,-1539.6691424947207,-2314.4132937569407,1800.1013584099264,1
834.0,13.900278000000002,548.125531643128,-200.1818144256792,-191.3926263382597,-1587.3526203289075,-1853.3105140711584,1701.963864640235,1
835.0,13.916945000000002,520.3829215420219,-98.1935479703352,-362.4586942036636,-1566.5847687609337,-1379.0012433839854,1583.942968046826,1
836.0,13.933612000000002,419.01040881935,41.55348784970217,-462.4621708725676,-1393.8904809538913,-852.1739774981792,1323.6728321429086,1
837.0,13.950279000000002,277.47804647156784,211.01976689669272,-475.6868279279669,-1062.75799115156,-248.59036001773276,944.270244879369,1
838.0,13.966946000000002,135.18637304924124,367.080615054956,-424.5305334852184,-638.528710498882,390.46962091239527,537.8214290131216,1
839.0,13.983613000000002,21.71856511383573,464.2689752583384,-349.55961889500105,-214.90013265604432,975.6979239875956,173.95019194180068,1
840.0,14.000280000000002,-51.07877739736789,491.04295988631816,-284.8533951200035,136.49718766056768,1425.711400870127,-131.78314626987176,1
841.0,14.016947000000002,-89.73338093280641,473.2312077721514,-242.01295749420495,388.9274878007511,1705.5038256892558,-391.6655311316514,1
842.0,14.033614000000002,-113.38773618217655,448.6416580742929,-210.05204620901276,549.2750662886747,1829.8275141918084,-610.8796170069359,1
843.0,14.050281000000002,-143.15529356866938,441.2945867691019,-167.6770608771737,633.981308762523,1842.382992442676,-778.6283039477685,1
844.0,14.066948000000002,-191.2681583604897,453.0564935056802,-97.10133428343138,654.2368130570608,1787.03515235282,-880.0856977814847,1
845.0,14.083615000000002,-255.85176689565264,470.5738355190984,8.51466650325931,616.304138071462,1687.7884737583934,-907.3422270938383,1
846.0,14.100282000000002,-323.17887193575666,476.7029731750358,143.90082480423263,530.4696886938059,1547.4852328472064,-860.7341849228671,1
847.0,14.116949000000002,-374.2242011073455,458.7674706699656,293.7705516055093,418.428783133394,1360.7515419120218,-747.3739421388776,1
848.0,14.133616000000002,-391.6796303860593,412.3939225638711,437.5328223489139,311.13993574892174,1128.5561866768703,-583.2047736897777,1
849.0,14.150283000000002,-365.9040495855339,341.33274310923616,556.3544457249193,236.8333894072622,864.3596789173596,-395.1081123207383,1
850.0,14.166950000000002,-298.85087671485775,252.6762777261339,639.3073999110837,207.88187751232115,589.1404522732779,-215.8189693481327,1
851.0,14.183617000000002,-203.9564312543777,150.16942606552183,684.8330369185672,216.8887048796072,320.95487580259856,-71.67694139764689,1
852.0,14.200284000000002,-101.11212262022671,32.52109541559818,697.61445759811,244.4365814811925,69.29417382828935,27.777024509924917,1
853.0,14.216951000000002,-9.22351585513161,-100.32472073089308,684.4229879984766,271.7182047288213,-160.87066231427144,89.97924432888635,1
854.0,14.233618000000002,59.57369863331504,-239.6220566535256,652.3434808121293,289.03852467530265,-361.8808607297013,130.50231474584686,1
855.0,14.250285000000002,101.76570310256184,-368.1475049720272,609.6598493868559,296.0880027775285,-523.098316737219,163.40586762683398,1
856.0,14.266952000000002,120.81607988854589,-468.8321910497833,566.2391942768413,296.6939941354429,-637.9272361971124,196.78388547532188,1
857.0,14.283619000000002,123.77157609954573,-533.2550564719517,530.5323076486482,293.74915006456644,-708.8078512042835,233.3137925839952,1
858.0,14.300286000000002,117.89174050737952,-563.024629281336,504.9008197468726,287.3409847975285,-744.3687090768753,272.5454116317113,1
859.0,14.316953000000002,108.77341288054484,-564.9349315451676,484.2149451115021,275.5064901820065,-753.1383119799408,312.7647578373241,1
860.0,14.333620000000002,100.33482320540612,-545.2512568094099,459.9713488168469,256.3926647973564,-740.5094869423717,352.2350992463979,1
861.0,14.350287000000002,95.24602455361148,-507.2561346747135,426.347287359991,230.30105565429116,-709.6151398498625,389.7047250758013,0
862.0,14.366954000000002,94.37866797431926,-452.9671395462667,382.4877740053792,199.4103948870156,-662.8208493677043,423.5063376465239,0
863.0,14.383621000000002,96.03176882188424,-386.69154767727673,330.15367202899097,165.3609867044408,-602.2329592687378,450.029874712953,0
864.0,14.400288000000002,96.72321674278402,-315.97620930467804,271.67996417922006,128.13995077199868,-529.8298566027127,463.8212830435047,0
865.0,14.416955000000002,93.41627731531298,-247.68740992272416,211.20139171103312,87.77165281934288,-447.6156800816709,459.66856234099953,0
866.0,14.433622000000002,85.23787711008617,-182.89928234403752,155.43159193674572,45.8671646240694,-357.5424152120346,434.4937000259724,0
867.0,14.450289,73.83695973328199,-116.57659244060982,110.3222760300089,4.903488440851223,-261.16444473960127,387.5642655718099,0
868.0,14.466956,63.03181216991936,-42.400588968057896,76.49602669270857,-32.96147614075962,-159.0604299961719,319.43623237740235,0
869.0,14.483623,57.645038155308406,42.96001229390576,48.51279151341325,-65.9616604647636,-50.14345483919002,230.42963880416343,0
870.0,14.50029,60.95755598598477,139.45074041087116,18.263705497859902,-92.55799392812447,67.99604786305753,119.5895569257142,0
871.0,14.516957,72.20499165901921,244.5221769779777,-20.88206536642468,-111.71164463935416,197.02611621954725,-14.380406891542448,0
872.0,14.533624,86.73048899994131,353.1429895438557,-71.2884029655902,-123.42267422684228,336.32964246119343,-169.5096060217765,0
873.0,14.550291,98.68123260091444,458.5144055824328,-129.89351822914247,-129.90056383850867,483.68073661734667,-335.84477568476785,0
874.0,14.566958,103.0419282576838,553.7132050161239,-189.1730973216698,-136.9340236054088,634.4838975944795,-493.1012013120659,0
875.0,14.583625,95.4901812706348,631.2382083149731,-240.4511786208928,-152.29284742012942,776.2051679961106,-613.9351236120681,0
876.0,14.600292,72.3585973947196,680.3482568110053,-277.7238711711696,-178.83646933192426,883.6832829374889,-673.1782597352526,0
877.0,14.616959,32.529675872381105,687.4519365556482,-299.24691572730177,-207.6822008457685,924.7991653912484,-659.5477984732022,0
878.0,14.633626,-20.586342866907955,642.6275096233861,-306.6554020948419,-221.4118417304321,876.2144532622542,-583.6100699388307,0
879.0,14.650293,-79.31297894785988,547.4072375773958,-303.703596017657,-207.13998375503087,737.4736121380085,-475.28756879036337,0
880.0,14.66696,-133.521829655516,416.398938164382,-295.0411306749337,-165.47243031460732,532.5122570167969,-369.33563201981,0
881.0,14.683627,-172.7000171647673,270.6309176490013,-283.9152461771939,-106.0739203389584,298.4658123033762,-287.7064821562409,0
882.0,14.700294,-189.1461733832416,126.8488495424867,-270.4580057164191,-38.26547209869183,70.68619885791385,-232.3351506189257,0
883.0,14.716961,-182.27512992731783,-9.535335602631452,-253.6471494088413,31.32351055569664,-127.48176160648482,-192.34704600353305,0
884.0,14.733628,-159.93544467171296,-141.40322018953685,-235.18979160250356,95.68051625433829,-287.71072703481343,-156.58760233091058,0
885.0,14.750295,-133.4385164662183,-269.5816338928155,-219.87410918371663,147.41510033083688,-413.89717565095634,-120.90230094770187,0
886.0,14.766962,-110.28713126147537,-387.0536005348188,-211.3606351655289,182.41082899974052,-515.6442781466426,-87.9153533538768,0
887.0,14.783629,-91.5102819126316,-483.5734477459547,-208.2868061415128,201.5690850880792,-601.065474403109,-63.09319631967615,0
888.0,14.800296,-74.24054080160572,-552.725967094195,-204.69876501710135,208.67943335241216,-672.5094660378716,-50.90032888590299,0
889.0,14.816963,-55.14949015562632,-593.1378666646443,-193.93138078413529,207.1652723507293,-726.7968738997612,-52.90779381602791,0
890.0,14.83363,-32.47535789621399,-606.1890958720401,-172.31718900016455,198.77775194828,-758.5969245104022,-67.8934572380032,0
891.0,14.850297,-7.130999256571517,-595.4323480932817,-140.2799301100522,184.92525909120567,-763.9586738797736,-92.72729409287852,0
892.0,14.866964,16.91408216479578,-566.6700537030858,-101.64033984010864,168.52776059606907,-741.2730380645553,-123.15282277242852,0
893.0,14.883631,33.67731910946016,-525.1168458822162,-63.2869042767961,153.58049262967103,-689.3540167006776,-154.84345836592988,0
894.0,14.900298,38.3445406990278,-471.1674275340201,-34.55664743150626,142.6012967558883,-605.340420131169,-185.00957487165311,0
895.0,14.916965,31.471528526145107,-400.0065115316924,-23.918930687751036,135.15923563337867,-485.0266872306892,-213.5871278962623,0
896.0,14.933632,19.97292614805187,-305.66404211546705,-34.68134364750338,128.91821280646485,-324.80080090162187,-242.98058288081887,0
897.0,14.950299,12.394852160302047,-183.9744700111966,-63.92693981508564,121.1906747304744,-122.82253163294745,-275.5423406765652,0
898.0,14.966966,13.270034171167657,-32.47402964511448,-103.94852892353828,109.68162115702508,119.83680609993222,-308.36331662258254,0
899.0,14.983633,22.546679257979545,146.99477593947432,-143.42316474994504,93.1283737562198,395.2098601903777,-329.085131932531,0
900.0,15.0003,37.97636115780742,341.57676593637206,-171.0422218998536,71.138835958617,682.7346340554226,-320.24428824553405,0
901.0,15.016967,55.05793554506185,526.0407792936347,-182.6029948711941,42.443919473444005,948.1227762448676,-271.91151138383555,0
902.0,15.033634,66.04004449275028,672.5828182807804,-182.8594910218173,4.731944942086136,1151.1650091999725,-189.6651578461928,0
903.0,15.050301,62.9849581568255,763.492770684545,-177.6288847729374,-41.78886888526649,1259.2002617716962,-89.2636604861946,0
904.0,15.066968,43.44823091427534,795.5809525097923,-166.81880354018023,-91.88388115537548,1258.2747459327138,13.532896012461457,0
905.0,15.083635,12.802589183695492,775.6379172453874,-147.15647147289417,-138.45663888287103,1156.3025407514826,107.1586178071117,0
