Frame,Time,RightHand_Accel_X,RightHand_Accel_Y,RightHand_Accel_Z,LeftHand_Accel_X,LeftHand_Accel_Y,LeftHand_Accel_Z,Label
1.0,0.016667,6.254398773900478,1.8934769226090584,2.051638443107259,-12.935435374791574,0.1442631190210276,-12.25425823539177,0
2.0,0.033334,4.980137915932151,1.775875911469797,1.311237122481527,-10.169808655959084,1.1795531789368794,-9.749340404390278,0
3.0,0.050001,3.425235153946619,1.6168618232956322,0.2836261834237458,-6.597726262877864,1.805495775006777,-6.758048785090235,0
4.0,0.066668,2.3049908602520293,1.4619898580158228,-0.6574455961785337,-3.0860848716403977,1.4073964578398377,-4.047670833990925,0
5.0,0.083335,2.283792819121621,1.1897360929536214,-1.1383451853531208,-0.8574179384839156,-0.3343913903917316,-2.051502629297662,0
6.0,0.100002,3.283004562429767,0.5595418993554837,-1.2245661035165745,-0.7144011586593917,-3.060017815052101,-0.7477511594735866,0
7.0,0.116669,4.356711729905986,-0.3897727028739691,-1.397786727446616,-2.146058772374198,-5.543626109860883,0.0783998433782875,0
8.0,0.133336,4.546770592736849,-1.121871420318184,-1.9419098900690732,-3.554433388841293,-6.392692383772385,0.7174951326222803,0
9.0,0.150003,3.837132592122387,-1.041914288007498,-2.5435994452253405,-3.5950457765664816,-5.262728902383502,1.6706768063108983,0
10.0,0.16667,3.0029623287095184,-0.1553600567216669,-2.711033875342712,-2.224117178130445,-3.173706392432646,3.475518622410436,0
11.0,0.183337,2.607335336925826,0.9082370914609084,-2.396004992995752,-0.4864272972814562,-1.4629229557031722,6.010063327224857,0
12.0,0.200004,2.521030125711955,1.5573492970400231,-1.929883473038305,0.4986719977646306,-0.6838716975518351,8.135787324384747,0
13.0,0.216671,2.4411672322415274,1.766612386334606,-1.459990319664215,0.3000860824668841,-0.6983309853748746,8.512660233726667,0
14.0,0.233338,2.47817086225306,1.9062862057632384,-0.7392511396946225,-0.8457715525005441,-1.4196039709538184,6.853198223353038,0
15.0,0.250005,2.9852754723777157,2.193450671522094,0.4618364617231511,-2.5185199437669,-2.881293542901986,4.0777211199975,0
16.0,0.266672,3.9878771166326494,2.4242202282555656,1.869221761034212,-4.391210231431891,-4.6383894566597625,1.2725538411659172,0
17.0,0.283339,5.043693784745291,2.226029282712012,2.8007076329835243,-6.116151500897054,-5.718033543907808,-1.1150755464537023,0
18.0,0.300006,5.637980022581261,1.514002637375928,2.8630970433960323,-7.26378968228469,-5.478636771337523,-3.0939373601926885,0
19.0,0.316673,5.544028358569407,0.6497837547493489,2.4501485799540195,-7.597563292899457,-4.255514342151002,-4.672278068284811,0
20.0,0.33334,4.85343614107925,0.1161292719440971,2.298006888071399,-7.319203657953663,-2.9299896824235923,-5.82061034802321,0
21.0,0.350007,3.864825172874376,0.083252534394632,2.587002326581304,-6.878310631167122,-2.060572050907409,-6.63579426288987,0
22.0,0.366674,2.940620253629162,0.3825744688458324,2.808696007578667,-6.529619220634608,-1.613180758831375,-7.279771658591461,0
23.0,0.383341,2.3419957111746346,0.8454464967879753,2.4833958846736683,-6.095299835222471,-1.2711600879855434,-7.728485210818109,0
24.0,0.400008,2.222104158532668,1.5081525556203508,1.590732670245082,-5.1357881165476105,-0.6723119089018319,-7.645686583502613,0
25.0,0.416675,2.724608381277579,2.474718473380276,0.3382931709468153,-3.4420201672670543,0.5229209034057634,-6.546901026425502,0
26.0,0.433342,3.7742667629836415,3.649175202565874,-1.003849177423893,-1.5136487969096089,2.354270938645712,-4.150374016492997,0
27.0,0.450009,4.630041174890225,4.541994430945795,-2.048158034736969,-0.4706052993349815,4.18875751907065,-0.6937198159378037,0
28.0,0.466676,4.011962959440918,4.345102581484225,-2.510945206867075,-1.1690279546397364,4.919020048731252,2.9745199096919697,0
29.0,0.483343,1.2094880503002972,2.4788449309285374,-2.5030284181772786,-3.241540660748824,3.835626987439943,5.661820503332583,0
30.0,0.5000100000000001,-2.8189432747799223,-0.7195955326485133,-2.2887893597470663,-5.174582070572045,1.2523716236680065,6.457432245412678,0
31.0,0.516677,-5.8618280461263925,-3.995871089924946,-1.8214935177594385,-5.551174582451436,-1.7965189253800875,5.372956557555369,0
32.0,0.533344,-6.304486889804373,-6.057454203397268,-0.9033424999153696,-4.2650019478511005,-4.21545347569311,3.3856112739511213,0
33.0,0.550011,-4.478345704540232,-6.439391336040082,0.1665613075993531,-2.452550655166778,-5.142772860367571,1.6789173240589434,0
34.0,0.566678,-2.125276745160958,-5.540051748454081,0.5765086717638197,-1.2764840207743224,-4.235393089826543,0.7767066996350573,0
35.0,0.583345,-0.7653055962456436,-4.049504789301221,-0.0689168622828865,-0.938980736647864,-2.2461444836123654,0.4505683520082945,0
36.0,0.600012,-0.6727112242290538,-2.480464996900917,-1.1163493212052995,-0.8693399856773965,-0.8982716900539116,0.3117265089119077,0
37.0,0.6166790000000001,-1.1627259898104234,-1.0766370579836806,-1.5521548365384803,-0.5447187926524762,-1.4029366835934398,0.2359858219740792,0
38.0,0.6333460000000001,-1.5509806393041208,0.0708479783907214,-1.1349034801159117,0.1357296799977516,-3.1476019881651487,0.265151783137632,0
39.0,0.6500130000000001,-1.7343585703532258,0.8788371253449181,-0.4416063976079223,1.0880733816738226,-4.387930276860997,0.4121907503238858,0
40.0,0.66668,-1.985249766067017,1.2348667006560274,0.0570484028797346,2.2088789734664225,-4.172655162925836,0.6669397132188963,0
41.0,0.683347,-2.4740129966617426,1.1330091575023409,0.4749812684952532,3.213882152636625,-3.0879716073864207,0.9911603798677578,0
42.0,0.700014,-3.1370462062960254,0.7599508438915885,1.0512214889614613,3.695321836462604,-2.148297531173845,1.2428558404871728,0
43.0,0.716681,-3.8207298603960895,0.2973362874412403,1.677615740951022,3.612677141710268,-1.56960458440934,1.305531936625874,0
44.0,0.7333480000000001,-4.348166565139495,-0.286606803502671,2.0923709984924925,3.515273773407418,-0.9000282498981161,1.3341356312992254,0
45.0,0.7500150000000001,-4.544228001686713,-1.0388621431537826,2.25148942413289,3.970448457185391,0.1154737447527527,1.6275841806412314,0
46.0,0.7666820000000001,-4.370983393399779,-1.6699140672484178,2.2555464240551224,4.847147927123436,1.2922710357168716,2.143403900111352,0
47.0,0.7833490000000001,-3.994799223508771,-1.7053169472999798,2.068453022579873,5.442644367850213,2.409382142952758,2.3587073308813475,0
48.0,0.8000160000000001,-3.611900474903922,-1.0770739829805485,1.5553288046947331,5.312659700005605,3.3419852931794978,1.811763434020742,0
49.0,0.816683,-3.260849431668154,-0.2984734370391928,0.7440537307910646,4.74263252963406,3.825459775960288,0.6603097575448194,0
50.0,0.83335,-2.884180841991699,0.132156068441065,-0.1314897310905655,4.3692828902622685,3.5708941987445284,-0.5136350560535534,0
51.0,0.850017,-2.501701116538416,0.3073635289997698,-0.8106055528876037,4.49767137271494,2.756446800577132,-1.3806531341426775,0
52.0,0.866684,-2.2364539905246863,0.6400466540767468,-1.110620880531006,4.790312478620228,2.0438517117290864,-2.0518097004540303,0
53.0,0.8833510000000001,-2.215090151035853,1.1279227436467822,-0.9619475090878687,4.507073267031515,1.8757305490140448,-2.5542107014451108,0
54.0,0.9000180000000001,-2.503306535538667,1.2183702738445312,-0.4921103730030822,3.098436991894596,1.9642831288967777,-2.4820300012605063,0
55.0,0.916685,-3.099670741637447,0.4809160407201133,0.0223079852324001,0.7463797386713713,1.6980222560393283,-1.4450343295447452,0
56.0,0.933352,-3.945561616280012,-0.8409512167268481,0.4192950424370159,-1.6448562304178826,0.9501438786711898,0.2930499161713726,0
57.0,0.950019,-4.970685449714333,-2.119760605987776,0.7713132186846344,-3.138212588195774,0.2915544817872351,1.8925470996261884,0
58.0,0.966686,-6.137032147340508,-3.0352340376019966,1.1276370639455642,-3.5339200721610595,0.3947334310469459,2.684353264535733,0
59.0,0.983353,-7.323914680258077,-3.760832279495395,1.2294657082518858,-3.483203576396934,1.3194795669610593,2.7569595335112616,0
60.0,1.00002,-8.102784759711053,-4.485718269222565,0.6427082137650424,-3.967768074954811,2.459072952626544,2.79145117269798,0
61.0,1.016687,-7.840813271118909,-4.975332867284067,-0.8042435590655665,-5.698784704487289,3.225571341059799,3.3132094188792367,0
62.0,1.033354,-6.278382915626742,-4.78571321664824,-2.8181477060117794,-8.669640535375596,3.689413767386384,4.051176986397456,0
63.0,1.050021,-3.908316037827592,-3.9017924800686745,-4.881958256429097,-11.89046432132623,4.317846423781746,4.025004917185546,0
64.0,1.066688,-1.615944580859337,-2.977755998764481,-6.526565938784144,-13.697859331052436,5.116831046592072,2.3673482735286404,0
65.0,1.083355,-0.113465892855084,-2.7457099571180623,-7.341673853438205,-12.875342284828282,5.45902616051033,-0.8369970057465599,0
66.0,1.100022,0.1652482841810544,-3.2144704034889084,-7.046587671658568,-9.777657940742602,4.953913836967272,-4.539727141647045,0
67.0,1.116689,-0.964612907703196,-3.6890678578599383,-5.768349845490143,-6.259246499818729,4.064572998330224,-7.553189190166747,0
68.0,1.133356,-3.139460745766617,-3.642546568189253,-4.051127296417882,-4.332382516467038,3.451937719108068,-9.300981965460196,0
69.0,1.150023,-5.248596383666199,-3.259968725821234,-2.4634612038776065,-4.735415314286439,2.9453622941488544,-9.861274092838926,0
70.0,1.16669,-5.850835030417435,-2.853585989895526,-1.3191200655337414,-6.575371529205743,1.6700511342908133,-9.59248376419366,0
71.0,1.183357,-3.931358783345208,-2.0454035516029903,-0.649425516549083,-8.226178972931175,-0.7319584551566738,-8.766789340172696,0
72.0,1.200024,0.4841464035136075,-0.1495130679896068,-0.1507566885303622,-8.661779327520541,-3.355013418498428,-7.35615886192686,0
73.0,1.2166910000000002,6.100182074745589,2.611659219037109,0.6805918024602257,-8.087558749348261,-4.757385206816617,-5.23290057793532,0
74.0,1.2333580000000002,10.863496459868948,4.932018492819337,1.9974394066946264,-7.414924152066829,-4.365636214588057,-2.732503769685805,0
75.0,1.2500250000000002,13.255781234349474,5.727763595379349,3.26881483765161,-7.227310639984601,-2.9886165857327773,-0.7193140714793693,0
76.0,1.2666920000000002,13.323082572653288,5.143746502965191,3.750333597205009,-7.3084996304115055,-1.9778313563729888,0.2478532173504987,0
77.0,1.283359,12.32156225543218,4.045696878931642,3.225577920262928,-7.096016191919489,-2.05593925981596,0.5647023034860316,0
78.0,1.300026,11.395024368114097,2.983922602152173,2.1512330228198326,-6.3897838840421,-2.9428075281357056,1.043708487092826,0
79.0,1.316693,10.710919945067811,1.968266834816218,1.1349217617649492,-5.485704751885157,-3.824100690344342,1.9349028135051245,0
80.0,1.33336,9.734358957484664,0.9436609420495172,0.347105030424393,-4.685156947385475,-3.938730620265788,2.771753266808819,0
81.0,1.350027,8.088546442783887,0.0836898087920583,-0.5642057585355571,-3.8103147687949854,-2.86484965662872,2.938402884427001,0
82.0,1.366694,6.0468763585040985,-0.3957240680211877,-2.028727957747446,-2.2824937660895306,-0.661678434299353,2.0789811441007995,0
83.0,1.383361,4.186145951613783,-0.4959127935558254,-4.1015672089582695,0.2071740435428083,2.038372573494993,0.1655582273203102,0
84.0,1.400028,2.6140646707067967,-0.3878486907114278,-6.405162495603989,3.0613706763612223,4.240934162125926,-2.4869379149384923,0
85.0,1.416695,0.7600875989838289,-0.1421670864182206,-8.279724042262234,5.057402318582341,5.173368578573453,-5.247627594797244,0
86.0,1.433362,-1.775085879489941,0.3938095881615479,-8.916204651818575,5.467612789350859,4.712761667498992,-7.320711917266031,0
87.0,1.450029,-4.177212075542405,1.355130426128392,-7.690761170737259,4.679428727132846,3.163187754025913,-7.991986867223844,0
88.0,1.4666960000000002,-4.690240061150703,2.5010530285315564,-4.6998019629355365,3.5486880757561137,0.7845264285969221,-6.938010657735987,0
89.0,1.4833630000000002,-2.323313879798921,3.275406147187216,-0.861496644724537,2.505557081517414,-2.124616203849655,-4.45196473011943,0
90.0,1.5000300000000002,1.8826990814327296,3.3805169111376427,2.7047240623089177,1.567255990843577,-4.704029051229301,-1.373587702654901,0
91.0,1.5166970000000002,5.589481295660676,3.167774442923756,5.378854140355606,0.8483289642242239,-5.6085896589805575,1.3101614066294232,0
92.0,1.5333640000000002,7.06542243548905,3.2224292917034494,7.16084245153489,0.5790267400554588,-4.1126426454378855,3.026214511538403,0
93.0,1.5500310000000002,6.288099033688477,3.574551291700116,8.277426267239969,0.6595974554254121,-1.1179728889305722,3.960886350204951,0
94.0,1.566698,4.495096078885201,3.5628222919205843,8.79080102026578,0.4765705875858812,1.4142898248920526,4.771960634527872,0
95.0,1.583365,2.955928921878737,2.636088146990537,8.615327977044547,-0.7022153456509499,2.3385692544098644,5.848370181577381,0
96.0,1.600032,2.1055913451267,1.1771500150780256,7.80899244685579,-3.0424548875091384,2.352325694990658,6.92013363991972,0
97.0,1.616699,1.5950664454284973,0.2880885723247202,6.636835327528433,-5.714148174536817,2.8067528681863303,7.409536431903605,0
98.0,1.633366,0.9526240486361616,0.7107911124407967,5.310477970658173,-7.196045364314035,3.804989400211946,7.038405443628448,0
99.0,1.650033,0.1436183373940341,2.154900972956989,3.873950108418605,-6.308895681003987,4.029091276444866,6.05048767606208,0
100.0,1.6667,-0.3702161069562992,3.732225206682961,2.4301956006304724,-3.239215175607382,2.274479201526028,4.894896802316312,0
101.0,1.683367,-0.0163417354715906,4.737878672156405,1.2361355424520448,0.3928337631288399,-1.4279274379491065,3.764345047915597,0
102.0,1.700034,1.251462528774091,4.81121089053812,0.3743348730597071,2.579127843212006,-6.050889376977244,2.5848666008466354,0
103.0,1.716701,2.5229366258423944,3.7440876587490144,-0.4758237875880501,2.246761357050154,-10.195346606206416,1.4683714504898029,0
104.0,1.733368,2.4901787599213043,1.7442212224234035,-1.6507203637989851,-0.0634452790349598,-12.447934158387486,0.8676396225416028,0
105.0,1.7500350000000002,0.9234014224507536,-0.161825855058185,-2.935647607199309,-2.485014171616406,-11.8735736649527,1.082360108289332,0
106.0,1.7667020000000002,-0.726681556081297,-0.6716114047878563,-3.585461297840947,-2.974739042303041,-8.564959075797548,1.8548098835524265,0
107.0,1.7833690000000002,-0.9756631919995696,0.474848032379756,-2.906902126521009,-0.7934095407024635,-3.541372229510288,2.683311387235082,0
108.0,1.8000360000000002,-0.3078290492423543,2.046917820911408,-0.8079756108907994,2.790804393411147,1.8343781754205095,3.3583172558884766,0
109.0,1.816703,-0.3803796975176539,2.544075089778272,2.026392596947442,5.396874023948523,6.111695116619229,4.013213805879349,0
110.0,1.83337,-1.1232195794536066,1.716222896200784,4.398227936738008,5.372808590621014,7.883068974115758,4.781634931519666,0
111.0,1.850037,-0.1492133132220039,0.6175303570640618,5.307869834329764,2.9198605295676616,6.475210153702662,5.44421747593587,0
112.0,1.866704,3.706052292453639,0.2712022825587343,4.803473625718945,-0.3850908487738294,2.578050049252339,5.26276699354268,0
113.0,1.883371,7.094136201794157,0.6037635130474259,4.187000024325344,-2.870621266236902,-2.202259921878221,3.4133993320724643,0
114.0,1.900038,4.497213595991344,0.7984696167455894,5.021350911253858,-3.496466214689808,-6.2804302792001945,0.1280672441747364,0
115.0,1.916705,-5.383739748119425,0.437106396589846,7.604302430632737,-1.819253905395383,-8.428105175206417,-2.73763740756737,0
116.0,1.933372,-17.028720532821644,-0.0805486340458725,10.476798611863131,1.9412456881132911,-7.889372011321986,-3.0759735942987536,0
117.0,1.950039,-23.10590086140158,-0.3211629803702327,11.621092592250784,6.54356297769024,-4.980799653142855,-0.6833103581971962,0
118.0,1.966706,-21.107069820881,-0.6304419776571011,10.100769590585877,10.022716641765289,-1.3834268116947854,2.480499734491367,0
119.0,1.983373,-14.01125704108266,-1.675444412582055,6.495704301346639,10.960381828154633,0.8925641357667626,4.264857424339725,0
120.0,2.0000400000000003,-5.948718308081817,-3.243614962765401,2.106825279528458,9.45277160927716,1.0532540897302765,4.093486961779374,0
121.0,2.016707,0.7672974132368238,-4.1475995395929015,-1.7949247087800422,6.703033012766565,-0.1788051618460194,2.902265214252708,0
122.0,2.033374,5.205598047532938,-3.613934334967312,-4.133490172768725,3.960159209999629,-1.6989583942114337,2.015712526657891,0
123.0,2.050041,6.9641375563724885,-2.251512342066233,-4.318488972449341,2.0586907455275707,-2.974371010222088,2.134403229086108,0
124.0,2.066708,6.500152030355494,-1.25090717110143,-2.8589709306313686,1.5405226402896723,-3.800497870951226,2.793825422412015,0
125.0,2.083375,5.180789552932629,-1.003422135925475,-1.1841364033010915,2.5881452120351245,-3.788358582931898,2.574582115465871,0
126.0,2.100042,4.328275563969799,-0.9131778133138456,-0.22178826486415,4.76069442069053,-2.6235915303164017,0.1559746506920309,0
127.0,2.116709,4.565828631319387,-0.2185927531735082,0.82085255926135,7.2307768978795695,-0.3989575309588168,-4.858410013370042,0
128.0,2.133376,6.193933812096008,1.6956449939290696,4.26278581941345,9.609583677087285,3.0146698434042505,-12.680942672916723,0
129.0,2.150043,9.733888949488312,5.953370094979081,13.202370598056325,12.449799705101835,8.798463173346574,-25.12535652117519,0
130.0,2.16671,15.93432249538998,14.69395298844362,31.468919897569947,16.745070852500056,18.75986878737993,-46.28039030502709,0
131.0,2.183377,25.46377315979919,30.56304218788529,63.586524685301086,23.10945401224033,34.070378214782245,-80.91238262784788,0
132.0,2.200044,38.3546736790016,55.67083393368374,113.03936199655551,31.91810292649948,55.08526755458563,-131.69981298603244,0
133.0,2.216711,53.104214830951165,90.87079090392994,179.0582321786354,44.45759349551219,82.88473420155685,-197.11062370907572,0
134.0,2.233378,66.51795072369313,135.7047842029261,254.72597860061475,63.58175846075429,120.78010424626456,-270.9254938026599,0
135.0,2.250045,75.76474494878666,189.013931114074,328.83430385898885,92.53357988256396,173.34895024443793,-343.90875176755105,0
136.0,2.266712,81.39620454349885,249.50840553878325,390.7945588656684,132.31906430024335,242.5402566661956,-407.39293353239634,0
137.0,2.283379,87.56840473126069,315.04782528094245,435.5674892789256,179.37821426009737,323.64197546898146,-456.5396453660153,0
138.0,2.300046,98.40931433290064,380.9411574276601,465.6829008364337,225.3018602793276,405.10870845056166,-490.38983333000266,0
139.0,2.316713,114.28185914586764,439.54507179698,488.6744121262808,259.3023849918955,473.12817099461176,-508.7789705478782,0
140.0,2.33338,131.3904403955396,482.4601018288149,510.5056068262147,272.460113039922,517.4103582137072,-509.6357691239359,0
141.0,2.350047,144.1124087701128,504.2846521397324,529.2999164087603,261.5020771535569,534.52043744692,-489.7483722270066,0
142.0,2.366714,147.89341944200808,506.04104394763374,535.2026308654239,230.03556125822476,528.4291174964312,-448.1771958385308,0
143.0,2.383381,141.38754671597084,495.9597466974541,517.2059887620458,186.4041288909088,508.8988430398506,-388.456666328403,0
144.0,2.400048,126.71959822409652,485.6887945640487,470.58874799109407,139.21874035688109,486.9661919267825,-317.0035276307626,0
145.0,2.4167150000000004,107.3044088412915,483.55253373359153,398.43566285397605,93.41669262293313,468.7902694822445,-239.50313600428572,0
146.0,2.4333820000000004,84.62342624600166,489.857457562989,307.68945223998816,49.40399329097369,452.7029900855241,-159.23131115323844,0
147.0,2.4500490000000004,56.7059011721465,497.3346603092805,204.97363828439572,5.295256738829769,432.1258774561369,-78.38275494507025,0
148.0,2.4667160000000004,20.12322671784964,495.4269416458046,95.36850664027529,-39.781496883129606,401.081722838131,0.3274117978426241,0
149.0,2.4833830000000003,-25.72844110220291,475.52611893088056,-16.49095597508245,-83.62172537007024,357.57012707181764,73.8951622826145,0
150.0,2.5000500000000003,-76.25863359447884,434.5092650538885,-124.91688787975691,-121.6134442309808,303.38277576426384,140.0100403926052,0
151.0,2.5167170000000003,-124.07289667035045,374.3880737390068,-223.21042176660188,-149.61006639378792,241.70812846952464,197.40813207647147,0
152.0,2.5333840000000003,-163.48551214097276,298.66479575842993,-306.0789486365918,-166.2752095144861,174.83038056202082,246.18994187189955,0
153.0,2.5500510000000003,-192.33527595054167,209.5206653112589,-372.2032245618327,-172.8707323712403,103.85754808665844,288.16715298163786,0
154.0,2.5667180000000003,-210.43239181993067,108.56607048844752,-423.60779132200855,-171.51592952408956,29.98406657141184,325.59049677142707,0
155.0,2.5833850000000003,-217.74282362403935,-1.0192870039169808,-462.4628995491991,-163.920253830644,-45.147546139277,358.7083907953935,0
156.0,2.6000520000000003,-214.13499551778145,-114.01855901768172,-489.5557652280121,-150.96538271449975,-120.25605466213956,385.51504855879375,0
157.0,2.616719,-199.91189402627072,-224.1187421308396,-505.7602810616392,-132.67115242961964,-194.0712772881161,404.3293729931363,0
158.0,2.633386,-176.20230653411826,-324.80706095949216,-513.0424534634604,-108.56842177628812,-263.77456991132016,415.47393371622456,0
159.0,2.650053,-145.0420393060195,-410.3717694947393,-512.9262278048441,-78.5505115048814,-325.1089408149629,420.1130017151346,0
160.0,2.66672,-108.82271542582096,-477.30689726886806,-505.1427225813842,-43.78384346431757,-374.6496909992078,418.760609861124,0
161.0,2.683387,-69.12464119339077,-525.2451220531831,-488.91659833297103,-6.871012347169712,-411.3760757373184,411.5434367619821,0
162.0,2.700054,-26.099584866740933,-556.5594771747365,-464.95166601337297,29.191048163706316,-436.15106031079256,399.2114714275836,0
163.0,2.716721,20.84307621508005,-574.6685101385648,-435.4717016026388,62.53727677468231,-450.45372191058914,383.69190793161727,0
164.0,2.733388,71.9541009877153,-581.9890768546587,-403.06940931197846,93.31262035616771,-455.5170077116288,368.2498749009136,0
165.0,2.750055,126.7028342719442,-579.0552465168626,-370.3865775862032,123.67415824251124,-452.1977780034499,356.8259902264789,0
166.0,2.766722,184.0905588862894,-565.5950894635081,-340.9144059264585,157.18572818122965,-441.98799129483245,352.1124638169622,0
167.0,2.783389,243.79626665105351,-542.5791549633925,-320.3145451013313,197.49077373340268,-428.337152828739,354.5180167129319,0
168.0,2.800056,307.8668506270084,-513.2822111615599,-317.80001475667166,246.66726199687213,-416.0133161034565,364.8052963718743,0
169.0,2.816723,381.3909825324653,-482.2537588484308,-346.7457402591588,305.10042198146203,-408.427288177593,389.01363491279176,0
170.0,2.83339,470.9011595629958,-452.6003901073002,-423.6725358088962,374.052174054924,-405.8037030845255,441.19524441702686,0
171.0,2.850057,581.0821078370593,-422.4411208594501,-565.3527393105829,458.1293454721897,-404.885633635711,541.6085722726195,0
172.0,2.866724,710.9546135851168,-381.9272482755837,-783.7304239731387,562.053535830619,-397.3024560790427,711.2360342821491,0
173.0,2.883391,850.3720493557817,-314.0118667254597,-1078.730943354374,680.1667854597392,-366.7855426679662,964.2374104392144,0
174.0,2.900058,978.009077553036,-202.06064072767725,-1432.2287884502198,785.3318650119656,-291.7062781497776,1299.659230606385,0
175.0,2.916725,1061.8070356545172,-43.30067504157663,-1808.580887797368,826.9708863794574,-158.3169466220445,1694.0843223612203,0
176.0,2.9333920000000004,1061.0652974119123,137.5913202777088,-2161.266833988895,742.5072121210974,20.106822067122536,2097.523582854483,0
177.0,2.9500590000000004,928.8221466682962,283.3811900720035,-2434.0584974908884,479.2581742541933,192.7198540571893,2431.774890044914,0
178.0,2.9667260000000004,618.5130793755905,318.2374594655212,-2543.247241788328,22.220848304052524,283.523273926727,2584.373509198287,0
179.0,2.9833930000000004,106.15185847606212,187.10345166815296,-2346.22258360694,-576.1914518890852,228.991100255763,2395.9439741999927,0
180.0,3.0000600000000004,-567.2336612393718,-92.21723302454392,-1638.1596236839937,-1176.0369800826688,23.880750929683927,1668.8743656410195,0
181.0,3.0167270000000004,-1258.959071443808,-405.5941200225442,-248.1653153729858,-1569.7973553187958,-258.6197397960372,262.7843020433661,0
182.0,3.0333940000000004,-1751.1079755572832,-594.2641361149447,1743.3398527512843,-1575.6307462492357,-502.3702952034546,-1701.87901904832,0
183.0,3.0500610000000004,-1867.5083447722184,-570.3091834099421,3824.015407894246,-1174.9730075075297,-625.7323693703988,-3694.2587585967112,0
184.0,3.0667280000000003,-1603.2845239460237,-395.243248640605,5194.159696793949,-569.6846371655788,-633.2367540444743,-4954.813061631272,0
185.0,3.0833950000000003,-1130.3213445522874,-225.24664423266037,5284.359446289341,-57.43271820599469,-589.1692378940378,-5008.537758253451,0
186.0,3.1000620000000003,-658.5324843105274,-172.4871885581171,4208.671717895953,183.051637315938,-552.2785421447713,-4041.648877862836,0
187.0,3.1167290000000003,-302.6076893210528,-239.4129962311042,2660.509172193581,181.1437412255793,-551.0536726459446,-2716.0178165404536,0
188.0,3.1333960000000003,-77.65393388764363,-376.5027980753568,1353.0631529781274,71.10340426908252,-601.4415672277408,-1627.0330598244254,0
189.0,3.1500630000000003,31.689281376693707,-547.8969563151749,585.5053536619237,-51.87661475141405,-706.0432743097085,-973.8067525072468,0
190.0,3.1667300000000003,39.38433090069739,-720.5146473730433,263.22690158115483,-172.02182786951408,-828.9197824988971,-649.7787525038691,0
191.0,3.1833970000000003,-30.87200129015463,-837.9756111703591,167.8218357299814,-305.6551368580886,-900.9641815086696,-486.887943926029,0
192.0,3.200064,-144.1177471556593,-848.7521085961007,147.8427135319712,-454.4026220257805,-868.4725669920924,-381.7459315085538,0
193.0,3.216731,-269.44179580296395,-752.0967968539761,141.73074244664278,-599.4240919470109,-733.2606429783318,-290.6529703238805,0
194.0,3.233398,-388.20345966213966,-599.1553919273844,128.53318982952243,-720.6151306399918,-545.6527675982614,-195.38858693113568,0
195.0,3.250065,-491.5075947960389,-452.75671945632826,94.3538934640872,-811.9863673201078,-365.1786541215813,-88.18869430288392,0
196.0,3.266732,-577.0526645976138,-348.69588033846463,30.380972756828488,-879.8948645309163,-225.6312559498798,31.42424679730244,0
197.0,3.283399,-646.7730749789444,-283.9531622746508,-59.83232279318972,-930.682437243274,-126.0450648718469,158.63147159109096,0
198.0,3.300066,-702.2072911357327,-230.4357094994038,-162.95704814968178,-962.327886788944,-44.95019203351919,284.9740901797241,0
199.0,3.316733,-740.3590527531665,-159.75473485022508,-266.92251907762534,-967.0354082056928,39.21937017586231,400.8521699982266,0
200.0,3.3334,-755.5997557323474,-62.12765633158675,-367.4149533214582,-939.777405535043,136.4743455443583,500.5483065509229,0
201.0,3.350067,-745.8890366594467,51.58244735395955,-464.4088951239585,-883.428451017963,245.90712190933036,585.9232328621702,0
202.0,3.366734,-714.6404348620503,163.00731475304423,-556.1074464793533,-806.115065109339,363.1204211913976,663.8550207964423,0
203.0,3.383401,-665.5916990481139,261.59707223835983,-638.021212903584,-713.7435040604446,485.9607141617119,739.2283158587859,0
204.0,3.400068,-598.5792170447185,349.49668568788746,-705.6592622831147,-603.3714292723008,612.8613724367826,809.958707541884,0
205.0,3.416735,-511.97956183370695,434.4013576843459,-755.9760440331968,-462.3755190814008,735.0171604257404,867.4105542979698,0
206.0,3.433402,-407.4664253818052,518.2147331026674,-787.2862532054321,-277.16642141336,830.3616147448408,899.9855089942259,0
207.0,3.450069,-290.9552893046768,591.3481940646006,-799.3994471781795,-49.90821732561069,868.9653179156039,897.0789434994042,0
208.0,3.466736,-169.76741698182715,638.7023860993006,-793.0624601936793,189.59367842786696,831.6367299327169,853.7255052427979,0
209.0,3.4834030000000005,-49.58828582724081,652.8234801734291,-767.8669111820648,393.67479154132536,728.0011366938745,775.3320749688521,0
210.0,3.5000700000000005,66.65414672970807,640.2660317874597,-721.7197863349736,526.961348087652,594.2059074043459,677.4805872281861,0
211.0,3.5167370000000004,178.20145952596624,613.7825017705604,-654.473542958032,590.2700976158696,468.7680330973931,577.9070316764304,0
212.0,3.5334040000000004,285.2817901462224,580.0826669184298,-571.7579322051604,614.4845021521965,369.5734045154172,486.8419785110202,0
213.0,3.5500710000000004,387.8378926973973,537.0985268395859,-482.94565134429416,632.822231714648,292.1663752514955,404.66088128922297,0
214.0,3.5667380000000004,484.38422891420703,481.2052986278899,-394.3895801188664,659.9572628780259,224.00692070851488,327.2772374808174,0
215.0,3.5834050000000004,572.0351763992236,413.62257483714905,-305.8687773350299,692.2015558011566,157.02462650120344,251.88220448821733,0
216.0,3.6000720000000004,647.6601262330535,339.3279826331016,-214.84761917588696,719.576762531786,90.87959798316568,178.18268194649505,0
217.0,3.616739,707.9894543339562,262.47865950170853,-123.89432462186974,735.5006459233061,30.09441784716902,107.14490936444136,0
218.0,3.633406,749.0142435862831,185.1238475495525,-42.42285839446959,739.442906301701,-20.821386161594365,40.33456635159603,0
219.0,3.650073,769.0194945830066,109.43639870963648,21.12543590387003,735.7092196386627,-61.120431751506615,-20.574392835745694,0
220.0,3.66674,774.7186746491628,38.65183558182585,70.04213616787553,731.2006959883856,-93.51878874111613,-75.1101695956481,0
221.0,3.683407,780.8678709513679,-24.918235393583643,119.63559377209064,732.1527350809005,-120.49561565938023,-124.50943624668948,0
222.0,3.700074,798.631649197189,-81.19116409839181,182.40649376052403,740.6308943969917,-141.87108273370194,-169.97857061633184,0
223.0,3.716741,824.7205303000746,-130.3271751218148,253.18300966992604,753.5456170207103,-156.16879918965802,-210.62032297222208,0
224.0,3.733408,845.3044017755788,-170.03547120124782,312.45740713031967,764.9213102958633,-162.73535149461904,-243.73664715702907,0
225.0,3.750075,849.7937281415194,-195.81025741523112,343.85007932996314,769.0226654851659,-161.24513357120782,-267.0223205724172,0
226.0,3.766742,838.1574301337525,-203.5309075472047,345.6351590320449,762.6323013616151,-149.98370115114722,-279.9413063829838,0
227.0,3.783409,816.7467294340463,-191.2681560765553,327.74465635004015,746.378593010368,-125.95353720646318,-283.1476382672691,0
228.0,3.800076,791.058267374326,-159.0013383416917,302.36273862137,724.2923707132411,-86.10006115139419,-277.27032530763154,0
229.0,3.816743,762.4131746340487,-107.36178902799752,277.00370345213435,700.6160075439573,-27.237439771141855,-262.56568506079816,0
230.0,3.83341,728.6436751226638,-37.38391146681785,252.65951718060307,675.3002213500831,53.45537412974771,-239.55316957185977,0
231.0,3.850077,686.7777593295265,47.06305941803527,226.41101989876069,641.8192050265945,152.8794600535854,-210.14508747110875,0
232.0,3.866744,635.4672261598217,135.7751458128033,195.59179506382665,590.1904710305732,253.98682093592123,-178.8044094784114,0
233.0,3.883411,574.9674757512049,213.37821058809735,159.71422082568884,514.4063972279943,327.34969044549064,-152.17883536126877,0
234.0,3.900078,505.28288331389126,267.74359338021634,119.8167293984494,419.0459007816348,349.17696149982567,-135.4032452944498,0
235.0,3.916745,425.8888268021202,298.5075227944627,78.0010687553389,318.774041702047,322.14973038795745,-127.3140499286432,0
236.0,3.933412,338.1453378969309,316.0151946644107,37.9278879559892,229.55669826868305,275.9076229689388,-120.4785564974502,0
237.0,3.950079,246.81769449839905,331.5403519429865,4.27328276908378,158.4137113342774,243.9708817758866,-107.25648099174832,0
238.0,3.966746,157.80624156532406,349.19468068472486,-19.59243526183545,100.7778369282981,240.2440673942591,-85.46048675757518,0
239.0,3.983413,74.58505959697565,366.0527978181685,-33.71592095150484,46.98689489769597,256.17093481103785,-58.35687816533989,0
240.0,4.0000800000000005,-2.8314540883568924,377.2679325180262,-41.26874202348185,-9.532587287931388,274.7602054988467,-31.040790644127505,0
241.0,4.0167470000000005,-76.44040157002974,379.9983746507317,-46.03071232943017,-69.45955902461536,284.0588445374145,-7.552507090496226,0
242.0,4.0334140000000005,-148.2384142296196,373.7335729413186,-50.09891283168431,-129.7697432009275,280.9130433928373,10.072867840394666,0
243.0,4.0500810000000005,-218.49866903198333,358.50302466702266,-53.79974939074013,-186.76070228075787,267.8147778045712,21.74053402958311,0
244.0,4.0667480000000005,-285.15768137292446,333.5744423711172,-56.94343493127107,-238.01847972417892,248.29099825105857,28.78397411093479,0
245.0,4.0834150000000005,-345.07872891563466,297.7872179380548,-59.34178674527664,-283.271404424133,223.78460749684143,33.1572686388972,0
246.0,4.100082,-396.07376077711615,250.4787034536838,-60.51919028273926,-323.6585828057489,193.1995889618481,36.59110896279237,0
247.0,4.116749,-437.7200311082386,191.86620628551063,-59.84984419196077,-359.9353100258091,154.77555265745406,40.011467305220776,0
248.0,4.133416,-470.588935279012,123.34131024505083,-56.96589160238802,-391.5991001930611,108.27127880697122,43.24657903688832,0
249.0,4.150083,-495.1045830556043,48.06185696427615,-51.48084522485568,-417.6647192895396,55.64424303872506,45.037102464291735,0
250.0,4.16675,-511.3626147083921,-29.27064978940131,-42.36573763811232,-437.7920295560189,0.2890525373563486,43.86117836990985,0
251.0,4.183417,-519.7576355828844,-103.9588254083496,-28.281147541750126,-452.5389052373087,-54.30197697059164,39.44705678842273,0
252.0,4.200084,-521.0545400388144,-172.70448716598918,-9.303536600646712,-462.8146901119585,-106.03893530441044,33.318965346309085,0
253.0,4.216751,-515.9934481331774,-233.8418391613488,11.536236738698204,-469.3536277632018,-155.01336222828866,27.435072525263674,0
254.0,4.233418,-505.8479064057725,-287.13920385817704,29.395009875198028,-472.6766039218044,-202.3542748245449,22.505897351109613,0
255.0,4.250085,-493.2362091542979,-333.4220653556772,41.28255322645012,-473.1617625252952,-248.07756222587088,17.939566882062156,0
256.0,4.266752,-481.09012296451306,-373.5366549131211,48.3907603000773,-470.84707667862926,-290.553391291647,13.084542816717706,0
257.0,4.283419,-470.5750423543585,-407.4692435709157,54.28629837001037,-465.4512910406751,-328.01505347628023,8.015891736488932,0
258.0,4.300086,-460.8124411207472,-434.651435836644,61.22284576448374,-456.9829982682961,-359.8135837142973,3.1447100623940885,0
259.0,4.316753,-450.6314657012909,-454.5960149502107,68.76456243207943,-446.2021409818143,-386.1090447530252,-1.5261589748762368,0
260.0,4.33342,-440.00033527853,-466.9110117123204,75.51429648320675,-434.3171034479432,-406.9257335662982,-6.575228673650702,0
261.0,4.350087,-430.026985940606,-471.3704308420678,81.05327863526445,-422.44443769942114,-421.6009420608575,-12.707852100935002,0
262.0,4.366754,-422.138891193585,-468.40175054716246,85.59771563843634,-411.3400731854846,-428.80812192462633,-20.16431447599404,0
263.0,4.383421,-416.9652686670065,-459.0492339770963,88.40436129652464,-401.2182648329988,-427.0821115929489,-28.56862361189408,0
264.0,4.400088,-413.6331192938093,-444.12632251056993,87.86521260116507,-391.77699500885785,-415.50126067622455,-37.47469622713175,0
265.0,4.416755,-410.47986289774553,-423.47063061532,83.65266818570697,-382.7443031360637,-393.8834617897422,-46.98468030464044,0
266.0,4.433422,-406.7075171614938,-395.862570533096,77.82767788684288,-374.2811349658341,-362.2329601307252,-57.51988935030215,0
267.0,4.450089,-402.9421645642872,-359.6839090268438,72.93963269405306,-366.4647964586554,-320.1669449366695,-68.95131455934684,0
268.0,4.466756,-399.8613610566579,-314.4024542776009,69.31249978543607,-358.63169404056896,-267.53546266951497,-80.18804578591724,0
269.0,4.483423,-396.7081860822997,-261.71974988585725,64.77867759049242,-349.7467695703866,-205.85257743954205,-89.6789312838641,0
270.0,4.50009,-391.4729333649591,-204.283225126016,56.94321908019059,-339.1697057030788,-138.2640266952941,-96.18943485582191,0
271.0,4.516757,-381.9105583719091,-142.62304029516946,45.20559949288691,-326.3196574614479,-67.55238952497862,-98.960792400776,0
272.0,4.533424,-365.92507145985593,-74.23155562244068,30.60339111402169,-309.61770194275744,5.088427246024429,-97.21745891391396,0
273.0,4.550091,-341.70985527311245,3.5982386669619157,14.314073072870986,-286.67756318785086,78.9244720459226,-90.0536568345722,0
274.0,4.566758,-308.23328161585573,90.75900233206424,-3.309620527568212,-255.9536250565496,152.38171468780357,-77.31322251631462,0
275.0,4.583425,-264.98102915596974,184.56466675110016,-22.50205859491039,-217.57498787952835,223.6913118730764,-60.41145810501509,0
276.0,4.600092,-210.4046074010563,281.26100371308183,-43.29021150874265,-172.14476719052115,292.0406023624824,-41.74188569111773,0
277.0,4.616759,-141.27805455957912,374.7802434214648,-64.74943267028995,-119.21976522370043,356.6415914072793,-23.01842470668476,0
278.0,4.633426,-55.17292902539988,453.5111123647677,-84.37724688757703,-57.40081990236146,414.0697192208983,-4.1375057752483855,0
279.0,4.650093,45.54375558459525,500.9055338297999,-98.20383667367985,14.21865092997218,456.9480784213448,16.37969687204515,0
280.0,4.66676,152.1420410733451,503.0728533546359,-102.63941809769366,94.59153808616053,476.02130801575424,39.66733313854138,0
281.0,4.683427,252.4278087298772,458.1286581774039,-96.96335913456542,180.11812641116794,464.5074374056962,65.01902025704027,0
282.0,4.700094,336.3222237109776,378.7048491511821,-83.58055203188158,265.19591084464844,421.87584106424686,89.8781573870763,0
283.0,4.716761,399.7353643094839,285.311036660857,-65.7442036918873,343.6366441450468,354.8218153061453,110.92400971150175,0
284.0,4.733428,443.8843234180233,196.33002734568163,-45.69033174278909,410.0808184305617,274.9919910171871,125.37531113232676,0
285.0,4.750095,472.2442144350512,121.70475531869371,-24.595444329664712,460.87924738930826,194.78595602756943,132.3502115635665,0
286.0,4.766762,488.97458554921405,62.71899907724284,-2.8669880361137765,494.82914476383286,123.48209080394184,133.54421517617902,0
287.0,4.783429,498.47234807022016,15.665244390874523,19.755946550092112,513.9051250761861,65.40339902953212,132.06815069311187,0
288.0,4.800096,503.7739153655275,-24.171549143090136,43.32507592825695,523.1098904430485,20.22888499107632,130.22405922323577,0
289.0,4.816763000000001,505.2438643829243,-60.28731306573954,66.80171739773458,528.7102338521328,-15.429402921112056,128.44127539047804,0
290.0,4.833430000000001,502.07842188363225,-94.18980499150332,88.90501310499346,535.3497269929965,-45.69525896821919,126.19005969971718,0
291.0,4.850097000000001,494.9047265025272,-125.09511640670314,109.77507306991257,543.8210014219342,-72.85148208685227,123.72585913097664,0
292.0,4.866764000000001,486.1788397876964,-150.31922354527313,130.83188067975166,551.8424667770746,-96.03047832014528,122.86379813344683,0
293.0,4.883431000000001,478.29757241656057,-166.679203336296,152.8809918670587,557.8926335903803,-112.55126154714004,126.00822355848322,0
294.0,4.900098000000001,471.86987941549614,-171.7276275741573,175.4492526413267,563.8849126324534,-120.99061701027397,134.902244416396,0
295.0,4.916765000000001,466.1114841306757,-164.11022888811715,198.27494365267816,572.9533085871909,-123.02811987694764,150.55632128857928,0
296.0,4.933432000000001,460.5808697611002,-144.27636121270532,221.65960380988977,585.154673728357,-122.0722657149996,173.09079043765638,0
297.0,4.950099000000001,455.5332534830292,-115.8084945128189,244.26028585270592,596.5966496448227,-119.9782856219461,200.42533606595345,0
298.0,4.966766000000001,450.4427578976672,-85.04499898458158,262.5425878878481,602.1893667469731,-115.24431027583488,228.01815786178932,0
299.0,4.983433000000001,443.3629488232839,-57.90080479559612,273.9026291911382,598.423345564034,-104.67895523408336,251.2340924065461,0
300.0,5.000100000000001,432.3344270066177,-36.552837027550325,278.61280409004905,584.7579018925105,-86.834256243878,267.7950446505938,0
301.0,5.016767000000001,416.7716139224108,-18.687918335698956,277.7541246885447,563.7002801629042,-63.19418144537569,277.64952586499084,0
302.0,5.033434000000001,397.105131662596,1.1594581301965796,271.16221425917183,539.0046598996043,-35.33173600656445,281.6849255054003,0
303.0,5.050101000000001,373.670642886475,29.58218794970914,258.47474359407204,512.9023760480077,-0.6647982407242896,281.87174829999947,0
304.0,5.066768000000001,346.6564475322472,71.83078319670511,240.90940327587737,484.77952206749904,49.0963584792995,281.9702411549426,0
305.0,5.083435000000001,317.1475409029896,129.0774743397941,220.9801245573682,451.5966836597702,124.24844692732476,285.7890691880828,0
306.0,5.100102000000001,287.29963410696666,195.90606455607212,200.6709766252455,408.3529657075825,227.41638293293704,292.74421281842694,0
307.0,5.116769000000001,258.1567349433841,258.97289474004003,180.06590000121486,348.9175830631094,341.8643054670687,294.8136315201415,0
308.0,5.1334360000000006,227.2466138136084,300.02410812194404,157.7560449930382,269.4961053382092,430.3342079804123,279.8997924823472,0
309.0,5.1501030000000005,190.0555376451264,305.9056659491833,132.76594509667075,173.4979833401897,455.7393349306024,241.54866601914523,0
310.0,5.1667700000000005,144.86536079042,279.6951119092819,105.80946695455788,72.0446494481039,412.123912158543,186.76336236752744,0
311.0,5.1834370000000005,94.91894336230172,240.497490836473,78.20033657159941,-22.28032144737409,333.18810827043467,132.47289040683827,0
312.0,5.2001040000000005,45.07284835918488,209.07574763408672,50.22257541513133,-102.53447612179404,264.3043294963496,92.6524131239045,0
313.0,5.2167710000000005,-2.095727205491258,193.0656721845036,21.8060140234701,-168.69619681227803,226.69098701486917,69.17769729492113,0
314.0,5.2334380000000005,-46.05143793173711,185.4347946728033,-5.573912261289345,-224.1231831742291,209.9882635513952,54.495527171628055,0
315.0,5.2501050000000005,-86.33110039020445,173.89921621542572,-29.176284406338453,-272.17994460630007,192.6233502191539,40.369989937704005,0
316.0,5.2667720000000005,-122.5649692548604,150.1998022687902,-47.317945543354256,-314.8605746385249,162.12459199330473,23.08699021911633,0
317.0,5.283439,-155.36868656434234,113.35078596179603,-60.64918533955258,-352.63528491136464,118.90933520489892,2.9270220666408866,0
318.0,5.300106,-185.77438744537235,67.97915235337362,-71.31680916922033,-385.1019017508351,69.54483733744497,-18.428069300640438,0
319.0,5.316773,-214.0083397029452,21.028816337578565,-81.31425801969687,-412.0050379496552,20.724896881877022,-39.78314598200704,0
320.0,5.33344,-239.53635376360825,-20.92441258638815,-91.33263221704178,-433.8714706782688,-23.136750661864426,-61.26049995710159,0
321.0,5.350107,-262.2903106071641,-53.62068435414454,-101.0057145350422,-451.9048106092791,-61.1821152037033,-84.10822705937012,0
322.0,5.366774,-283.1823770280439,-76.73143334196654,-110.36747999124054,-467.0307485988971,-96.2294597080008,-109.56231082449332,0
323.0,5.383441,-302.8486188325244,-93.91609164424752,-120.63252954196518,-478.7005809236167,-131.9766506188523,-137.5956587880139,0
324.0,5.400108,-320.1851510937885,-110.21473526507562,-133.00734430526938,-485.0716874180301,-169.46420488404297,-166.58790132514224,0
325.0,5.416775,-332.97127509124346,-128.62659118962443,-146.9949681678496,-484.87760789490886,-206.92669086040752,-194.23928316237448,0
326.0,5.433442,-340.13956948384464,-148.82648578724965,-160.45649645851267,-478.6447980297522,-242.50365041838617,-219.09930963239103,0
327.0,5.450109,-342.7853517539097,-168.49933731117991,-171.38776133971416,-467.59666126025,-275.8877986141076,-241.38208407709885,0
328.0,5.466776,-342.78186853616904,-185.4688733354531,-179.4347530967236,-452.1265452832226,-307.64744645087967,-262.10313650841243,0
329.0,5.483443,-341.3058845545823,-198.85890289836377,-185.9238187538803,-432.23189642966327,-338.02785031989595,-281.41424273851715,0
330.0,5.50011,-338.9921249420226,-208.7729104414679,-192.8779093654965,-408.8786023961478,-366.5989029972948,-298.3088331185785,0
331.0,5.516777,-336.1488307133741,-215.19139946038004,-201.70151272135288,-383.84120679117,-392.4828537479175,-312.07842978015026,0
332.0,5.533444,-332.0114337716332,-217.3768360620485,-211.8238113016804,-358.3520609318763,-414.42529566939567,-323.16786827867253,0
333.0,5.550111,-325.01771115927176,-214.55582628863752,-220.50824573640992,-332.6440215780342,-430.69184297239497,-332.0457763339067,0
334.0,5.566778,-314.8453269058577,-207.26458840403984,-225.0123588566709,-306.5232927589111,-439.4105472194412,-338.2012325729692,0
335.0,5.583445,-303.38301034090694,-197.7039470100074,-225.33748220167817,-279.80190137025613,-439.401662895806,-341.2748806002505,0
336.0,5.600112,-292.8409976661902,-188.2168413501612,-224.2150762317089,-252.86054142407104,-430.64428941310825,-342.49138603481606,0
337.0,5.616779,-283.4327026595936,-179.30055091264273,-224.14578192578364,-227.73071119902968,-413.8950573446022,-343.8077492539728,0
338.0,5.633446,-273.5431897231009,-169.38876356384233,-225.0031966012412,-208.03400573424872,-389.9422646114509,-345.81959295440987,0
339.0,5.650113,-261.74678564821056,-156.39383616100446,-224.770386099248,-196.7128221450503,-359.1179817678199,-347.209234818551,0
340.0,5.66678,-247.9972780539204,-139.0255405025316,-221.94448542698964,-193.80132340460585,-321.3503318649892,-346.1001024908687,0
341.0,5.683447,-233.04435005730085,-116.96992213266688,-216.4138096860268,-196.80305088831184,-276.6746682102738,-341.31565445310935,0
342.0,5.700114,-217.4019605618232,-90.51615938201988,-208.2024381265453,-202.84541813938387,-225.53282521770123,-332.1571555310285,0
343.0,5.716781,-200.8347545506224,-60.02351953866406,-196.6082985879028,-209.91729461744552,-168.32065017557633,-317.6340388108411,0
344.0,5.733448,-182.13775769829093,-25.55911729851489,-181.3887410763227,-216.2670606452021,-104.84432942387627,-296.80604891675296,0
345.0,5.750115,-159.60232670744543,12.43105900468441,-164.18359786198334,-219.3926562742645,-34.889947627873,-269.67181467371074,0
346.0,5.766782,-132.51670158932242,51.5481646656375,-147.591232002577,-216.0179010827333,39.94375582580844,-236.70842197103104,0
347.0,5.783449,-102.07906389497823,87.08017664568797,-132.40779706327388,-202.89842517958613,114.68998781964214,-197.71930907701525,0
348.0,5.800116,-70.22521062182159,114.42778867159832,-116.2706911017668,-178.0063948809965,181.99624305943945,-152.3656652050494,0
349.0,5.816783,-37.8651558495054,132.42309422725404,-95.6997662336137,-142.05481692454362,236.02544584833345,-101.89154618380712,0
350.0,5.83345,-5.295511195297026,143.64108891036884,-70.12094542177039,-99.09720597189408,276.0783703841404,-49.393544931635056,0
351.0,5.850117,25.551009695204147,150.990084588345,-44.492357564883264,-54.36647082065059,306.49660498743026,1.7794802785781108,0
352.0,5.866784000000001,51.26910718512357,155.37413828056506,-26.74637077789744,-10.603740445155484,333.7091729774844,49.9620734725704,0
353.0,5.883451000000001,71.9701067690633,158.24487178121836,-19.215092774219027,33.90270506105247,362.5993667986902,96.53908042845228,0
354.0,5.900118000000001,95.38758073840648,164.09031351919862,-12.107481352509216,84.79969004951052,390.94787986345216,145.45361404001972,0
355.0,5.916785000000001,131.45130594311703,175.55118949074316,9.56730180364421,148.43965329325903,403.6308582682421,198.95351186686983,0
356.0,5.933452000000001,180.5062767881629,185.8536901819458,49.76763718405283,224.85261858644915,377.4154447116441,251.78200920074164,0
357.0,5.950119000000001,230.29898627306125,181.3667893856137,95.8662275515926,302.12968005354713,300.9923442337045,291.2258674136591,0
358.0,5.966786000000001,267.24872355319377,154.4894034091163,131.48787282164884,362.1525613136056,191.26736932009177,306.1766574666601,0
359.0,5.983453000000001,288.14972342940985,111.43383220693818,150.97452873702787,395.28869408182777,83.46307048042117,296.6940388837183,0
360.0,6.000120000000001,299.13097711040734,65.92010225761477,159.58139619488745,407.3321614371464,3.893577843322241,273.38573248886337,0
361.0,6.016787000000001,306.8153388531306,27.875291591620037,164.63558908973437,411.1627676629273,-44.38969506478097,248.07252889831975,0
362.0,6.033454000000001,314.027982743152,-0.6422509664841978,170.56021356508998,415.2993563622099,-72.61732921821203,226.5316625095063,0
363.0,6.050121000000001,322.1360379245817,-21.79432879792632,179.55305868231954,421.52618879907874,-91.0486818836854,208.9198378345306,0
364.0,6.066788000000001,333.0660300478853,-37.60096766923534,191.86645703063948,428.9576944278231,-103.4775476939336,193.8278849276738,0
365.0,6.083455000000001,347.582029774394,-48.6283734239217,204.6501726837904,436.8078038350408,-110.227034239393,180.53700235435545,0
366.0,6.100122000000001,363.53212442162544,-54.21549584051595,213.6201128208156,444.4079932527394,-111.26917049845788,168.95148718967,0
367.0,6.116789000000001,377.426566569123,-52.54138720239783,217.2875957907368,450.9517705501544,-106.24538974575692,159.2777602128947,0
368.0,6.133456000000001,387.3252022746348,-41.37021940072724,217.82357387524013,455.8947581046525,-93.76123743565694,152.0369227475826,0
369.0,6.150123000000001,393.62053377284326,-20.20657838739889,217.0132465134893,459.2643866909015,-72.64129024006289,147.67316476593385,0
370.0,6.166790000000001,397.58115407553566,7.951811823389988,213.33553409895745,461.2167498671496,-44.49431543817114,145.8783176511091,0
371.0,6.183457000000001,399.5544959045193,37.515727674900994,204.2126801195446,461.0557337571517,-14.421879064131437,145.61888080546956,0
372.0,6.200124000000001,398.2269827819552,63.38704441438527,189.6976089510085,456.9163915561474,11.896240845824504,145.93422374235203,0
373.0,6.216791000000001,391.59125037398303,83.59795185096102,172.69143594434183,446.9045315805502,32.65699046795626,146.3402063294946,0
374.0,6.233458000000001,378.9642482299614,99.79805907055756,156.18325968152263,430.4855238268464,51.91831987002367,146.34634514046138,0
375.0,6.250125000000001,361.6357656711217,116.04626553819854,140.89198447305444,408.3278520500038,77.39422534201063,145.19540604705008,0
376.0,6.266792000000001,340.86551710176605,136.95913729203602,125.08676294516584,380.8160973379567,116.21660544268843,142.47558956544765,0
377.0,6.283459000000001,315.8752670250683,165.2655432564572,106.44602684283277,346.8211597381264,171.41427972656876,138.24507034999905,0
378.0,6.300126000000001,284.95605946134475,198.51533749585195,84.4764602755022,303.68288150668315,238.83942852819905,131.43466545601405,0
379.0,6.3167930000000005,248.1186347723085,226.60587502087083,61.08997405760428,248.89848385201387,304.0808696946021,118.16925405865106,0
380.0,6.3334600000000005,207.54120080778068,234.1056297074415,38.66863236987664,183.2778257146516,344.17476557616607,93.2726169806198,0
381.0,6.3501270000000005,165.76542209405443,209.2707353634461,17.96095002006236,113.07969148205854,339.5225968127861,55.2208344821164,0
382.0,6.3667940000000005,124.1752826017324,153.96888983890162,-2.294336193265284,48.158831394977646,289.6121265493162,9.762267335943337,0
383.0,6.3834610000000005,82.70789328626115,84.45985067331674,-24.548606322234026,-3.3230544785339795,216.0725301558608,-32.675500119035966,0
384.0,6.4001280000000005,40.88541271675372,21.019588539657345,-50.579448947305366,-39.587379820943966,147.19105871509444,-63.98884531801387,0
385.0,6.4167950000000005,0.1615165307788739,-23.6903369130491,-78.4726345004544,-65.75199585498571,98.87831097878654,-82.98808187576044,0
386.0,6.4334620000000005,-35.298006554404715,-47.90740103052061,-102.041719247718,-89.72856483414166,69.72118587363022,-94.17365902724558,0
387.0,6.450129,-62.3162767661281,-56.69355165209299,-116.05234020940142,-116.40121800476425,50.00459976060232,-103.4511471141177,0
388.0,6.466796,-82.88869522639433,-56.81094506999199,-121.95328120508223,-144.755690958073,31.83548809248277,-114.70771429814474,0
389.0,6.483463,-102.38856477051228,-53.65925528162747,-126.13470887349835,-170.56637769059986,12.181025470738842,-128.6661511734695,0
390.0,6.50013,-123.79225593583784,-50.26429146460569,-133.115643998887,-191.65381382025956,-9.257578009380296,-143.6308912688444,0
391.0,6.516797,-145.66045596870396,-47.78573002031587,-142.35172264053904,-209.7195726672012,-32.155946542743074,-157.2022034312003,0
392.0,6.533464,-165.5132550284198,-46.51430018102969,-150.47363553130026,-227.403387347222,-55.80356545516338,-167.78277175440607,0
393.0,6.550131,-183.02058950324096,-46.47381073393494,-154.46537780476854,-245.35214472073423,-79.06406507252423,-175.1634748150976,0
394.0,6.566798,-199.16849810630148,-47.81316552135091,-153.18632302794,-262.671704968375,-101.20406860342877,-180.41468268910683,0
395.0,6.583465,-213.7594238173559,-51.08605014962588,-147.29517672723404,-278.6609954286382,-122.4517692895587,-185.21950207328825,0
396.0,6.600132,-225.35019413122163,-56.86329098842954,-138.01304821877784,-293.0125045711184,-143.28381848882668,-190.50338701501607,0
397.0,6.616799,-233.59728197164975,-64.9921839470776,-126.10541444703536,-305.00176517803607,-163.51294617071994,-195.3814108928532,0
398.0,6.633466,-240.2584439946989,-74.66636040926619,-112.32565014395767,-313.47729980879416,-182.40463713045236,-197.8612313214417,0
399.0,6.650133,-247.2532425268937,-85.21946259087295,-98.26593437898504,-317.7897980405568,-199.21653390432175,-196.49056703006028,0
400.0,6.6668,-254.81718195074973,-96.41518843896252,-85.96476765620578,-318.4746167657664,-213.08980133715647,-190.9002362544922,0
401.0,6.683467,-262.29199500716555,-108.05045566061662,-76.45703626860575,-316.961200230352,-222.69034937967024,-181.4978244411483,0
402.0,6.700134,-269.7940201475416,-119.74471299197737,-68.83732606144281,-314.86697733086754,-226.72624746327057,-169.68698500593558,0
403.0,6.716801,-278.1720541258751,-131.14887912735497,-61.13124652578634,-313.8292354082918,-225.09199950923096,-157.74833654666384,0
404.0,6.733468,-287.635642782593,-141.93568489824335,-52.46847937596842,-315.5034671478209,-218.8592103617316,-147.2531533083988,0
405.0,6.750135,-297.13442827955737,-151.1869693575108,-44.17336834654938,-320.6542884509662,-208.53225219971975,-137.5410081144965,0
406.0,6.766802,-305.1108026357414,-156.926506473337,-38.24066496513324,-328.07186920308675,-192.8418847872022,-126.27662148551693,0
407.0,6.783469,-310.25219470615235,-157.13319763652152,-34.90326668232049,-335.0901312682229,-170.128460026023,-111.70818563017043,0
408.0,6.800136,-311.144717205258,-151.79726518958535,-31.97198681967648,-339.2918989256506,-140.61930683597456,-94.36139472002075,0
409.0,6.816803,-305.6540950889224,-143.2613589334661,-26.25123037937372,-339.27068258226893,-106.63856061841668,-76.35247607719046,0
410.0,6.83347,-291.70874561957146,-133.78888540989226,-15.509739266947925,-334.1044064246567,-71.17391604147737,-59.17136343762315,0
411.0,6.850137,-269.54596548906,-123.4554752305324,0.3474031132938676,-323.0505483749721,-37.09870820793006,-42.67426368656521,0
412.0,6.866804,-242.88850850585453,-111.34740097921932,19.422349103483928,-305.78843846274435,-7.068558638340401,-26.08258086621879,0
413.0,6.883471,-216.8902858645952,-98.34324610129032,38.75117766034643,-282.6189042459717,16.979232747319458,-9.147145552567284,0
414.0,6.900138,-194.67946377883297,-87.4347603605848,55.10452315796267,-255.21205794797612,34.20815999462237,7.631330153642596,0
415.0,6.916805,-176.0628273702061,-80.88766935807338,65.88492857502129,-227.55655853956185,44.715841693353326,23.209971852143767,0
416.0,6.933472,-158.80832929927337,-77.71606029018571,70.60978682226512,-204.25251303306507,49.80831062772292,36.49779883956173,0
417.0,6.950139000000001,-140.46786180791383,-74.36238969486033,71.52556856126941,-186.19647269556663,52.55093434905949,47.29720064522585,0
418.0,6.966806000000001,-119.67771737059992,-67.41748931677537,71.757024468107,-169.48081506153594,56.64622095746508,56.79174454880071,0
419.0,6.983473000000001,-96.527224145737,-55.41562766194137,72.73260544608482,-150.23177848448634,63.85163867292459,66.60412785663775,0
420.0,7.000140000000001,-71.77399819959402,-38.75552125648272,73.80334376330148,-128.87446559203113,73.19394524920553,77.29693299984194,0
421.0,7.016807000000001,-46.09982753216923,-18.83290549913071,73.84785003437626,-108.22712534735996,82.93368371618476,88.20547244407288,0
422.0,7.033474000000001,-20.1287574990787,2.774610151292657,72.75751324605628,-89.58728598487306,92.24698513956872,98.68311661421612,0
423.0,7.050141000000001,6.125730555746072,24.973392601904905,71.82213905084281,-72.2255155664972,101.04723080978609,108.84899157757816,0
424.0,7.066808000000001,34.609703145722094,47.41186496401584,73.00288154276876,-54.78838404167506,109.5504319291954,119.01535343677536,0
425.0,7.083475000000001,69.16093611594852,69.9420232545928,77.60068577530825,-35.93155403153009,118.25042986099136,129.07185192205588,0
426.0,7.100142000000001,112.97677518849466,91.55222107968876,85.55386622549074,-14.82092274785205,127.40294572094952,138.6985583724447,0
427.0,7.116809000000001,165.43962027537836,109.857509796032,95.89577105003931,8.362983641120055,136.1611246864035,147.77967778470213,0
428.0,7.133476000000001,221.03894881610228,121.86554463057958,107.50945154624802,32.92139037753954,142.18812862043302,156.3632021469339,0
429.0,7.150143000000001,271.93440959869315,125.22959658449808,119.46209650267171,58.21880146130084,142.06114539532925,164.3321435739085,0
430.0,7.166810000000001,312.6697813344901,118.87182904703424,130.85108340479388,83.09434384088698,132.85192102712605,171.3232221633601,0
431.0,7.183477000000001,342.93551954071586,103.359416310105,140.31767835251983,105.25889722926831,114.4870706304711,177.00366038858118,0
432.0,7.200144000000001,365.9491907384311,81.74723441784313,146.03212025074328,122.17373037166776,90.50663725883568,181.21898261930065,0
433.0,7.216811000000001,384.5929423903322,59.72032404984754,146.94136193527547,132.71822470382787,65.76458244502757,183.92396129472257,0
434.0,7.233478000000001,399.2427581603421,43.36374920497962,144.23496703110405,137.96911280048334,43.440372919562506,185.3838771118365,0
435.0,7.250145000000001,408.6450351919893,35.537913577261946,140.80792925332463,140.52221469257208,24.36624256271941,186.3409086071757,0
436.0,7.266812000000001,411.8834280700658,34.1852546069834,138.56285964633605,143.16429467397091,8.224082704678883,187.3559162518422,0
437.0,7.283479000000001,408.9983646516328,34.45805002470309,136.35648437918834,148.10178856277705,-5.55453934638722,187.85929343590692,0
438.0,7.300146000000001,400.2485353755287,32.77497065445343,130.88718936189113,157.0814097549934,-17.511174810790955,186.07040374473397,0
439.0,7.316813000000001,385.8599331622329,29.28066313996645,119.39507401991024,171.4033086908863,-27.576710504984984,179.76121119031393,0
440.0,7.333480000000001,366.5800002827712,27.218008216449505,101.38202413604752,191.04714658398032,-34.628436370540534,167.42799984989526,0
441.0,7.350147000000001,343.2979398252072,30.46026680318068,78.32619850728739,214.03983874728715,-37.28351363140002,149.5903055326241,0
442.0,7.366814000000001,315.57612166529725,41.2003992694474,52.49997235294333,237.4722257995369,-35.139068190359524,128.84706538126707,0
443.0,7.383481000000001,281.469487080542,58.98399922772188,26.104698505231884,258.9666588569207,-28.99851781510126,107.7889955975341,0
444.0,7.400148000000001,239.71636039593864,81.07651411014925,1.0310456433899229,276.4330147096261,-20.5129615070928,87.00087799244778,0
445.0,7.416815000000001,192.1145710597478,103.28043895763427,-21.11914750928755,286.9781891166627,-11.97004255466199,65.64333655482015,0
446.0,7.433482000000001,143.31750473703823,120.70453278654044,-39.30163530464203,287.5841123526696,-5.4231601812806485,43.370049259385056,0
447.0,7.450149000000001,97.7086742063568,128.99339488248498,-53.547658668015615,277.2779609386437,-1.2812962799928551,21.030142575779664,0
448.0,7.466816000000001,56.07199923297013,126.12442028016316,-65.03948456201582,257.85755496390755,1.6693344655926745,0.0445149450325408,0
449.0,7.483483,15.669810725815497,113.58915437665834,-75.44799893542513,232.16065097875463,4.730234791755529,-18.244666783839165,0
450.0,7.50015,-26.200432589843764,95.92658948860722,-85.94832545016706,202.21968499873748,8.845098687742224,-32.84311306004234,0
451.0,7.516817,-69.2567128545493,78.71732304244435,-96.5004610388974,169.3066702183438,15.893341063516978,-43.390095323460685,0
452.0,7.533484,-110.62842736927186,65.73918910953377,-105.9454511180439,134.88230128134515,28.844391030645586,-50.486313023970936,0
453.0,7.550151,-147.00033964051457,56.661389855703256,-113.0194820201586,100.69895382666814,49.20927547032792,-55.51664224543031,0
454.0,7.566818,-176.28127780367612,47.339472936730886,-117.43589474070671,68.11696583470221,74.51996168551035,-59.81774716453997,0
455.0,7.583485,-198.67737296137236,33.36163270875225,-119.88911320721805,37.68235162352351,98.86600973438286,-63.90340420277492,0
456.0,7.600152,-216.82436845387215,14.058037052532924,-121.01956670520056,9.281370832601024,115.6307195492924,-67.36125655532393,0
457.0,7.616819,-233.75154167830183,-7.045684736972002,-120.7984890484546,-17.558490684827785,119.88877216554152,-69.43127751811386,0
458.0,7.633486,-250.02464450763927,-25.6591309871709,-119.1857398868307,-43.39419648828176,109.92429663604824,-70.09066886781757,0
459.0,7.650153,-263.55850580604465,-40.10904164203939,-116.76971891843588,-68.36494354533295,88.02379475840172,-70.79180625758445,0
460.0,7.66682,-272.2758540191249,-51.50795861916224,-114.08019146501454,-91.64179001135464,59.41063907705264,-73.54891668480958,0
461.0,7.683487,-276.08903460593626,-61.5850220539508,-110.75073494945386,-111.69728822388224,29.13595032267924,-79.03039654076446,0
462.0,7.700154,-276.4981727773596,-71.074345681595,-106.16076745984851,-127.63746648460244,-0.7547088100374921,-86.21729255139705,0
463.0,7.716821,-275.32451518436403,-79.98044236681109,-100.65016683391494,-140.185025978565,-31.520469905674357,-94.10807901945488,0
464.0,7.733488,-273.8954651110092,-88.2730626137341,-95.43006580765768,-150.92976282051313,-65.43802192908797,-102.73380291380658,0
465.0,7.750155,-272.75197563890686,-95.49732446247091,-91.3726993812098,-160.70934303363467,-102.82602539934663,-111.83820219081514,0
466.0,7.766822,-271.8551225202911,-100.36722291399688,-88.32413609609043,-169.07578017699367,-141.01180467293463,-119.44505230441888,0
467.0,7.783489,-271.0406576940427,-101.90948219312324,-85.63297446931114,-175.19355569504376,-176.09188952091614,-122.87240489347752,0
468.0,7.800156,-270.2310609277727,-101.13868347074842,-83.00615336004445,-178.8318645143781,-205.21601492331928,-120.99728688536902,0
469.0,7.816823,-269.30749870012005,-100.9717844192198,-80.5094059110394,-180.3612884014032,-226.84220479016625,-114.81503217929864,0
470.0,7.83349,-267.7547729967848,-104.02308701649176,-77.84796227778415,-179.9803810353337,-239.49365309296536,-106.02830790860884,0
471.0,7.850157,-264.4172777261984,-110.32529369658026,-74.18408055148244,-177.32184535312078,-241.41082799859703,-95.86380336037809,0
472.0,7.866824,-258.0125456682496,-117.23278100858386,-68.88514575604367,-172.15159295390797,-231.67015725363692,-85.06679023007791,0
473.0,7.883491,-248.07545076289355,-121.6009032723334,-62.06212633560379,-165.1742864138661,-211.09942892878863,-73.94579326398652,0
474.0,7.900158,-235.04547541193813,-121.99050233157872,-54.09960313131501,-157.48263716814685,-181.8614115074432,-62.03359204583848,0
475.0,7.916825,-219.60380902722036,-118.7799218679524,-45.0601536184987,-149.2655782414737,-146.39819036090194,-48.4328903577354,0
476.0,7.933492,-202.6005369981258,-112.61176744700174,-35.0086585603426,-139.74652910432974,-106.83095058360504,-32.98959223081197,0
477.0,7.950159,-185.4968983135304,-103.39838820960964,-24.62765363868712,-128.5175399145019,-65.07616311874168,-16.92921698871026,0
478.0,7.966826,-170.0014949803546,-90.92797889242644,-14.885824024514982,-116.18240843784044,-23.24519190518212,-2.3290626375876498,0
479.0,7.983493,-156.82091318237298,-75.76710606692276,-6.046888956300402,-103.10777445243926,16.2589578280911,8.799553133220416,0
480.0,8.000160000000001,-145.2628059900141,-58.88278674153921,2.6538715947168545,-88.08178940158888,51.23821155455357,15.245353230276503,0
481.0,8.016827000000001,-134.51986550851146,-40.53328450876196,12.14289347018983,-69.13786334957246,80.50328456222834,17.107771598113363,0
482.0,8.033494000000001,-124.4546823732023,-20.3826802426756,22.18113964985038,-45.65456897168336,104.1987144860216,15.666798527631816,0
483.0,8.050161000000001,-114.31564171068707,1.0594259073736858,31.009401457527005,-18.962465524416316,123.06555023847672,12.387885562817356,0
484.0,8.066828000000001,-102.10160349224512,22.013798930098964,36.72215884444563,8.984953027054258,137.15135020730335,7.94981174315547,0
485.0,8.083495000000001,-86.7626877717659,40.79632262918153,38.94098431884919,36.7017169299954,145.26092326365975,2.186130454029348,0
486.0,8.100162000000001,-69.87552972499883,56.63144376510597,38.653163730269085,62.90975325240483,145.65886144858297,-5.321378199320229,0
487.0,8.116829000000001,-53.3962449015772,68.8545546771326,36.671655290740034,86.19169894297889,137.2477182785168,-14.57314261338072,0
488.0,8.133496000000001,-36.52662100707466,76.47651247867054,33.15769433665092,105.59292094592668,120.36156035064704,-24.650061585095138,0
489.0,8.150163000000001,-16.44438445949992,78.92431769966109,28.642521630213714,121.27273518400376,97.02844729023298,-33.82750449615422,0
490.0,8.166830000000001,8.049999233832732,76.52873368058002,24.608880103473343,133.93344530274186,70.79125683497338,-40.54736990982112,0
491.0,8.183497000000001,34.52805500527679,70.35539140624378,22.774573333961904,143.59501369066376,45.919625876790136,-44.328259258581554,0
492.0,8.200164000000001,58.61446146267144,61.79603121448484,23.881740517962125,149.60243036067772,26.08460651777804,-45.523276444584766,0
493.0,8.216831,77.63556600141823,51.54305473814412,26.62556094866312,152.07554407330707,13.248708263665751,-44.31769775620562,0
494.0,8.233498,92.98811973152452,38.8999077967958,27.73099369625878,152.42271875058532,7.456363724045071,-40.29808806993435,0
495.0,8.250165,108.66229936089206,23.600996448467296,24.45351544212332,151.51854102504757,7.4027176601079345,-33.14478977154193,0
496.0,8.266832,126.52707822013284,8.51112822928788,17.587862276697393,148.04235151378958,11.262239185857847,-23.685025951992102,0
497.0,8.283499,143.59084753615227,-1.4534953864292728,10.687903210123393,140.04425612696542,17.345363877757563,-14.05404963475082,0
498.0,8.300166,155.49924184640355,-3.793817543312175,5.808427397450701,128.25250395038017,24.286187208730915,-6.531528645632795,0
499.0,8.316833,161.78004234162114,-0.4386502136044932,1.3686881325203126,116.57669330228848,30.88007798767156,-2.1746624101625653,0
500.0,8.3335,165.1534275865584,5.005815397412636,-5.324508538164597,108.6134080681293,36.045828334384,-0.6948402672104306,0
501.0,8.350167,166.97774918869467,10.83225573285052,-14.828749621815954,104.25461933802436,39.07609414600886,-1.3157816346787563,0
502.0,8.366834,167.01442185958032,17.963850034595023,-25.72767555930189,100.30977715125267,39.86510270917577,-3.311943606355854,0
503.0,8.383501,166.73582856620104,28.171346586469625,-37.11972372511153,93.85307197889928,38.78047974625215,-6.127188397619181,0
504.0,8.400168,168.48313282654513,41.83166023758539,-49.51954663231414,84.21963227925815,36.16946797456636,-9.661830726323268,0
505.0,8.416835,171.31225548864413,56.93272629072085,-63.13437758504623,72.22989557861098,32.00458339162815,-14.310512992405236,0
506.0,8.433502,171.39664778433536,70.16472859376624,-76.3346016650795,58.610540949549446,26.240214340955625,-20.40336343648579,0
507.0,8.450169,166.77964685840928,79.09212841184589,-86.52519204124184,43.54586384109474,19.41316375199872,-27.90840534531976,0
508.0,8.466836,158.96121403452327,83.18245373583233,-92.1947519316657,27.22732143277229,12.38834866733214,-36.71346201779608,0
509.0,8.483503,149.89343316763836,83.05086538957246,-93.7954934414715,10.251970084522869,5.522126143209328,-46.55434960110878,0
510.0,8.50017,139.7123351939848,79.37586227271805,-92.92828164949309,-6.619441003922654,-1.2699189159072557,-56.467734251691525,0
511.0,8.516837,127.05937500513848,72.61905606552165,-90.7800370038211,-22.828841425264983,-7.524083792101278,-64.83383721547682,0
512.0,8.533504,109.56395449674888,63.35157865889288,-86.80923044647324,-37.87617371687311,-12.173055588240288,-70.15141280022559,0
513.0,8.550171,85.04978204812124,52.77629262590669,-78.78948427319347,-50.82581696015197,-14.979989606402984,-71.57555503449458,0
514.0,8.566838,55.25245202463205,43.03447115872778,-64.94544425765521,-60.17820550225432,-17.250458928597897,-68.88224305277848,0
515.0,8.583505,27.91386577640756,36.425864724514,-46.61129799262784,-64.38138166650164,-20.16691772410694,-62.30511197830792,0
516.0,8.600172,11.628084175194326,33.396864465727404,-28.17427494842469,-62.650985081119245,-22.68029828924564,-52.51225596454194,0
517.0,8.616839,7.107332740042301,31.1497921709717,-13.899333173314986,-55.67389384707681,-22.033354369966236,-40.60934359554852,0
518.0,8.633506,5.40517613857247,25.053472193414635,-5.308017542526713,-45.726205065884045,-16.699584548026863,-27.87016133868118,0
519.0,8.650173,-3.79400667353948,12.389820006376832,-1.3252453188794693,-35.84780349949005,-8.348437708807053,-15.200481599924942,0
520.0,8.66684,-22.89196914360213,-4.80315447916762,0.566507246770974,-28.49699125167228,-0.5533192885573931,-2.9526947810548494,0
521.0,8.683507,-45.688696223391375,-20.93715038828065,3.298741585481677,-24.67357709202241,4.218582996627148,8.656659804283112,0
522.0,8.700174,-64.43151530668753,-31.767917848791665,8.630525524564256,-24.03665065304402,5.901515144355592,19.297563049611306,0
523.0,8.716841,-76.21581124416709,-38.12886951903245,16.05819366435444,-25.707608708179077,5.351883077329201,28.86762701455253,0
524.0,8.733508,-83.17065592566436,-43.984916850650166,23.778466092638315,-28.89884112499304,2.6575331492350527,37.4575694507538,0
525.0,8.750175,-88.47055847239929,-51.04350323282424,30.316620523062248,-32.746830385689606,-2.330525707089792,44.4366551280949,0
526.0,8.766842,-93.3143789374468,-56.81954204694992,34.839014670644964,-35.965842018066155,-8.525956829963402,48.30316747005563,0
527.0,8.783509,-96.99509549047848,-58.41728342911249,36.93687642762722,-37.429896915955936,-14.18546884054616,48.533262518027485,0
528.0,8.800176,-98.72053740807776,-56.64406512142145,37.161030272492326,-37.20428302408054,-19.29127403056582,47.271069021500864,0
529.0,8.816843,-99.2553801593022,-55.194477335319576,37.29069919003349,-36.48222724265839,-26.06359170671271,47.961273995706776,0
530.0,8.83351,-100.9883574064161,-56.56431790707431,39.09415497077415,-36.42715920173914,-36.124196620240994,51.989359324813336,0
531.0,8.850177,-105.78447381101124,-59.85600047637745,42.60851176344069,-37.36639309487718,-47.83392358626527,57.28569946504325,0
532.0,8.866844,-112.33706855874854,-62.17312249256717,46.02113806144504,-38.87799065633259,-57.35034274877549,60.40869086569076,0
533.0,8.883511,-116.33778291793917,-61.18101034764628,47.48125183658416,-40.1622812565745,-61.888348049641294,59.67810120251351,0
534.0,8.900178,-113.93211558595598,-56.45339655881816,46.756497444112526,-40.46378423332289,-61.26747660904206,56.44023462982105,0
535.0,8.916845,-105.12913724280608,-49.251972487430734,45.018611285304345,-39.62921039432625,-56.97914876818847,53.713337219487926,0
536.0,8.933512,-94.08277882895166,-41.25417075043328,43.592873411827824,-38.20813386783599,-50.90494132530297,53.51234823417305,0
537.0,8.950179,-85.81219690183491,-33.04474644187448,43.16376099929289,-36.59825658459431,-44.60772804890986,55.183891338404834,0
538.0,8.966846,-81.72894588412149,-23.72474361494264,43.57639769781251,-34.238526568343154,-38.500356801146,56.2816244975935,0
539.0,8.983513,-78.55468712917968,-12.385323320560625,44.09925366087845,-30.284757136454918,-31.393752997626937,54.91728855752001,0
540.0,9.00018,-72.47525258585515,0.0172196348223271,44.188638031355,-25.19562733735866,-21.811290393216677,50.977533427265016,0
541.0,9.016847,-63.453789417255294,10.935522277685951,43.941645508458016,-20.997793694770785,-10.11784688595655,45.1178817397696,0
542.0,9.033514,-54.315280000301854,18.60185183779535,43.66917798340154,-19.51104398589929,1.2747209120950926,37.02516816846984,0
543.0,9.050181,-46.84154552255616,23.378139494595864,43.47418222344473,-20.576540341765128,10.005102058420269,25.078927391681383,0
544.0,9.066848,-40.14175394418038,26.540936666494524,43.417920711078814,-22.34100561233409,15.614286026805004,7.839817250457034,0
545.0,9.083515,-32.24265718557252,28.681632885389785,43.60527547765248,-22.95098456859817,19.256749976848624,-14.118280748096492,0
546.0,9.100182,-22.65914956843373,29.664977340999435,43.923133266070735,-21.623854385420053,21.973877710351463,-37.68418196091099,0
547.0,9.116849,-13.289438695339935,29.218847182558548,43.927200050743,-18.52138174238528,23.48527477185207,-58.38050276429431,0
548.0,9.133516,-6.151941597229457,27.079016038041992,43.11916514775133,-14.22107929397678,22.767178641846865,-72.44792131835598,0
549.0,9.150183,-0.614782975934912,23.24188382643738,41.50870773788007,-9.29870559327863,19.794955622590397,-78.61223388459061,0
550.0,9.16685,5.642726121198555,18.42362588827645,39.91200189245283,-4.132104965667664,16.21043550437197,-78.28723986117464,0
551.0,9.183517,13.41454040410762,13.754129739282288,39.264019539739806,1.0686290597886292,13.724618867649443,-73.83588236539198,0
552.0,9.200184,21.725854496053,9.760542714761383,39.388513516362494,6.234741096714304,12.263928443687352,-66.48346584913848,0
553.0,9.216851,30.38752954751488,5.980813300268417,38.71177632088147,11.441623163335342,10.592354944088784,-56.14278313702415,0
554.0,9.233518,40.6123628114277,1.8557559662978451,35.463323345279896,16.726743427086465,8.487828763611175,-42.88073089690023,0
555.0,9.250185,53.08791523010888,-2.036308079632944,29.29687716071375,21.88956559655897,6.973225868727607,-27.65088974780588,0
556.0,9.266852,66.88662778298067,-3.900223194077429,21.86771076265538,26.401733323695492,6.334955649481719,-11.81412766066945,0
557.0,9.283519,79.89330718585956,-2.2101870883517187,15.706633140636503,29.282018396961465,5.469709467010445,3.1068482633772505,0
558.0,9.300186,89.37035438735418,2.663456979173628,12.234230258665512,29.463097465208413,3.6361577339577456,15.565025905477713,0
559.0,9.316853,93.28461678409084,8.549476574867198,10.869468833070531,27.05955152180242,1.473805056106087,24.91421187460588,0
560.0,9.33352,92.38907859327924,13.322291718038642,10.037390032334953,24.14412636302529,-0.1756927237633059,31.889648838100012,0
561.0,9.350187,90.0748027771383,16.62649973755634,8.490758785493647,23.50611874685044,-1.1959050846456962,37.31517547376593,0
562.0,9.366854,89.06702150877558,19.830955132945608,5.383037266911416,26.387872215756943,-1.4796862264064912,40.57301740219772,0
563.0,9.383521,88.85009230395659,24.28599011912342,-0.1992342424437536,31.562305084335726,-0.3988175468094781,40.05337690773671,0
564.0,9.400188,86.86107080521492,29.44423195663652,-8.843360356405746,36.49093549649516,2.437989161113655,35.04150404193142,0
565.0,9.416855,81.51808144012097,32.720082715870205,-19.907747363209637,39.15070479103619,6.582598774979079,26.59995791045349,0
566.0,9.433522,73.78501455089156,31.654666230892705,-31.6695014703797,38.912474921970045,11.279600125794616,16.501154618697832,0
567.0,9.450189,66.44827566108226,26.48008638687615,-42.72125723422677,36.28999691354369,16.04788323938905,5.763149882507995,0
568.0,9.466856,62.02117347402012,20.166692204093607,-52.891324994935374,32.41517463548709,20.362797912029716,-5.427683451605693,0
569.0,9.483523,60.9173633881583,15.714635110716138,-62.54495289256639,28.634090922476084,23.263101491228568,-16.642949581485155,0
570.0,9.50019,61.64482610585714,13.861789388922944,-71.27493977167403,25.87953047284315,23.922387556396806,-26.67773197555228,0
571.0,9.516857,62.459832838819125,13.455591954318274,-77.57883626215238,23.953414121112942,22.58208211816436,-34.29601079418255,0
572.0,9.533524,61.997399093609744,13.083846051024128,-79.85157160124143,21.648675361765022,20.447810520794537,-39.12942156099646,0
573.0,9.550191,58.75298271880721,11.926775614384317,-77.73166290472638,17.954917478325065,18.46273735429064,-41.462800884953154,0
574.0,9.566858,51.51694075082858,9.778873548767418,-72.60797690218985,13.117636350923071,16.41005453017185,-41.25494568371978,0
575.0,9.583525,40.57376505953193,6.780124502059223,-66.83384208015286,8.35638304160857,13.438915635625476,-37.74366098526501,0
576.0,9.600192,27.609727755356985,3.0552522206283577,-62.2305558612243,4.738268485773954,9.379872941282466,-30.2323222734642,0
577.0,9.616859000000002,14.494724734605391,-1.1973816932331525,-59.059300828314505,2.611668681539175,5.352799698191352,-19.273814519796375,0
578.0,9.633526000000002,2.5940058709086338,-5.149269024900102,-56.27672874275184,1.8612761233353825,3.0554519508932927,-6.9480180163346095,0
579.0,9.650193000000002,-7.445458927302694,-7.680516388321083,-52.770552971442285,2.036800461024655,3.4316370378832275,4.166615806561333,0
580.0,9.666860000000002,-16.074380930954355,-9.06379034663051,-48.40462922187591,2.089382143329613,5.766497278895405,12.309469696060836,0
581.0,9.683527000000002,-24.47209299491116,-11.625078575307018,-43.90355004062205,0.6955376961496298,7.86276300696213,17.00876380305756,0
582.0,9.700194000000002,-33.09281797990549,-17.44772387998597,-39.897685257899866,-2.4562968072886253,7.454554672368469,18.814248084782477,0
583.0,9.716861000000002,-41.04666694307127,-25.537249747481848,-36.39881144378463,-5.815944942390161,4.040226963320976,18.93603589048133,0
584.0,9.733528000000002,-47.31325257100645,-32.28896387895703,-33.08801800582699,-6.953489093638815,-0.7067759913533214,18.801508915516013,0
585.0,9.750195,-51.93020458901898,-34.74251684991492,-29.59933503179559,-4.67192453013296,-4.679014596581035,19.36466511482209,0
586.0,9.766862,-55.5888411275005,-32.72949097253817,-25.55015288068664,-0.2647738948678195,-7.243583880623608,20.539255675577056,0
587.0,9.783529,-58.61433962949464,-28.31743740540354,-20.8191557850534,3.0924904774112263,-9.152360395630348,21.228229549202787,0
588.0,9.800196,-60.77210917223898,-24.13819594485673,-15.799378811306411,2.262302283995308,-11.092626347713662,19.980483318123795,0
589.0,9.816863,-61.73829043910799,-21.95246551551485,-10.927558460383356,-3.833216057566184,-12.930164288169344,15.9441910810576,0
590.0,9.83353,-61.37687360557012,-21.83123283982699,-5.977015781404301,-13.347460606383477,-14.167789038188095,9.58628596916606,0
591.0,9.850197,-59.82241125832626,-22.513459637756327,-0.2580138184282299,-22.618296203585025,-14.55351502307352,2.6142583962010697,0
592.0,9.866864,-57.79184111353317,-22.72414051729096,6.406013385513115,-28.639916780611426,-14.0967211957115,-3.018630846117928,0
593.0,9.883531,-56.55797564178022,-21.96340691142175,13.223585730712678,-30.8895616055602,-12.839183660454305,-6.329005617259066,0
594.0,9.900198,-56.62181074939576,-20.12978879966525,19.089026022071963,-30.990797044290144,-10.828932769768594,-7.709431603069914,0
595.0,9.916865,-56.189451008354354,-17.025065623504364,23.591611426794536,-30.81038884770477,-8.137403778565584,-8.23525797608015,0
596.0,9.933532,-52.32753397370581,-12.571710218950995,27.28706047501128,-30.951844409671317,-4.833611253338632,-8.689695570412706,0
597.0,9.950199,-44.83093121395929,-7.362927256549208,30.884906022861824,-30.808260500653468,-1.2615781240901227,-9.205798622347936,0
598.0,9.966866,-37.948029507924886,-2.8160083216311493,34.22999170808616,-29.56573682991863,1.5882970361276418,-9.466902902231926,0
599.0,9.983533,-36.28285190707255,-0.5666201457925424,36.4106372531361,-26.92284141245392,2.552966189392013,-8.979048365216833,0
600.0,10.0002,-39.17825419999864,-1.3732857767757691,36.98279418731293,-23.16089456906483,1.542829574498776,-7.43676571526756,0
601.0,10.016867,-41.106621853973394,-4.319231234262901,36.75311577115436,-18.926363068253536,-0.0764169700844392,-5.237143948231815,0
602.0,10.033534,-37.55535906893175,-6.956247576685942,37.18828708382722,-14.89693382644995,-0.7696595076276188,-3.513537156356377,0
603.0,10.050201,-28.699241328776957,-6.633596218895107,39.244323849308216,-11.414116969300638,-0.2167840922360089,-3.221561841083897,0
604.0,10.066868,-17.70008000907641,-2.5937919552606026,42.62325863664225,-8.382516448911241,0.8538335895408534,-4.076365832972234,0
605.0,10.083535,-7.694041831458015,3.0195904018383866,45.72839507964313,-5.424150685177317,1.6772534381035564,-4.665114812732689,0
606.0,10.100202,-0.6925389277187053,6.934714629627884,46.466036788774325,-1.9803535822814156,1.817012276911024,-3.7788180714498063,0
607.0,10.116869,2.407385010734256,7.643896185150926,43.64405872840104,2.44010713355516,1.041103182996092,-1.5136823845560197,0
608.0,10.133536,1.9885772591184865,6.071976279444967,37.8096188900678,7.624643902591194,-0.5237760495249641,0.9577792884353192,0
609.0,10.150203,-0.0720456058019329,3.8946460238920686,30.656857182364064,12.385486586176755,-2.314067470740448,2.475335705818704,0
610.0,10.16687,-0.9663360943434856,2.21815151980877,23.72126215914295,15.370651286032375,-3.734902024911758,2.679971597950186,0
611.0,10.183537,1.43435991549674,1.7274838351352462,17.881792177850883,16.170926781995483,-4.4615884209161765,1.9299523275783683,0
612.0,10.200204,7.193348687721453,3.0141713504382266,13.874674332666071,15.54938552836468,-4.308642654249391,0.6429263582501827,0
613.0,10.216871,14.606982531157218,6.152395197921717,12.328170422115551,14.800393808100509,-3.216746156702277,-1.136653888699957,0
614.0,10.233538,21.64590003084446,10.13846644420161,12.675319179889616,14.872163989819231,-1.510778516090603,-3.446191752813145,0
615.0,10.250205,26.958527104199803,13.152767508152,12.69564456572481,15.788584426354747,0.1600012970868393,-5.853271923978058,0
616.0,10.266872,30.043618404192088,13.719933764740528,10.21640304511033,16.874380414827588,1.31016425080211,-7.512529502573688,0
617.0,10.283539,31.20607669510772,11.902525472060432,5.25894284197465,17.62712827328489,1.9127132167944787,-7.863903525998986,0
618.0,10.300206,31.530039140537752,9.475853533407738,-0.3349355293273637,18.18301582705963,2.218864381278289,-7.100468517885927,0
619.0,10.316873,32.43712154703074,8.692214318780746,-5.341060821293189,18.867945448625704,2.456910850418048,-5.86593455505706,0
620.0,10.33354,34.61274964997557,10.447872677686089,-10.17086896403766,19.582590815520117,2.6924786749890277,-4.648221846592873,0
621.0,10.350207,37.20639561722736,13.495053683138726,-15.318401118340716,19.74762416140714,2.827766528447678,-3.627576629440029,0
622.0,10.366874,38.51040448156827,15.50692316452772,-19.95476064783184,18.68219372000564,2.703676782326604,-3.034514223470638,0
623.0,10.383541,37.63558105604061,14.938890606560006,-22.709997669160195,16.095298900232486,2.283606582536171,-3.3436613009525056,0
624.0,10.400208,35.297423692408884,12.042621263513649,-23.21671986543901,12.55247589554249,1.7800324319177432,-4.820165617447039,0
625.0,10.416875,32.9392159906482,8.434812604148815,-22.359312385280177,9.5225930519839,1.5281790982271355,-6.899591099552248,0
626.0,10.433542,31.37122617183209,5.731734615206599,-21.40872639015864,8.571806514071417,1.5771928555119636,-8.370637075086883,0
627.0,10.450209,30.31803675493837,4.318137092283215,-21.276357358176597,10.16341260163268,1.3508934069869762,-8.369741920254867,0
628.0,10.466876,29.00597319364221,3.370766881547308,-22.244836016218272,13.231163408969728,-0.0417479861391278,-6.990076482210954,0
629.0,10.483543,26.99282125907716,2.217203986873601,-23.983177819096056,15.997439633123468,-2.7998551616150857,-4.843389523838791,0
630.0,10.50021,24.536754673458653,1.4441106669673134,-25.878547493709803,17.23265802879723,-5.7177268504046985,-2.4081395815960134,0
631.0,10.516877,22.419780892563672,2.217984236367274,-27.481363456892225,16.85219975989175,-6.816591886758268,-0.0330404950274733,0
632.0,10.533544,21.49084555680165,4.603353594513607,-28.479432737544773,15.523843775837824,-4.966680565995121,1.7663384306782188,0
633.0,10.550211,22.04880458516501,7.115953576313595,-28.33968331276708,13.811906021363148,-0.9792703370786652,2.434512664570647,0
634.0,10.566878,23.256207443248982,8.064461736528578,-26.57346536196834,11.648978242983407,2.864928473659283,1.818380333411042,0
635.0,10.583545,23.285664110742243,6.869970075279772,-23.65873257374131,8.609462906155006,4.438200589415159,0.3182738237665616,0
636.0,10.600212,20.623377433131488,3.980152344398466,-21.18311750316755,4.773018648264581,3.1795241130022083,-1.3892860328927108,0
637.0,10.616879,15.475544002113471,0.252341923145335,-20.4063019998534,1.2165165573262786,0.258743743326313,-2.652462590271893,0
638.0,10.633546,9.719361285645135,-2.9471294643078494,-20.622906082388678,-0.7593604131639687,-2.3567409522642966,-2.977864819844924,0
639.0,10.650213,5.453962600529239,-3.732284694083363,-19.374411121665624,-1.0523204411714364,-3.065536727711812,-2.2334727006845285,0
640.0,10.66688,3.6570424876422094,-1.2217754155751954,-14.690458810200711,-0.994856699852566,-1.4851351817567138,-0.8679303913397802,0
641.0,10.683547,3.948599226266229,2.712172911622499,-7.183230880012394,-1.926800901840436,1.2520724930703448,0.3233493364505388,0
642.0,10.700214,5.215493963913313,4.549167906623007,0.3297038272450315,-3.835663844066977,3.1778340000638026,0.8603509210119437,0
643.0,10.716881,6.3356151392322975,2.738313793449996,5.3465200378286495,-5.537553146864426,3.0530092662332216,0.9805390837301228,0
644.0,10.733548,6.431023479445619,-0.6855392218486411,7.582511533523426,-5.942036895280726,1.5114202968088732,1.3544833655541733,0
645.0,10.750215,4.754275542446324,-2.8055464135147345,8.453526927625987,-5.090202016741645,0.4153648209023648,2.4008493423291983,0
646.0,10.766882,0.9131821047032176,-3.3164241943917294,9.144436588878712,-4.095491966101363,0.8833070630687239,3.816883398420512,0
647.0,10.783549,-4.431466573825976,-4.424910953890265,9.47174008249767,-3.9869593270510792,2.14913228338501,4.77211599918838,0
648.0,10.800216,-9.439369084794258,-7.674949448695126,8.673756822102792,-4.589767628582742,2.618335424231267,4.639794618360764,0
649.0,10.816883,-12.186847032392848,-11.722658650384195,7.067892426408923,-4.86133594301138,1.8432266679287277,3.555362358626774,0
650.0,10.83355,-11.873976477486464,-13.340322903732751,6.418854022124961,-4.379115677435527,1.0019338871258423,2.2293328948707565,0
651.0,10.850217,-8.87880357664208,-10.316552364829276,8.438528988998955,-3.988783407314074,1.392231032084081,1.2900961438583212,0
652.0,10.866884,-4.227323502888764,-3.584592422463528,13.111162230940854,-4.761774207911545,2.8433080574035183,0.9107702145086064,0
653.0,10.883551,0.5442807784209247,3.247887963830446,18.61916105094646,-6.866419381701043,3.86263406326938,0.9304657778708324,0
654.0,10.900218,3.7525914113464496,6.909779058639865,22.77884968810347,-9.877846327861231,3.290977954036656,1.043827891472472,0
655.0,10.916885,4.653478753738837,7.310792082936414,24.41503833770883,-13.582912012232311,1.6414134558852698,0.8916979899478397,0
656.0,10.933552,3.834660366011013,6.928131574190142,23.506118526785382,-17.683646181343395,0.5519385541461418,0.3155268795070116,0
657.0,10.950219,1.9841954234094028,7.310892495792251,20.480379772165318,-21.084170370668645,0.824824151667937,-0.3335380947507054,0
658.0,10.966886,-1.1555679203893403,7.265645422234467,15.852955126777378,-22.450656837198565,1.4615108772379757,-0.357102599340555,0
659.0,10.983553,-5.800311715896584,5.140857199070677,10.65650656868914,-21.57707966694162,1.050883314868746,0.6422342050975286,0
660.0,11.00022,-10.555802230624913,1.7186010858850196,6.816099681707894,-19.707958471631382,-0.3939130475450558,2.2814361697612764,0
661.0,11.016887,-12.882055724635112,-0.5599096285843821,6.42907438086666,-18.59557083368997,-1.7095395254435886,3.565020479482896,0
662.0,11.033554,-11.178103377443,-0.654985197779153,10.231298216786984,-19.5440130330556,-2.3907384351860737,3.5397158347209734,0
663.0,11.050221,-5.921083444678581,0.2408135261011703,16.663171353951565,-22.914849639913783,-3.2444415853770603,1.9381685616314532,0
664.0,11.066888,0.9752138202632352,0.7838278564228432,22.470046569899548,-27.763556877780974,-5.048820719299155,-0.583508591869695,0
665.0,11.083555,7.363575635981658,1.157857572084199,24.58237333594672,-31.993296444331182,-7.148480392894262,-2.717781297162276,0
666.0,11.100222,11.717647807565118,2.423623400736304,22.11572822233781,-33.690583691453625,-7.867830726707784,-3.171104811315447,0
667.0,11.116889,13.61242036722193,4.892945886614656,16.768841220885626,-32.74720327302868,-6.210321155518667,-1.456799164839078,0
668.0,11.133556,13.784211813821202,7.540820983512013,10.963240965984468,-30.816683721485894,-2.8641856956849328,1.6648132543388916,0
669.0,11.150223,13.547810865199148,8.889972109366582,5.755690275744325,-29.471231289681256,0.3766812915592272,4.598952424813839,0
670.0,11.16689,13.863925696040535,8.336248349056138,0.8939032968333638,-28.84769400093939,1.9693468028139784,6.05741363498924,0
671.0,11.183557,14.91840869209002,6.685667371487507,-3.800496641369865,-28.255324859241966,1.6114046060829863,5.917656453072079,0
672.0,11.200224,16.477727689572795,5.437051942706828,-8.128058172221563,-27.36440828035637,0.2735657700906866,4.920110193741371,0
673.0,11.216891,18.26909498819217,5.397730990811924,-12.286734845837858,-26.23148024222041,-0.7296590542495831,3.662124933146541,0
674.0,11.233558,19.9026555750761,5.973508155831521,-16.84811140942414,-24.6164089028017,-0.9117190481465192,2.1828661984649327,0
675.0,11.250225,20.89541223860124,5.9980275351353445,-21.725257401148387,-21.907487940192254,-0.8667589927338629,0.543183936538737,0
676.0,11.266892,21.26851861701589,5.189396918573511,-25.937360940768045,-17.786668616648278,-1.2727349928599243,-0.6167788514516479,0
677.0,11.283559,21.84506354329011,4.378724819553657,-28.900208595222004,-12.93276645806796,-1.8876408825197213,-0.5748768671813291,0
678.0,11.300226,23.225021652937706,4.239575558146647,-31.469227735338148,-9.035865031378934,-1.9113364766191523,0.3452975261185127,0
679.0,11.316893,24.543365215819136,4.3057771822554205,-35.02949610392106,-7.641905509723803,-1.191336513522442,0.4923480150963271,0
680.0,11.33356,24.095505406168048,3.607903739702095,-39.68428620194143,-8.62270695943888,-0.5480588819304818,-2.0127415758141933,0
681.0,11.350227,21.262267975026173,1.9683256540136669,-43.983387101162,-10.219258932538844,-0.8398193382169779,-8.048514474562403,0
682.0,11.366894,17.092944852463106,0.1605039944562067,-46.59028590576644,-10.89175762142646,-2.0686850997288007,-17.447244409954706,0
683.0,11.383561,13.198002190699205,-1.0442942777753772,-47.68314027052863,-10.559013514315955,-3.4631922907114348,-29.77419325370056,0
684.0,11.400228,10.816113213278893,-1.3381028639171777,-48.33271132447676,-9.817936138633726,-4.19282054667184,-44.69015709868577,0
685.0,11.416895,10.371643127464983,-0.370904393749955,-48.97371836047658,-8.873033871795823,-4.015640509830417,-61.44913551681152,0
686.0,11.433562,10.926247417886987,2.548890784232672,-49.26883272350975,-7.838689249867458,-3.348912262945619,-78.26505287815534,0
687.0,11.450229,10.422610330846195,7.886359175898253,-49.354513851378776,-7.266347605726918,-2.658246352884042,-92.46736006369431,0
688.0,11.466896,7.188186971222304,15.175092186967111,-50.243608519185486,-7.361355843283887,-1.977858959088316,-101.3832449779222,0
689.0,11.483563,1.1865235177929054,23.02465623105155,-52.618158777607846,-6.974313240071538,-1.3206636320357017,-103.2518793951296,0
690.0,11.50023,-6.085385491348699,29.735869508362526,-55.92228150542643,-4.323095701456706,-1.247496269482438,-97.8056508244531,0
691.0,11.516897,-12.472555797631568,33.835396971022504,-59.0972093030897,0.9944552377616712,-2.529012785744784,-86.29384486441266,0
692.0,11.533564,-16.10670482965864,34.29186091838294,-61.60565891067776,7.1021327288959295,-5.303329542317724,-70.7080139859315,0
693.0,11.550231,-16.23498173886835,30.755689610977456,-63.1921367803765,11.324665274704625,-8.880328585386739,-52.71721204404717,0
694.0,11.566898,-13.54971282071324,23.80286144827223,-63.181333847051775,12.47317556949678,-12.46465158775966,-33.44529689467566,0
695.0,11.583565,-9.716705958746411,14.606698589724209,-60.84466167229061,11.43942770433518,-16.032785942963322,-14.179279830525044,0
696.0,11.600232,-6.484890812507251,4.072960987915797,-56.45945456157259,9.96028629268089,-20.46564779625485,3.4562424292736207,0
697.0,11.616899,-4.946789565608861,-7.424948753569609,-51.48037414842253,9.438263781404991,-26.63655354414207,18.56869070585488,0
698.0,11.633566,-5.193148064956276,-19.082350929649778,-47.53316923258651,10.507990655022176,-34.032117193958136,31.659628696215343,0
699.0,11.650233,-6.489658042245297,-28.817299353608284,-45.51010940240013,12.769095275953957,-40.213539505923634,43.39436424784812,0
700.0,11.6669,-8.023314459868821,-34.14177822460241,-45.59464772106668,15.035620431755454,-42.01077654795416,52.93333155887363,0
701.0,11.683567,-9.69572275242903,-33.89720258487863,-47.682389005023296,16.467063809965907,-37.46210688050561,58.1288169032358,0
702.0,11.700234,-12.010448710429854,-28.69430596116502,-51.58256590147428,17.24801817267339,-26.532811868954543,57.186548347362006,0
703.0,11.716901,-15.09688920573867,-19.893860607076544,-57.09962020448059,17.682647368477053,-10.583479752764374,49.6415533963014,0
704.0,11.733568000000002,-18.340441398303216,-8.81836794303772,-64.11768516257592,16.86843057959138,7.855507018814854,35.97559310484778,0
705.0,11.750235000000002,-21.182052930440467,3.093206151896457,-72.55432813363466,12.87936907154415,25.24941527282761,16.915985156198353,0
706.0,11.766902000000002,-23.44136539750485,14.069824755404776,-82.12983482915301,4.497741064465589,38.41155664715728,-6.679789059184083,0
707.0,11.783569000000002,-24.344269576323235,22.39190582650511,-91.98974532283684,-7.632131466862695,45.79482063176357,-33.40900638387484,0
708.0,11.800236000000002,-22.39877753632358,26.929043503666957,-100.60123860185116,-22.107978402838555,46.86140938168593,-60.8571393819928,0
709.0,11.816903000000002,-17.328312619746058,27.215798065134532,-106.4535568391574,-38.717345153371554,40.93684803285099,-85.35049867192002,0
710.0,11.833570000000002,-11.2229987176804,23.36991997832068,-108.8360926230203,-58.2434665367322,27.903419136371724,-102.33396009703692,0
711.0,11.850237000000002,-6.674092856255648,16.44360426329726,-107.60239170001547,-80.00900222590474,9.791494254197396,-107.93245614920951,0
712.0,11.866904000000002,-4.4418615180271415,8.622008251325607,-102.77221374786652,-100.41229003631554,-9.36014441294797,-100.95439534231434,0
713.0,11.883571000000002,-3.7488505268344654,2.386750726374244,-95.00064790007936,-114.46094886826434,-25.53102422902662,-83.30657293158544,0
714.0,11.900238000000002,-4.134919551579241,-0.7547243910263228,-85.56147471502044,-118.51633216400889,-36.424649593457374,-58.41210039076184,0
715.0,11.916905000000002,-6.075303047508907,-0.7652799381221953,-75.0840083085634,-111.65434083345248,-41.51239247496598,-29.662034418640324,0
716.0,11.933572000000002,-9.925493681181424,1.4717753244232714,-63.189466161842574,-95.23704127475987,-41.1987895062629,-0.1028671784554122,0
717.0,11.950239000000002,-14.844933553862324,5.313047064516963,-49.89262047105893,-71.80337532423441,-36.34776290806256,27.541397798174607,0
718.0,11.966906000000002,-18.876211571814142,11.230568197407258,-36.27086595607263,-44.45713170158351,-28.31012826690929,51.12378265830097,0
719.0,11.983573000000002,-19.997447233515352,20.176985995189675,-23.330830857064797,-17.21530311701996,-18.93280732848145,69.19127676694488,0
720.0,12.000240000000002,-17.454732405396918,31.46696114518244,-11.341717003918053,4.908937768958439,-10.336440884770337,80.98438548714792,0
721.0,12.016907000000002,-12.580476588689644,41.49969454136728,-0.6672522835999597,17.843250651693808,-4.625977433853924,86.77431334268266,0
722.0,12.033574000000002,-8.14744990031196,45.73209831940828,7.960427943376148,21.22924769241784,-3.4972590744618044,88.19159908422627,0
723.0,12.050241000000002,-6.076688238856312,42.88610962827899,14.989316142481274,18.44067095995616,-7.363815860893652,87.49543337566679,0
724.0,12.066908000000002,-5.151862540788073,36.95730864800152,23.401946148506827,13.37823737298802,-14.2750386041151,85.82109479020545,0
725.0,12.083575000000002,-1.1271099866699252,34.255713256738616,37.225859239608326,8.077485717824135,-19.88095876726058,82.33407899635102,0
726.0,12.100242,10.300862386233684,38.46782416081188,57.86910590452034,3.786992167745648,-19.1968072666995,75.58351365296488,0
727.0,12.116909,29.80620819207252,48.74934985148607,82.14872571802141,3.0758774304215755,-9.211158715396689,65.39905054297759,0
728.0,12.133576,52.85648569321488,61.66467500351145,104.2932947705612,9.41497717990136,9.574875333784602,53.077477632131306,0
729.0,12.150243,71.80609280953101,74.26602020512509,119.5055051159773,24.520783803530584,33.86741598296018,40.19908401712863,0
730.0,12.16691,80.89076644346986,86.11936661378529,125.47424857377624,46.63790111107127,59.98077903429517,27.683256323910868,0
731.0,12.183577,80.62438964354307,99.15714155399355,121.6794767103901,71.60573646609558,85.83531335453222,15.311576005485785,0
732.0,12.200244,77.48329481717732,115.29453420754972,108.60684014253712,95.57720073329088,110.85584597904898,1.3271255706343603,0
733.0,12.216911,78.46299819664824,133.98071576459867,87.6012561942265,116.94395859744242,134.436997288895,-17.25458963408261,0
734.0,12.233578,85.24298240760972,152.05077287650613,60.72409063765501,136.26654997570415,155.08925438278183,-43.060493830210575,0
735.0,12.250245,93.3275667435664,165.1858012359045,30.42539882471416,155.01093833776338,171.05697778627308,-76.68902505166999,0
736.0,12.266912,96.31029017615224,169.0085754139679,-0.8094903930798218,174.22548465610586,181.31234289182603,-116.63263765504304,0
737.0,12.283579,90.25922069636344,160.04921298072875,-30.72275967528032,193.572438689573,185.8417698111175,-160.31795368910863,0
738.0,12.300246,74.4232093644984,137.6198939329388,-57.19857904932339,211.2273702295032,185.4588863411712,-204.25401269949495,0
739.0,12.316913,50.06069863049368,105.329594190393,-78.27854494835498,225.10641141175293,181.8176449579745,-243.35570541947345,0
740.0,12.33358,20.631370395242573,69.96865908658583,-93.36755550464056,234.35630216873585,177.39283303345888,-271.8190197566442,0
741.0,12.350247,-8.048739976850955,38.093307437105125,-104.73634755277914,239.24707750285995,174.81309508473706,-285.8615531114086,0
742.0,12.366914,-30.54822903837027,13.228934783126723,-116.56700946513764,239.61125589665545,175.92977227249804,-285.386607968779,0
743.0,12.383581,-45.021420260190695,-4.050509414191519,-131.6523005063487,234.0939297271384,181.6592036520136,-272.70900293109,0
744.0,12.400248,-52.57271411009279,-13.733875422896253,-149.46193841244366,221.41014632716377,192.59410798995395,-249.96083628932388,0
745.0,12.416915,-54.1578845422859,-14.449074095306717,-167.42033362734526,202.0445331646469,209.28130299622603,-217.8566190057794,0
746.0,12.433582,-49.34331027824657,-4.079930358050294,-183.27087736781164,178.17300332392333,231.71803569337877,-176.94955382638747,0
747.0,12.450249,-37.363103055442885,18.00377053361947,-196.19549944320545,151.9493934966599,258.74622502539586,-130.02355075874576,0
748.0,12.466916,-18.16862576824836,49.51781702499589,-206.4669857706329,124.47093115924235,287.88332803925385,-82.41681954740025,0
749.0,12.483583,7.306859797851493,85.72404012907501,-214.368460241862,96.620390821746,315.44179314857683,-39.11695605511769,0
750.0,12.50025,37.07645796267583,121.29644265738318,-219.11360463219947,70.14301401996525,337.01210728288186,-2.1943258438690525,0
751.0,12.516917,68.08832982722895,152.45915075145183,-218.5784075862091,46.820545186598885,348.8473670155664,28.010876600557783,0
752.0,12.533584,96.50722135415674,178.1891858157898,-210.1811552074716,26.37986994819449,349.6698930310472,50.36382584033801,0
753.0,12.550251,118.1282536083314,200.03038534070063,-192.17359407032663,6.1232332020930045,340.9351881448053,63.74968228299868,0
754.0,12.566918,128.81133717640705,220.7128200217944,-164.46815190351717,-16.409576306280123,324.7868703990869,70.74156294656694,0
755.0,12.583585,125.54327575142958,241.61898304185405,-128.7463761280617,-40.37955224921738,302.1438271259953,78.89202611890154,0
756.0,12.600252,108.27906154616582,260.5262202457834,-87.65502153574997,-61.83104368305387,273.4370915454897,96.84771267033187,0
757.0,12.616919,80.8044633978573,272.9969829411672,-43.41489292581123,-77.28314531756874,240.7061799140912,128.52821793215608,0
758.0,12.633586,48.71118456365354,277.15195978686575,2.543432330011994,-87.1216885290365,207.7323774767465,170.903776849696,0
759.0,12.650253,15.67803691764253,275.61107149168726,48.409410238161,-95.44746973226214,177.37807157961208,217.27061054918957,0
760.0,12.66692,-18.156882928353276,271.5703478531142,91.85542933140172,-106.58701354214188,148.7864228586443,262.516014377465,0
761.0,12.683587,-53.85734448349456,264.8734202032495,132.477313591797,-121.53238668426236,117.80636797654938,305.3012166010401,0
762.0,12.700254,-90.2721791733918,253.38214624744307,173.427924352303,-137.55483882621655,80.96036858113654,345.72801074464155,0
763.0,12.716921,-123.99415941965742,236.05407254715715,218.77277282080223,-151.02276460953993,38.75280475696858,382.1420439960016,0
764.0,12.733588,-152.45322579685543,212.37808001256,269.24863334880087,-160.2121470700854,-5.851037690646937,411.4614056272027,0
765.0,12.750255,-174.93542353386513,179.89418547677968,321.47150326873924,-165.38843672942022,-51.95530789819993,432.24087811031296,0
766.0,12.766922,-189.32799183493609,134.45627071592958,370.5560871911965,-166.83184332181537,-102.72427041100444,445.3533626123814,0
767.0,12.783589,-190.0363460782641,73.1203684960777,412.2387565775757,-163.4088421014242,-163.0486445973972,450.4857275117128,0
768.0,12.800256,-172.36633484493285,-3.787673322917566,442.99317627952007,-152.9324910760464,-235.84671185772703,443.46707734393823,0
769.0,12.816923,-138.9886172793054,-92.65171174396752,459.9166994846705,-133.60908372062508,-319.7481879901094,419.26736285247057,0
770.0,12.83359,-99.58285379336084,-187.27751273522432,461.6078699783236,-105.6256547691952,-408.9038154230923,377.82782766640526,0
771.0,12.850257,-63.590461145570806,-279.66369805524863,448.9718929084148,-71.93065701063338,-494.9572928193252,326.0970681802344,0
772.0,12.866924,-34.87059087926902,-361.73791787675526,424.6276277004771,-37.00698120058814,-570.4425935067637,274.44589349545004,0
773.0,12.883591,-12.796918037363934,-428.1600912983063,391.4847019108228,-4.3253523812698855,-631.0957412152483,230.9623530752365,0
774.0,12.900258,4.450000540473639,-477.8279395299693,351.994166499127,24.1942908107492,-674.2351931801627,197.42835568088796,0
775.0,12.916925,18.469401247476235,-512.3199135095205,308.21262854622546,45.31519401810705,-694.540402371956,168.90448331154144,0
776.0,12.933592,30.12447380853216,-533.3790935716938,261.752019353076,52.37187847744595,-683.5028964741157,137.4940272208948,0
777.0,12.950259,39.030762282297104,-542.0915877836859,213.56899184879288,38.77261553064953,-635.8244392833732,98.83759795123385,0
778.0,12.966926,44.43556686502493,-538.8850033808521,164.24165658454453,5.094610300475739,-556.7063065204605,56.71355967942717,0
779.0,12.983593,46.82897941580133,-522.7271267691223,114.52413475012968,-37.8924230982086,-460.9074247802371,20.71466591523929,0
780.0,13.00026,47.78330318125599,-490.6405894234501,65.46736730807639,-74.62617135526236,-362.659754636804,-2.427473078587841,0
781.0,13.016927,48.52686113452965,-439.240534183144,18.173420231427084,-94.44149910820414,-265.8584234899764,-16.49831704275699,0
782.0,13.033594,49.47238736875592,-367.3382277304733,-26.36329501367394,-97.00734662987703,-164.42235178686474,-35.333305437360266,0
783.0,13.050261,50.203028248838656,-277.118158035184,-67.32093463145195,-89.0622327419485,-52.10656805532961,-74.46345718358762,0
784.0,13.066928,49.26923028098036,-173.46281561539567,-103.85461159889311,-76.64213567879378,68.89123494810134,-141.27108392928565,0
785.0,13.083595,45.35536663991702,-63.29206724020754,-134.44325163442318,-60.87959731486461,188.67734977981652,-230.10861837899895,0
786.0,13.100262,38.79827904647208,44.75254481196506,-156.86313103572456,-40.12689072154679,296.56770642334914,-324.6752738262447,0
787.0,13.116929,30.41548740837227,142.09422600551756,-169.67214029326362,-13.983539029227316,385.56125805825616,-405.37269036301154,0
788.0,13.133596,19.53049663314856,222.84224087709703,-173.36440123687674,15.259519561505805,451.4149120608536,-457.429050386094,0
789.0,13.150263,5.07652693306864,283.8664197010298,-169.09666342278211,43.5108287331624,490.207767826708,-476.2985886253148,0
790.0,13.16693,-12.315274630299331,322.3108448339454,-156.77023422434527,66.25437673702925,498.16459993391936,-467.83932167601847,0
791.0,13.183597,-31.21437477599629,334.8039254650388,-135.85929573822676,80.42694777144861,473.3713477359795,-442.7138054202825,0
792.0,13.200264,-51.51486680258888,319.96991507508096,-108.26173389147976,86.43550206780046,417.1402736045437,-409.0756927285628,0
793.0,13.216931,-74.02876790079179,280.8734903389327,-78.98549793756303,87.91070646717219,334.2539631573975,-369.8843340810884,0
794.0,13.233598,-98.05113377270784,224.4026200755436,-53.291072548107216,88.71517451977685,232.6280044890597,-325.8312403128557,0
795.0,13.250265,-120.09046508318464,158.07787194388283,-33.56808318780094,90.60693078835472,122.10343841123016,-278.48581025812007,0
796.0,13.266932,-135.68083863199763,86.73510743780744,-19.271823246859643,93.75257280186644,11.775755789846745,-230.1929796945326,0
797.0,13.283599,-142.98681193996327,11.89725692236216,-9.465542717889871,97.81317971391184,-92.60954560882664,-183.13242911855724,0
798.0,13.300266,-144.43006451742724,-65.16576068234114,-4.681212843195089,101.36580344673789,-188.70485204462568,-139.93921395233014,0
799.0,13.316933,-144.47744090069608,-140.00156402548797,-5.8586462660105365,101.38517992795242,-275.6551770271506,-103.9801254406687,0
800.0,13.3336,-146.0462423665113,-205.8735305425231,-11.831393514305706,95.1306736034229,-353.2962132229908,-77.05640122963493,0
801.0,13.350267,-148.74170879233827,-258.5390313940502,-18.665412306822823,82.94210490560633,-422.657522996911,-56.85259898088962,0
802.0,13.366934,-149.68736689182762,-299.2826248249216,-21.91067065976713,68.29097573524916,-484.8167789013635,-38.37146615362147,0
803.0,13.383601,-145.9017280923598,-332.75496408533763,-19.5878251172467,54.3268947779341,-537.8660167451828,-18.790445662544077,0
804.0,13.400268,-136.50319707275355,-362.2296871504466,-13.319287451317509,40.488565939096986,-575.8894915372197,-0.1843952103251593,0
805.0,13.416935,-123.22987775938398,-386.88064945798817,-7.259559893816184,23.17112036599556,-592.0290634144403,13.200269636684006,0
806.0,13.433602,-108.91876837401908,-402.47709345009525,-5.971770143491618,-0.2059999690453264,-582.2597702173916,19.8379812204692,0
807.0,13.450269,-94.95594617134309,-403.4578027950717,-12.130719873907356,-28.72868447411208,-545.5039604952789,22.1852443566827,0
808.0,13.466936,-79.93380871239309,-384.5344745327589,-25.317071882962964,-59.65453670008007,-480.9847229555529,22.825188555419444,0
809.0,13.483603,-61.22044938106576,-342.0352324887149,-43.30484428966723,-90.63509029207194,-387.54350559068575,20.069002052184352,0
810.0,13.50027,-37.72857357191369,-275.14249114519987,-64.43612051095106,-118.90261160645734,-266.0381607973639,8.54479071608596,0
811.0,13.516937,-10.580954596892727,-186.04148169624057,-87.83542890479268,-139.85684936958194,-121.3381415714863,-15.327503861844445,0
812.0,13.533604,18.33746760941236,-79.23828726173701,-111.69764040995572,-149.15913188965416,37.563276764423634,-48.79699445224204,0
813.0,13.550271,47.524558986774935,38.510440842793614,-133.0197335016689,-147.0608928870808,197.9852432927881,-83.7930690728302,0
814.0,13.566938,75.78419837571543,158.21813564375915,-148.96689711778689,-139.81243708630964,345.4202104310637,-111.826574108242,0
815.0,13.583605,101.3458498132164,270.1000168617132,-156.75304077445452,-135.4193541110175,467.7004187028666,-127.48809231356742,0
816.0,13.600272,120.9011008618349,365.1534618156672,-152.33683102127296,-136.40083238804607,557.7845841518438,-127.9751840125512,0
817.0,13.616939,130.0252420345044,435.0427766187714,-131.73051479917854,-136.1687415573901,612.0082802858267,-111.46970243137932,0
818.0,13.633606,125.6113240207822,471.9808064487014,-94.80811360334889,-124.06915105688996,626.9913989916517,-78.37211630796313,0
819.0,13.650273,108.44505124825452,471.1676744554937,-46.81797731027453,-95.57448513966511,600.2670762549255,-34.02915895235694,0
820.0,13.66694,83.43255945570462,434.2746482488683,4.341085531726639,-57.24682877021544,534.5669182589666,12.735941480169313,0
821.0,13.683607,57.0633151203209,370.1653082207972,51.73551783576698,-21.432846571694995,440.8001608944018,55.975028029485486,0
822.0,13.700274,34.104262044164834,291.7862745533253,91.01751688086448,2.819518915598996,335.44571385007254,96.80556404741974,0
823.0,13.716941,16.03241017388049,211.12980644238797,120.48615001240825,13.702062960138663,233.3576931598789,140.7065487649303,0
824.0,13.733608,1.9721994101382936,134.75008504212607,140.3784710954461,14.240391160743012,141.5856639714333,192.3143198700856,0
825.0,13.750275,-9.041790911839373,62.740809293881725,151.5359929131293,8.270481154740473,58.87711963273641,253.64688933233776,0
826.0,13.766942,-16.307274296961772,-7.296092956088046,154.65519202693778,-1.7967449557306705,-19.848344386199717,324.04777435046395,0
827.0,13.783609,-17.828561161469402,-75.01997948459322,151.13220805705265,-15.400787816319497,-98.42763536675344,397.3399193652752,0
828.0,13.800276,-12.737589201936531,-137.01388712410574,143.86730823501938,-32.94041302267748,-177.04918983659502,459.669331158694,0
829.0,13.816943,-2.9278503148205184,-191.24211841836916,135.81703235632165,-53.75303090536074,-252.8436985097386,495.3864969628892,0
830.0,13.83361,8.556792427421184,-239.21600785171975,127.5225260303537,-74.83602336861873,-322.0269336305006,497.7211966129025,0
831.0,13.850277,20.433372634029094,-282.1072279310188,117.09510940798882,-92.36557860335334,-381.7648766402749,472.4367729329179,0
832.0,13.866944,33.31279114971877,-316.2571559555256,103.06761887630276,-104.36621574867075,-430.6800283576728,431.097703033694,0
833.0,13.883611000000002,47.09864942182951,-334.8863914422933,86.60680722046392,-111.07104167498495,-468.2497997786967,382.4391604626932,0
834.0,13.900278000000002,59.8217916281522,-334.6177736950394,70.94238164012825,-113.00898064081292,-493.86078709292326,329.50941057093473,0
835.0,13.916945000000002,69.58194348514517,-319.03530652836974,59.60114277149211,-109.61642248453174,-506.01416014519816,272.6383343775892,0
836.0,13.933612000000002,76.50036820079742,-294.77468966853905,55.204445125438994,-99.57956561940092,-502.1596646505753,213.97420336886356,0
837.0,13.950279000000002,81.94155868196101,-264.85642926598445,58.78963611694189,-82.13027959109114,-479.3107833449234,159.08814424734592,0
838.0,13.966946000000002,86.34539061190733,-227.7283059689236,69.52145084992588,-58.14605256844932,-434.7777834792563,114.0924222990931,0
839.0,13.983613000000002,88.61190407965442,-182.5126729136303,85.10126941894993,-29.931783273341477,-366.3755758987078,81.21703311008363,0
840.0,14.000280000000002,87.59211370670164,-131.7803034915277,102.69676707868354,0.3197563595038074,-272.196184203528,57.14289327729492,0
841.0,14.016947000000002,83.73714917956224,-77.46681311057556,119.56619176145388,31.63736290830832,-150.54446032328894,35.24779436415464,0
842.0,14.033614000000002,79.15733814261105,-16.941983857496936,132.51386657592428,63.902329112176375,-1.1991254579371162,9.44464252672486,0
843.0,14.050281000000002,75.98607676105982,54.15308854904477,136.67660106452337,97.08018634767257,171.34084184820867,-23.45671375001459,0
844.0,14.066948000000002,74.5082489713257,136.292060291559,125.76528587660296,130.8181349366053,354.68588968750726,-64.13686976320685,0
845.0,14.083615000000002,73.3192249345577,224.36139606278465,94.94945901291707,164.01509123202376,528.9241468263656,-112.40879833509524,0
846.0,14.100282000000002,71.70736726634416,309.6547819331346,44.364634168661205,194.8834790624938,671.2512560178141,-167.70738781374314,0
847.0,14.116949000000002,70.7758538762604,382.2981898589775,-20.173005645472426,221.95206114990955,762.5835271736121,-227.9004313653886,0
848.0,14.133616000000002,70.89559466932278,433.7861888708437,-89.87893321015713,244.1107884559392,793.8402866294518,-287.7707169340863,0
849.0,14.150283000000002,68.79465977850407,460.01060225219135,-156.0064806024163,258.520865155397,769.7173908275036,-338.6904488386454,0
850.0,14.166950000000002,59.09431447293935,462.6856601305117,-210.3865560029228,259.43387765582605,706.7626789189014,-370.65436188084345,0
851.0,14.183617000000002,39.22719074623219,447.0017449097172,-245.4671389798592,241.2337051139097,624.5495222149284,-376.817454279313,0
852.0,14.200284000000002,11.798474286428144,416.9139208377686,-257.4068364707521,203.7214048877862,534.9113614679862,-357.9871143981632,0
853.0,14.216951000000002,-18.01894103748884,372.2367012269613,-249.8192742446962,154.23448269700026,437.6406449531236,-322.9873947848594,0
854.0,14.233618000000002,-45.83026927993941,309.8189554935404,-231.99830894055697,104.07627631150169,325.7815168293272,-284.01648740919256,0
855.0,14.250285000000002,-68.39088508821743,226.79006814939487,-212.3033166018948,62.22381792353336,194.71826642545935,-250.8305881250913,0
856.0,14.266952000000002,-82.98180111726373,123.02080759140136,-194.09122028970984,31.67332483055779,47.13025220353947,-227.69661440620015,0
857.0,14.283619000000002,-88.41598914878782,2.414035105535933,-177.2419489775654,10.91548744289084,-108.19607385691327,-213.5636350306272,0
858.0,14.300286000000002,-86.37633655561052,-126.79160608630488,-161.43257038141792,-2.215348141453113,-260.28679938255004,-204.12681977120943,0
859.0,14.316953000000002,-80.8765878118502,-253.7254671072351,-147.42978788532733,-8.648501676107713,-399.498924462366,-194.68702248329464,0
860.0,14.333620000000002,-75.79327930216924,-368.4503967096026,-136.03980543257342,-8.591617102236832,-520.0102644107185,-182.54689876506276,0
861.0,14.350287000000002,-72.24442582609933,-464.9075321410557,-126.41684395357991,-1.8005313848068765,-621.0402177024873,-167.8117124981868,0
862.0,14.366954000000002,-68.2363962888011,-541.4678387959602,-116.2427116597102,12.939490239039218,-705.8952716555814,-152.58919133748026,0
863.0,14.383621000000002,-60.93846605454797,-599.8000596638188,-104.20227287292904,37.10082759537524,-778.8324542812784,-139.23465544317364,0
864.0,14.400288000000002,-48.7120821760145,-642.9317448603014,-91.451265654791,70.19020161501574,-841.5279658622585,-128.2359655647378,0
865.0,14.416955000000002,-30.980424967481767,-672.2130989969844,-79.83629290107908,108.55371685939524,-891.5272383762338,-116.76558329188276,0
866.0,14.433622000000002,-7.780949620508095,-683.9096163803086,-69.51772359122442,146.85208289483464,-923.3856076752032,-99.25557467285054,0
867.0,14.450289,19.411960125291664,-668.3037903374594,-58.86239581508933,180.23062431074655,-930.4194270781684,-70.29348082517777,0
868.0,14.466956,47.42638789547817,-613.5719159436682,-45.02692698469688,204.31725900665737,-904.6200421875284,-28.589886391528022,0
869.0,14.483623,73.27261396899783,-512.5536676291294,-22.871279285914824,213.95657423501933,-834.6258148381277,19.450962794559928,0
870.0,14.50029,96.20268050299109,-366.5550716259913,16.281857649792016,203.7447607517801,-702.1423817922397,57.20384087931021,1
871.0,14.516957,117.54528480106586,-182.04927626270552,82.68766579964274,169.3591985933689,-477.1032992522556,57.28048748376734,1
872.0,14.533624,138.80175858212505,35.24890075481048,182.264423382455,106.63902527271703,-118.42756359959913,-14.21687892427817,1
873.0,14.550291,159.36292579612552,278.79113215568026,309.50984940284457,12.78794883734736,406.2768983618515,-186.08387650654757,1
874.0,14.566958,174.09745220552796,530.7542521953803,443.7912732760636,-101.90296943450043,1081.7176407387606,-466.8158730061613,1
875.0,14.583625,172.69838055694487,756.0832742304374,552.7931997828188,-197.33694483247092,1814.507982646397,-837.8926006648442,1
876.0,14.600292,143.92472495963344,913.132331573862,602.6787885626629,-204.20711810297524,2448.1287589250637,-1265.0863315224406,1
877.0,14.616959,82.28400634637806,975.129920132592,569.0864764796181,-55.36843957408409,2829.85826230374,-1718.4446974659645,1
878.0,14.633626,-9.785602553219285,944.588279041239,443.37337729104087,269.26666822694256,2888.7902352942574,-2175.300805948292,1
879.0,14.650293,-124.5434489719882,848.7624438990941,235.37955402761412,716.5862035746989,2662.172953412138,-2594.668588952124,1
880.0,14.66696,-249.92036245021637,718.3279974590811,-24.056835495657037,1166.7511917076692,2241.050000551833,-2887.228435895967,1
881.0,14.683627,-368.1278373407411,562.5441901938746,-285.2223651202818,1462.9202882207442,1679.291630865563,-2914.5389975978837,1
882.0,14.700294,-457.7365258722009,360.6075814289409,-492.64604319072106,1457.050025586323,954.7230495443346,-2519.868743603412,1
883.0,14.716961,-499.01236065569526,85.01789163321043,-604.2612719699305,1074.87140848103,32.5665232311849,-1580.3970659300016,1
884.0,14.733628,-476.0299188564511,-251.8150999224173,-604.5867033686184,382.8429959932524,-1016.3435785361542,-97.0937946606944,1
885.0,14.750295,-376.4081137164279,-571.1967415806264,-507.2043653965538,-399.97860580191593,-1965.648335153095,1692.3358723266297,1
886.0,14.766962,-197.36273785035817,-766.1037588552006,-348.70357734662764,-995.8813218056208,-2543.332598804123,3305.6509246864875,1
887.0,14.783629,41.62707156460263,-784.8875769758097,-175.74706932617252,-1232.74437919883,-2635.317520141608,4238.520140875697,1
888.0,14.800296,293.62952183947806,-674.6902655794327,-30.29620010774506,-1153.3746401147998,-2378.16435476107,4298.900685556141,1
889.0,14.816963,498.6548742476427,-531.1443426001867,57.85684177551804,-969.9344303834368,-2029.845239758716,3735.4615615261055,1
890.0,14.83363,610.3624449450456,-414.959611385243,71.47113059656294,-899.7888440909046,-1765.5552201908458,3017.877856274581,1
891.0,14.850297,614.4000079149043,-330.72932882634,9.656595840489004,-1023.4499467881192,-1612.4428104485237,2487.4986038109782,1
892.0,14.866964,526.898866756039,-265.81391439712667,-104.28569001695882,-1266.9249781109374,-1523.2566318808188,2187.6178342655085,1
893.0,14.883631,380.5568853492446,-214.67942000285868,-225.28095330581857,-1484.9122115683508,-1439.0419392660897,1952.3653100586116,1
894.0,14.900298,211.52802861200053,-166.57379912468764,-306.52816167878336,-1553.770895213348,-1292.728243282043,1607.3895516809248,1
895.0,14.916965,51.71685412122038,-99.90277036873688,-324.2431538459013,-1420.576035179734,-1022.9186414089892,1107.8605198524729,1
896.0,14.933632,-75.99767936277652,-3.296284502250252,-287.64946919739583,-1109.7885493396348,-619.8219312035214,540.8102537349876,1
897.0,14.950299,-160.768563099777,106.7584172238804,-227.4373276397041,-700.0540423473033,-145.95649791069977,31.0649062448402,1
898.0,14.966966,-203.37323632415772,197.6778088064794,-172.9449234473122,-282.083298565909,301.7837176347273,-352.32038700872334,1
899.0,14.983633,-212.30746282025257,248.9181488605002,-135.8777244545413,78.97395274077759,652.9678079003921,-617.9747106717383,1
900.0,15.0003,-199.54920448279023,265.5933640144174,-111.0747759224622,353.968980028446,892.7166249385461,-809.6522472438205,1
901.0,15.016967,-178.21143139153347,266.6116731202586,-88.49999868492847,537.0647846829064,1043.4887426291846,-956.550885344828,1
902.0,15.033634,-160.4406469986673,265.93666520929537,-61.80212880652768,632.2732642238122,1130.5096414659738,-1057.0794300052632,1
903.0,15.050301,-154.0670049922811,267.60130029629534,-27.31745711593593,649.950088603314,1166.4329808294356,-1093.4430337194103,1
904.0,15.066968,-160.14098254293737,272.35809860116285,19.3793248011635,606.0903311298922,1158.0507225855447,-1054.4459027225494,1
