Timestamp,Rotation X,Rotation Y,Rotation Z,Rotation W,Acceleration X,Acceleration Y,Acceleration Z
2026-01-14 16:52:35.091,-23304660,65453990,-15114060,-13535320,8377075,-11833190,-6008911
2026-01-14 16:52:35.101,-67266640,65453980,-15114060,30443920,31555180,25787350,-625
2026-01-14 16:52:35.111,-50704180,65445350,-15122690,47023640,27664180,-15808110,-57861330
2026-01-14 16:52:35.121,-23281350,42799300,-37768750,-13506840,-87509150,-5092621,-844574
2026-01-14 16:52:35.131,-23272720,42799300,-37768750,-13498210,-54969790,-11100770,17654420
2026-01-14 16:52:35.141,-6725802,65428090,-15139960,3050437,-44799800,77705380,32806400
2026-01-14 16:52:35.151,-6725800,29164700,21106170,3050435,-64453120,11932370,4837036
2026-01-14 16:52:35.161,-23256320,29164700,21106170,-13480080,-28701780,34454340,40924070
2026-01-14 16:52:35.171,-23247690,29156930,21096680,-13471450,-5886841,24383540,28549190
2026-01-14 16:52:35.181,-23247690,29156930,21096680,-13471450,-33325200,3753662,4425049
2026-01-14 16:52:35.191,-67240740,6541945,-1518309,30538860,-38024900,3579712,34210200
2026-01-14 16:52:35.201,-50724040,65419460,-15200380,47055580,-59143060,24093630,2217102
2026-01-14 16:52:35.211,-50724040,65419460,-15200380,47055580,-5581665,14976500,36712650
2026-01-14 16:52:35.221,-67223480,29132760,21069060,30556130,-3024292,2470398,26062010
2026-01-14 16:52:35.231,-23214890,6541083,-1522626,-13435200,-11932370,19607540,3729248
2026-01-14 16:52:35.241,-6721484,29116360,21050930,3058204,-2960205,32470700,3527832
2026-01-14 16:52:35.251,-6721484,29107730,21042290,3058204,-23788450,3237915,57617190
2026-01-14 16:52:35.261,-23197620,6540221,-1526943,-13417940,-946,0449,28533940,6738281
2026-01-14 16:52:35.271,-23189860,65402200,-15286700,-13408440,176,5788,-11245730,703125
2026-01-14 16:52:35.281,-23189860,65393570,-15295330,-13408440,-1083374,-12260440,8111572
2026-01-14 16:52:35.291,-23189860,6538494,-1532121,-13408440,-16956330,-27069090,8984375
2026-01-14 16:52:35.301,-23189860,29058530,20987920,-13408440,-11070250,-29586790,6365967
2026-01-14 16:52:35.311,-49098600,29050760,20978420,48732800,314,1165,-38391110,55145260
2026-01-14 16:52:35.321,-49098600,6536765,-1535573,48732800,5695343,-25665280,43914800
2026-01-14 16:52:35.331,-67197580,65367660,-15373010,30633820,-14846800,-385437,4034424
2026-01-14 16:52:35.341,-67206220,65359040,-15381640,30642450,-13175960,-15991210,33843990
2026-01-14 16:52:35.351,-67197580,29026590,20950800,30651080,-3698349,-2810669,17532350
2026-01-14 16:52:35.361,-23157920,29017960,20942170,-13371320,-37261960,-124054000,22678380
2026-01-14 16:52:35.371,-6718895,6535040,-1540754,3067697,-23620600,13017650,28915400
2026-01-14 16:52:35.381,-23140660,25366680,24558930,-13354060,-18081660,-64086910,29571530
2026-01-14 16:52:35.391,-23132890,25366680,24558930,-13344570,-19622800,37498470,4043579
2026-01-14 16:52:35.401,-6717170,65350410,-15442060,3071153,-56030270,67825320,3326416
2026-01-14 16:52:35.411,-23115630,42899420,-37910310,-13327300,-6298828,14144900,26901240
2026-01-14 16:52:35.421,-23106990,6535905,-1546795,-13318670,-10089110,14060970,32714840
2026-01-14 16:52:35.431,-6714579,28979120,20894690,3073741,-9832764,15716550,4269409
2026-01-14 16:52:35.441,-23088870,65367670,-15493860,-13302270,-8453369,18981930,27328490
2026-01-14 16:52:35.451,-23080230,28980850,20892970,-13293640,-105041500,-5279541,3125
2026-01-14 16:52:35.461,-23071600,28972210,20884330,-13285010,-6585693,-2357483,29953000
2026-01-14 16:52:35.471,-5074992,28973080,20883470,4711601,-8496094,-21057130,47424320
2026-01-14 16:52:35.481,-49106030,65384930,-15528380,48742640,-7647705,-23269650,6604004
2026-01-14 16:52:35.491,-67085380,28974800,20881750,30763290,-7946777,-4663086,5291748
2026-01-14 16:52:35.501,-67085380,28974800,20881750,30763290,-6976318,-29174800,368042
2026-01-14 16:52:35.511,-67076740,28974800,20881750,30754660,-76049810,-27511600,4788208
2026-01-14 16:52:35.521,-67076740,28984300,20889520,30754660,-66589360,-35064700,32073980
2026-01-14 16:52:35.531,-23051750,28984300,20889510,-13270340,-5340576,-4031372,3475952
2026-01-14 16:52:35.541,-23051750,28984300,20889510,-13270340,-3189087,-2545166,3237915
2026-01-14 16:52:35.551,-23051750,6541947,-1552837,-13270340,-36712650,30960080,23040770
2026-01-14 16:52:35.561,-23050890,29001560,20906780,-13271200,-12760160,3048706,15296940
2026-01-14 16:52:35.571,-23050890,29010200,20915410,-13271200,-33172610,14060970,14457700
2026-01-14 16:52:35.581,-23050890,29010200,20915410,-13271200,-57800290,604,6295,-42266850
2026-01-14 16:52:35.591,-67050850,6544534,-1550246,30728760,-9112549,-2557373,24795530
2026-01-14 16:52:35.601,-49071500,6544533,-1550247,48708110,-8001709,-33233640,5130005
2026-01-14 16:52:35.611,-5069813,29027460,20932670,4706422,-66711420,79193110,70129390
2026-01-14 16:52:35.621,-23066420,29027460,20932670,-13290190,-40740970,50323490,4257202
2026-01-14 16:52:35.631,-23065560,29036090,20941310,-13291050,-395813,58441160,3277588
2026-01-14 16:52:35.641,-23074190,6547989,-1546795,-13299680,-3942871,22613520,46417240
2026-01-14 16:52:35.651,-67059480,29061120,20968070,30668340,-569458,10986330,4031372
2026-01-14 16:52:35.661,-50675700,29069750,20976700,47034860,-34210200,2090454,-1713562
2026-01-14 16:52:35.671,-50675700,65497150,-15416170,47034860,-4559326,-14030460,-4727173
2026-01-14 16:52:35.681,-67068110,29093920,21004320,30642450,-2583313,-19699100,-5810547
2026-01-14 16:52:35.691,-23097500,29102550,21012950,-13328170,-3564453,-2406311,-6048584
2026-01-14 16:52:35.701,-23106130,6550578,-1537300,-13336800,-10810850,-2079773,-38909910
2026-01-14 16:52:35.711,-23106130,6550578,-1537300,-13336800,-4144287,-30136110,15075680
2026-01-14 16:52:35.721,-6707673,29118950,21031070,3061656,-2696228,8293152,4016876
2026-01-14 16:52:35.731,-6707675,65505780,-15355750,3061658,-25161740,6587982,368042
2026-01-14 16:52:35.761,-6709400,6551441,-1532985,3058202,-3578186,47569280,3125
2026-01-14 16:52:35.771,-67094010,6551440,-1532983,30564760,-34210200,43525700,55755620
2026-01-14 16:52:35.841,-23203670,29177650,21093220,-13446420,903,1296,-20889280,3945923
2026-01-14 16:52:35.851,-6712852,29185420,21102720,3044393,20980840,-30441280,463562
2026-01-14 16:52:35.861,-67128530,6556619,-1526077,30426650,42877200,-6088257,40008540
2026-01-14 16:52:35.871,-67145790,6556619,-1526077,30409390,67871100,-41656500,36743160
2026-01-14 16:52:35.901,-6716307,65566200,-15226270,3035763,8856201,-71907040,23208620
2026-01-14 16:52:35.911,-23296030,65566200,-15226270,-13543960,6726074,-33855440,22384640
2026-01-14 16:52:35.941,-23329690,65566200,-15226270,-13579350,37139890,42999270,13160710
2026-01-14 16:52:35.951,-6721485,65566200,-15226270,3028857,287323,6036377,-59509280
2026-01-14 16:52:35.961,-50589380,65566200,-15226270,46896750,2859497,6591797,-2180481
2026-01-14 16:52:35.971,-67214850,25573840,24766090,30271280,38024900,91796870,-33966060
2026-01-14 16:52:35.981,-67214850,65566200,-15226270,30271280,40893560,7824707,-3164673
2026-01-14 16:52:35.991,-67223480,65566200,-15226270,30262650,43792720,72021490,-3277588
2026-01-14 16:52:36.001,-67223480,65557560,-15234900,30262650,51330570,10046390,-4296875
2026-01-14 16:52:36.011,-67223480,65557560,-15234900,30262650,6137085,97351070,-33233640
2026-01-14 16:52:36.021,-67223480,42911500,-37880960,30262650,5960083,6903076,-51574710
2026-01-14 16:52:36.031,-67214850,42911500,-37880960,30271280,5239868,59906010,-50323490
2026-01-14 16:52:36.041,-23346950,65540300,-15252170,-13596610,54382320,42419430,-3665161
2026-01-14 16:52:36.051,-23347820,65531670,-15260800,-13595750,3894043,52825930,-27511600
2026-01-14 16:52:36.061,-6722349,65523040,-15269430,3029721,51635740,3366089,-12451170
2026-01-14 16:52:36.071,-50615280,42908050,-37884420,46922640,45013430,82092290,-10032650
2026-01-14 16:52:36.081,-67232110,25513420,24705670,30323070,32806400,-5332947,-22903440
2026-01-14 16:52:36.091,-23333140,25513420,24705670,-13575900,55114740,258255,-34332280
2026-01-14 16:52:36.101,-23325370,25504790,24697030,-13566400,2784729,-38208010,-19378660
2026-01-14 16:52:36.111,-50647210,6547123,-1528667,46959760,43396000,-2720642,-27862550
2026-01-14 16:52:36.121,-23309840,29121540,21045750,-13547410,60638430,-3778076,10353090
2026-01-14 16:52:36.131,-67249380,42876980,-37863700,30409390,35369870,-1423645,3881836
2026-01-14 16:52:36.141,-23295160,65428090,-15312590,-13527560,5987549,12229920,4559326
2026-01-14 16:52:36.151,-67266640,65410830,-15329850,30443920,38146970,29220580,24551390
2026-01-14 16:52:36.161,-50704180,65393560,-15347110,47023640,19897460,32234190,5218506
2026-01-14 16:52:36.171,-23281350,42870940,-37869740,-13506840,-8155823,-7385254,6982422
2026-01-14 16:52:36.181,-23282210,29026600,20950800,-13505980,-48980710,-25436400,79833980
2026-01-14 16:52:36.191,-67275270,29000700,20924910,30504340,-67993170,-5897522,101867700
2026-01-14 16:52:36.201,-50727490,25358050,24550300,47052120,-6427002,21621700,6500244
2026-01-14 16:52:36.211,-6727526,25340780,24533030,3052161,-47302250,44403080,7537842
2026-01-14 16:52:36.221,-23258910,40645430,-40147040,-13477490,-47821040,6628418,57525640
2026-01-14 16:52:36.231,-23258910,65307250,-15485220,-13477490,18320080,60668940,5517578
2026-01-14 16:52:36.241,-67283900,65298620,-15493850,30547500,-14213560,6616211,27114870
2026-01-14 16:52:36.251,-67283900,42884750,-37907720,30564760,132370000,541687,7904053
2026-01-14 16:52:36.261,-23244240,65272720,-15519750,-13457640,-14015200,390625,-5380249
2026-01-14 16:52:36.271,-23245100,65264090,-15528380,-13456780,21911620,6149292,-50750730
2026-01-14 16:52:36.281,-50784460,65246820,-15545640,47116000,20050050,16082760,-6719971
2026-01-14 16:52:36.291,-23220930,65238200,-15554280,-13429160,18539430,12031560,-83984380
2026-01-14 16:52:36.301,-50807760,65220930,-15571540,47144480,17059330,13504030,-3753662
2026-01-14 16:52:36.311,-18797630,65203670,-15588800,-17817930,21377560,79574580,-25283810
2026-01-14 16:52:36.321,-67301160,40644220,-40148240,30702860,-73051460,44799800,-20370480
2026-01-14 16:52:36.331,-67292530,25185410,24377660,30728760,-34828180,46051020,-24658200
2026-01-14 16:52:36.341,-23175180,2881167,2073416,-13371330,22216800,56915280,4611969
2026-01-14 16:52:36.351,-67301170,25159520,24351770,30771920,17349240,7196045,-5302429
2026-01-14 16:52:36.361,-6730117,2878577,2070826,3078919,15220640,61401370,26569370
2026-01-14 16:52:36.371,-67301170,28776280,20700480,30823710,42381290,37506100,-29327390
2026-01-14 16:52:36.381,-6730115,28759010,20683220,3084098,95,7489,390625,-27694700
2026-01-14 16:52:36.391,-67301170,6509144,-1566646,30875500,4085541,4663086,10391240
2026-01-14 16:52:36.401,-50917380,28733120,20657320,47276540,8682251,25314330,-16355520
2026-01-14 16:52:36.411,-23098360,42839000,-37901680,-13275510,33397680,3527832,-4535675
2026-01-14 16:52:36.421,-49304560,28707220,20631430,48941160,-12557980,55633540,26489260
2026-01-14 16:52:36.431,-23074190,28698590,20622800,-13247890,-38719180,4284668,4611206
2026-01-14 16:52:36.441,-23066420,28681330,20605530,-13238400,12016300,62347410,42877200
2026-01-14 16:52:36.451,-23050890,6500515,-1575280,-13219410,25482180,48187260,57678220
2026-01-14 16:52:36.461,-23043120,25012780,24205030,-13209910,-11528020,345459,51849360
2026-01-14 16:52:36.471,-6728390,24995520,24187760,3104815,-31799320,4751587,54718020
2026-01-14 16:52:36.481,-23018090,64979240,-15813230,-13183150,-48187260,390625,3277588
2026-01-14 16:52:36.491,-67275270,64979240,-15830490,31091290,-6451416,36499020,29266360
2026-01-14 16:52:36.501,-50991620,64961980,-15847750,47374940,-55541990,13885500,3778076
2026-01-14 16:52:36.511,-22985280,28589830,20507130,-13146900,-60913090,15434270,14854430
2026-01-14 16:52:36.521,-6724938,6496198,-1588228,3113445,-52459720,29220580,15220640
2026-01-14 16:52:36.531,-22968020,64961980,-15899540,-13129640,-6506348,19348140,48675540
2026-01-14 16:52:36.541,-22960250,6495336,-1592543,-13120150,-46203610,15007020,31829830
2026-01-14 16:52:36.551,-22951620,28549260,20461380,-13111510,-28518680,7575989,23834230
2026-01-14 16:52:36.561,-67223480,28541490,20451890,31194870,-19821170,-32463070,6023407
2026-01-14 16:52:36.571,-22927450,6492746,-1596859,-13083890,2117157,762558,-24780270
2026-01-14 16:52:36.581,-18480670,64927460,-15985860,-17496140,1020813,16479490,-27786260
2026-01-14 16:52:36.591,-67214850,64918820,-15994490,31255290,9613037,28213500,-20812990
2026-01-14 16:52:36.601,-67206220,64901560,-16011760,31281190,22567750,21575930,-27160640
2026-01-14 16:52:36.611,-67188950,28482800,20389740,31298450,-32318120,36224360,-1638794
2026-01-14 16:52:36.621,-22853220,28475030,20380240,-13002750,-17868040,670166,-25634770
2026-01-14 16:52:36.631,-6717170,6489293,-1605492,3135025,-149002100,57556150,-4373169
2026-01-14 16:52:36.641,-67163060,64892930,-16072170,31376140,-19378660,78308100,-546875
2026-01-14 16:52:36.651,-67145800,64884290,-16080810,31393410,-30319210,6427002,-8033752
2026-01-14 16:52:36.661,-22786760,64892930,-16089440,-12931110,-46875,8618164,-34484860
2026-01-14 16:52:36.671,-22769500,6489293,-1610669,-12913850,-50354000,54138180,-46813960
2026-01-14 16:52:36.681,-6710264,2844396,2034227,3145383,-50842280,6210327,-20111080
2026-01-14 16:52:36.691,-22735830,64901560,-16132600,-12878450,-24230960,5029297,-12413030
2026-01-14 16:52:36.701,-22709940,28428420,20323280,-12852560,-9422302,3152466,-19165040
2026-01-14 16:52:36.711,-51071890,28412020,20305150,47519100,-30883790,47454830,46569820
2026-01-14 16:52:36.721,-67042220,64892920,-16193020,31548770,-26138310,57128900,111816400
2026-01-14 16:52:36.731,-51069300,6489291,-1622753,47521680,-23330690,57373050,7965088
2026-01-14 16:52:36.741,-67016320,64892930,-16244810,31574670,-3540039,1033783,10534670
2026-01-14 16:52:36.751,-67007690,64892930,-16262070,31583300,-3286743,-37353520,103271500
2026-01-14 16:52:36.761,-66990420,28357640,20238690,31600560,-48309330,-5923462,10217290
2026-01-14 16:52:36.771,-66981790,64892920,-16313860,31609190,-25894160,-8288574,10687260
2026-01-14 16:52:36.781,-66981790,6489291,-1633110,31609190,-6313324,-41931150,11022950
2026-01-14 16:52:36.791,-4930429,28333470,20211070,4930396,473938,-15083310,6573486
2026-01-14 16:52:36.801,-22599450,28333470,20211070,-12738620,6903076,-491,1423,58776860
2026-01-14 16:52:36.811,-22591680,28325700,20201570,-12729130,5734253,23071290,8514404
2026-01-14 16:52:36.821,-22583050,28317070,20192940,-12720500,59509280,-3857,613,55511480
2026-01-14 16:52:36.831,-22583050,28317070,20192940,-12720500,42541500,26046750,4525757
2026-01-14 16:52:36.841,-66964530,6486702,-1637426,31678250,31311040,10902410,3125
2026-01-14 16:52:36.851,-66964530,64867030,-16391550,31695510,149002100,-12008670,14724730
2026-01-14 16:52:36.861,-66955900,64858400,-16400180,31704140,11962890,-5496216,14793400
2026-01-14 16:52:36.871,-22551110,43051340,-38207240,-12683380,-16357420,-4473877,2897644
2026-01-14 16:52:36.881,-22542480,64849770,-16426080,-12674750,-3479004,-38848880,56854250
2026-01-14 16:52:36.891,-22533850,64841140,-16434710,-12666120,-20553590,-15296940,5343628
2026-01-14 16:52:36.901,-2252608,6484114,-1645197,-1265662,-28335570,56266780,38879400
2026-01-14 16:52:36.911,-18076190,6484115,-1645196,-17089250,-34210200,16937260,-40779110
2026-01-14 16:52:36.921,-18058930,6484978,-1646060,-17071990,-41778560,6335449,-35064700
2026-01-14 16:52:36.931,-66904110,28268730,20137700,31807720,-418396,19812010,-19335940
2026-01-14 16:52:36.941,-66878220,6486702,-1642605,31833620,-9106445,3828125,-49853520
2026-01-14 16:52:36.951,-66835060,6489291,-1640015,31876780,101867700,50097660,-75634770
2026-01-14 16:52:36.961,-66774630,28362820,20233510,31937200,18371580,70703130,-94921870
2026-01-14 16:52:36.971,-22286120,64987880,-16287970,-12413210,7336426,59375,-11113280
2026-01-14 16:52:36.981,-51109010,28471580,20349180,47654610,-101867700,46557620,-11582030
2026-01-14 16:52:36.991,-22134200,65065560,-16072180,-12254380,-5185547,58203120,-10058590
2026-01-14 16:52:37.001,-66541580,2867700,2057535,32273830,-68603520,73779300,-77197260
2026-01-14 16:52:37.011,-66463890,28866910,20782490,32351520,-7348633,11816410,-12705080
2026-01-14 16:52:37.021,-6635168,29106870,21043160,3244648,-6123047,171875,-23691410
2026-01-14 16:52:37.031,-6619633,42736280,-37659130,3258459,-7290039,2296875,-35234380
2026-01-14 16:52:37.041,-21529120,65790620,-14363110,-11651030,-97509770,24746090,-41757810
2026-01-14 16:52:37.051,-65704300,65997780,-13931520,33128370,-16025390,22734380,-41054690
2026-01-14 16:52:37.061,-51061540,66179040,-13508570,47874720,-19121090,20351560,-36367190
2026-01-14 16:52:37.071,-20490730,42391880,-37071310,-10583290,-21386720,16552730,-29394530
2026-01-14 16:52:37.081,-6478071,30813350,22892930,3448356,-23945310,14589840,-20488280
2026-01-14 16:52:37.091,-15291870,31049000,23157920,-14297510,-23085940,13408200,-14472660
2026-01-14 16:52:37.101,-64262820,66662420,-11920340,35329440,-19326170,11289060,-10410160
2026-01-14 16:52:37.111,-64047020,6674872,-1145421,35700600,-16455080,10546880,-7788086
2026-01-14 16:52:37.121,-6383987,66860950,-10910440,3604590,-14541020,11210940,-85302740
2026-01-14 16:52:37.131,-63624070,32234120,24510500,36365250,-12226560,12939450,-11621090
2026-01-14 16:52:37.141,-18366480,3266830,2500856,-8357187,-10126950,14169920,-12841800
2026-01-14 16:52:37.151,-13603780,67309790,-8545356,-12601980,-89160160,12148440,-10800780
2026-01-14 16:52:37.161,-62993960,6748241,-747500,3,37219780,-82910160,9819336,-56640620
2026-01-14 16:52:37.171,-62847220,6766368,-625794,1,37383780,-44335940,8051758,-8140564
2026-01-14 16:52:37.181,-62752270,35090350,27817300,37461470,-28930660,63134770,43237300
2026-01-14 16:52:37.191,-1762848,38916760,-32467180,-761053,1,-32863620,41186520,97509770
2026-01-14 16:52:37.201,-62717740,6800895,-189031,1,37444200,10424810,-2508545,12802730
2026-01-14 16:52:37.211,-17703560,68034860,-276211,8,-7690821,3005371,-18859860,15849610
2026-01-14 16:52:37.221,-62821330,6800895,137246,4,37288830,5336914,-37548830,18007810
2026-01-14 16:52:37.231,-6289900,38729460,32240170,3719390,5385742,-60253900,18769530
2026-01-14 16:52:37.241,-17951290,67810430,4730158,-7943727,5234375,-8261719,18232420
2026-01-14 16:52:37.251,-18064370,34301410,-26897160,-8055077,8330078,-13554690,17666020
2026-01-14 16:52:37.261,-6323564,67370220,8139670,3689180,8354492,-12167970,19140620
2026-01-14 16:52:37.271,-18281890,32469770,-24775490,-8269143,8569336,-12089840,18828120
2026-01-14 16:52:37.281,-18394960,66766000,11540550,-8380489,17431640,-15595700,19072270
2026-01-14 16:52:37.291,-63606810,30565620,-22605490,36555140,15654300,-21679690,25898440
2026-01-14 16:52:37.301,-63788070,29574710,-21490280,36373870,18740230,-23496090,28320310
2026-01-14 16:52:37.311,-18938760,65462620,16607340,-8924285,21464840,-23222660,23730470
2026-01-14 16:52:37.321,-19186490,6491883,1834232,-9177196,24433590,-19472660,18076170
2026-01-14 16:52:37.331,-64478610,26359410,-17921080,35562500,253125,-16171880,13486330
2026-01-14 16:52:37.341,-64746190,21410780,-20556420,35243130,26347660,-16679690,11503910
2026-01-14 16:52:37.351,-51466360,63028480,23357310,48453910,28398440,-19189450,12255860
2026-01-14 16:52:37.361,-20382840,23050890,-14324260,-10397710,29316410,-22910160,12294920
2026-01-14 16:52:37.371,-65617990,21958980,-13154670,34146900,30722660,-25507810,12207030
2026-01-14 16:52:37.381,-51458590,60792880,27923470,48237250,32734380,-25292970,14257810
2026-01-14 16:52:37.391,-21475600,5998151,2933907,-11514650,35078120,-28496090,19101560
2026-01-14 16:52:37.401,-21909780,1870916,-972357,2,-11960910,33886720,-26679690,2109375
2026-01-14 16:52:37.411,-22385380,58263800,32075300,-12452050,32597660,-20273440,18583980
2026-01-14 16:52:37.421,-51380040,57366100,33387320,47797900,28828120,-13759770,16259770
2026-01-14 16:52:37.431,-23368530,56477050,34621650,-13471450,24726560,-12441410,15605470
2026-01-14 16:52:37.441,-51274740,55579350,35795560,47488880,21386720,-1203125,13583980
2026-01-14 16:52:37.451,-68708130,13470590,-4310656,29831070,17958980,-98779300,10693360
2026-01-14 16:52:37.461,-24856630,12518520,-3346499,-15021700,16923830,-10107420,10224610
2026-01-14 16:52:37.471,-6951952,116156400,-24367220,2863995,16376950,-10097660,11123050
2026-01-14 16:52:37.481,-21447550,10742980,-1565784,-20467860,14443360,-73535150,11650390
2026-01-14 16:52:37.491,-26356820,9919521,-749227,8,-16577130,13974610,-6567383,13818360
2026-01-14 16:52:37.501,-26858320,50065440,-40912410,-17094170,14404300,-6044922,15732420
2026-01-14 16:52:37.511,-7126312,42630980,-33500390,2625758,14658200,-44726560,15869140
2026-01-14 16:52:37.521,-27908790,76649270,14328580,-18167080,14902340,-3071289,15185550
2026-01-14 16:52:37.531,-28440500,6997700,2060382,-18705700,15361330,-24215700,14697270
2026-01-14 16:52:37.541,-28975670,23234740,-14226730,-19240870,17597660,90270990,15029300
2026-01-14 16:52:37.551,-73326080,17767440,-8818116,24056480,19277340,34637450,15859380
2026-01-14 16:52:37.561,-3005202,45238600,43581320,-2030513,21445310,1574707,16044920
2026-01-14 16:52:37.571,-30603600,41518360,-32714040,-20841170,25097660,17602540,18603520
2026-01-14 16:52:37.581,-75207780,43569240,43576150,22623620,27246090,19091800,22558590
2026-01-14 16:52:37.591,-75915580,38928850,47215260,22157510,30214840,19726560,27675780
2026-01-14 16:52:37.601,-32417980,-71707630,80209840,-22583050,30527340,50439450,34335940
2026-01-14 16:52:37.611,-33090380,31263920,52497840,-23222660,34199220,6616211,41367190
2026-01-14 16:52:37.621,-33783510,-8916518,17151140,-23876070,40742190,66552740,51679690
2026-01-14 16:52:37.631,-52741260,-10811170,18881790,46833740,471875,75634770,6640625
2026-01-14 16:52:37.641,-30789440,-11940190,19824370,-29787650,56914060,49047850,83984380
2026-01-14 16:52:37.651,-36141680,2194173,5474209,-26058160,64453120,64501950,1053125
2026-01-14 16:52:37.661,-82777760,-12515070,19940040,18730730,64453120,73046870,1271875
2026-01-14 16:52:37.671,-84132930,20819600,50685200,17997050,45664060,12197270,1409375
2026-01-14 16:52:37.681,-39309510,-8656705,15511980,-29036090,11474610,17216800,139921900
2026-01-14 16:52:37.691,-40441980,25290810,40137290,-30113320,-31542970,16982420,126796900
2026-01-14 16:52:37.701,-41520080,31125130,31126510,-31141360,-67773440,11552730,95234380
2026-01-14 16:52:37.711,-55873690,37616830,21389290,48414200,-10765630,7734375,51523440
2026-01-14 16:52:37.721,-56246580,4730156,845906,6,48628260,-143203100,11386720,-25390620
2026-01-14 16:52:37.731,-9141806,2655448,2589157,1442353,-148359400,5961914,-120234400
2026-01-14 16:52:37.741,-43798840,72946290,-24073740,-33057590,-123828100,10615230,-209375
2026-01-14 16:52:37.751,-43348270,67321880,-62843760,-32386040,-8234375,40859380,-25859380
2026-01-14 16:52:37.761,-42462660,28355050,11851290,-31234580,-42109380,91796870,-270625
2026-01-14 16:52:37.771,-61097580,27750830,7742614,54014420,26835940,12171880,-27890620
2026-01-14 16:52:37.781,-92591970,26982610,3711624,25472080,10890630,138984400,-2621875
2026-01-14 16:52:37.791,-63630980,25938180,-146736,4,57350570,18375,16390630,-2109375
2026-01-14 16:52:37.801,-64859260,11820210,8982124,59091580,220625,18796880,-130390600
2026-01-14 16:52:37.811,-89346460,9536272,6553171,37504620,104609400,89140620,-220625
2026-01-14 16:52:37.821,-26475070,20836860,-10202640,-13334210,81328130,-16359380,4546875
2026-01-14 16:52:37.831,-20906780,19550740,-13474040,-7491430,-115625,-1081875,620
2026-01-14 16:52:37.841,-24513960,21743190,-12300140,-11324760,-940,-4878125,310
2026-01-14 16:52:37.851,-88276130,16900910,-16900730,38005260,3175,5175,-479375
2026-01-14 16:52:37.861,-35654860,28648530,-3823830,-23506640,684375,118203100,-79375
2026-01-14 16:52:37.871,-63103580,16538290,-13793410,56893960,3209375,146328100,-708125
2026-01-14 16:52:37.881,-9076205,15796830,12860330,2977065,-17765620,19015620,-20453120
2026-01-14 16:52:37.891,-35231900,16653950,13746810,-23083690,-87109380,1575,-953125
2026-01-14 16:52:37.901,-33414080,30331700,1173909,-21120840,51123050,11703130,-878125
2026-01-14 16:52:37.911,-8734392,30728760,1501912,3728022,-28261720,85703130,-5019531
2026-01-14 16:52:37.921,-85772940,31186240,1752234,40387600,-37578120,77226560,42695310
2026-01-14 16:52:37.931,-84063880,31738670,2062974,43425950,-23242190,6734375,76484380
2026-01-14 16:52:37.941,-24408650,32342880,2425501,-11550910,-18730470,39628900,11234380
2026-01-14 16:52:37.951,-80499000,33007520,2796667,48855280,-26933590,22692870,144375
2026-01-14 16:52:37.961,-20429450,19992680,16916360,-7450861,-31015620,-36367190,15765630
2026-01-14 16:52:37.971,-66174730,17669040,-13853840,63697440,-20644530,-64375,140625
2026-01-14 16:52:37.981,-75976000,35873240,3521726,53775330,-47973630,-8375,1115625
2026-01-14 16:52:37.991,-7484525,36891780,3711620,5466441,-116760300,-9453125,9359375
2026-01-14 16:52:38.001,-73930290,19094990,-14913800,55199560,13442990,-90390620,83046870
2026-01-14 16:52:38.011,-15278930,38963380,4091414,-2416004,15942380,-77421870,77382820
2026-01-14 16:52:38.021,-90906200,20111810,-15675120,-78101980,51953120,-65859380,7578125
2026-01-14 16:52:38.031,-144822200,4125941,445400,8,-17453250,11240230,-49375,75976560
2026-01-14 16:52:38.041,-14158540,21327140,-16617700,-1499321,11181640,-31269530,74179690
2026-01-14 16:52:38.051,-138572900,4384028,465253,3,-12826670,10380860,-19873050,74179690
2026-01-14 16:52:38.061,-79610790,26963630,22910190,-67127670,74658200,-12382810,69765620
2026-01-14 16:52:38.071,-76967780,27815570,23611950,-64591680,-43920900,-10039060,64296880
2026-01-14 16:52:38.081,-12973410,48337380,4712895,-716427,6,28222660,-31757810,5875
2026-01-14 16:52:38.091,-7330536,4995150,470426,3,-6117613,-2211914,-42265620,54609380
2026-01-14 16:52:38.101,-127645200,51539730,4704269,-7699451,-7631836,-4875,50898440
2026-01-14 16:52:38.111,-66248100,53093430,4721527,52299310,-10390630,-44023440,48320310
2026-01-14 16:52:38.121,-79222370,54603980,4816477,-67516100,-9160156,-32460940,4578125
2026-01-14 16:52:38.131,-13571580,33068810,27957130,-2017221,-84228510,-17363280,428125
2026-01-14 16:52:38.141,-65289990,29320070,-23056930,48665380,-53222660,-46240230,39433590
2026-01-14 16:52:38.151,-65039660,58911180,5325749,47275680,-25512700,6503906,35800780
2026-01-14 16:52:38.161,-64780720,60300880,5558801,45842820,-17288210,15605470,29960940
2026-01-14 16:52:38.171,-15507660,36532700,30949730,-4621397,-37200930,21132810,22988280
2026-01-14 16:52:38.181,-6417650,63002590,6102592,4289082,11834720,25722660,18007810
2026-01-14 16:52:38.191,-16448520,64323240,6370176,-5924778,2019043,28378910,13388670
2026-01-14 16:52:38.201,-63382390,33088660,-25865670,39990550,32666020,27226560,8803711
2026-01-14 16:52:38.211,-17255580,33647130,-26273950,-7103003,36572260,25722660,72802740
2026-01-14 16:52:38.221,-13135170,34192650,-26677920,-12138380,48657230,25976560,6254883
2026-01-14 16:52:38.231,-61984060,34718320,-27067200,35864610,6567383,27617190,5053711
2026-01-14 16:52:38.241,-18249090,42045750,35777430,-8647210,81347660,29082030,2980957
2026-01-14 16:52:38.251,-60922360,7129762,773400,6,33318260,8833008,30546880,20721440
2026-01-14 16:52:38.261,-60335400,72316170,7837560,32144360,1078125,28242190,-15930180
2026-01-14 16:52:38.271,-18884380,73282920,7854826,-9807305,11113280,25585940,-34765620
2026-01-14 16:52:38.281,-19027660,37313870,-29115500,-10112870,12421880,22421880,-3552246
2026-01-14 16:52:38.291,-19139010,7506968,762177,9,-10381320,13720700,18544920,-3059082
2026-01-14 16:52:38.301,-57987590,4505560,3820555,28104730,15742190,14628910,-23376460
2026-01-14 16:52:38.311,-19338400,76640640,7069344,-10872450,17431640,11640630,-1809082
2026-01-14 16:52:38.341,-19579230,4597231,3870444,-11512060,17001950,8261719,-17504880
2026-01-14 16:52:38.351,-55346300,4616823,3880199,24047850,178125,67529300,-36376950
2026-01-14 16:52:38.361,-54811130,46344320,38884830,23322790,20019530,30395510,-58154300
2026-01-14 16:52:38.371,-40064780,46501420,38952160,36895230,21308590,-736084,-37817380
2026-01-14 16:52:38.381,-19759630,8098238,467837,4,-12177570,21503910,-1472168,-50683590
2026-01-14 16:52:38.391,-19816600,81465740,4384892,-12345020,23671880,-31054690,-10800780
2026-01-14 16:52:38.401,-53033010,8189732,409143,4,20664230,240625,-45629880,-13916020
2026-01-14 16:52:38.411,-52661840,8229438,378069,3,20103170,24414060,-78515620,-17402340
2026-01-14 16:52:38.421,-19970240,8263966,343541,4,-12778330,24160160,-10722660,-17626950
2026-01-14 16:52:38.431,-20028070,47011550,39028980,-12910390,23339840,-12744140,-18310550
2026-01-14 16:52:38.441,-3692631,4451182,-3591812,3361174,23066410,-1453125,-20878910
2026-01-14 16:52:38.451,-51677840,46923510,38823550,18325050,22011720,-17080080,-21347660
2026-01-14 16:52:38.461,-20277530,8351146,197666,2,-13316950,20683590,-17714840,-22539060
2026-01-14 16:52:38.471,-20383700,83589140,1570964,-13452460,19628910,-17695310,-23027340
2026-01-14 16:52:38.481,-20487280,46504870,38258170,-13573310,18662110,-17050780,-23808590
2026-01-14 16:52:38.491,-51686460,8360639,72508,01,17384190,17636720,-17294920,-24160160
2026-01-14 16:52:38.521,-52187100,45581280,37196480,17280620,13388670,-17177730,-20273440
2026-01-14 16:52:38.531,-21028480,45299890,36890920,-14050640,13291020,-16572270,-20253910
2026-01-14 16:52:38.541,-52696370,8294175,-137241,2,17479140,14355470,-15800780,-20253910
2026-01-14 16:52:38.551,-53007110,8270007,-180400,17669040,16591800,-14873050,-20
2026-01-14 16:52:38.561,-21276210,8240660,-227012,3,-14148180,18056640,-15361330,-17978520
2026-01-14 16:52:38.571,-37759260,43912780,35429570,34211640,18984380,-14042970,-16191410
2026-01-14 16:52:38.581,-21391880,39664360,38814830,-14118830,19638670,-13115230,-14296880
2026-01-14 16:52:38.591,-54552180,4640733,-3864916,19041470,19667970,-12753910,-134375
2026-01-14 16:52:38.601,-55009660,80861530,-4246783,19516220,19873050,-11025390,-12871090
2026-01-14 16:52:38.611,-5550165,42071640,33559080,2002550,19785160,-93603520,-11357420
2026-01-14 16:52:38.621,-18095180,7985163,-523942,-17329210,19267580,-7475586,-10117190
2026-01-14 16:52:38.631,-56528840,7929055,-571414,3,21190760,18632810,-50439450,-91503900
2026-01-14 16:52:38.641,-21561920,78703610,-6163016,-13672570,18544920,-3215332,-8256836
2026-01-14 16:52:38.651,-57607790,78073500,-6568702,22494150,17548830,-14050290,-66845700
2026-01-14 16:52:38.661,-21555020,7742612,-693985,3,-13420530,16513670,5419922,-52441410
2026-01-14 16:52:38.671,-21558470,4548462,-3853610,-13296230,16240230,23571780,-37402340
2026-01-14 16:52:38.681,-5930823,4522825,-3837815,2459164,15869140,3869629,-34375
2026-01-14 16:52:38.691,-59886560,4494598,-3819427,25325330,15673830,4987793,-20324710
2026-01-14 16:52:38.701,-21547250,74569030,-8036088,-12893130,14824220,68896480,-6750488
2026-01-14 16:52:38.711,-61094990,73792180,-8225984,26792720,11650390,11845700,4058838
2026-01-14 16:52:38.721,-61690580,36378190,28238530,27543670,93652340,14970700,70739740
2026-01-14 16:52:38.731,-6226892,43553700,-37186980,2831191,57714840,15078130,33544920
2026-01-14 16:52:38.741,-62829960,71392580,-8657568,29080110,8581543,15332030,82128900
2026-01-14 16:52:38.751,-21431580,399633,3,-393444,6,-12111100,-20656590,17363280,6069336
2026-01-14 16:52:38.761,-21391880,69769820,-8761150,-11943640,-27416990,18261720,5595703
2026-01-14 16:52:38.771,-64418180,33969090,26193680,31324340,-65478520,17509770,7319336
2026-01-14 16:52:38.781,-64918820,6815569,-878701,9,32049410,-11386720,17666020,98779300
2026-01-14 16:52:38.791,-21239100,67361580,-8735252,-11423160,-16123050,17412110,10800780
2026-01-14 16:52:38.801,-65859680,66584740,-8631674,33421850,-18535160,18310550,85253900
2026-01-14 16:52:38.811,-21116530,65842410,-8493564,-11079610,-20175780,17861330,6665039
2026-01-14 16:52:38.821,-16484250,32087390,24743560,-15470200,-22441410,16835940,6386719
2026-01-14 16:52:38.831,-20985330,6443546,-808787,-10744710,-22167970,15703130,38183590
2026-01-14 16:52:38.841,-20919730,38600850,-33007520,-10585880,-24042970,13867190,3930664
2026-01-14 16:52:38.851,-67775910,63114800,-7561340,36460200,-25585940,10390630,49023440
2026-01-14 16:52:38.861,-16096950,62484690,-7276500,-15046130,-26269530,73291020,61035160
2026-01-14 16:52:38.871,-20804920,30899670,24015050,-10217310,-26835940,5205078,7216797
2026-01-14 16:52:38.881,-5347254,61293520,-6655020,5316320,-26503910,39111330,6816406
2026-01-14 16:52:38.891,-69096550,30550950,23845870,38229690,-26757810,32055660,6669922
2026-01-14 16:52:38.901,-20798020,35803320,-30384360,-9999793,-259375,20141600,65771480
2026-01-14 16:52:38.911,-69674880,30267830,23731930,38928850,-24003910,22265620,49804690
2026-01-14 16:52:38.921,-69925190,34983310,-29598870,39248220,-23769530,8654785,5415039
2026-01-14 16:52:38.931,-56383820,58764440,-5058162,53324760,-23886720,-13708500,65234380
2026-01-14 16:52:38.941,-20770400,58341480,-4773316,-9751201,-22910160,-2788086,64160160
2026-01-14 16:52:38.951,-20759180,57953060,-4488470,-9693369,-23027340,-3540039,77246100
2026-01-14 16:52:38.961,-20744500,5759917,-422088,-9638992,-2296875,-39160160,76660160
2026-01-14 16:52:38.971,-70883310,5727978,-395327,6,40551600,-228125,-4128418,69970700
2026-01-14 16:52:38.981,-20719470,56994940,-3702988,-9543177,-221875,-4194336,68603520
2026-01-14 16:52:38.991,-7111637,56736000,-3461304,4094006,-21621090,-46289060,6508789
2026-01-14 16:52:39.001,-71211310,56520200,-3245510,41104030,-21523440,-484375,6542969
2026-01-14 16:52:39.011,-20636610,29605780,23668910,-9384356,-20625,-5595703,7290039
2026-01-14 16:52:39.021,-20611580,56174940,-2865718,-9340333,-20605470,-5698242,8383789
2026-01-14 16:52:39.031,-71375310,56054100,-2693078,41475190,-2125,-51123050,88671870
2026-01-14 16:52:39.041,-71401220,31933740,-26589010,41552880,-20410160,-4597168,8540039
2026-01-14 16:52:39.051,-20547700,29700730,23867440,-9248838,-19658200,-3605957,78466800
2026-01-14 16:52:39.061,-71375310,5596776,-224420,5,41630560,-18603520,-24084470,7050781
2026-01-14 16:52:39.071,-20486420,29855240,24040940,-9189280,-17382810,-19067380,75634770
2026-01-14 16:52:39.081,-71263100,5611450,-202840,8,41639200,-17128910,-14404300,8491211
2026-01-14 16:52:39.091,-57867610,56243990,-1950758,54913850,-16376950,-17016600,8828125
2026-01-14 16:52:39.101,-20366440,56407990,-1907598,-9102099,-15117190,-28515620,90234380
2026-01-14 16:52:39.111,-20331910,31971720,-26499240,-9084835,-15078130,-2692871,9433594
2026-01-14 16:52:39.121,-57600020,32095150,-26600230,54663530,-14443360,-26367190,94433590
2026-01-14 16:52:39.131,-20265450,57081260,-1873072,-9064983,-13886720,-21777340,8959961
2026-01-14 16:52:39.141,-15215140,32414530,-26867810,-14098030,-12871090,-2084961,87841800
2026-01-14 16:52:39.151,-20216250,32610470,-27034400,-9079657,-12285160,-23095700,87353520
2026-01-14 16:52:39.161,-70140980,58065270,-1993914,40845090,-11904300,-2783203,82714850
2026-01-14 16:52:39.171,-20192940,33082620,-27442680,-9137489,-11181640,-3125,7548828
2026-01-14 16:52:39.181,-6972668,33351060,-27674880,4036173,-9770508,-40307620,7080078
2026-01-14 16:52:39.191,-20195530,31649760,25491920,-9238480,-85546870,-48754880,59814450
2026-01-14 16:52:39.201,-55977270,59852020,-2296026,53023510,-69091800,-5229492,60839840
2026-01-14 16:52:39.211,-20256810,32131410,25856180,-9418883,-5800781,-56591800,5341797
2026-01-14 16:52:39.221,-68785810,31979060,-31394690,38937480,-39379880,-52441410,44848630
2026-01-14 16:52:39.231,-68535490,32661390,26258420,38480000,-21203610,-37231440,29736330
2026-01-14 16:52:39.241,-54651440,62053100,-2632658,51621730,-39863580,-23046880,14465330
2026-01-14 16:52:39.251,-68034860,33228490,26692590,37478740,15612790,-7836914,32958980
2026-01-14 16:52:39.261,-67758650,63244280,-2805294,36943570,3190918,49926760,-95581060
2026-01-14 16:52:39.271,-20739320,33816310,27140570,-10351970,4711914,14746090,-16088870
2026-01-14 16:52:39.281,-67188950,64478610,-3003820,35821450,6088867,2734375,-2775879
2026-01-14 16:52:39.291,-20936130,34415350,27594600,-10724850,6298828,39575200,-41235350
2026-01-14 16:52:39.301,-66584740,65738830,-3210980,34630280,6738281,43603520,-56591800
2026-01-14 16:52:39.311,-51752070,66368940,-3305928,48530730,6879883,40234380,-6586914
2026-01-14 16:52:39.321,-21211480,35319950,28278230,-11278140,5644531,37158200,-7114258
2026-01-14 16:52:39.331,-21293480,38777800,-32364460,-11455090,4765625,36010740,-77685540
2026-01-14 16:52:39.341,-21383250,68276540,-3573514,-11641540,33007810,3112793,-8833008
2026-01-14 16:52:39.351,-21471290,68906660,-3633936,-11829710,11480710,30004880,-9506836
2026-01-14 16:52:39.361,-21560200,69519500,-3659830,-12017010,-9075928,31640620,-9658203
2026-01-14 16:52:39.371,-64141980,36930620,29550540,30271280,-38745120,27197270,-88916020
2026-01-14 16:52:39.381,-63796710,7073656,-363390,7,29615280,-68310540,3347168,-8696289
2026-01-14 16:52:39.391,-21866620,34253770,33504880,-12625550,-9448242,3317871,-8378906
2026-01-14 16:52:39.401,-21971930,34584180,33830460,-12830980,-11650390,38867190,-8041992
2026-01-14 16:52:39.411,-22085860,38326360,30744300,-13045050,-14648440,5410156,-6845703
2026-01-14 16:52:39.421,-62424270,38684580,31059360,26982620,-16914060,65771480,-62890620
2026-01-14 16:52:39.431,-62079000,7353322,-311600,8,26343870,-18632810,81933590,-6352539
2026-01-14 16:52:39.441,-61716470,7405976,-298653,1,25705130,-19697270,9511719,-56152340
2026-01-14 16:52:39.451,-18558620,7459494,-284844,5,-17694410,-19765620,9838867,-48828120
2026-01-14 16:52:39.461,-22509680,42540340,-35300100,-13967770,-19150390,10224610,-3474121
2026-01-14 16:52:39.471,-22554560,75647990,-2589504,-14112780,-17158200,10683590,-2758789
2026-01-14 16:52:39.481,-22597720,76174530,-2477292,-14259520,-15097660,10888670,-1842041
2026-01-14 16:52:39.491,-22632250,76701060,-2365080,-14397630,-10869140,10302730,-2944336
2026-01-14 16:52:39.501,-22658140,7721897,-227875,6,-14527110,-6557617,9038086,-34106440
2026-01-14 16:52:39.511,-58798970,41750550,33759340,21475610,-16320800,59765620,-32543940
2026-01-14 16:52:39.521,-58393280,43965430,-36360930,20897290,28027340,26757810,-16833500
2026-01-14 16:52:39.531,-19243200,78625920,-2062972,-18459950,7133789,21698000,-93688970
2026-01-14 16:52:39.541,-57659580,44369400,-36664760,19714740,11386720,-20019530,-10449220
2026-01-14 16:52:39.551,-40131240,42839000,34707960,36310870,15791020,-56396480,-32104490
2026-01-14 16:52:39.561,-23034490,79782570,-1769496,-15480040,19599610,-8105469,-5048828
2026-01-14 16:52:39.571,-56761890,43326690,35152500,17936620,22070310,-99365230,-5883789
2026-01-14 16:52:39.581,-38894330,80412680,-1484646,34975550,24238280,-12919920,-7626953
2026-01-14 16:52:39.591,-38515400,4378847,3558841,34560360,25664060,-15683590,-9111328
2026-01-14 16:52:39.601,-38155450,41433940,-40636020,34160720,26855470,-17783200,-11318360
2026-01-14 16:52:39.611,-37822270,45053890,-37033340,33786100,265625,-19208980,-11162110
2026-01-14 16:52:39.621,-23943400,45065110,-37004850,-16849890,26464840,-20664060,-13408200
2026-01-14 16:52:39.631,-5576062,81500270,-517899,8,1453578,25917970,-21855470,-16279300
2026-01-14 16:52:39.641,-21185490,44760410,36567230,-20488230,24980470,-22207030,-175
2026-01-14 16:52:39.651,-55674300,8174196,-8628,987,13534470,24101560,-22714840,-19599610
2026-01-14 16:52:39.661,-55674300,8181101,12087,13068360,22851560,-21972660,-20488280
2026-01-14 16:52:39.671,-36327260,8185416,31938,49,32018330,21738280,-21621090,-22128910
2026-01-14 16:52:39.681,-25185500,45258460,37122240,-18387190,19746090,-21328120,-22441410
2026-01-14 16:52:39.691,-25412510,45335280,37218060,-18643550,1796875,-20253910,-22929690
2026-01-14 16:52:39.701,-5599367,81836900,871800,1,1145427,16748050,-18300780,-23144530
2026-01-14 16:52:39.711,-22865050,8176786,104444,3,-22192290,16699220,-165625,-22148440
2026-01-14 16:52:39.721,-56347570,81672900,1225698,10789590,16972660,-14306640,-21386720
2026-01-14 16:52:39.731,-56571990,44232150,-35938840,10496120,17958980,-10253910,-23046880
2026-01-14 16:52:39.741,-56830940,44085420,-35792100,10237170,1921875,-5546875,-24296880
2026-01-14 16:52:39.751,-57115790,8122406,165730,5,10038640,19013670,-8703613,-22949220
2026-01-14 16:52:39.761,-36041560,45351680,37426080,31285510,17353520,3017578,-19384770
2026-01-14 16:52:39.771,-57780420,43604630,-35340660,9771056,14550780,55566410,-16396480
2026-01-14 16:52:39.781,-27602370,8055080,191624,1,-20821330,11328130,66015620,-15390630
2026-01-14 16:52:39.791,-36491270,8031772,197666,7,31612640,8144531,64208980,-15
2026-01-14 16:52:39.821,-59446340,42829510,-34665670,9762426,59570310,37768560,-15292970
2026-01-14 16:52:39.831,-59774350,44550660,36828760,9866006,-12121580,38110350,-14443360
2026-01-14 16:52:39.841,-6012823,44390110,36695840,999549,7,-19104000,3527832,-13496090
2026-01-14 16:52:39.851,-60482140,44230420,36562050,10142220,-18579100,39941410,-1265625
2026-01-14 16:52:39.861,-6084469,42218380,-34171940,1031487,-17480470,5546875,-12412110
2026-01-14 16:52:39.871,-38399730,42054380,-34042460,33329490,-105896000,8041992,-12089840
2026-01-14 16:52:39.881,-6160428,41890380,-33912980,1072919,-5783081,10136720,-11591800
2026-01-14 16:52:39.891,-61984050,43480340,35931070,10970860,-12619020,12363280,-10751950
2026-01-14 16:52:39.901,-62363850,7710674,192488,9,11229810,10116580,13701170,-97021490
2026-01-14 16:52:39.911,-6275228,7674422,189033,9,1151466,37078860,15273440,-91064460
2026-01-14 16:52:39.921,-63140700,7638168,183857,4,11834020,-3253174,15878910,-77441410
2026-01-14 16:52:39.931,-63520490,41006500,-33225900,12162030,-6100464,15654300,-82128900
2026-01-14 16:52:39.941,-29508240,7565664,173497,4,-21867480,-13623050,14658200,-7792969
2026-01-14 16:52:39.951,-29536730,7527684,166592,7,-21821740,-2529297,13476560,-7216797
2026-01-14 16:52:39.961,-29548810,41912820,34581080,-21757860,-4243164,11757810,-6381836
2026-01-14 16:52:39.971,-29535000,7453452,151055,4,-21668090,-5419922,97753900,-7446289
2026-01-14 16:52:39.981,-65272720,7416334,141561,7,14190470,-65234380,72998050,-6894531
2026-01-14 16:52:39.991,-29467670,41171360,33924210,-21441940,-7363281,52685550,-63134770
2026-01-14 16:52:40.001,-29413290,40925360,33704100,-21306420,-81640620,32495120,-4958496
2026-01-14 16:52:40.011,-43472560,730410,6,11050,48,38424760,-85839840,19299320,-41088870
2026-01-14 16:52:40.021,-43874800,36198390,-35461770,38851170,-83691410,2420044,-22473140
2026-01-14 16:52:40.031,-29157800,72281640,897696,2,-20802330,-7949219,-77697750,-42755130
2026-01-14 16:52:40.041,-29061120,71901850,811376,2,-20622790,-7446289,-13146970,15539550
2026-01-14 16:52:40.051,-67301170,7150479,72508,86,17910720,-64208980,-17175290,32543940
2026-01-14 16:52:40.061,-67560110,38822680,-31646310,18463150,-5439453,-17346190,55126950
2026-01-14 16:52:40.071,-67827700,39163630,32151260,19024220,-40600580,-13305660,703125
2026-01-14 16:52:40.081,-46256280,38921950,31944100,41407010,-36621100,-904541,9033203
2026-01-14 16:52:40.091,-46647300,6992518,49202,43,41827370,-3581543,8068848,12685550
2026-01-14 16:52:40.101,-28406840,69519500,466112,2,-19481680,-3774414,22363280,15732420
2026-01-14 16:52:40.111,-28298940,69131080,440216,2,-19296100,-43554690,2565918,18886720
2026-01-14 16:52:40.121,-69027500,37615110,-30695960,21725930,-5029297,2310791,21972660
2026-01-14 16:52:40.131,-48074110,6838011,46613,43369850,-6010742,23754880,23828120
2026-01-14 16:52:40.141,-6945907,34605330,33930160,2264089,-6772461,22790530,24082030
2026-01-14 16:52:40.151,-27939860,37484770,30774510,-18671170,-8457031,13378910,25898440
2026-01-14 16:52:40.161,-69838880,37344070,30673520,23400470,-9902344,5596924,278125
2026-01-14 16:52:40.171,-27845780,33946990,33880700,-18471780,-11806640,-19119260,29960940
2026-01-14 16:52:40.181,-49397350,6678324,90634,8,44774220,-13310550,-88134770,29882810
2026-01-14 16:52:40.191,-27825930,37067000,30519010,-18370790,-14248050,-18774410,29355470
2026-01-14 16:52:40.201,-70538050,662911,5,12260,04,24324060,-15214840,-28735350,28320310
2026-01-14 16:52:40.211,-7070203,36983270,30516420,2441903,-15625,-41870120,27421880
2026-01-14 16:52:40.221,-70857410,65885570,1614128,24470800,-15615230,-4934082,26289060
2026-01-14 16:52:40.231,-28045170,65721570,1829912,-18496810,-15429690,-56591800,25429690
2026-01-14 16:52:40.241,-7116817,35136960,-28374900,2441902,-15625,-5102539,24492190
2026-01-14 16:52:40.251,-71306260,65436720,2270132,24332690,-15322270,-39624020,24277340
2026-01-14 16:52:40.261,-28407700,34801190,-28020140,-18842080,-15273440,-26782230,23066410
2026-01-14 16:52:40.271,-71582470,65229560,2701716,24056480,-14785160,-18225100,21992190
2026-01-14 16:52:40.281,-28689100,65143250,2908874,-19130380,-14101560,-1003418,20839840
2026-01-14 16:52:40.291,-71815540,37194740,30995480,23685320,-13554690,-120788600,19726560
2026-01-14 16:52:40.301,-28980850,34309180,-27476340,-19442850,-12871090,-9887695,18681640
2026-01-14 16:52:40.311,-50049040,65048300,3418146,45175600,-12841800,-10546880,17998050
2026-01-14 16:52:40.321,-72048580,65048300,3556254,23003410,-12822270,-7336426,17480470
2026-01-14 16:52:40.331,-29419340,37450250,31309670,-19936580,-12998050,21759030,17226560
2026-01-14 16:52:40.341,-72117640,34131360,-27239830,22468250,-13359380,13513180,16289060
2026-01-14 16:52:40.351,-7212628,34140000,-27231210,2218342,-13105470,18273930,14833980
2026-01-14 16:52:40.361,-72109010,65333140,3910150,21889930,-12685550,24414060,13740230
2026-01-14 16:52:40.371,-7207447,37784290,31631640,2159647,-11894530,29003910,12685550
2026-01-14 16:52:40.381,-72022690,65626620,3944676,21285710,-10986330,2454834,11826170
2026-01-14 16:52:40.391,-30127130,65816520,3927410,-20834270,-9868164,25561520,10966800
2026-01-14 16:52:40.401,-30219490,66023680,3892884,-20966330,-90185540,29418940,98095700
2026-01-14 16:52:40.411,-30301490,34707100,-27699900,-21091490,-79052740,31933590,8642578
2026-01-14 16:52:40.421,-7161700,66481160,3746146,2003415,-67041020,39013670,7573242
2026-01-14 16:52:40.431,-71470260,35075670,-28039130,19732010,-5883789,48217770,6464844
2026-01-14 16:52:40.441,-47961900,35280240,-28231620,42774260,-52246100,5307617,58691410
2026-01-14 16:52:40.451,-47742650,35518470,-28459490,42544660,-45385740,56591800,5229492
2026-01-14 16:52:40.461,-70943740,67568740,3107400,18877480,-38110350,53808590,44677740
2026-01-14 16:52:40.471,-70727940,67862220,2882984,18609890,-32885740,546875,4584961
2026-01-14 16:52:40.481,-70520780,38675080,32121910,18350940,-31225590,5395508,44995120
2026-01-14 16:52:40.491,-30505200,38730320,32118460,-21664640,-28173830,48950200,44018560
2026-01-14 16:52:40.501,-30481030,68794450,2071602,-21688800,-20788570,4423828,40429690
2026-01-14 16:52:40.511,-6980435,69113820,1752232,1765180,-20666500,44189450,41845700
2026-01-14 16:52:40.521,-30408530,69424560,1424228,-21709520,-23144530,4387207,4597168
2026-01-14 16:52:40.531,-30367960,37868880,-30787450,-21715560,-23864750,42626950,4724121
2026-01-14 16:52:40.541,-30318760,38202930,-31126680,-21712970,-28515620,44726560,4958496
2026-01-14 16:52:40.551,-30261790,38847720,31845700,-21700890,-32763670,42089840,5727539
2026-01-14 16:52:40.561,-30203960,70658890,-34527,81,-21689670,-35620120,37841800,59765620
2026-01-14 16:52:40.571,-30146120,39218880,-32165070,-21678450,-39233400,41186520,63964840
2026-01-14 16:52:40.581,-26290180,71263100,-811376,-25448070,-4267578,38330080,66308590
2026-01-14 16:52:40.591,-26253240,39900780,-32864240,-25415960,-42871100,39941410,6845703
2026-01-14 16:52:40.601,-6742199,38803690,31458140,1583914,-4658203,41430660,7363281
2026-01-14 16:52:40.611,-43964570,35458490,34717020,38813190,-47558590,36645510,80615230
2026-01-14 16:52:40.621,-29837110,72445650,-2356444,-21607660,-43481440,4465332,7163086
2026-01-14 16:52:40.631,-66584740,7274775,-272758,15209010,-44018560,47338870,6381836
2026-01-14 16:52:40.641,-29717990,3878126,3116985,-21588680,-38745120,4675293,6586914
2026-01-14 16:52:40.651,-26031320,38778660,31103380,-25223560,-3371582,51708980,65966800
2026-01-14 16:52:40.661,-29614410,73610920,-3763408,-21588680,-2421875,49853520,63964840
2026-01-14 16:52:40.671,-65428090,7390439,-407412,3,14276790,-95214850,47753900,49804690
2026-01-14 16:52:40.681,-42140700,35299320,34513660,37029020,10360720,5102539,42919920
2026-01-14 16:52:40.691,-29480620,43050480,-36067450,-21618890,14819340,46533200,36572260
2026-01-14 16:52:40.701,-64573560,38915040,30949740,13491310,30981440,4477539,21032720
2026-01-14 16:52:40.711,-64288710,75035140,-5118583,13206470,5083008,37890620,11437990
2026-01-14 16:52:40.721,-29388260,75311360,-5308480,-21693980,70410160,29663090,23635860
2026-01-14 16:52:40.731,-63736280,39097170,30992030,12654040,9042969,19055180,-33477780
2026-01-14 16:52:40.741,-29341650,39178310,31031730,-21757860,11328130,8441162,-18347170
2026-01-14 16:52:40.751,-40198570,76088210,-5757327,35086900,13017580,-52368160,-29174800
2026-01-14 16:52:40.761,-62942170,7634715,-586087,9,11808130,14824220,-21142580,-41723630
2026-01-14 16:52:40.771,-29288130,76580220,-5955856,-21863160,16904300,-32885740,-5541992
2026-01-14 16:52:40.781,-29263100,44953760,-37875780,-21888200,18486330,-54345700,-7036133
2026-01-14 16:52:40.791,-62225740,39614210,31303630,11074440,19667970,-6230469,-81347660
2026-01-14 16:52:40.801,-62018580,45236020,-38128700,10867280,20800780,-81152340,-9194336
2026-01-14 16:52:40.811,-29192320,77391590,-6197544,-21941710,21523440,-96435540,-9941406
2026-01-14 16:52:40.821,-6163877,39847260,31467630,1052203,21894530,-11005860,-99902340
2026-01-14 16:52:40.831,-29135350,3612909,3528941,-21946890,22441410,-11875,-11513670
2026-01-14 16:52:40.841,-29088740,39959470,31545320,-21924450,22460940,-12695310,-11357420
2026-01-14 16:52:40.851,-2904472,7792676,-633565,-2189942,22207030,-13222660,-11171880
2026-01-14 16:52:40.861,-38209830,7800443,-636152,4,33122320,22167970,-13769530,-1140625
2026-01-14 16:52:40.871,-38170130,42584620,-41867680,33092980,21484380,-13759770,-10957030
2026-01-14 16:52:40.881,-28896260,7810804,-639606,1,-21771670,20664060,-13544920,-11142580
2026-01-14 16:52:40.891,-28838430,78125280,-6396068,-21708660,19609380,-12978520,-10507810
2026-01-14 16:52:40.901,-28784040,40089810,31639400,-21642190,18466800,-10996090,-84716800
2026-01-14 16:52:40.911,-6094826,7807350,-636154,1,1064286,17470700,-83740230,-6645508
2026-01-14 16:52:40.921,-6099141,4575047,-3858099,1080686,16240230,-5883789,-53222660
2026-01-14 16:52:40.931,-28643350,42446520,-41729570,-21437630,14765630,-30737300,-4194336
2026-01-14 16:52:40.941,-28606230,7784909,-613711,1,-21371160,13291020,-4107666,-31152340
2026-01-14 16:52:40.951,-2857946,36283240,35445970,-2131159,11953130,28564450,-24377440
2026-01-14 16:52:40.961,-28554440,7759876,-583499,6,-21250320,10869140,68896480,-16564940
2026-01-14 16:52:40.971,-61587000,45127260,-37943980,11834030,83740230,11796880,-30303960
2026-01-14 16:52:40.981,-61776900,40084630,31817220,12041190,4880371,15175780,47821040
2026-01-14 16:52:40.991,-6195816,77132640,-5109948,1223975,12432860,16503910,10809330
2026-01-14 16:52:41.001,-28578610,44504910,-37288830,-21122570,-17675780,15234380,10424810
2026-01-14 16:52:41.011,-28595880,44281360,-37046280,-21105310,-3659668,13164060,7489014
2026-01-14 16:52:41.021,-28612280,7669243,-413456,3,-21088910,-4794922,10917970,-28579710
2026-01-14 16:52:41.031,-62631430,7655431,-375475,3,12930250,-47143560,875,-1517334
2026-01-14 16:52:41.041,-28645080,7640759,-336634,1,-21056110,-48095700,7128906,-26635740
2026-01-14 16:52:41.051,-28652840,7626949,-298654,6,-21031080,-3959961,5620117,-37353520
2026-01-14 16:52:41.061,-63106180,7611410,-262400,3,13456780,-30151370,4267578,-4111328
2026-01-14 16:52:41.071,-4095124,40759630,32937600,3599151,-12420650,23352050,-48828120
2026-01-14 16:52:41.081,-25150970,42552430,-35167170,-24377570,30319210,103881800,-46972660
2026-01-14 16:52:41.091,-6358953,40856300,33134410,1416460,17797850,-31555180,-45458980
2026-01-14 16:52:41.101,-6375355,7542357,-132927,6,1444943,36450200,-17565920,-42871100
2026-01-14 16:52:41.111,-28507830,40904640,33275970,-20640920,51416020,-2631836,-3173828
2026-01-14 16:52:41.121,-64055660,40908100,33324310,15114060,71240230,-36621100,-29101560
2026-01-14 16:52:41.131,-64202390,40912410,33371780,15485230,84033200,-42944340,-1862793
2026-01-14 16:52:41.141,-28249740,7463810,-31936,07,-20225740,984375,-4567871,-46905520
2026-01-14 16:52:41.151,-64504500,74422300,-86318,23,16287970,10527340,-4831543,2154541
2026-01-14 16:52:41.161,-28038270,74197870,138104,2,-19902050,10722660,-4519043,2006836
2026-01-14 16:52:41.171,-27929510,73964820,371160,2,-19734590,10654300,-45922850,29223630
2026-01-14 16:52:41.181,-41504980,7371448,60423,3,41031100,10322270,-41308590,3857422
2026-01-14 16:52:41.191,-27712850,7346419,83728,18,-19398830,96875,-3112793,5083008
2026-01-14 16:52:41.201,-27613590,39785120,-32358420,-19239140,86621100,-2746582,66308590
2026-01-14 16:52:41.211,-27522090,7294629,130339,2,-19088950,7548828,-17883300,77685540
2026-01-14 16:52:41.221,-27429740,7267008,154508,2,-18939620,56396480,-91918940,9067383
2026-01-14 16:52:41.231,-27354640,39022080,-31602290,-18807550,4033203,-33813480,9423828
2026-01-14 16:52:41.241,-27286450,38763120,-31343330,-18685850,10827640,16738890,10332030
2026-01-14 16:52:41.251,-66153150,71884580,2296026,20353490,-15246580,9576416,10722660
2026-01-14 16:52:41.261,-27163020,71642900,2537712,-18464010,-40454100,10949710,10566410
2026-01-14 16:52:41.271,-66463900,7140984,278805,9,20974970,-6430664,8892822,11621090
2026-01-14 16:52:41.281,-27077560,37779120,-30359330,-18290520,-83496100,9106445,11845700
2026-01-14 16:52:41.291,-27045630,37546920,-30125400,-18218870,-10429690,3829956,11425780
2026-01-14 16:52:41.301,-23040870,40477380,33755020,-22154570,-12011720,-8506775,10585940
2026-01-14 16:52:41.311,-6704221,7053804,372888,7,2191582,-13330080,-6329346,10410160
2026-01-14 16:52:41.321,-6717169,70339510,3944678,2209712,-14726560,-17272950,11123050
2026-01-14 16:52:41.331,-27005920,36723460,-29291590,-18051420,-15673830,-19580080,10693360
2026-01-14 16:52:41.341,-27009370,40459250,33894000,-18030700,-16523440,-17468260,94384770
2026-01-14 16:52:41.351,-27011960,698475,9,45403,79,-18010850,-16943360,-12371830,76953130
2026-01-14 16:52:41.361,-67603270,6971802,470429,2,22614980,-16855470,-58776860,59033200
2026-01-14 16:52:41.371,-6768961,36090760,-28646800,2273585,-171875,-3955078,49243160
2026-01-14 16:52:41.381,-6775001,6946772,497184,4,2286531,-17089840,-19866940,49047850
2026-01-14 16:52:41.391,-67810430,35866330,-28422370,22994780,-17148440,-53588870,55029300
2026-01-14 16:52:41.401,-26912700,35771390,-28327430,-17816640,-17226560,-11151120,5698242
2026-01-14 16:52:41.411,-6788813,35693700,-28249740,2322785,-17382810,-24511720,5859375
2026-01-14 16:52:41.421,-26849690,40417820,34039010,-17724280,-18027340,-35791020,6323242
2026-01-14 16:52:41.431,-67922640,6907065,540345,8,23452260,-18652340,-43408200,4892578
2026-01-14 16:52:41.441,-26765960,6901888,545522,9,-17618110,-18769530,-5102539,36328120
2026-01-14 16:52:41.451,-22598160,6899298,549838,8,-21682340,-18662110,-60498050,2783203
2026-01-14 16:52:41.461,-26671010,68967080,5541536,-17505890,-18466800,-6279297,19946290
2026-01-14 16:52:41.471,-6789674,40432490,34093380,2382345,-17929690,-6777344,16906740
2026-01-14 16:52:41.481,-26581240,35414040,-27959720,-17405770,-17167970,-6220703,16320800
2026-01-14 16:52:41.491,-48089650,35414900,-27958860,43699580,-15986330,-44506840,12023930
2026-01-14 16:52:41.501,-6782770,6897571,558469,4,2397880,-14736330,-17089840,13696290
2026-01-14 16:52:41.511,-26488880,69001610,5576064,-17308230,-13378910,21081540,18261720
2026-01-14 16:52:41.521,-26461260,69027500,5550168,-17284060,-12255860,57910160,26123050
2026-01-14 16:52:41.531,-48055120,69062020,5515646,43682320,-11787110,97314460,28393560
2026-01-14 16:52:41.541,-67689590,35546100,-28086600,23978790,-11533200,125,3564453
2026-01-14 16:52:41.551,-67637810,35607380,-28146160,23927010,-11679690,14091800,34765620
2026-01-14 16:52:41.561,-67577380,40518810,34127910,23866580,-11679690,14511720,21740720
2026-01-14 16:52:41.571,-26419830,35783470,-28315340,-17290970,-12001950,1390625,46966550
2026-01-14 16:52:41.581,-67396110,35898270,-28424970,23685310,-12089840,12421880,-18041990
2026-01-14 16:52:41.591,-6727528,36030340,-28551850,2359901,-12226560,10097660,-47705080
2026-01-14 16:52:41.601,-67137160,36179660,-28696000,23495420,-121875,70458980,-76464850
2026-01-14 16:52:41.611,-26313660,70046040,4825106,-17276290,-12207030,35205080,-10371090
2026-01-14 16:52:41.621,-6681779,7025320,465247,7,2331416,-11787110,28137210,-11923830
2026-01-14 16:52:41.631,-47105640,36752800,-29262240,42767360,-10947270,-28027340,-12353520
2026-01-14 16:52:41.641,-22070420,36968600,-29478030,-21174270,-10585940,-5239258,-12353520
2026-01-14 16:52:41.651,-2601329,33830810,-33081930,-1707603,-9321289,-67529300,-12695310
2026-01-14 16:52:41.661,-46702540,71125000,3746146,42410870,-82666020,-77197260,-12529300
2026-01-14 16:52:41.671,-25797490,7135806,349584,2,-16912040,-66796880,-8041992,-11992190
2026-01-14 16:52:41.681,-25673190,71591100,3228244,-16811910,-52246100,-80126950,-10898440
2026-01-14 16:52:41.691,-65298620,38179620,-30701140,23055200,-39038090,-78027340,-89453130
2026-01-14 16:52:41.701,-25405610,40844220,33906080,-16596120,-234375,-7709961,-7133789
2026-01-14 16:52:41.711,-46005960,7230752,240825,4,41829960,-10144040,-73095700,-5449219
2026-01-14 16:52:41.721,-64547660,72549220,2149290,22994780,33355710,-64746100,-49560550
2026-01-14 16:52:41.731,-64305980,7279091,189036,4,22942990,16394040,-52441410,-47851560
2026-01-14 16:52:41.741,-6405566,7303260,163138,9,2288258,2685547,-39526370,-5366211
2026-01-14 16:52:41.751,-63813970,39684120,-32217720,22796260,41137700,-26708980,-5732422
2026-01-14 16:52:41.761,-24745280,40942620,33704100,-16117060,5058594,-12036130,-65771480
2026-01-14 16:52:41.771,-2465034,73766290,880428,-1605661,61083980,-22720340,-69921870
2026-01-14 16:52:41.781,-6308889,40983190,33646270,2250279,6767578,6732178,-84814460
2026-01-14 16:52:41.791,-24486340,74249660,379792,2,-15961690,71484380,10632320,-9067383
2026-01-14 16:52:41.801,-24408650,40906370,-33446880,-15918530,7314453,10858150,-10302730
2026-01-14 16:52:41.811,-6237248,7470714,-14673,82,2218341,6933594,37353520,-10732420
2026-01-14 16:52:41.821,-24237740,74922940,-414319,8,-15813220,7260742,-48187260,-11660160
2026-01-14 16:52:41.831,-61923630,7513009,-70777,41,22010770,7114258,-7989502,-12929690
2026-01-14 16:52:41.841,-61699210,40984920,33351060,21941720,7167969,-12719730,-13466800
2026-01-14 16:52:41.851,-23961530,42129480,-34709690,-15623330,7402344,-16955570,-14482420
2026-01-14 16:52:41.861,-23863990,4087962,3314564,-15548230,7001953,-22021480,-1421875
2026-01-14 16:52:41.871,-23750910,7582927,-202843,1,-15454150,6660156,-31079100,-13828130
2026-01-14 16:52:41.881,-23630930,40689710,32852150,-15349700,6074219,-41845700,-12460940
2026-01-14 16:52:41.891,-60723830,76062320,-2813930,21984880,54248050,-47802740,-11601560
2026-01-14 16:52:41.901,-6056847,4333446,-3604242,2207120,51660160,-45166020,-11152340
2026-01-14 16:52:41.911,-23248550,43567520,-36310000,-14989760,42114260,-4111328,-10488280
2026-01-14 16:52:41.921,-23109580,40115700,32079620,-14852520,36865230,-44555660,-10419920
2026-01-14 16:52:41.931,-22963710,7631264,-451435,8,-14704920,27075200,-42285160,-9428711
2026-01-14 16:52:41.941,-6000742,44199350,-37059230,2261500,16052250,-47265620,-8041992
2026-01-14 16:52:41.951,-22700440,44386660,-37286240,-14433020,8544922,-47314450,-7602539
2026-01-14 16:52:41.961,-18859600,39406180,31200910,-18032170,6628418,-4440918,-73876950
2026-01-14 16:52:41.971,-22476020,39224920,30985120,-14191330,10675050,-32836910,-76220700
2026-01-14 16:52:41.981,-22387110,76260840,-6447864,-14090340,8892822,-22375490,-73095700
2026-01-14 16:52:41.991,-59713920,38847720,30550950,23409100,9820557,-10498050,-7158203
2026-01-14 16:52:42.001,-59722560,38661270,30340340,23573110,15209960,7513428,-7163086
2026-01-14 16:52:42.011,-22180810,38463610,30123680,-13830530,17333980,22839360,-6464844
2026-01-14 16:52:42.021,-22132480,45176460,-38360890,-13758030,22436520,42797850,-49682620
2026-01-14 16:52:42.031,-5989521,45216160,-38442020,2412555,27563480,6464844,-3798828
2026-01-14 16:52:42.041,-22049610,34082170,33244900,-13616470,3154297,8076172,-21691900
2026-01-14 16:52:42.051,-22015090,75328620,-8433144,-13547410,23779300,8183594,-11497500
2026-01-14 16:52:42.061,-60249090,37429530,29051630,24790170,15490720,7133789,5432129
2026-01-14 16:52:42.071,-21922730,74931570,-8830202,-13380820,3567505,47558590,-61065670
2026-01-14 16:52:42.081,-21864900,74715780,-8994208,-13283280,-8691406,10583500,-11981200
2026-01-14 16:52:42.091,-21790660,45097040,-38561140,-13167620,-14892580,-28515620,-20202640
2026-01-14 16:52:42.101,-60715200,36668210,28311030,25946810,-13598630,-5996094,-30126950
2026-01-14 16:52:42.111,-60853300,74042500,-9425784,26274820,-8648682,-8198242,-41455080
2026-01-14 16:52:42.121,-21575730,36276340,27943320,-12812860,-1704216,-9848633,-45922850
2026-01-14 16:52:42.131,-17531450,73490080,-9684738,-16649980,993042,-11240230,-4416504
2026-01-14 16:52:42.141,-61336680,44670640,-38331540,27362410,18884280,-10849610,-3449707
2026-01-14 16:52:42.151,-46332240,72859970,-9917792,42953800,28515620,-9584961,-20837400
2026-01-14 16:52:42.161,-21291750,44393560,-38142500,-12302730,41552740,-7265625,-10772710
2026-01-14 16:52:42.171,-21227010,35144720,26917010,-12177560,50927740,-50439450,15777590
2026-01-14 16:52:42.181,-21181270,71798270,-10168110,-12067940,5576172,-26879880,13085940
2026-01-14 16:52:42.191,-21126890,34682070,26516510,-11949690,5522461,-20645140,19934080
2026-01-14 16:52:42.201,-62665960,34440380,26309350,29762010,47729490,16760250,28198240
2026-01-14 16:52:42.211,-62899010,70641620,-10323480,30167700,40722660,24353030,27685550
2026-01-14 16:52:42.221,-20956840,70244570,-10375270,-11584570,32983400,26831060,26733400
2026-01-14 16:52:42.231,-20894690,69847510,-10427070,-11456820,23669430,24206540,22277830
2026-01-14 16:52:42.241,-20806650,69441820,-10487480,-11303170,18261720,16003420,10546880
2026-01-14 16:52:42.251,-63770810,33224180,25264050,31919930,11932370,21514890,55114740
2026-01-14 16:52:42.261,-20596040,32966090,25038760,-10961360,8734131,-9484863,35125730
2026-01-14 16:52:42.271,-6411607,32692470,24794490,3288670,9124756,-12719730,43144220
2026-01-14 16:52:42.281,-20317230,32410210,24541580,-10549630,14697270,-15710450,11924740
2026-01-14 16:52:42.291,-20143740,67396110,-11014020,-10308810,20690920,-9454346,8856201
2026-01-14 16:52:42.301,-19961610,31805990,23989150,-10059350,2866211,8190918,23095700
2026-01-14 16:52:42.311,-64625350,31483170,23690500,35070500,3737793,31298830,38378900
2026-01-14 16:52:42.321,-64720300,31143080,23374580,35666080,4741211,6191406,61328120
2026-01-14 16:52:42.331,-19312510,41431180,-36046740,-9206542,5263672,96728510,921875
2026-01-14 16:52:42.341,-52264790,6521228,-1205843,49468120,4650879,13857420,12021480
2026-01-14 16:52:42.351,-18810150,6475483,-1230877,-8569526,32641600,17080080,14970700
2026-01-14 16:52:42.361,-64927460,29712810,22025450,38134740,9490967,19414060,17675780
2026-01-14 16:52:42.371,-53159030,6387437,-1282665,50541910,-14147950,19707030,19072270
2026-01-14 16:52:42.381,-17990140,40790700,-35754980,-7559619,-39013670,18505860,19853520
2026-01-14 16:52:42.391,-17708740,63037120,-13353200,-7219530,-60058590,1578125,19716800
2026-01-14 16:52:42.401,-52843800,62640060,-13629410,52600730,-8286133,11806640,19423830
2026-01-14 16:52:42.411,-17140780,62260270,-13888360,-6544533,-98046870,8378906,18691410
2026-01-14 16:52:42.421,-16855070,27677460,20072960,-6208763,-11357420,5126953,17910160
2026-01-14 16:52:42.431,-64685770,27371040,19775170,42226150,-12363280,265625,17246090
2026-01-14 16:52:42.441,-16295740,27065480,19476510,-5559661,-14052730,25558470,16816410
2026-01-14 16:52:42.451,-16022110,26769410,19185620,-5246331,-15390630,-107910200,16621090
2026-01-14 16:52:42.461,-15765750,26473350,18894730,-4950265,-16787110,-27392580,16865230
2026-01-14 16:52:42.471,-10624380,60274980,-15476590,-9539205,-18173830,-34521480,17724610
2026-01-14 16:52:42.481,-15257350,59981500,-15752810,-4371078,-19433590,-37841800,18085940
2026-01-14 16:52:42.491,-55543100,25632620,18060920,53630320,-20722660,-3774414,184375
2026-01-14 16:52:42.501,-14805050,25372800,17802830,-3856631,-21875,-4116211,18955080
2026-01-14 16:52:42.511,-63977970,39975010,-35707500,45782400,-23359380,-40283200,19482420
2026-01-14 16:52:42.521,-14391590,5893708,-1672818,-3389659,-24726560,-3984375,19775390
2026-01-14 16:52:42.531,-92606640,24679690,17114890,-81580540,-26289060,-4411621,19765620
2026-01-14 16:52:42.541,-63770810,5852273,-1712522,46680100,-27480470,-5361328,19648440
2026-01-14 16:52:42.551,-139470600,39867980,-35762740,-28847050,-28769530,-58935550,19296880
2026-01-14 16:52:42.561,-13850390,38019160,-37611570,-2774219,-29746090,-6879883,18535160
2026-01-14 16:52:42.571,-13796010,58073900,-17556820,-2707754,-29667970,-72802740,1734375
2026-01-14 16:52:42.581,-13764070,23954620,16389820,-2670639,-28789060,-71484380,15791020
2026-01-14 16:52:42.591,-63710390,23886430,16319910,47258420,-27480470,-6533203,14179690
2026-01-14 16:52:42.601,-63736280,5791852,-1779849,47232520,-25917970,-6035156,12597660
2026-01-14 16:52:42.611,-13859020,5791854,-1785030,-2765588,-240625,-59521480,11523440
2026-01-14 16:52:42.621,-63813970,57953060,-17902090,47051260,-22089840,-53808590,10634770
2026-01-14 16:52:42.631,-14014390,5800485,-1793661,-2938223,-20195310,-51123050,10058590
2026-01-14 16:52:42.641,-63908920,23854490,16248270,46731880,-18066410,-46826170,9316406
2026-01-14 16:52:42.651,-87062520,58177490,-18022930,-86952040,-15693360,-39794920,85302740
2026-01-14 16:52:42.661,-14344980,40198570,-36174480,-3315425,-13164060,-3251953,73779300
2026-01-14 16:52:42.671,-63995230,58427800,-18117880,46110410,-10166020,-24584960,63964840
2026-01-14 16:52:42.681,-14549550,5856592,-1820420,-3559703,-79052740,-21411130,5961914
2026-01-14 16:52:42.691,-55761480,5870400,-1829049,53929840,-61376950,-17993160,54052740
2026-01-14 16:52:42.701,-55657900,58842120,-18411360,53809000,-46020510,-13122560,48535160
2026-01-14 16:52:42.711,-63934810,24091870,16338900,45307660,-29516600,-10900880,43188480
2026-01-14 16:52:42.721,-14817130,59109700,-18713470,-3913599,-23205570,-10083010,43115230
2026-01-14 16:52:42.731,-63813970,59239180,-18894730,45014180,-19641110,-8520508,41259770
2026-01-14 16:52:42.741,-14848210,24059930,16215460,-3986106,-21984860,-5593872,45507810
2026-01-14 16:52:42.751,-63624080,41395780,-37376870,44789760,-25,-57128900,5058594
2026-01-14 16:52:42.761,-14828350,5958445,-1951621,-4005960,-32910160,-3604126,5463867
2026-01-14 16:52:42.771,-63416910,23953760,16010900,44599860,-4489746,40496820,5605469
2026-01-14 16:52:42.781,-14791240,59808870,-19947800,-4008546,-58154300,96069340,5776367
2026-01-14 16:52:42.791,-14780880,4024122,-3984346,-4018907,-71728510,6335449,5883789
2026-01-14 16:52:42.801,-14769660,60041930,-20353490,-4030126,-8574219,25436400,57958980
2026-01-14 16:52:42.811,-14767930,23853630,15783020,-4049117,-9135742,-5432129,53759770
2026-01-14 16:52:42.821,-62916280,2385189,1575024,44047440,-9760742,-8129883,52441410
2026-01-14 16:52:42.831,-14796420,60456250,-20871390,-4124211,-10078130,-31951900,48266600
2026-01-14 16:52:42.841,-14827490,42790660,-38830450,-4179454,-98876950,5065918,42114260
2026-01-14 16:52:42.851,-62648690,42939990,-38974600,43555430,-9121094,14733890,40649420
2026-01-14 16:52:42.861,-14895680,60965520,-21225290,-4301161,-8208008,35107420,44360350
2026-01-14 16:52:42.871,-14942290,43233470,-39250810,-4375394,-76220700,53515620,4416504
2026-01-14 16:52:42.881,-62424270,6135393,-2140653,42968480,-7109375,7207031,42871100
2026-01-14 16:52:42.891,-62355220,6155245,-2148421,42744050,-70703130,86865230,3737793
2026-01-14 16:52:42.901,-15122690,24268820,15937520,-4643840,-6899414,90234380,26879880
2026-01-14 16:52:42.911,-62208480,61984050,-21605080,42269310,-59472660,7944336,10626220
2026-01-14 16:52:42.921,-15272020,24468210,16083400,-4857042,-46704100,59814450,-97229010
2026-01-14 16:52:42.931,-62061740,62432900,-21691390,41760040,-25732420,4091797,-29516600
2026-01-14 16:52:42.941,-15403220,62674590,-21725920,-5053843,-9017944,2076416,-54785160
2026-01-14 16:52:42.951,-15455880,24803120,16335440,-5139298,17041020,17349240,-70214850
2026-01-14 16:52:42.961,-61776900,21088990,20239470,41060880,4033203,-1385498,-80908200
2026-01-14 16:52:42.971,-15527520,63356490,-21872660,-5274814,60546880,-23571780,-8691406
2026-01-14 16:52:42.981,-6151794,25078470,16526200,4069836,83935540,-2775879,-93603520
2026-01-14 16:52:42.991,-15498170,25144930,16563320,-5304163,9033203,-35668940,-7998047
2026-01-14 16:52:43.001,-15451560,25176870,16565910,-5281721,11054690,-3491211,-7128906
2026-01-14 16:52:43.011,-15379920,6408156,-2232150,-5232521,12705080,-31298830,-59765620
2026-01-14 16:52:43.021,-60853310,25188950,16519300,40413500,13164060,-35229490,-35864260
2026-01-14 16:52:43.031,-15154630,64297340,-22675410,-5043485,140625,-3305664,-14990230
2026-01-14 16:52:43.041,-60456250,64366400,-22882570,40517080,13359380,-31030270,77819820
2026-01-14 16:52:43.051,-60249090,25031860,16279340,40620660,14042970,-29882810,18115230
2026-01-14 16:52:43.061,-60041930,64452710,-23331410,40758770,12207030,-3330078,43969730
2026-01-14 16:52:43.071,-59834770,24849720,16047150,40914140,10595700,-39697260,6591797
2026-01-14 16:52:43.081,-14323400,46149250,-42083730,-4251961,9213867,-37304690,7998047
2026-01-14 16:52:43.091,-14150770,46232110,-42190760,-4079327,72802740,-4921875,90625
2026-01-14 16:52:43.101,-13995400,64383660,-24211850,-3923956,5776367,-49536130,9633789
2026-01-14 16:52:43.111,-13866790,6434050,-2439310,-3793621,40576170,-51220700,9682617
2026-01-14 16:52:43.121,-92131900,6428012,-2455707,-82055280,20678710,-48535160,9472656
2026-01-14 16:52:43.131,-13663940,24204080,15311730,-3582144,7299805,-45629880,89941410
2026-01-14 16:52:43.141,-58988860,24111720,15214190,41880880,-11517330,-39331060,82470700
2026-01-14 16:52:43.151,-58962970,64072920,-24919640,41958570,-24804690,-23486330,7402344
2026-01-14 16:52:43.161,-13534470,63995240,-24997330,-3435404,-3659668,-95947260,64160160
2026-01-14 16:52:43.171,-13529290,23878660,14981140,-3423322,-49731440,21865840,53222660
2026-01-14 16:52:43.181,-13550000,63848490,-25092280,-3437130,-6069336,12780760,41845700
2026-01-14 16:52:43.191,-51459460,63762180,-25109540,49755560,-7055664,2548828,32617190
2026-01-14 16:52:43.201,-13627690,23731930,14851660,-3497553,-7636719,3334961,22167970
2026-01-14 16:52:43.211,-13682930,63615440,-25083650,-3545889,-81396480,37060550,11694340
2026-01-14 16:52:43.221,-91907490,46222620,-42372880,-81761820,-86328130,38256840,39367680
2026-01-14 16:52:43.231,-5952404,63477340,-24997330,4201902,-8076172,3515625,-7729,53
2026-01-14 16:52:43.241,-13903040,46101770,-42252040,-3740103,-71875,32104490,-29830930
2026-01-14 16:52:43.251,-59774340,6335647,-2485920,41958570,-6088867,2944336,-3656006
2026-01-14 16:52:43.261,-14085170,63287430,-24772900,-3903241,-5234375,2631836,-154800400
2026-01-14 16:52:43.271,-14176660,63218380,-24686590,-3984379,-40942380,20983890,-26885990
2026-01-14 16:52:43.281,-60180030,23653380,14878420,41846360,-28027340,16040040,27446750
2026-01-14 16:52:43.291,-51989440,63054380,-24539850,50140540,-1809082,115722700,30548100
2026-01-14 16:52:43.301,-60456250,45635660,-41785930,41794570,-758667,6890869,12866210
2026-01-14 16:52:43.311,-9937734,45546760,-41702210,-8913841,-30654910,4196167,20458980
2026-01-14 16:52:43.321,-14637590,62735010,-24341320,-4386614,-11053090,48919680,2685547
2026-01-14 16:52:43.331,-60930990,45368080,-41535610,41734140,31402590,15907290,3100586
2026-01-14 16:52:43.341,-14816270,6248469,-2422910,-4535945,7824707,-2748108,3557129
2026-01-14 16:52:43.351,-61241730,23411690,14757580,41716880,10675050,-54870600,3713379
2026-01-14 16:52:43.361,-10364310,6222575,-2414280,-9333171,120910600,-6262207,40844730
2026-01-14 16:52:43.371,-15098520,19429210,18567420,-4771589,13842770,-6549072,43066410
2026-01-14 16:52:43.381,-61725100,6194951,-2403919,41699620,18688960,-78063970,41088870
2026-01-14 16:52:43.391,-15278060,23194170,14612560,-4920053,19042970,-8123779,42333980
2026-01-14 16:52:43.401,-15372150,61664680,-23961530,-4998600,20214840,-9057617,3779297
2026-01-14 16:52:43.411,-52971720,61526570,-23927000,50919110,15917970,-7183838,40234380
2026-01-14 16:52:43.421,-15543060,23002550,14476180,-5138435,20349120,-6298828,36694340
2026-01-14 16:52:43.431,-15628510,22933500,14424390,-5208352,17370600,-66467280,3232422
2026-01-14 16:52:43.441,-53228080,44328820,-40606840,51128860,15612790,-68359380,33520510
2026-01-14 16:52:43.451,-15798550,60922360,-23840680,-5349046,13098150,-61950680,3161621
2026-01-14 16:52:43.461,-53389500,22702170,14241400,51260930,122802700,-27069090,31396480
2026-01-14 16:52:43.471,-63114800,44066420,-40385880,41690990,9301758,45814510,28686520
2026-01-14 16:52:43.481,-16019520,22540760,14109340,-5525135,23620600,7621765,28955080
2026-01-14 16:52:43.491,-16085990,60335400,-23840680,-5579511,-45806880,-12390140,2368164
2026-01-14 16:52:43.501,-16144680,60205930,-23849320,-5624396,-72753900,-40924070,2019043
2026-01-14 16:52:43.511,-11462950,22298200,13903040,-10409710,-9753418,-53955080,19799800
2026-01-14 16:52:43.521,-16250850,22223970,13839160,-5708126,-12988280,-16052250,18249510
2026-01-14 16:52:43.531,-16291420,22141110,13766660,-5736610,-15820310,14335630,15332030
2026-01-14 16:52:43.541,-52828260,22077230,13709690,52806170,-21594240,14450070,17138670
2026-01-14 16:52:43.551,-16369110,5962761,-2397878,-5797033,-24853520,-472641,1652832
2026-01-14 16:52:43.561,-16398460,43545070,-39992270,-5819473,-21533200,-2193451,14416500
2026-01-14 16:52:43.571,-64055660,5945496,-2404782,41803200,-22705080,945282,9838867
2026-01-14 16:52:43.581,-64116080,59377280,-24091000,41811830,-24511720,-9010315,982666
2026-01-14 16:52:43.591,-64150610,21754410,13411040,41829100,-27685550,-18539430,117248500
2026-01-14 16:52:43.601,-16478730,21693990,13350610,-5877306,-2919922,1512146,11566160
2026-01-14 16:52:43.611,-16489090,59178760,-24237740,-5884210,-30639650,38879400,110961900
2026-01-14 16:52:43.621,-6423692,21590410,13247030,4184637,-3137207,56152340,1328125
2026-01-14 16:52:43.631,-64254180,21539480,13194380,41846360,-35351560,56488040,13769530
2026-01-14 16:52:43.641,-64262820,59049280,-24419000,41837730,-38989260,8001709,14428710
2026-01-14 16:52:43.651,-64262820,5902337,-2447940,41837730,-40039060,80200190,13647460
2026-01-14 16:52:43.661,-64262820,21415180,13059720,41837730,-42504880,6689453,10131840
2026-01-14 16:52:43.671,-11212600,21383250,13022610,-11212490,-44189450,6604004,8013916
2026-01-14 16:52:43.681,-16514980,58997490,-24660690,-5910105,-41455080,6384277,82092290
2026-01-14 16:52:43.691,-16513260,17561140,16723870,-5911833,-42333980,9649658,9716797
2026-01-14 16:52:43.701,-64202400,59023390,-24790170,41777310,-43310550,8795166,7104492
2026-01-14 16:52:43.711,-64176500,59032020,-24850590,41751410,-45385740,11663820,6359863
2026-01-14 16:52:43.721,-16506350,17115440,17031470,-5918739,-4428711,13439940,37872310
2026-01-14 16:52:43.731,-64107450,59083810,-24971430,41699620,-46118160,14758300,2784729
2026-01-14 16:52:43.741,-64081550,21255500,12839620,41673720,-4802246,22399900,-2558899
2026-01-14 16:52:43.751,-64029760,5916148,-2508362,41656460,-49169920,21984860,-47607420
2026-01-14 16:52:43.761,-16458880,59204660,-25144070,-5897157,-52685550,27026370,-6530762
2026-01-14 16:52:43.771,-16445930,59247820,-25204490,-5892841,-5463867,29638670,-9979248
2026-01-14 16:52:43.781,-63883020,21240820,12785240,41578780,-57666020,3466797,-14660650
2026-01-14 16:52:43.791,-6382260,21255500,12787830,4155289,-6044922,3479004,-18884280
2026-01-14 16:52:43.801,-63753550,21260680,12782650,41535620,-65234380,3269043,-20507810
2026-01-14 16:52:43.811,-16351840,21275350,12785240,-5831559,-6743164,31298830,-22143560
2026-01-14 16:52:43.821,-63624080,21297790,12797320,41492460,-70166020,29711910,-2133789
2026-01-14 16:52:43.831,-5261696,21321100,12808540,5239600,-6948242,28076170,-23242190
2026-01-14 16:52:43.841,-63485960,59705290,-25523860,41440670,-6611328,25,-24682620
2026-01-14 16:52:43.851,-63408280,5980022,-2554973,41397510,-6333008,20251460,-23937990
2026-01-14 16:52:43.861,-63330600,21441940,12894860,41371620,-5966797,20251460,-24108890
2026-01-14 16:52:43.871,-53386900,60007400,-25567020,51194460,-5180664,17675780,-22875980
2026-01-14 16:52:43.881,-63175220,60128240,-25567020,41285300,-4260254,16748050,-20471190
2026-01-14 16:52:43.891,-63097540,60240450,-25558380,41242140,-3046875,18249510,-16931150
2026-01-14 16:52:43.901,-16120520,60369930,-25549760,-5700356,-2253418,15209960,-10827640
2026-01-14 16:52:43.911,-16097210,60490770,-25532490,-5689134,-121521000,19042970,-9539795
2026-01-14 16:52:43.921,-62855850,21863170,13250490,41086770,61416620,21887210,-74279780
2026-01-14 16:52:43.931,-62778170,60732460,-25480700,41043620,1204834,19946290,-55847170
2026-01-14 16:52:43.941,-62700490,44928730,-41388010,41000460,2602539,18786620,-46783450
2026-01-14 16:52:43.951,-16020390,22092770,13452460,-5662377,35888670,20117190,-41656500
2026-01-14 16:52:43.961,-6254513,45038350,-41468290,4091416,4506836,18054200,-635376
2026-01-14 16:52:43.971,-15965150,6120721,-2538575,-5631305,52783200,18237300,-15563970
2026-01-14 16:52:43.981,-62389740,22314600,13644950,40845080,6352539,1529541,-6652832
2026-01-14 16:52:43.991,-62303430,61431620,-25351220,40827820,62597660,10601810,-29678340
2026-01-14 16:52:44.001,-15854660,22435450,13748530,-5551892,65771480,5999756,-35095220
2026-01-14 16:52:44.011,-15807190,45292120,-41663360,-5513049,6748047,10437010,-15396120
2026-01-14 16:52:44.021,-11131320,61699210,-25325330,-10102590,67089840,-43396000,-8773804
2026-01-14 16:52:44.031,-15705330,6177690,-2531669,-5425007,6640625,-9240723,22583010
2026-01-14 16:52:44.041,-15650950,18700440,17828810,-5375806,5859375,-13098150,77819820
2026-01-14 16:52:44.051,-15596570,4543628,-4177816,-5326606,5361328,-140625,8343506
2026-01-14 16:52:44.061,-52373550,6194950,-2531668,50291590,48242190,-14282230,10888670
2026-01-14 16:52:44.071,-1548091,6199269,-2530807,-521784,5,4609375,-15197750,13891600
2026-01-14 16:52:44.081,-61604260,62027210,-25290800,41009090,4025879,-13366700,15368650
2026-01-14 16:52:44.091,-61543840,22753090,14017840,41052240,31713870,-16137700,21325680
2026-01-14 16:52:44.101,-61492050,22778990,14043740,41104030,26245120,-1427002,25146480
2026-01-14 16:52:44.111,-61448890,22796250,14061000,41147190,17651370,-14904790,24987790
2026-01-14 16:52:44.121,-61405730,22822150,14086890,41190350,11071780,-16442870,24206540
2026-01-14 16:52:44.131,-61379840,22838550,14105020,41233510,57250980,-1953125,2331543
2026-01-14 16:52:44.141,-10560420,22862720,14132640,-9534115,-30078890,-21203610,21899410
2026-01-14 16:52:44.151,-15153770,22895520,14168890,-4888979,-54656980,-16662600,24206540
2026-01-14 16:52:44.161,-15129600,22918820,14197380,-4861358,-81604000,-11828610,21923830
2026-01-14 16:52:44.171,-15121830,19028440,18156810,-4851863,-1015625,-10913090,17370600
2026-01-14 16:52:44.181,-15114930,6219122,-2491964,-4841507,-12902830,-11383060,15026860
2026-01-14 16:52:44.191,-15099390,6219122,-2485058,-4822516,-16784670,-13476560,10809330
2026-01-14 16:52:44.201,-15092480,62191220,-24781540,-4812156,-19970700,-16760250,11315920
2026-01-14 16:52:44.211,-61371210,23092320,14403680,41466570,-18798830,-11853030,15795900
2026-01-14 16:52:44.221,-61397100,43587880,-43212230,41492460,-14892580,-57769780,16381840
2026-01-14 16:52:44.231,-15108020,23152740,14481360,-4813884,-9887695,-3137207,16772460
2026-01-14 16:52:44.241,-15119240,62156690,-24453540,-4819924,-6500244,-385437,20666500
2026-01-14 16:52:44.251,-15130460,62139420,-24367220,-4825967,-59936520,-36987300,23535160
2026-01-14 16:52:44.261,-10511050,19344100,18479900,-9479908,-31021120,-36865230,2244873
2026-01-14 16:52:44.271,-61595630,45051300,-41265440,41587400,-1871109,-35827640,2244873
2026-01-14 16:52:44.281,-61647420,23256320,14636730,41604680,30410770,-55603030,20080570
2026-01-14 16:52:44.291,-15213330,44941680,-41150640,-4881210,45776370,-70007330,2434082
2026-01-14 16:52:44.301,-15234040,23263220,14664350,-4895021,6390381,-122558600,2692871
2026-01-14 16:52:44.311,-61820050,23258040,14669530,41656460,56762700,-14819340,24023440
2026-01-14 16:52:44.321,-61871840,23252860,14674710,41673730,4522705,-19067380,27026370
2026-01-14 16:52:44.331,-6193228,61794160,-23901110,4169965,29525760,-17810060,28295900
2026-01-14 16:52:44.341,-61992680,6172509,-2386655,41725510,1689148,-21179200,28466800
2026-01-14 16:52:44.351,-15341080,61664680,-23840690,-4960620,-44441220,-20593260,27514650
2026-01-14 16:52:44.361,-62113530,23157050,14615150,41777300,-1701355,-20629880,3137207
2026-01-14 16:52:44.371,-15383370,61526580,-23806160,-4987379,-4458618,-20349120,32836910
2026-01-14 16:52:44.381,-15413580,23079370,14554730,-5008960,-22506710,-17956540,3630371
2026-01-14 16:52:44.391,-15435160,4446694,-4071042,-5021908,-4916382,-17382810,3894043
2026-01-14 16:52:44.401,-15456740,61293520,-23814790,-5034852,-85754390,-18432620,3786621
2026-01-14 16:52:44.411,-53170250,44389250,-40650000,51117640,-8679199,-18017580,40356440
2026-01-14 16:52:44.421,-15499030,22901560,14404540,-5061613,-95214850,-17785640,4013672
2026-01-14 16:52:44.431,-15519750,22846320,14356200,-5075423,-12011720,-15356450,41088870
2026-01-14 16:52:44.441,-53297140,22800570,14315630,51232440,-14013670,-15100100,4309082
2026-01-14 16:52:44.451,-10863740,22746190,14266430,-9817752,-18188480,-1381836,41796880
2026-01-14 16:52:44.461,-62691850,60827410,-23918370,41958570,-15771480,-113098100,42163090
2026-01-14 16:52:44.471,-15619880,18834920,17987810,-5147931,-15576170,-111816400,41455080
2026-01-14 16:52:44.481,-6279543,22593410,14125740,4197584,-16711430,-10437010,38671880
2026-01-14 16:52:44.491,-62847220,60628880,-24013320,41975830,-18249510,-85632320,37426760
2026-01-14 16:52:44.501,-62899010,6056845,-2405645,41975830,-18725590,-7421875,33325200
2026-01-14 16:52:44.511,-15732950,22425950,13965190,-5242015,-17980960,-48553470,30004880
2026-01-14 16:52:44.521,-15760580,44109580,-40480820,-5266183,-1743164,-51605220,28735350
2026-01-14 16:52:44.531,-15788200,60387190,-24203210,-5290350,-17419430,-43060300,24731440
2026-01-14 16:52:44.541,-63063020,60326770,-24263630,41932680,-15844730,-3955078,20495600
2026-01-14 16:52:44.551,-6308890,22210160,13749390,4192405,-14709470,-35247800,21130370
2026-01-14 16:52:44.561,-63132070,22150600,13688110,41915410,-16064450,13908390,1842041
2026-01-14 16:52:44.571,-63149330,60180030,-24462160,41898150,-15478520,38269040,1574707
2026-01-14 16:52:44.581,-15887460,22032350,13564680,-5380985,-1619873,3475952,13549810
2026-01-14 16:52:44.591,-6317522,21965890,13493030,4188953,-1685791,29693600,13647460
2026-01-14 16:52:44.601,-15904720,21908050,13430020,-5398249,-1920166,5718994,113586400
2026-01-14 16:52:44.611,-15913350,21841590,13358380,-5406880,-19946290,4815674,97839350
2026-01-14 16:52:44.621,-15913350,21783760,13295370,-5406880,-2310791,56732180,8898926
2026-01-14 16:52:44.631,-63183860,17895270,17045750,41863620,-2133789,39520260,72265620
2026-01-14 16:52:44.641,-15903000,59921080,-25118170,-5399973,-24304200,6665039,6677246
2026-01-14 16:52:44.651,-15902140,59895190,-25213120,-5400837,-25854490,56030270,55908200
2026-01-14 16:52:44.661,-53562130,2153169,1301227,51433560,-29052730,7562256,5166626
2026-01-14 16:52:44.671,-15883150,44361630,-40919320,-5385300,-2998047,9820557,24414060
2026-01-14 16:52:44.681,-15864150,21419500,12882780,-5369764,-32202150,9185791,47698980
2026-01-14 16:52:44.691,-15853800,59817500,-25636070,-5362857,-34326170,11138920,20858760
2026-01-14 16:52:44.701,-63028480,44482470,-41074680,41846360,-35839840,9307861,31402590
2026-01-14 16:52:44.711,-1582444,21269310,12704960,-534040,7,-37817380,9576416,9185791
2026-01-14 16:52:44.721,-15804600,59808870,-25938180,-5325740,-38476560,8746338,2751,35
2026-01-14 16:52:44.731,-62933540,44614540,-41236100,41820460,-3713379,7720947,-15029910
2026-01-14 16:52:44.741,-62890380,17287340,16427980,41811840,-38305660,9503174,-2357483
2026-01-14 16:52:44.751,-62855860,59843400,-26197130,41794570,-3623047,7366943,-63209540
2026-01-14 16:52:44.761,-62804060,59860660,-26283450,41777300,-36132810,60424800,-26245120
2026-01-14 16:52:44.771,-62769540,21074230,12451190,41760040,-32861330,7525635,-23086550
2026-01-14 16:52:44.781,-53279870,44841550,-41492460,51180650,-34375,88134770,-25894160
2026-01-14 16:52:44.791,-62691850,17160290,16296090,41716880,-2878418,9887695,-26569370
2026-01-14 16:52:44.801,-62657320,21037110,12384730,41682360,-25976560,9509277,27679440
2026-01-14 16:52:44.811,-15692390,60016030,-26594190,-5265319,-2331543,11224370,2217102
2026-01-14 16:52:44.821,-15688930,21037120,12367460,-5268774,-19299320,89538580,24749760
2026-01-14 16:52:44.831,-62527850,60093710,-26689130,41587410,-17150880,82214350,26245120
2026-01-14 16:52:44.841,-15672530,21054380,12367460,-5267910,-15246580,9277344,59021000
2026-01-14 16:52:44.851,-15669080,45149700,-41805790,-5271362,-11328130,10015870,3479004
2026-01-14 16:52:44.861,-62415640,21088900,12384730,41475200,-7220459,9777832,4333496
2026-01-14 16:52:44.871,-62381110,45238600,-41889510,41440670,-3286743,6842041,20812990
2026-01-14 16:52:44.881,-15649230,60361300,-26835880,-5273950,-24719240,57403560,-11882780
2026-01-14 16:52:44.891,-15645770,21151920,12425300,-5277405,33454900,37384030,-399,1127
2026-01-14 16:52:44.901,-10979660,45339600,-41978420,-9943514,23590090,7458496,21957400
2026-01-14 16:52:44.911,-15631100,21192490,12453780,-5274816,5429077,104003900,8453369
2026-01-14 16:52:44.921,-15627650,60568460,-26870400,-5278267,6530762,13049320,-104904200
2026-01-14 16:52:44.931,-62156690,60620250,-26870400,41268040,7110596,13317870,7118225
2026-01-14 16:52:44.941,-62122160,60672040,-26870400,41250780,7055664,10998540,4924774
2026-01-14 16:52:44.951,-15593120,60715200,-26879040,-5261003,11987310,70739740,-9010315
2026-01-14 16:52:44.961,-15581900,17382210,16505750,-5254963,11022950,57373050,-22949220
2026-01-14 16:52:44.971,-15562050,21346130,12576350,-5240289,113098100,27954100,-36621100
2026-01-14 16:52:44.981,-15550820,6085331,-2689629,-5234248,109802200,22640230,-44677740
2026-01-14 16:52:44.991,-10890840,21385840,12605700,-9859702,7171631,-57411190,-15533450
2026-01-14 16:52:45.001,-61897740,60922360,-26913560,41181720,29678340,-3704834,1121521
2026-01-14 16:52:45.011,-6187185,60965520,-26922190,4117312,-337,6007,-19317630,16832350
2026-01-14 16:52:45.021,-15481770,6100868,-2693082,-5182457,-4660034,-20751950,14831540
2026-01-14 16:52:45.031,-52511660,21446260,12648860,50446960,-6707764,-16922000,55755620
2026-01-14 16:52:45.041,-61759630,21466110,12663530,41147190,-8331299,-21102900,21209720
2026-01-14 16:52:45.051,-10811950,61112250,-26948080,-9783222,-9674072,-27572630,55847170
2026-01-14 16:52:45.061,-61716480,21504090,12694600,41121300,-99243170,-11199950,48950200
2026-01-14 16:52:45.071,-15429120,61181310,-26948090,-5148791,-9832764,13519290,7141113
2026-01-14 16:52:45.081,-15427390,17574610,16693140,-5150519,-75805660,-9384155,7354736
2026-01-14 16:52:45.091,-15425670,61250360,-26930820,-5152244,-8258057,-53131100,43640140
2026-01-14 16:52:45.101,-15432570,21586950,12767110,-5162603,-72021490,-46844480,5316162
2026-01-14 16:52:45.111,-61630160,21605080,12783510,41034980,-59570310,-33050540,79589840
2026-01-14 16:52:45.121,-15438610,6131942,-2689629,-5173825,-25283810,-18310550,80566410
2026-01-14 16:52:45.131,-61621520,61353940,-26879030,40991820,-31433100,-27038570,8288574
2026-01-14 16:52:45.141,-52330390,61371200,-26861770,50265690,5329132,-16113280,9838867
2026-01-14 16:52:45.151,-61638780,6137982,-2683585,40957300,44799800,-16403200,1340332
2026-01-14 16:52:45.161,-6163878,21700030,12878460,4094004,57769780,-1638794,14147950
2026-01-14 16:52:45.171,-15486950,6139710,-2680134,-5229069,6237793,-25039670,17553710
2026-01-14 16:52:45.181,-15504210,21725060,12905220,-5246331,8337402,-26779180,15759280
2026-01-14 16:52:45.191,-15511980,61414360,-26766820,-5255825,869751,-34332280,21728520
2026-01-14 16:52:45.201,-15529250,21740600,12924210,-5273090,81604000,-43182370,23754880
2026-01-14 16:52:45.211,-15547370,17781770,16900300,-5289489,9454346,-29464720,21203610
2026-01-14 16:52:45.221,-15564640,61414370,-26715030,-5306751,89416500,-30090330,21911620
2026-01-14 16:52:45.231,-15590530,21755270,12944060,-5332647,9082031,-35888670,20397950
2026-01-14 16:52:45.241,-61776890,45774630,-42302960,40819190,10070800,-4458618,19152830
2026-01-14 16:52:45.251,-61802790,45766000,-42294330,40793290,949707,-30685420,19116210
2026-01-14 16:52:45.261,-61837320,6137119,-2665458,40776030,6335449,-35339360,19812010
2026-01-14 16:52:45.271,-11069690,45740110,-42268440,-10043380,5508423,-28518680,16833500
2026-01-14 16:52:45.281,-6190637,21748370,12950970,4074152,3817749,-13343810,16174320
2026-01-14 16:52:45.291,-61949530,61328040,-26628710,40715610,17196660,-9025574,16711430
2026-01-14 16:52:45.301,-52396850,21737140,12944920,50268280,27267460,-8934021,12963870
2026-01-14 16:52:45.311,-15812370,61276260,-26611450,-5542396,4940796,-22155760,11993410
2026-01-14 16:52:45.321,-62061740,21717290,12930250,40655190,11802670,-8323669,12005620
2026-01-14 16:52:45.331,-15874510,61233100,-26602820,-5601091,3982544,-45776370,12432860
2026-01-14 16:52:45.341,-15901270,21696580,12916440,-5626125,9803772,-308609,10083010
2026-01-14 16:52:45.351,-15936660,61181310,-26602820,-5659786,1564,026,56152340,7696533
2026-01-14 16:52:45.361,-62225740,6114677,-2660279,40560240,11978150,-3396988,9893799
2026-01-14 16:52:45.371,-16007440,61112260,-26602820,-5727113,13908390,-10318760,7836914
2026-01-14 16:52:45.381,-62312060,21622340,12852560,40525720,12763980,16586300,60760500
2026-01-14 16:52:45.391,-16070450,61051830,-26611450,-5784946,-29067990,2394104,50048830
2026-01-14 16:52:45.401,-11467960,17641160,16764700,-10439230,-33843990,34332280,37628180
2026-01-14 16:52:45.411,-62424260,21567100,12804230,40465290,-26817320,26916500,20584110
2026-01-14 16:52:45.421,-62458800,60965510,-26628710,40448030,-2229309,4373169,26184080
2026-01-14 16:52:45.431,-16177480,21529990,12772290,-5885075,-13008120,7545471,11436460
2026-01-14 16:52:45.441,-62536480,21511860,12755890,40422140,60157780,818634,1838684
2026-01-14 16:52:45.451,-16231860,21492870,12740350,-5934276,16998290,5329132,11787420
2026-01-14 16:52:45.461,-16249990,21466110,12715320,-5950675,3552246,46691900,236969
2026-01-14 16:52:45.471,-16277610,60818780,-26671870,-5974842,21270750,-3540039,21514890
2026-01-14 16:52:45.481,-16295740,21421230,12673890,-5991244,4751587,14801030,15172960
2026-01-14 16:52:45.491,-62700480,60741090,-26697770,40378980,56274420,22003170,19569400
2026-01-14 16:52:45.501,-16332860,60706570,-26715030,-6023179,6677246,9971619,-15468600
2026-01-14 16:52:45.511,-62752270,2134870,1260832,40378980,55480960,-37574770,109939600
2026-01-14 16:52:45.521,-16361340,21313330,12574620,-6046488,2116394,-6011963,34088140
2026-01-14 16:52:45.531,-6280407,60602980,-26766820,4036174,3656006,62561040,34729000
2026-01-14 16:52:45.541,-16389830,45374120,-41995680,-6069792,50689700,78430180,4837036
2026-01-14 16:52:45.551,-16390690,21233920,12498660,-6068930,4147339,8129883,-40664670
2026-01-14 16:52:45.561,-62864490,21207160,12473630,40387610,4083252,42999270,-2583313
2026-01-14 16:52:45.571,-16401910,21181270,12447740,-6074972,41900640,124054000,-4336548
2026-01-14 16:52:45.581,-62890380,60447610,-26870400,40413500,-13961790,-4589081,-17654420
2026-01-14 16:52:45.591,-16404500,60421720,-26896300,-6072380,-34729000,23529050,-40252690
2026-01-14 16:52:45.601,-16396730,60395820,-26922190,-6062886,-45837400,40924070,-4232788
2026-01-14 16:52:45.611,-62907640,60369930,-26948090,40448030,-7904053,4849243,-26977540
2026-01-14 16:52:45.621,-52808580,60352660,-26965350,50564350,-86242670,28244020,-41625980
2026-01-14 16:52:45.631,-16382060,60326770,-26991250,-6043032,-93322750,6384277,-59051510
2026-01-14 16:52:45.641,-16374290,60309510,-27008510,-6033538,-10406490,5770874,-8679199
2026-01-14 16:52:45.651,-52831890,60292240,-27025770,50592830,-7702637,70739740,-9112549
2026-01-14 16:52:45.661,-16358750,60266350,-27051670,-6014548,-6262207,75927740,-105163600
2026-01-14 16:52:45.671,-16341480,20956840,12223310,-5997286,-597229,11053470,-12323000
2026-01-14 16:52:45.681,-16333720,4532493,-4201036,-5987793,-50323490,115722700,-13842770
2026-01-14 16:52:45.691,-62881750,20913680,12180160,40594770,-1890564,140625,-12036130
2026-01-14 16:52:45.701,-16300920,20897280,12162030,-5951539,22140500,17333980,-12609860
2026-01-14 16:52:45.711,-16275880,20871390,12136130,-5924780,56732180,19360350,-14416500
2026-01-14 16:52:45.721,-62838590,60162770,-27207030,40689720,6628418,21521000,-11114500
2026-01-14 16:52:45.731,-62812700,20829950,12091250,40732870,8605957,19128420,-12536620
2026-01-14 16:52:45.741,-16183530,2079630,1205587,-5827244,84228510,17468260,-10491940
2026-01-14 16:52:45.751,-6275230,45350820,-42070780,4082785,10058590,16186520,-9136963
2026-01-14 16:52:45.761,-11437140,60085090,-27353780,-10400990,8770752,1875,-8868408
2026-01-14 16:52:45.771,-16048870,20704800,11957460,-5685683,8081055,17932130,-5908203
2026-01-14 16:52:45.781,-62631430,60041920,-27448720,41017720,7556152,16394040,-5984497
2026-01-14 16:52:45.791,-15929760,6001604,-2750914,-5563115,93811030,16101070,-36468500
2026-01-14 16:52:45.801,-15870200,20596900,11840930,-5501829,9680176,17773440,-15571590
2026-01-14 16:52:45.811,-62476060,59972870,-27621360,41242140,11212160,14331060,1777649
2026-01-14 16:52:45.821,-15734680,16570830,15694370,-5361132,10083010,11364750,46447750
2026-01-14 16:52:45.831,-15657860,20482100,11714040,-5282584,11462400,10748290,7525635
2026-01-14 16:52:45.841,-15581900,59912460,-27802630,-5203171,12261960,88378900,9039307
2026-01-14 16:52:45.851,-15505080,59895190,-27871680,-5124622,12207030,9326172,10638430
2026-01-14 16:52:45.861,-62148060,20367300,11587160,41673730,11468510,6982422,8654785
2026-01-14 16:52:45.871,-10670130,45511370,-42324550,-9631565,11010740,72143550,10192870
2026-01-14 16:52:45.881,-15258210,59834770,-28052940,-4870851,6286621,55419920,107421900
2026-01-14 16:52:45.891,-61923630,5980886,-2811334,41967200,61828610,69885260,1385498
2026-01-14 16:52:45.901,-15088170,20203300,11405900,-4695630,4852295,57861330,1315918
2026-01-14 16:52:45.911,-52951010,59765710,-28242840,50991620,16433720,48583980,12060550
2026-01-14 16:52:45.921,-6169059,59748450,-28311890,4226934,4373169,51849360,15063480
2026-01-14 16:52:45.931,-61612890,20079860,11270380,42381520,3353882,51116940,14562990
2026-01-14 16:52:45.941,-61526570,16072690,15191230,42485100,4510498,60760500,14758300
2026-01-14 16:52:45.951,-14627240,59688030,-28493160,-4224338,38024900,6213379,14794920
2026-01-14 16:52:45.961,-61362570,5966212,-2855355,42700890,54870600,657959,1459961
2026-01-14 16:52:45.971,-14439930,19924500,11097750,-4031853,58746340,6021118,1932373
2026-01-14 16:52:45.981,-61198580,44166480,-44135540,42916690,39276120,62561040,20678710
2026-01-14 16:52:45.991,-14243990,59593080,-28760740,-3830734,541687,5340576,20324710
2026-01-14 16:52:46.001,-61017300,15373450,15372570,43149740,423584,38726810,20825200
2026-01-14 16:52:46.011,-52092240,19751860,10907850,52092070,47088620,23422240,23168940
2026-01-14 16:52:46.021,-92563490,59515400,-28959260,-82141600,34179690,17410280,2692871
2026-01-14 16:52:46.031,-60749730,59489500,-29036950,43486380,17333980,5466461,27734380
2026-01-14 16:52:46.041,-13741630,19602530,10746430,-3314561,5882263,-20942690,2524414
2026-01-14 16:52:46.051,-89546710,19544700,10683430,-79116200,31707760,-149383600,24328610
2026-01-14 16:52:46.061,-13545690,45829880,-42817420,-3113443,22125240,-21591190,2709961
2026-01-14 16:52:46.071,-60404460,45849730,-42849360,43952490,131073,-34088140,30249020
2026-01-14 16:52:46.081,-86529940,19378110,10504750,-76090790,18234250,-3994751,27514650
2026-01-14 16:52:46.091,-60231820,19320280,10441740,44176910,-21270750,-50323490,27319340
2026-01-14 16:52:46.101,-13154670,59221920,-29598010,-2710344,-53741460,-6958008,2479248
2026-01-14 16:52:46.111,-130614500,59187390,-29684320,-26136710,-6021118,-9210205,2487793
2026-01-14 16:52:46.121,-5302956,5913560,-2977065,5148277,-75805660,-10418700,2446289
2026-01-14 16:52:46.131,-59903820,19052690,10156890,44625760,-12792970,-15966800,23986820
2026-01-14 16:52:46.141,-12772290,45958490,-43051340,-2315876,-13977050,-24267580,2548828
2026-01-14 16:52:46.151,-7963496,18910270,10005840,-6917510,-13146970,-33032230,28320310
2026-01-14 16:52:46.161,-125780800,18825680,9917800,-21130340,-10083010,-40844730,35327150
2026-01-14 16:52:46.171,-59593080,58850760,-30262650,45109140,-7867432,-3708496,4326172
2026-01-14 16:52:46.181,-59515400,14644760,13753450,45238600,-10430910,-30029300,53271480
2026-01-14 16:52:46.191,-122759700,18561550,9646764,-17936620,-16064450,-18029780,6621094
2026-01-14 16:52:46.201,-12175840,18466600,9551812,-1686629,-24951170,-2866745,76953130
2026-01-14 16:52:46.211,-12085210,18371660,9456862,-1587364,-33422850,17272950,8540039
2026-01-14 16:52:46.221,-72666620,14264970,13373660,-62160140,-37451170,30419920,89501950
2026-01-14 16:52:46.231,-11912580,58289700,-30823710,-1397466,-48950200,41381840,86816410
2026-01-14 16:52:46.241,-11830570,5820338,-3087550,-1306836,-5830078,45141600,82177740
2026-01-14 16:52:46.251,-70175510,58125700,-30935920,-59644870,-6220703,4338379,72558590
2026-01-14 16:52:46.261,-11699370,17985820,9083110,-1161822,-66308590,3786621,6352539
2026-01-14 16:52:46.271,-59092440,45845410,-43147150,46352090,-6635742,39770510,5214844
2026-01-14 16:52:46.281,-11593200,17904680,9008880,-1043569,-5419922,44067380,39916990
2026-01-14 16:52:46.291,-11544000,45813470,-43127300,-989188,1,-45922850,4099121,33764650
2026-01-14 16:52:46.301,-67514370,17841670,8951048,-56954380,-37573240,39501950,30810550
2026-01-14 16:52:46.311,-114620000,57806320,-31082650,-8985570,-30151370,37841800,30395510
2026-01-14 16:52:46.321,-58980230,57763160,-31108550,46705990,-20825200,33764650,28857420
2026-01-14 16:52:46.331,-58954340,17726870,8841425,46783670,-16064450,26831060,2614746
2026-01-14 16:52:46.341,-11323030,17682850,8799130,-744049,3,-9100342,18884280,2998047
2026-01-14 16:52:46.351,-64936950,17620700,8740436,-54352790,-3062439,10668950,328125
2026-01-14 16:52:46.361,-58850760,17568050,8689510,47059890,-47332760,-71258540,39282230
2026-01-14 16:52:46.371,-58798970,57443790,-31324350,47180740,-50354000,-99609380,48291020
2026-01-14 16:52:46.381,-11025240,17436840,8561757,-420362,3,-58654780,-21948240,53808590
2026-01-14 16:52:46.391,-61670720,17366930,8493570,-51058940,-7910156,-2734375,6113281
2026-01-14 16:52:46.401,-10850880,57210740,-31488350,-232189,6,-10217290,-39257810,6689453
2026-01-14 16:52:46.411,-10759380,17234860,8366683,-133790,3,-982666,-43481440,7216797
2026-01-14 16:52:46.421,-58833490,57055370,-31591930,-48199270,-61279300,-46484380,83740230
2026-01-14 16:52:46.431,-10578120,56960420,-31635080,64740,44,-8734131,-39697260,9658203
2026-01-14 16:52:46.441,-10496120,17030290,8174196,155370,7,-15576170,-29467770,10117190
2026-01-14 16:52:46.451,-56256080,16975920,8124998,-45597680,-17749020,-22265620,10371090
2026-01-14 16:52:46.461,-58350120,16921530,8075797,48320110,-21081540,-1619873,10683590
2026-01-14 16:52:46.471,-10283780,16875790,8035226,391878,7,-21203610,-103149400,10234380
2026-01-14 16:52:46.481,-5829833,16829180,7995521,4852728,-1586914,-27420040,9970703
2026-01-14 16:52:46.491,-101620700,16783430,7954956,5291220,-115356400,60516360,9863281
2026-01-14 16:52:46.501,-10105100,56451150,-31781820,592998,4,-11071780,2010498,9692383
2026-01-14 16:52:46.511,-5230881,5638210,-3178182,-4160381,-82458500,35009770,9189453
2026-01-14 16:52:46.521,-58203380,16662580,7851373,48932960,-52978520,5029297,8105469
2026-01-14 16:52:46.531,-99350580,56243990,-31833610,7854830,-46203610,61376950,7089844
2026-01-14 16:52:46.541,-58142960,4523686,-4280618,49114230,-8270264,6508789,5288086
2026-01-14 16:52:46.551,-58108430,56088620,-31919930,49217810,-6762695,56640620,3479004
2026-01-14 16:52:46.561,-97365290,5600230,-3198895,10012740,-7397461,42944340,1472168
2026-01-14 16:52:46.571,-48185460,16328540,7529411,-37440750,-55358890,22265620,-2986145
2026-01-14 16:52:46.581,-57927170,5582965,-3216160,49571700,-4876709,16937260,-1796875
2026-01-14 16:52:46.591,-94430520,16138640,7339517,13120150,-35308840,-18457030,-2919922
2026-01-14 16:52:46.601,-93161660,55622510,-32386040,14440790,-19165040,-34399420,-32055660
2026-01-14 16:52:46.611,-91901440,15890910,7086610,15770070,-8590698,-42089840,-27929690
2026-01-14 16:52:46.621,-90546260,55380820,-32679510,17177030,-30937200,-48046880,-1821289
2026-01-14 16:52:46.631,-89104780,5524271,-3285212,18670310,17471310,-46826170,-9283447
2026-01-14 16:52:46.641,-87671920,55087350,-33042050,20172230,3756714,-42797850,440979
2026-01-14 16:52:46.651,-37591800,15249580,6433188,-26800490,8288574,-28222660,1697998
2026-01-14 16:52:46.661,-8463357,5474208,-3345637,2334869,8679199,-17993160,30664060
2026-01-14 16:52:46.671,-34318680,54560820,-33672160,-23513540,43640140,-60668940,40820310
2026-01-14 16:52:46.681,-56779160,14641910,5815162,51341200,15007020,25009160,48461910
2026-01-14 16:52:46.691,-79558140,54163760,-34138270,28631270,-43884280,10455320,49853520
2026-01-14 16:52:46.701,-29150030,14205150,5371491,-18324180,-10321050,20629880,50146480
2026-01-14 16:52:46.711,-7608821,13973820,5136710,3223931,-19445800,25463870,4794922
2026-01-14 16:52:46.721,-25617080,13751120,4910561,-14779150,-2512207,30004880,40625
2026-01-14 16:52:46.731,-23807880,13528420,4684412,-12963050,-28271480,29370120,32739260
2026-01-14 16:52:46.741,-708316,8,53119320,-35355340,376861,3,-34106440,28588870,23608400
2026-01-14 16:52:46.751,-20188620,13082170,4232974,-9331704,-375,24121090,17407230
2026-01-14 16:52:46.761,-18379420,128681000,40154550,-7515593,-39746100,2043457,12524410
2026-01-14 16:52:46.771,-5445553,52497850,-36045870,5423457,-453125,15820310,55999760
2026-01-14 16:52:46.781,-14672980,12438240,3582146,-3798799,-47827150,16479490,-7045746
2026-01-14 16:52:46.791,-12862920,12231950,3374122,-1983558,-45996100,15161130,-22003170
2026-01-14 16:52:46.801,-5497512,120256500,31660980,5387033,-4465332,12438970,-61676020
2026-01-14 16:52:46.811,-91564800,11827980,2966711,17332400,-51171880,1706543,-9631348
2026-01-14 16:52:46.821,-73464180,11620820,2759550,35484820,-4506836,16625980,-10131840
2026-01-14 16:52:46.831,-54500390,11422290,2561020,54500390,-36376950,22131350,-1048584
2026-01-14 16:52:46.841,14401090,68374430,67488130,25304620,-26635740,2631836,-7281494
2026-01-14 16:52:46.851,34251350,7029116,6142816,45160060,-2849121,3166504,-38085940
2026-01-14 16:52:46.861,-48691280,6821955,5935660,60430360,-3100586,34228520,-262146
2026-01-14 16:52:46.871,-46645570,50495290,-38152000,62527850,-13146970,40112300,-36102300
2026-01-14 16:52:46.881,-44513540,64075500,55214230,64711660,13293460,4152832,-16647340
2026-01-14 16:52:46.891,6879444,50029180,-38566320,17807150,18762210,3425293,-22216800
2026-01-14 16:52:46.901,-39999180,9917791,1061698,69346870,17785640,39526370,-14953610
2026-01-14 16:52:46.911,-37530520,49519910,-39006540,71884580,19580080,49438480,-34448240
2026-01-14 16:52:46.921,14292330,9455135,609395,3,25240740,1842041,67041020,-6010742
2026-01-14 16:52:46.931,-3234287,52755930,43918820,7722761,22375490,82128900,-10087890
2026-01-14 16:52:46.941,-2962391,9074480,247729,7,8003289,17700200,93847660,-14111330
2026-01-14 16:52:46.951,-2700849,49894530,41083320,8276914,8618164,91845700,-16884770
2026-01-14 16:52:46.961,-2465208,48440960,-39515800,8524644,7110596,9248047,-16640630
2026-01-14 16:52:46.971,26954130,48294220,-39472650,37956060,9954834,10244140,-16230470
2026-01-14 16:52:46.981,-20552020,48173370,-39420860,89605410,15457150,10810550,-15917970
2026-01-14 16:52:46.991,-18713460,43940660,43066620,91564800,-17565920,10292970,-15244140
2026-01-14 16:52:47.001,-1696986,47605410,38883970,9344653,-34570310,91015620,-14609380
2026-01-14 16:52:47.011,34436930,47249780,38549060,45492380,-59765620,77734380,-13369140
2026-01-14 16:52:47.021,-51177200,86040530,-759585,6,59515400,-8720703,58447260,-12617190
2026-01-14 16:52:47.031,37702290,46796620,38139050,48787090,-10117190,31835940,-12626950
2026-01-14 16:52:47.041,-1070328,85634840,-699167,8,10030010,-99072260,11734010,-13466800
2026-01-14 16:52:47.051,-923587,47030540,38423040,10194010,-86035150,-25878910,-13496090
2026-01-14 16:52:47.061,-794977,5,86057790,258952,3,10341610,-7441406,-5527344,-12060550
2026-01-14 16:52:47.071,-684490,47950680,39401870,10472810,-7207031,-734375,-10673830
2026-01-14 16:52:47.081,-591270,8712812,195076,3,10586750,-7426758,-73876950,-8984375
2026-01-14 16:52:47.091,45154880,49817700,41332770,56353610,-7109375,-8642578,-6201172
2026-01-14 16:52:47.101,-4747420,46939040,-37582310,107464400,-61328120,-86816410,-36621100
2026-01-14 16:52:47.111,-51047720,90339100,6163019,61388470,-42358400,-80371100,-15344240
2026-01-14 16:52:47.121,-51142670,4689586,-3695218,61517940,-16662600,-7944336,-55274960
2026-01-14 16:52:47.131,-447982,55447290,47097010,10840520,5215454,-7524414,58563230
2026-01-14 16:52:47.141,-441080,46852730,-36322090,10868140,2553711,-8330078,1348877
2026-01-14 16:52:47.151,-51427510,58091160,49804760,61871840,40063480,-8930664,9698486
2026-01-14 16:52:47.161,-51513830,9626904,1369849,61975420,6176758,-87060540,12988280
2026-01-14 16:52:47.171,-51582890,46723250,-35588390,62079010,88183590,-76904300,17993160
2026-01-14 16:52:47.181,-442807,41604670,-40482550,10938920,11494140,-47924800,6085205
2026-01-14 16:52:47.191,-51712360,9713221,1525219,62243000,1421875,-45581060,5973816
2026-01-14 16:52:47.201,-5175552,9661433,1490690,6233796,14550780,-53271480,-70129390
2026-01-14 16:52:47.211,-51798680,9566482,1413008,62432900,15068360,-6123047,-7348633
2026-01-14 16:52:47.221,-51833210,94292410,12912990,62519220,16210940,-7104492,-13317870
2026-01-14 16:52:47.231,47878170,9257468,1135063,59327230,17568360,-4633789,-22094730
2026-01-14 16:52:47.241,-3288668,9050306,945168,5,111357200,17890620,-4074707,-21105960
2026-01-14 16:52:47.251,-266719,8817255,729377,11211680,18115230,-22583010,-2758789
2026-01-14 16:52:47.261,-180402,8547947,480784,11315260,16679690,-3935547,-16625980
2026-01-14 16:52:47.271,56048060,82605120,2157912,57199520,13701170,-7680664,9954834
2026-01-14 16:52:47.281,-27621,79359620,-811375,8,11507750,11552730,-11201170,4753418
2026-01-14 16:52:47.291,11219,5,43529540,-36330720,11572490,10117190,-16318360,65234380
2026-01-14 16:52:47.301,5229673,72126270,-7388712,6388565,984375,-16816410,8666992
2026-01-14 16:52:47.311,-863,5,68129810,-10988120,11619100,11748050,-11386720,88671870
2026-01-14 16:52:47.321,-44021,5,6419376,-1447532,11610470,16464840,-10048830,7910156
2026-01-14 16:52:47.331,-52713640,60067820,-18117880,64193760,18935550,-11210940,80078130
2026-01-14 16:52:47.341,50845740,55665670,-22002140,62574460,18808590,-1421875,10771480
2026-01-14 16:52:47.351,-325415,5,50995930,-26136710,11443010,15126950,-15214840,12304690
2026-01-14 16:52:47.361,53271160,11942780,4284760,54452140,13212890,-1828125,12666020
2026-01-14 16:52:47.371,-746639,5,7338649,-260676,2,11104650,13701170,-18955080,11552730
2026-01-14 16:52:47.381,-54543560,25610170,-49778860,64400920,13818360,-17226560,11123050
2026-01-14 16:52:47.391,-1334459,31332980,-43417320,10604880,1359375,-11464840,10615230
2026-01-14 16:52:47.401,37079080,26326610,-47733160,49065030,14072270,-8935547,10078130
2026-01-14 16:52:47.411,38845210,-11782240,-19119160,40048290,13857420,-7451172,10478520
2026-01-14 16:52:47.421,-2473839,-16565910,-23830330,9603600,14472660,-74853520,10019530
2026-01-14 16:52:47.431,-29106010,1082408,-6106046,92117230,121875,-64208980,96191410
2026-01-14 16:52:47.441,-33818900,535160,-6577335,87853180,11845700,-5991211,10517580
2026-01-14 16:52:47.451,-3878213,34810680,-35520200,8332157,12871090,-111328100,11220700
2026-01-14 16:52:47.461,16737080,3067697,-3887707,17962260,1203125,-3479004,11855470
2026-01-14 16:52:47.471,6197542,29692960,-39049700,18489050,11064450,78552250,11572270
2026-01-14 16:52:47.481,1172180,33436520,-34494760,13501670,11083980,46118160,12265630
2026-01-14 16:52:47.491,16260340,-25756920,-92842290,28624360,81884770,64941410,12011720
2026-01-14 16:52:47.501,-32956600,-3265362,-9889308,-20559780,5029297,86572260,10009770
2026-01-14 16:52:47.511,-13982450,-3965391,-10501290,-1554565,4580078,90771490,94384770
2026-01-14 16:52:47.521,-19089820,-46757780,-111201900,-6632579,38989260,11845700,61083980
2026-01-14 16:52:47.531,-24196310,23210570,-40318550,-11711450,19726560,15830080,12365720
2026-01-14 16:52:47.541,-85600310,22079820,-40499810,39507180,14526370,17832030,-11039730
2026-01-14 16:52:47.551,-90805220,20966340,-40663820,34526700,-40039060,16425780,-3503418
2026-01-14 16:52:47.561,-6310100,-7443093,-13514610,6243808,-23461910,16542970,-6855469
2026-01-14 16:52:47.571,-4452393,18799790,-41000450,-3195273,-39282230,17832030,-94140620
2026-01-14 16:52:47.581,-49622630,17763990,-41155820,-37039380,-42041020,16103520,-11103520
2026-01-14 16:52:47.591,-48967140,-9380901,-15184840,-47707610,-57714840,1609375,-15224610
2026-01-14 16:52:47.601,-11618240,15761440,-41449300,984011,8,-49804690,11396480,-14013670
2026-01-14 16:52:47.611,-12086940,14829220,-41604670,520490,7,-7338867,10449220,-18789060
2026-01-14 16:52:47.621,-68710720,13948790,-41777300,-56103290,-72021490,46264650,-17832030
2026-01-14 16:52:47.631,-69709400,13111510,-41941300,56330310,-68359380,-18493650,-19570310
2026-01-14 16:52:47.641,-70132350,-12185340,-17628470,55855560,-90185540,-8898926,-23496090
2026-01-14 16:52:47.651,-138745500,-12680790,-18065230,-12826670,-86328130,-125,-25332030
2026-01-14 16:52:47.661,-14293190,10850010,-42459210,-1709934,-5854492,-29174800,-25429690
2026-01-14 16:52:47.671,-84614750,-13587120,-18867970,-83357630,-5136719,3479004,-27792970
2026-01-14 16:52:47.681,-63687950,9546629,-42778580,61937440,-7109375,-41479490,-29453120
2026-01-14 16:52:47.691,-15355750,-14401950,-19589580,-2805296,-10507810,-22192380,-32207030
2026-01-14 16:52:47.701,-72048580,8389986,-43089320,53352380,-82470700,-7294922,-28066410
2026-01-14 16:52:47.711,-15846030,7854822,-43227420,-3316290,-13291020,-30566410,-3375
2026-01-14 16:52:47.721,-7236798,7388714,-43365530,5282585,-7602539,-74853520,-31054690
2026-01-14 16:52:47.731,-72462900,25047480,-25413290,52644580,-1109375,-29077150,-30234380
2026-01-14 16:52:47.741,-16255170,6551442,-43667640,-3753053,-15078130,-67333980,-29003910
2026-01-14 16:52:47.751,-16301780,-16296600,-21302970,-3810022,-13388670,-7885742,-26464840
2026-01-14 16:52:47.761,-63416050,-16527070,-21521350,61397960,-13261720,-21154780,-26230470
2026-01-14 16:52:47.771,-16301780,5714166,-44142380,-3827284,-10205080,-43969730,-20800780
2026-01-14 16:52:47.781,-16237050,5498378,-44323650,-3771179,-13105470,-19128420,-18964840
2026-01-14 16:52:47.791,-16146410,22951620,-26870400,-3689177,-13164060,10736080,-16728520
2026-01-14 16:52:47.801,-7204860,-19500080,-19998470,5245468,-10273440,24182130,-7573242
2026-01-14 16:52:47.811,-71850060,503224,4,-4485879,52566900,-134375,49926760,-6308594
2026-01-14 16:52:47.821,-71642900,4911420,-45048710,52705000,-15664060,8911133,-37670900
2026-01-14 16:52:47.831,-71444370,-17697520,-22698710,52851740,-10478520,6220703,8227539
2026-01-14 16:52:47.841,-71228580,4704262,-45376710,52998480,-12529300,12197270,82958980
2026-01-14 16:52:47.851,-15152040,23011180,-27104320,-2732787,-12177730,14785160,13408200
2026-01-14 16:52:47.861,-14977680,22990460,-27107770,-2561880,-12021480,16328130,16884770
2026-01-14 16:52:47.871,-7068480,-18186940,-23193310,5347322,-11386720,18115230,20351560
2026-01-14 16:52:47.881,-70555310,22904150,-27055980,53619960,-55566410,18818360,25683590
2026-01-14 16:52:47.891,-14557320,-20613560,-21111950,-2136340,-18029780,20058590,27851560
2026-01-14 16:52:47.901,-70348150,3866990,-45782400,53896170,-949707,17480470,32089840
2026-01-14 16:52:47.911,-87524310,3633938,-45773770,-75096420,-24450680,14023440,3515625
2026-01-14 16:52:47.921,-14278520,22437170,-26677050,-1845451,-37426760,11533200,36972660
2026-01-14 16:52:47.931,-14237950,22250730,-26518230,-1799703,-6972656,10664060,34960940
2026-01-14 16:52:47.941,-14249170,23971110,-24400800,-1805745,-84228510,1125,32539060
2026-01-14 16:52:47.951,-14304410,-19217560,-24009860,-1854084,-86083980,12509770,29707030
2026-01-14 16:52:47.961,-144036700,1976656,-45445760,-19447160,-9667969,13398440,27207030
2026-01-14 16:52:47.971,-14528830,157096,5,-4529902,-2061243,-12822270,11572270,24980470
2026-01-14 16:52:47.981,-90743060,-19662090,-24290390,-78265110,-1671875,8364258,22832030
2026-01-14 16:52:47.991,-71081840,759584,-44919230,53801220,-18505860,6220703,19892580
2026-01-14 16:52:48.001,-71340780,353896,-44686170,53645850,-20078120,390625,16455080
2026-01-14 16:52:48.011,-71634260,19967650,-24416410,53473220,-21523440,18469240,14003910
2026-01-14 16:52:48.021,-9948266,-457478,-44168280,-8696154,-23398440,-6451416,10380860
2026-01-14 16:52:48.031,-72247110,-20221430,-24525170,53084800,-28574220,-15014650,5336914
2026-01-14 16:52:48.041,-63712110,-1225700,-43572690,61740640,-26855470,-7080078,4416504
2026-01-14 16:52:48.051,-16420040,-159685,6,-4328784,-3864401,-29453120,-7705078,-53894040
2026-01-14 16:52:48.061,-16710060,-1924864,-42994370,-4144067,-2953125,-9296875,-21984860
2026-01-14 16:52:48.071,-73585020,-20444990,-24491510,52161210,-31738280,-12285160,-41137700
2026-01-14 16:52:48.081,-17289250,-2511816,-42390150,-4704262,-35664060,-11904300,-11142580
2026-01-14 16:52:48.091,-17569770,-20439800,-24375850,-4976162,-27832030,-19267580,-10369870
2026-01-14 16:52:48.101,-17850300,-20419950,-24309380,-5248060,-34121100,-18359380,-9536133
2026-01-14 16:52:48.111,-74871140,-3055616,-41518350,51237620,-32421880,-17626950,-11386720
2026-01-14 16:52:48.121,-12706690,-3167824,-41233510,-11444740,-346875,-15673830,-18544920
2026-01-14 16:52:48.131,-18632330,16653090,-21067330,-6002466,-2875,-20332030,-94140620
2026-01-14 16:52:48.141,-75717050,-322826,9,-4067242,50667930,-32929690,-19482420,-17460940
2026-01-14 16:52:48.151,-19038020,-3193720,-40396240,-6390892,-33730470,-19941410,-19609380
2026-01-14 16:52:48.161,-19216700,-3098770,-40128660,-6557483,-36015620,-20195310,-24238280
2026-01-14 16:52:48.171,-19369480,16314730,-20594310,-6698178,-30273440,-23515620,-18779300
2026-01-14 16:52:48.181,-19487730,-272760,5,-3960212,-6804349,-34296880,-21757810,-24160160
2026-01-14 16:52:48.191,-19580090,16355300,-20536480,-6884624,-37148440,-22558590,-23808590
2026-01-14 16:52:48.201,-76847790,16445060,-20567550,50244970,-37421880,-20546880,-23828120
2026-01-14 16:52:48.211,-76968640,-18423450,-22145420,50244980,-38203120,-16054690,-25605470
2026-01-14 16:52:48.221,-19754450,-1156644,-38687160,-7021003,-37949220,-9741211,-26933590
2026-01-14 16:52:48.231,-19752720,-17637960,-21429000,-7005468,-36523440,-40356440,-25546880
2026-01-14 16:52:48.241,-19706980,6042,625,-3831599,-6947635,-36542970,2685547,-24375
2026-01-14 16:52:48.251,-77106750,785480,-38143360,50624770,-28671880,26635740,-16425780
2026-01-14 16:52:48.261,-77037700,1545068,-38022520,50797400,-26328120,8496094,-1296875
2026-01-14 16:52:48.271,-76942740,2347812,-37910310,51013190,-16347660,115625,-38452150
2026-01-14 16:52:48.281,-7681329,3176456,-37806730,5122899,-10859380,1375,23535160
2026-01-14 16:52:48.291,-76675170,4005096,-37720410,51453410,-4477539,15605470,7944336
2026-01-14 16:52:48.301,-76519790,482508,4,-3762544,51677840,2529297,18378910,12724610
2026-01-14 16:52:48.311,-76373060,5636480,-37521880,51876360,7475586,26835940,10039060
2026-01-14 16:52:48.321,-18467470,6456493,-37340620,-5632168,29023440,22109380,26992190
2026-01-14 16:52:48.331,-18281890,718155,5,-3718525,-5437956,32929690,29667970,23164060
2026-01-14 16:52:48.341,-75924210,7837557,-37012620,52618680,4234375,30,28496090
2026-01-14 16:52:48.351,-75768840,8407251,-36822720,52877640,48867190,28613280,32226560
2026-01-14 16:52:48.361,-75630740,8864728,-36641450,53136590,5296875,25703120,34726560
2026-01-14 16:52:48.371,-64455130,9209994,-36451560,64433030,54726560,24335940,35742190
2026-01-14 16:52:48.381,-17319460,9451684,-36244400,-4415102,55351560,215625,35839840
2026-01-14 16:52:48.391,-17163220,9589791,-36019980,-4243331,4734375,14658200,34902340
2026-01-14 16:52:48.401,-75250940,9658840,-35778280,54103340,41875,8955078,32441410
2026-01-14 16:52:48.411,-16956060,9650212,-35510710,-4001645,36601560,4633789,25761720
2026-01-14 16:52:48.421,-16922400,9598422,-35199970,-3948992,30410160,2692871,19423830
2026-01-14 16:52:48.431,-75397670,9486208,-34846060,54543550,27734380,15551760,14472660
2026-01-14 16:52:48.441,-16960380,9322206,-34492170,-3945539,22675780,-14013670,11025390
2026-01-14 16:52:48.451,-17022530,9115048,-34129640,-3986971,18847660,-38623050,85009770
2026-01-14 16:52:48.461,-17118340,8873362,-33784380,-4063792,15546880,-55566410,5942383
2026-01-14 16:52:48.471,-17247810,-10327800,-14531420,-4176005,125,-70214850,44750980
2026-01-14 16:52:48.481,-76269470,8269140,-33145630,54586710,93310540,-85253900,28271480
2026-01-14 16:52:48.491,-76493900,19158000,-21652550,54500390,6376953,-10214840,12670900
2026-01-14 16:52:48.501,-17732050,7587243,-32636360,-4623988,32885740,-11123050,-10430910
2026-01-14 16:52:48.511,-76951380,7250604,-32455090,54198280,15698240,-11074220,-47827150
2026-01-14 16:52:48.521,-18151550,6913972,-32291090,-5033130,23303220,-94628900,-7631836
2026-01-14 16:52:48.531,-18376840,6585970,-32152990,-5256690,51464840,-8989258,-9941406
2026-01-14 16:52:48.541,-18601260,-10979490,-14811950,-5481114,62158200,-10498050,-99658200
2026-01-14 16:52:48.551,-18824820,17669900,-20274940,-5706400,7451172,-12207030,-1015625
2026-01-14 16:52:48.561,-19038020,5619221,-31980350,-5924782,55029300,-14941410,-11337890
2026-01-14 16:52:48.571,-19251230,5291220,-31997620,-6143164,37353520,-14541020,-12998050
2026-01-14 16:52:48.581,-78410130,4980474,-32032140,52584160,4597168,-12480470,-16240230
2026-01-14 16:52:48.591,-19665550,4678368,-32092560,-6574746,86328130,-15175780,-15322270
2026-01-14 16:52:48.601,-19840770,-13739980,-14105790,-6762056,70166020,-15625,-17109380
2026-01-14 16:52:48.611,-20007360,-12324300,-15970320,-6940731,5722656,-15751950,-19160160
2026-01-14 16:52:48.621,-78876240,3806566,-32567310,51634670,6430664,-15683590,-19980470
2026-01-14 16:52:48.631,-20268040,3564882,-32808990,-7232480,6088867,-16347660,-21464840
2026-01-14 16:52:48.641,-20371620,-13051960,-16692800,-7353325,7661133,-14892580,-2421875
2026-01-14 16:52:48.651,-20440670,-13305730,-16956920,-7439642,7114258,-13769530,-225
2026-01-14 16:52:48.661,-78884870,2934767,-33732580,50935500,3022461,-18085940,-20117190
2026-01-14 16:52:48.671,-20481240,-13840030,-17527480,-7519915,34716800,-18525390,-18037110
2026-01-14 16:52:48.681,-78720860,2580868,-34535320,50685190,27441410,-1703125,-19140620
2026-01-14 16:52:48.691,-78600030,-14401090,-18140320,50581610,42236330,-13671880,-203125
2026-01-14 16:52:48.701,-78461920,18685850,-19017300,50478040,55810550,-10185550,-20664060
2026-01-14 16:52:48.711,-78297920,2132022,-35881870,50417610,5727539,-8330078,-21035160
2026-01-14 16:52:48.721,-78116660,1985282,-36356610,50374460,4411621,-6411133,-2140625
2026-01-14 16:52:48.731,-77900860,-15562910,-19429900,50348560,39672850,-37573240,-22148440
2026-01-14 16:52:48.741,-77667810,-15865020,-19766530,50357180,27539060,-17700200,-228125
2026-01-14 16:52:48.751,-19907230,1562334,-37815370,-7127175,14562990,12646480,-22929690
2026-01-14 16:52:48.761,-19740640,18026390,-21713840,-6983024,26657100,35986330,-24003910
2026-01-14 16:52:48.771,-19556790,1346542,-38808010,-6821613,9698486,66064450,-25234380
2026-01-14 16:52:48.781,-19364300,18382880,-22185990,-6651567,23828120,10087890,-26640620
2026-01-14 16:52:48.791,-76260850,-19078160,-19488160,50642030,48583980,12392580,-25429690
