Timestamp,Rotation X,Rotation Y,Rotation Z,Rotation W,Acceleration X,Acceleration Y,Acceleration Z
2026-01-14 16:52:35.081,6214806,-118625100,-22122980,35217220,-32844540,-1701355,-33477780
2026-01-14 16:52:35.091,6214802,-118625100,-22122980,35389860,4147339,-2027893,-26611330
2026-01-14 16:52:35.101,6214802,-118625100,-22122980,35389860,21743770,-8796692,1449585
2026-01-14 16:52:35.111,6214802,-118625100,-22122980,35389860,-64964300,-38146970,27069090
2026-01-14 16:52:35.121,6042173,-118625100,-22122980,35389860,-38482660,-54992680,35614020
2026-01-14 16:52:35.131,6042173,-118711400,-22036660,35389860,-42419430,-51361080,37963870
2026-01-14 16:52:35.141,6042173,-118711400,-22036660,35389860,-27175900,-6774902,4660034
2026-01-14 16:52:35.151,6042173,-118711400,-22036660,35389860,-46081540,-54992680,4119873
2026-01-14 16:52:35.161,5955855,-118711400,-22036660,35303540,-26138310,-3579712,30776980
2026-01-14 16:52:35.171,6042170,-118711400,-22036660,35217220,-11795040,-32348630,28289800
2026-01-14 16:52:35.181,6042170,-118711400,-22036660,35217220,-19989010,38452150,17730710
2026-01-14 16:52:35.191,6128488,-118625100,-22122980,35130910,-944519,-13916020,-19836430
2026-01-14 16:52:35.201,6214806,-118538800,-22209300,35217220,-11383060,-33569340,-57907100
2026-01-14 16:52:35.211,6128488,-118538800,-22209300,35130910,-3945923,-41015620,-3768921
2026-01-14 16:52:35.221,6214805,-118452500,-22295610,35044590,-39398190,-58288580,-13208390
2026-01-14 16:52:35.231,6214808,-55030380,40953840,35044600,-32806400,-13931270,-2859497
2026-01-14 16:52:35.241,6301122,-11828850,-2247688,34958280,-435791,-22792820,-28640750
2026-01-14 16:52:35.251,6387439,-11820220,-2256320,34871960,-24414060,-19897460,-13824460
2026-01-14 16:52:35.261,6387439,-11811580,-2264952,34871960,-16746520,-23422240,-31982420
2026-01-14 16:52:35.271,6473755,-11802950,-2273584,34785650,8880615,-29067990,-23468020
2026-01-14 16:52:35.281,6473755,-11794320,-2282215,34785650,20065310,-9346008,-27755740
2026-01-14 16:52:35.291,6560073,-11785690,-2290847,34699330,6385803,-26306150,-2381897
2026-01-14 16:52:35.301,6560073,-7512148,-6564389,34699330,33893580,-24932860,-27893070
2026-01-14 16:52:35.311,6473755,-7512148,-6564389,34613010,-11520390,-9498596,-3765869
2026-01-14 16:52:35.321,19145050,-11768430,-2308111,21941720,-25100710,12168880,-26184080
2026-01-14 16:52:35.331,19145050,-11759790,-2316742,21941720,-16815190,-4966736,-24887080
2026-01-14 16:52:35.341,19058740,-11759790,-2316742,21855400,-14305120,-29556270,-10238650
2026-01-14 16:52:35.351,19058740,-11751160,-2325374,21855400,-11054990,-2748108,-33569340
2026-01-14 16:52:35.361,19067370,-11751160,-2325374,21846770,14152530,-43396000,-8804321
2026-01-14 16:52:35.371,19067370,-11751160,-2325374,21846770,21774290,-2155304,-14389040
2026-01-14 16:52:35.381,19067370,-11751160,-2325374,21846770,1486969,699,5201,-894928
2026-01-14 16:52:35.391,19067370,-11751160,-2325374,21846770,6904602,17196660,-29403690
2026-01-14 16:52:35.401,19058740,-11751160,-2325374,21855400,33203120,19235610,-335083
2026-01-14 16:52:35.411,19058740,-11742530,-2334006,21855400,11276250,-13656620,-37323000
2026-01-14 16:52:35.421,19058740,-11742530,-2334006,21855400,27862550,-21072390,-2947998
2026-01-14 16:52:35.431,19058740,-11742530,-2334006,21855400,2192688,-11238100,-64453120
2026-01-14 16:52:35.441,19058740,-11733900,-2342637,21855400,8911133,-21514890,-49682620
2026-01-14 16:52:35.451,6301123,-11733900,-2342637,34440380,16998290,-9841919,-40649420
2026-01-14 16:52:35.461,6301123,-11733900,-2342637,34440380,-66337580,-4863739,-34332280
2026-01-14 16:52:35.471,6301123,-11733900,-2342637,34440380,13946530,-88,33408,-38269040
2026-01-14 16:52:35.481,6301123,-11733900,-2342637,34440380,-22613520,-21469120,-10902410
2026-01-14 16:52:35.491,6214805,-11742530,-2334005,34526700,-1474762,-20462040,-8308411
2026-01-14 16:52:35.501,6214805,-11742530,-2334005,34526700,22750850,-31951900,-1987,219
2026-01-14 16:52:35.511,6214805,-11742530,-2334005,34526700,-74539180,-46447750,447464
2026-01-14 16:52:35.521,6128489,-11751160,-2325374,34440380,1707077,-43304440,4131317
2026-01-14 16:52:35.531,6128489,-11751160,-2325374,34440380,13824460,-57556150,8529663
2026-01-14 16:52:35.541,6128489,-11759790,-2316742,34440380,-18253330,-42633060,29647830
2026-01-14 16:52:35.551,6128489,-11759790,-2316742,34440380,68092340,-42175290,3640747
2026-01-14 16:52:35.561,6128489,-11768430,-2308110,34440380,-2041626,-25405880,15129090
2026-01-14 16:52:35.571,6128489,-11768430,-2308110,34440380,21194460,-52948,9941101
2026-01-14 16:52:35.581,6214805,-7512148,-6564389,34526700,5090332,-17593380,1611,71
2026-01-14 16:52:35.591,6214805,-7512148,-6564389,34526700,52215580,1361084,-801,0864
2026-01-14 16:52:35.601,6128489,-11785690,-2290847,34613020,50628660,129776,3201294
2026-01-14 16:52:35.611,6128489,-11794320,-2282215,34613020,57769780,23468020,50628660
2026-01-14 16:52:35.621,6128489,-11802950,-2273584,34613020,5831,718,-10482790,2973938
2026-01-14 16:52:35.631,6042172,-11802950,-2273583,34699330,-10528560,6718,636,921,2494
2026-01-14 16:52:35.641,6042172,-11811580,-2264951,34699330,-1260376,-9254456,-1687622
2026-01-14 16:52:35.651,6042172,-11820220,-2256320,34699330,27755740,-20523070,-4722595
2026-01-14 16:52:35.661,6042172,-11828850,-2247688,34699330,4901123,-44891360,9170532
2026-01-14 16:52:35.671,6042174,-55030380,40953840,34871960,89782710,-40496820,33325200
2026-01-14 16:52:35.681,6042171,-118452500,-22295610,34871960,9197998,-13916020,1789856
2026-01-14 16:52:35.691,5955854,-118538800,-22209300,34958270,70251460,-13168340,58746340
2026-01-14 16:52:35.701,5955852,-118625100,-22122980,35130910,33477780,-41900640,6506348
2026-01-14 16:52:35.711,5955852,-118711400,-22036660,35130910,16815190,-45196530,4748535
2026-01-14 16:52:35.721,5869537,-118711400,-22036660,35217220,-2035141,-49835200,44158940
2026-01-14 16:52:35.731,5783219,-118797700,-21950340,35303540,-1146698,-45654300,3390503
2026-01-14 16:52:35.741,5783219,-118797700,-21950340,35303540,5264282,-38085940,28900150
2026-01-14 16:52:35.751,5783219,-118884000,-21864030,35303540,34179690,-19363400,39978030
2026-01-14 16:52:35.761,5696903,-118884000,-21864030,35389860,23208620,1966858,4159546
2026-01-14 16:52:35.771,5696903,-118884000,-21864030,35389860,34973140,-4989624,41107180
2026-01-14 16:52:35.781,5610586,-118970400,-21777720,35476170,28137210,-3173828,31219480
2026-01-14 16:52:35.791,5696904,-118970400,-21777720,35562490,15449520,-41381840,4321289
2026-01-14 16:52:35.801,5610588,-118970400,-21777720,35648810,-312,3283,-22613520,54718020
2026-01-14 16:52:35.811,5610588,-118970400,-21777720,35648810,-16601560,-44784540,3744507
2026-01-14 16:52:35.821,5524270,-118970400,-21777720,35562490,-25894160,10154720,26474000
2026-01-14 16:52:35.831,5524270,-118970400,-21777720,35562490,-2772522,-16998290,11650090
2026-01-14 16:52:35.841,5524270,-118970400,-21777720,35562490,-25924680,-19664760,5279541
2026-01-14 16:52:35.851,5524270,-118970400,-21777720,35562490,-19817350,-39482120,17944340
2026-01-14 16:52:35.861,5524270,-118970400,-21777720,35562490,2809143,-24528500,14671330
2026-01-14 16:52:35.871,5696904,-118970400,-21777720,35562490,26885990,-12641910,21606440
2026-01-14 16:52:35.881,5696904,-118970400,-21777720,35562490,23742680,-10429380,-9674072
2026-01-14 16:52:35.891,5696904,-118970400,-21777720,35562490,5542755,-8621216,-14457700
2026-01-14 16:52:35.901,5696904,-118970400,-21777720,35562490,-44174190,-30792240,-3387451
2026-01-14 16:52:35.911,5783221,-118970400,-21777720,35476170,-1953125,-25310520,-4337311
2026-01-14 16:52:35.921,5783221,-118970400,-21777720,35476170,-23361210,-23666380,-38375860
2026-01-14 16:52:35.931,5783221,-118970400,-21777720,35476170,-67749020,-47729490,10025020
2026-01-14 16:52:35.941,5869537,-118970400,-21777720,35389860,33664700,-23834230,-211792
2026-01-14 16:52:35.951,5955855,-118970400,-21777720,35303540,705719,-36712650,9681702
2026-01-14 16:52:35.961,5955855,-118884000,-21864030,35303540,32806400,-33416750,26275640
2026-01-14 16:52:35.971,6042170,-118884000,-21864030,35217220,19025800,-395813,20095820
2026-01-14 16:52:35.981,6214806,-118884000,-21864030,35217220,29716490,-28442380,1574707
2026-01-14 16:52:35.991,6214806,-118884000,-21864030,35217220,104904200,-3491211,3050232
2026-01-14 16:52:36.001,6301123,-118797700,-21950340,35130910,6580353,-34729000,-984,1919
2026-01-14 16:52:36.011,6387439,-118797700,-21950340,35044590,79193110,-24108890,73776250
2026-01-14 16:52:36.021,6387439,-118797700,-21950340,35044590,61187740,-25924680,-20111080
2026-01-14 16:52:36.031,6473756,-118711400,-22036660,34958280,10139470,-1386261,-22613520
2026-01-14 16:52:36.041,6646386,-118625100,-22122980,34958270,38757320,-19216540,-3189087
2026-01-14 16:52:36.051,6732704,-118538800,-22209300,34871960,856781,-13999940,-36621100
2026-01-14 16:52:36.061,19404000,-118538800,-22209300,22200660,5240,44,-4714966,-21331790
2026-01-14 16:52:36.071,19412630,-118452500,-22295610,22192030,704,2885,-4071045,-14427190
2026-01-14 16:52:36.081,19421270,-55116700,41040160,22183400,-56037900,-22033690,-7247925
2026-01-14 16:52:36.091,19429900,-55030380,40953840,22174770,-8796692,-49682620,-20767210
2026-01-14 16:52:36.101,19438530,-11828850,-2247689,22166140,-9857178,-41503900,-5756378
2026-01-14 16:52:36.111,7250604,-11828850,-2247689,34354060,-30639650,-60150140,27709960
2026-01-14 16:52:36.121,7336922,-11820220,-2256320,34267740,-2859497,-54473880,25730130
2026-01-14 16:52:36.131,7509555,-11811580,-2264952,34095110,-20523070,-3616333,-8277893
2026-01-14 16:52:36.141,7595872,-11802950,-2273584,34008800,-44128420,-30700680,8125305
2026-01-14 16:52:36.151,7768506,-11794320,-2282215,33836160,-1133728,-16433720,-3793335
2026-01-14 16:52:36.161,7941140,-11785690,-2290847,33663530,-24414060,-32196040,51956180
2026-01-14 16:52:36.171,8027456,-7512148,-6564389,33577210,-18920900,-31707760,-30517580
2026-01-14 16:52:36.181,8200089,-11768430,-2308110,33404580,10978700,-30563350,14663700
2026-01-14 16:52:36.191,8459042,-11759790,-2316742,33318260,37899020,-17822270,34454340
2026-01-14 16:52:36.201,8459039,-11752030,-2326237,33145630,-48675540,-3857422,4031372
2026-01-14 16:52:36.211,8631673,-11734760,-2343500,32973000,-4019165,-12542730,19897460
2026-01-14 16:52:36.221,8890623,-11717500,-2360764,32714040,-52948000,-13702390,-27053830
2026-01-14 16:52:36.231,9063257,-11708870,-2369395,32541410,-51513670,-2357483,-12893680
2026-01-14 16:52:36.241,9235893,-7504379,-6573884,32196150,-6726074,-37384030,-17120360
2026-01-14 16:52:36.251,9494840,-11682970,-2395290,32109830,-9719849,-7763672,24520870
2026-01-14 16:52:36.261,20791290,-11674340,-2403922,20813380,48065180,-8782959,50354000
2026-01-14 16:52:36.271,10012740,-75017880,-65781990,31591920,32470700,-4019165,19454960
2026-01-14 16:52:36.281,10271690,-75000620,-65799250,31505610,32104490,-43426510,20828250
2026-01-14 16:52:36.291,-82691440,-116234100,-24565740,124468700,7881165,-3161621,21652220
2026-01-14 16:52:36.301,10703280,-116061500,-24738380,31074020,21514890,-4043579,14503480
2026-01-14 16:52:36.311,11048540,-115888900,-24911010,30901390,-26226040,-21942140,34313200
2026-01-14 16:52:36.321,11221180,-115716200,-25083650,30728750,-11634830,-30853270,8384705
2026-01-14 16:52:36.331,11480120,-74922940,-65894200,30469810,9490967,-22735600,-51612860
2026-01-14 16:52:36.341,11652760,-74897040,-65920100,30297170,29586790,4940033,-26779180
2026-01-14 16:52:36.351,11911710,-74879780,-65937360,30210860,34698490,-13626100,-7531738
2026-01-14 16:52:36.361,-68708130,-74853880,-65963250,110830700,24780270,10475160,-59570310
2026-01-14 16:52:36.371,12256980,-74836620,-65980520,29865590,12969970,17700200,-46203610
2026-01-14 16:52:36.381,12429610,-74810720,-66006420,29692960,17349240,-8018494,-51971440
2026-01-14 16:52:36.391,12515930,-11426610,-2656830,29606640,-24002080,8392334,-6161499
2026-01-14 16:52:36.401,20224020,-50717990,36634550,21898560,-4031372,1349,449,-64697260
2026-01-14 16:52:36.411,20232650,-50545360,36461920,21889920,-4925537,25665280,-5340576
2026-01-14 16:52:36.421,12861200,-50459040,36375600,29088740,-55023190,3717041,-20324710
2026-01-14 16:52:36.431,12947510,-50286410,36202970,29002420,-59814450,19165040,-390625
2026-01-14 16:52:36.441,13033830,-50200090,36116650,28743470,-5026245,-47912600,-2734375
2026-01-14 16:52:36.451,13120150,-50113780,36030340,28657160,-4284668,6816864,-21255490
2026-01-14 16:52:36.461,13206460,-50027460,35944020,28570840,-22857670,5088806,-1574707
2026-01-14 16:52:36.471,13292780,-50027460,35944020,28311890,-44403080,25726320,-4437256
2026-01-14 16:52:36.481,13379100,-49942000,35856840,28225570,-55023190,6542969,-4043579
2026-01-14 16:52:36.491,13465420,-49942000,35856840,27966620,-7299805,637207,-12023930
2026-01-14 16:52:36.501,13465410,-49942000,35856840,27793990,-58563230,4345703,-16662600
2026-01-14 16:52:36.511,13551730,-50028320,35943160,27535040,-57769780,8888,244,-17127990
2026-01-14 16:52:36.521,13638050,-50028320,35943160,27276090,-54901120,63934330,-10726930
2026-01-14 16:52:36.531,13724360,-50028320,35943160,27189770,-30227660,-72784420,6626129
2026-01-14 16:52:36.541,13810680,-50114640,36029470,26930820,-28015140,-19088740,9399414
2026-01-14 16:52:36.551,13983310,-50114640,36029470,26758190,20614620,-27008060,-32596590
2026-01-14 16:52:36.561,-41777300,-50200960,36115790,82518810,54893500,-45166020,-2626419
2026-01-14 16:52:36.571,14328580,-50200960,36115790,26412920,-6210327,-26153560,-26107790
2026-01-14 16:52:36.581,14587530,-50200960,36115790,26153970,-53100580,-29800420,-2407837
2026-01-14 16:52:36.591,19723380,-50200960,36115790,20845490,-10093690,-49316410,-37872310
2026-01-14 16:52:36.601,-34095110,-50200960,36115790,74663980,-62026980,-24124150,-52703860
2026-01-14 16:52:36.611,15019120,-50200960,36115790,25549760,10360720,-35095220,-5065918
2026-01-14 16:52:36.621,-30642440,-50114640,36029480,71211310,30715940,-68237300,-513916
2026-01-14 16:52:36.631,15450700,-50114640,36029470,25290800,552063,-4071045,-5734253
2026-01-14 16:52:36.641,-27966620,-50028330,35943160,68708130,55603030,-35217280,-65979000
2026-01-14 16:52:36.651,15709650,-50028320,35943160,25031850,7171631,-33935550,-6726074
2026-01-14 16:52:36.661,-25290800,-50028330,35943160,66204940,6359863,-17715450,-7122803
2026-01-14 16:52:36.671,-24427640,-49942010,35856840,65341770,50842280,55770870,-85998540
2026-01-14 16:52:36.681,16054920,-49942000,35856840,24859220,28671260,-4310608,-42938230
2026-01-14 16:52:36.691,-22701300,-49942010,35856840,63615440,34454340,9925842,-38024900
2026-01-14 16:52:36.701,-21838140,-49855690,35770520,62752270,-47721860,-3490448,-46539310
2026-01-14 16:52:36.711,16313870,-49855690,35770520,24600270,-10757450,-63705440,-38085940
2026-01-14 16:52:36.721,16313870,-49855690,35770520,24600270,-43525700,99,8497,-28533940
2026-01-14 16:52:36.731,-20111800,-49855690,35770520,61025940,15163420,-23849490,-368042
2026-01-14 16:52:36.741,-19248640,-49769380,35684200,60162770,6385803,-17974850,-31951900
2026-01-14 16:52:36.751,16572820,-49855690,35770520,24341320,-75531010,-4296875,4623413
2026-01-14 16:52:36.761,16572820,-49769370,35684200,24341320,53977970,-5014038,-128479
2026-01-14 16:52:36.771,-17522300,-49769380,35684200,58436440,-30841830,-6088257,-17700200
2026-01-14 16:52:36.781,-16659130,-49769380,35684200,57573270,19235610,-28182980,-34729000
2026-01-14 16:52:36.791,16831770,-49683060,35597890,24082370,-71907040,-1235199,-54718020
2026-01-14 16:52:36.801,16831770,-49683060,35597890,24082370,32749180,2784729,-9301758
2026-01-14 16:52:36.811,16918080,-49596740,35511570,23996050,26016240,54901120,-12164310
2026-01-14 16:52:36.821,-14069630,-49596740,35511570,54983760,41259770,21560670,-9387207
2026-01-14 16:52:36.831,17090720,-49596740,35511570,23823420,6213379,-25691990,-9777832
2026-01-14 16:52:36.841,17177030,-49596740,35511570,23737100,8227539,-31402590,-10241700
2026-01-14 16:52:36.851,-11480130,-49596740,35511570,52394260,1027832,-42755130,-6365967
2026-01-14 16:52:36.861,-11393810,-49596740,35511570,52480580,103027300,-5114746,-340271
2026-01-14 16:52:36.871,-10530640,-49596740,35511570,51617410,86120610,-569458,-3765869
2026-01-14 16:52:36.881,-10530640,-49510420,35425250,51617410,6518555,-8050537,-59143060
2026-01-14 16:52:36.891,-10444320,-49510420,35425250,51703730,5508423,-59173580,-51605220
2026-01-14 16:52:36.901,-10444320,-49424100,35338940,51703730,1423645,-4034424,-62164310
2026-01-14 16:52:36.911,-10444320,-49424100,35338940,51703730,4135132,-22567750,-4550171
2026-01-14 16:52:36.921,-10358010,-49337790,35252620,51790050,6665039,-19943240,-5697632
2026-01-14 16:52:36.931,-11221170,-49337790,35252620,52653220,87768550,-9719849,-8508301
2026-01-14 16:52:36.941,17435990,-49251470,35166300,23996050,89416500,1436615,-99243170
2026-01-14 16:52:36.951,17435980,-49165160,35079990,24168690,9112549,22064210,-13903810
2026-01-14 16:52:36.961,-13724360,-49165160,35079990,55329030,69885260,53710940,-15734860
2026-01-14 16:52:36.971,17177030,-49078840,34993670,24427640,59661860,-23010250,-1381836
2026-01-14 16:52:36.981,-17177030,-112384400,-28484530,58781700,59417720,-15960690,-11480710
2026-01-14 16:52:36.991,-18817060,-74612190,-66256730,60594350,79833980,-30441280,-12023930
2026-01-14 16:52:37.001,16831760,-74612190,-66256730,25118170,103393600,3276825,-4486084
2026-01-14 16:52:37.011,16572810,-74612190,-66256730,25377120,904541,37708280,12207030
2026-01-14 16:52:37.021,16313860,-11220320,-2864854,25636070,758667,-115478500,30541990
2026-01-14 16:52:37.031,16141230,-74603560,-66265360,25981340,10028080,-21862790,52978520
2026-01-14 16:52:37.041,-30728770,-74569040,-66299890,72851330,115722700,-2578125,5942383
2026-01-14 16:52:37.051,-32368780,-111348600,-29520330,74663980,20959470,-16845700,4284668
2026-01-14 16:52:37.061,20759180,-110917000,-29951910,21881290,24926760,-54870600,22937010
2026-01-14 16:52:37.071,15537010,-110485400,-30383500,27276080,21350100,12390140,6842041
2026-01-14 16:52:37.081,15450700,-46836330,32747710,27707670,17407230,21850590,-12107850
2026-01-14 16:52:37.091,15278060,-46663700,32575070,28052940,17126460,32543940,-5606079
2026-01-14 16:52:37.101,15191750,-46577380,32488760,28311890,15136720,39257810,-7196045
2026-01-14 16:52:37.111,15019110,-109967500,-30901400,28657150,15271000,34326170,2078247
2026-01-14 16:52:37.121,-4799212,-109967500,-30901400,9184096,74646000,25170900,-8735657
2026-01-14 16:52:37.131,-4963215,-110053800,-30815080,9365362,-2407837,105773900,9017944
2026-01-14 16:52:37.141,-7334716,-110053800,-30815080,7339129,-10046390,-5340576,-25772100
2026-01-14 16:52:37.151,-7334716,-110140200,-30728760,7339129,-14379880,-17565920,-26412960
2026-01-14 16:52:37.161,-7334716,-110226500,-30642440,7339129,-17480470,-25048830,-51879880
2026-01-14 16:52:37.171,-7162082,-110312800,-30556130,7166495,-17895510,-27172850,-113220200
2026-01-14 16:52:37.181,-6989448,-110399100,-30469810,6993861,-14819340,-21691900,-13928220
2026-01-14 16:52:37.191,-6730498,-110571800,-30297180,6734911,-8123779,-12902830,-16174320
2026-01-14 16:52:37.201,-4186364,-110658100,-30210860,8588511,-11138920,-70251460,-18066410
2026-01-14 16:52:37.211,-3841097,-110744400,-30124540,8243244,13085940,4308,224,-21948240
2026-01-14 16:52:37.221,-5694698,-110830700,-30038230,5699110,22668460,3894043,-22802730
2026-01-14 16:52:37.231,-51298040,-110917000,-29951910,55734720,30371090,66711420,-2553711
2026-01-14 16:52:37.241,-48708540,-111089600,-29779280,53145220,30639650,59539800,-26708980
2026-01-14 16:52:37.251,-2693084,-111176000,-29692960,7147022,29736330,11138920,-27026370
2026-01-14 16:52:37.261,-2503187,-111262300,-29606640,6991651,33496090,-1600647,-25219730
2026-01-14 16:52:37.271,-2408238,-7452588,-6632579,6913971,31567380,-13618470,-22631840
2026-01-14 16:52:37.281,17953880,-11159890,-2925276,27276090,2565918,-27954100,-21911620
2026-01-14 16:52:37.291,18040200,-11168530,-2916644,27535040,19104000,-10566710,-16113280
2026-01-14 16:52:37.301,17953880,-11177160,-2908012,27793990,14892580,13801580,-15759280
2026-01-14 16:52:37.311,-27880310,-11194420,-2890747,73973450,1015625,10185240,-14526370
2026-01-14 16:52:37.321,17867570,-11211680,-2873486,28398210,5834961,7686615,-18188480
2026-01-14 16:52:37.331,23163960,-7461221,-6623949,23274450,27114870,47821040,-18969730
2026-01-14 16:52:37.341,17522300,-49077970,34994530,29088740,-14816280,38330080,-19299320
2026-01-14 16:52:37.351,17263350,-49250610,35167170,29347690,-61676020,66871640,-13024900
2026-01-14 16:52:37.361,17004400,-49509560,35426120,29606640,-12030030,-3475952,-9350586
2026-01-14 16:52:37.371,16745450,-49682190,35598750,29865590,-15246580,-18661500,-11444090
2026-01-14 16:52:37.381,16486500,-49854820,35771380,30297180,-1538086,-3427124,-115600600
2026-01-14 16:52:37.391,16227550,-50027460,35944020,30556130,-14355470,-8934021,-119018600
2026-01-14 16:52:37.401,15882280,-113480600,-27336510,30901390,-13745120,-4034424,-8947754
2026-01-14 16:52:37.411,15623330,-113653300,-27163880,31160340,-1328125,-6750488,-103027300
2026-01-14 16:52:37.421,15278060,-113739600,-27077560,31505610,-12420650,-112854000,-6854248
2026-01-14 16:52:37.431,22554560,-113912200,-26904930,24229100,-1274414,-17553710,10765080
2026-01-14 16:52:37.441,14673850,-113998500,-26818610,32109820,-11645510,-1739502,524292
2026-01-14 16:52:37.451,14328580,-114084800,-26732300,32455090,-13391110,-13671880,8404541
2026-01-14 16:52:37.461,13983310,-74784820,-66032310,32800360,-16540530,-13562010,1295166
2026-01-14 16:52:37.471,13638040,-74784820,-66032310,33145630,-20288090,-11968990,1496582
2026-01-14 16:52:37.481,13292780,-74784820,-66032310,33490890,-20117190,-89904780,12512210
2026-01-14 16:52:37.491,12861190,-74784820,-66032310,33749840,-16699220,-7757568,13647460
2026-01-14 16:52:37.501,12602240,-114084800,-26732300,34008790,-16723630,-28366090,13708500
2026-01-14 16:52:37.511,22122980,-114084800,-26732300,24315420,-18286130,-26977540,13439940
2026-01-14 16:52:37.521,22019400,-113998500,-26818610,24246370,-17773440,75149540,1439209
2026-01-14 16:52:37.531,11739080,-113912200,-26904930,34354060,-18115230,-284729,20800780
2026-01-14 16:52:37.541,11480130,-113739600,-27077560,34440380,-14318850,-39245600,2590332
2026-01-14 16:52:37.551,11307490,-113480600,-27336510,34440380,-21728520,-7183838,24060060
2026-01-14 16:52:37.561,11134860,-113221700,-27595460,34440380,-1940918,-86364740,24707030
2026-01-14 16:52:37.571,11048540,-112962700,-27854410,34354060,-18164060,-13354490,34106440
2026-01-14 16:52:37.581,11134860,-49250610,35167170,34267750,-16601560,-20544430,3647461
2026-01-14 16:52:37.591,11134860,-11219450,-2863990,34095120,-12670900,-25390620,43115230
2026-01-14 16:52:37.601,11221180,-11176290,-2907149,34008800,-58135980,-30004880,49902340
2026-01-14 16:52:37.611,11307500,-47784090,33698920,33922480,-11489870,-3618164,5800781
2026-01-14 16:52:37.621,21492870,-47007240,32922070,23737100,9790039,-38623050,6616211
2026-01-14 16:52:37.631,21579180,-74344620,-66524320,23823420,15197750,-43896480,7631836
2026-01-14 16:52:37.641,11307490,-108500100,-32368780,34095110,2166748,-47045900,9448242
2026-01-14 16:52:37.651,11221180,-43901560,29812940,34354060,24914550,-56152340,11533200
2026-01-14 16:52:37.661,11048540,-42348720,28258370,34871960,2607422,-6796875,13447270
2026-01-14 16:52:37.671,10789590,-73800820,-67119900,35476180,3166504,-7084961,14404300
2026-01-14 16:52:37.681,10271690,-101802000,-39136010,36339340,3359375,-62597660,14267580
2026-01-14 16:52:37.691,22174770,-36222820,22127300,24954170,4152832,-45336910,12763670
2026-01-14 16:52:37.701,8890626,-34064900,19969380,38756220,47143560,-18359380,99121100
2026-01-14 16:52:37.711,8027457,-9543181,-4554072,40309920,45141600,-56671140,8276367
2026-01-14 16:52:37.721,-17105390,-30008880,15911630,17593940,2548828,54534910,50439450
2026-01-14 16:52:37.731,-16175760,-28109910,14012660,21113080,41992190,24017330,32128910
2026-01-14 16:52:37.741,-17194300,-8964858,-5132393,22166140,-21606440,3668213,-54656980
2026-01-14 16:52:37.751,-18135150,-87844550,-53145220,23124250,-31884770,13903810,-4909668
2026-01-14 16:52:37.761,-18825680,-86290860,-54698920,23814790,-16320800,31958010,-8432617
2026-01-14 16:52:37.771,-19352220,-84909780,-56079990,24324060,28427120,6171875,-12646480
2026-01-14 16:52:37.781,233052,8,-83960300,-57029480,4686996,8666992,11015630,-16552730
2026-01-14 16:52:37.791,1640016,-83356080,-57633700,46869990,13635250,15947270,-18701170
2026-01-14 16:52:37.801,1035800,-83183450,-57806330,46783670,17565920,18447270,-19580080
2026-01-14 16:52:37.811,431582,-83442400,-57547380,46697360,17150880,17207030,-1796875
2026-01-14 16:52:37.821,-2,-83873980,-57115790,46611040,20739750,13017580,-13925780
2026-01-14 16:52:37.831,-345272,-71875950,-69113820,46783670,45483400,67822260,-5404663
2026-01-14 16:52:37.841,-690538,-71884580,-69105190,46956300,74365230,26220700,7270508
2026-01-14 16:52:37.851,-949486,-84823470,-56166310,47387890,8129883,12480470,29296880
2026-01-14 16:52:37.861,22974930,-22326690,8229437,23463480,-17944340,10263670,-22314450
2026-01-14 16:52:37.871,-949484,-23362490,9265239,47733160,-94873050,22595220,-5371094
2026-01-14 16:52:37.881,-258950,-24398290,10301040,47560530,-13408200,-1046875,-25097660
2026-01-14 16:52:37.891,776850,-25175140,11077890,47042620,-13095700,-23808590,-36743160
2026-01-14 16:52:37.901,21967610,-25693040,11595790,26369760,-91796870,-29121090,-6074219
2026-01-14 16:52:37.911,3452670,-26038310,11941060,45229980,-15319820,-25878910,-52441410
2026-01-14 16:52:37.921,-17487770,-8973490,-5123761,22390560,86865230,-13466800,-38427740
2026-01-14 16:52:37.931,526529,4,-72419750,-68570020,4376256,16425780,-13696290,-22766110
2026-01-14 16:52:37.941,-18745410,-89570890,-51418890,19233960,19697270,6269531,-9844971
2026-01-14 16:52:37.951,-1671958,-89139300,-51850470,2160504,19130860,8051758,85876460
2026-01-14 16:52:37.961,-17306510,-88535090,-52454690,22226560,16162110,44018560,2685547
2026-01-14 16:52:37.971,-18325050,-87930870,-53058900,23279620,11386720,-48942570,28759770
2026-01-14 16:52:37.981,293477,5,-23966710,9869454,4730157,59814450,-21203610,25634770
2026-01-14 16:52:37.991,1640018,-7213492,-6882034,49114220,31445310,-14196780,29003910
2026-01-14 16:52:38.001,-86316,-8687782,-5407744,51013200,21142580,17553710,28515620
2026-01-14 16:52:38.011,22727200,-72117630,-68820340,28199680,14526370,5625,22875980
2026-01-14 16:52:38.021,-29094790,-72126270,-68794450,29600600,57891850,79541020,1529541
2026-01-14 16:52:38.031,-28743470,-23876940,9786595,33749840,-993042,82177740,9307861
2026-01-14 16:52:38.041,2444145,-24135030,10046410,2510435,-2290039,72802740,5709839
2026-01-14 16:52:38.051,-32593210,-87784130,-53084800,37495990,-35473630,5341797,33599860
2026-01-14 16:52:38.061,-12515930,-24651200,10566030,61198580,-4338379,29101560,1158905
2026-01-14 16:52:38.071,23868310,-24909290,10825850,24641700,-43530270,51635740,59448240
2026-01-14 16:52:38.081,-16141240,-88448770,-52368370,64478600,-4099121,-9655762,14930730
2026-01-14 16:52:38.091,-17781250,-88699090,-52100780,66118620,-39208980,-17126460,-16784670
2026-01-14 16:52:38.101,-19334950,-25682690,11606150,67499700,-40112300,-19799800,-8746338
2026-01-14 16:52:38.111,19429900,-89277410,-51470670,28389570,-4033203,-17810060,-16687010
2026-01-14 16:52:38.121,19222740,-72307540,-68440540,28424100,-37402340,-61431880,-24841310
2026-01-14 16:52:38.131,18860210,-26716760,12643680,28268730,-37402340,109314000,-35205080
2026-01-14 16:52:38.141,18601260,-27233800,13162440,28182420,-34985350,26245120,-4140625
2026-01-14 16:52:38.151,-25549760,-91064160,-49632120,71815530,-3076172,33081060,-39941410
2026-01-14 16:52:38.161,17945250,-91754700,-48941590,27802620,-28222660,33520510,-3791504
2026-01-14 16:52:38.171,22117800,-705605,9,-701186,5,23112170,-25878910,36328120,-32080080
2026-01-14 16:52:38.181,-2779398,-23491020,22084220,7250605,-23815920,37304690,-27929690
2026-01-14 16:52:38.191,-5030056,-30511240,16445070,5034475,-27392580,43017580,-21875
2026-01-14 16:52:38.201,16797240,-31288100,17221920,26879030,-26660160,3942871,-15893560
2026-01-14 16:52:38.211,16624600,-9544907,-4521272,26706400,-25708010,21105960,-44891360
2026-01-14 16:52:38.221,16374290,-32928110,18861930,26438820,-23449710,44952390,-18844600
2026-01-14 16:52:38.231,16227550,-97080450,-43564060,26240280,-21252440,-15100100,4562378
2026-01-14 16:52:38.241,16080810,-70598470,-70046040,26041760,-15271000,-24938960,37261960
2026-01-14 16:52:38.251,16037650,-98720460,-41924050,25912280,-11071780,-31298830,138168300
2026-01-14 16:52:38.261,20400100,-99583630,-41060880,21377200,-6335449,-3125,52124020
2026-01-14 16:52:38.271,-27362410,-73326080,-67318430,69139710,38146970,-3322754,7763672
2026-01-14 16:52:38.281,16123970,-10105970,-3960213,25653340,8404541,-29052730,4559326
2026-01-14 16:52:38.291,16287970,-38366070,24299890,25661970,19580080,-1998291,-771,8801
2026-01-14 16:52:38.301,16365650,-38883970,24817790,25584280,22692870,-16040040,38513180
2026-01-14 16:52:38.311,-24168690,-32985860,31579070,66291260,22131350,-59570310,4586792
2026-01-14 16:52:38.321,16624610,-3974801,2568009,25497970,23217770,-6095886,9472656
2026-01-14 16:52:38.331,-22442350,-736543,6,-670248,6,64564930,15991210,10925290,15893560
2026-01-14 16:52:38.341,-21579190,-73705860,-66990420,63529120,10021970,-4067993,21801760
2026-01-14 16:52:38.351,16823130,-104270600,-36425660,25126800,73913580,-97595220,23095700
2026-01-14 16:52:38.361,-19507580,-41303430,27232070,61457520,17791750,-15100100,29785160
2026-01-14 16:52:38.371,-18385470,-41562380,27491020,60508040,-2229309,-22277830,35180660
2026-01-14 16:52:38.381,17237460,-41822190,27749110,24885120,-22155760,-2915039,41308590
2026-01-14 16:52:38.391,-16054910,-105332300,-35415760,58177480,4675293,-2861328,45043940
2026-01-14 16:52:38.401,17565460,-105505000,-35243120,24729740,7312012,-25683590,4831543
2026-01-14 16:52:38.411,-13379090,-42255500,28178970,55674300,107421900,-21057130,49291990
2026-01-14 16:52:38.421,17910720,-42342680,28264420,24557110,11254880,-16064450,5102539
2026-01-14 16:52:38.431,-10703280,-42429000,28350730,53171110,13916020,-10119630,48828120
2026-01-14 16:52:38.441,18264620,-105789800,-35010070,24375840,16467290,-72265620,4892578
2026-01-14 16:52:38.451,-7768514,-70763330,-70053810,50581610,1784668,-32073980,47875980
2026-01-14 16:52:38.461,18704840,-70763330,-70053810,24280900,18786620,-3186035,43652340
2026-01-14 16:52:38.471,-4920054,-10597970,-3485470,48078420,23522950,-23590090,4272461
2026-01-14 16:52:38.481,19145050,-10597970,-3485471,24185950,33081060,31604770,3815918
2026-01-14 16:52:38.491,-2244236,-10598840,-3486334,45747880,3552246,38,5046,33032230
2026-01-14 16:52:38.501,-1035800,-10607470,-3477702,44712070,38378900,-14213560,32495120
2026-01-14 16:52:38.511,-19559370,-10607470,-3477701,23944260,4387207,-62316900,3552246
2026-01-14 16:52:38.521,-18601260,-73999340,-66869580,23003410,45751950,-12426760,34301760
2026-01-14 16:52:38.531,-20023280,-73990710,-66878220,20027690,47875980,-14697270,3630371
2026-01-14 16:52:38.541,293473,8,-70789220,-70079700,4143201,4711914,-1628418,36132810
2026-01-14 16:52:38.551,-16417450,-105824300,-35044600,20871390,4362793,-18408200,37670900
2026-01-14 16:52:38.561,-15977230,-42261540,28172920,20448440,43066410,-20800780,35620120
2026-01-14 16:52:38.571,-15537010,-42088910,28000290,20025480,39575200,-18786620,35009770
2026-01-14 16:52:38.581,-15269430,-41829960,27741340,19775160,3684082,-1887207,31982420
2026-01-14 16:52:38.591,5265324,-41571010,27482390,39964660,38989260,-17199710,34960940
2026-01-14 16:52:38.601,5265324,-41225740,27137120,39964660,4008789,-14660650,31201170
2026-01-14 16:52:38.611,5265324,-40881340,26790990,40137290,42114260,-11993410,28173830
2026-01-14 16:52:38.621,5092688,-10385630,-3704715,40309920,40795900,-8392334,2590332
2026-01-14 16:52:38.631,4920054,-10351110,-3739242,40655180,38623050,-6097412,23571780
2026-01-14 16:52:38.641,4574788,-39586590,25496240,41173090,30541990,-64331060,20227050
2026-01-14 16:52:38.651,4143204,-39155000,25064650,41604670,26660160,-53741460,1928711
2026-01-14 16:52:38.661,20949070,-38637100,24546760,24798800,21643070,-3302002,13293460
2026-01-14 16:52:38.671,3021086,-38119200,24028850,42726790,18884280,-18951420,14941410
2026-01-14 16:52:38.681,2330552,-10100790,-3989560,43417320,17712400,-7335663,91552740
2026-01-14 16:52:38.691,1640018,-7344694,-6745654,44107860,19250490,-9597778,10687260
2026-01-14 16:52:38.701,20681490,-36479180,22388840,25066380,15441900,-21148680,8154297
2026-01-14 16:52:38.711,86316,-35874970,21784620,45488920,19152830,-758667,8282471
2026-01-14 16:52:38.721,-776852,-35270750,21180400,46352090,16113280,-7775879,6695557
2026-01-14 16:52:38.731,-1640018,-9798679,-4291668,47042620,16381840,-109191900,15289310
2026-01-14 16:52:38.741,20180860,-33976000,19885650,25221750,15612790,-11340330,24627690
2026-01-14 16:52:38.751,-3452668,-33285460,19195120,48682640,15527340,-99853520,-20553590
2026-01-14 16:52:38.761,-24677960,-32508610,18418270,29183690,140625,-8135986,-9283447
2026-01-14 16:52:38.771,-535164,-9522463,-4567882,5023634,11010740,-9521484,-12182620
2026-01-14 16:52:38.781,-26421560,-31127540,17037200,30892760,1239624,21209720,-14709470
2026-01-14 16:52:38.791,-27293360,-30437010,16346670,31747300,13891600,7336426,-15539550
2026-01-14 16:52:38.801,-811376,8,-29746480,15656130,5248057,1204834,791626,-1965332
2026-01-14 16:52:38.811,-28942010,-7047384,-7042962,33378690,12390140,95703130,-22143560
2026-01-14 16:52:38.821,-32021300,-28537180,14448560,32025720,1340332,1361084,-25439450
2026-01-14 16:52:38.831,-1078959,-27932960,13844340,5481112,9472656,12225340,-2553711
2026-01-14 16:52:38.841,-1165276,-27415060,13326440,5550165,7745361,101623500,-2734375
2026-01-14 16:52:38.851,-32161620,-26897160,12808540,36546510,103271500,9338379,-2487793
2026-01-14 16:52:38.861,-13292780,-72376590,-68492340,56969050,8001709,6896973,-28588870
2026-01-14 16:52:38.871,18255990,-89424140,-51444780,25420280,113708500,496521,-28173830
2026-01-14 16:52:38.881,-14760170,-88992560,-51876360,58263800,9484863,47790530,-2783203
2026-01-14 16:52:38.891,-15364380,-88647300,-52221630,58868020,6604004,24856570,-27514650
2026-01-14 16:52:38.901,-16054920,-24910150,10824980,59385920,68481450,30548100,-25219730
2026-01-14 16:52:38.911,17833040,-24564880,10479710,25497970,6530762,14595030,-25634770
2026-01-14 16:52:38.921,17772620,-24219620,10134450,25558390,11694340,24749760,-22265620
2026-01-14 16:52:38.931,-17694930,-23960670,9875498,61198570,10687260,44555660,-2397461
2026-01-14 16:52:38.941,-18299150,-8716268,-5367174,61802790,11975100,22064210,-19506840
2026-01-14 16:52:38.951,-18903360,-7207451,-6875991,62407000,115112300,-12809750,-17614750
2026-01-14 16:52:38.961,17712200,-8681739,-5401703,25964080,14196780,-78048700,-1616211
2026-01-14 16:52:38.971,1773807,-86636120,-54181020,2611078,14807130,13282780,-15307620
2026-01-14 16:52:38.981,-40353080,-86463480,-54353660,44755230,9686279,71754460,-8947754
2026-01-14 16:52:38.991,-41043620,-86368540,-54431340,45445760,51971440,-3753662,-56243900
2026-01-14 16:52:39.001,-2192448,-86282220,-54517660,6594596,23727420,-53131100,-6422,997
2026-01-14 16:52:39.011,-4477629,-22835100,8756834,4482048,4284668,-13664250,-1209259
2026-01-14 16:52:39.021,-43374160,-22834230,8757700,47776320,-30380250,31677250,-4722595
2026-01-14 16:52:39.031,1727198,-22747910,8671380,2657692,-4788208,29403690,34088140
2026-01-14 16:52:39.041,17090710,-86083690,-54664390,26585550,-8105469,-1751709,79956060
2026-01-14 16:52:39.051,-26844510,-22746190,8673107,70175510,-13476560,-15571590,12475590
2026-01-14 16:52:39.061,16538290,-22659870,8586790,26447450,-1595459,-44799800,9716797
2026-01-14 16:52:39.071,20728100,-22572690,8501336,21739730,-17163090,-19515990,9631348
2026-01-14 16:52:39.081,15813220,-85712530,-54983760,26136710,-23754880,2067566,6317139
2026-01-14 16:52:39.091,15278060,-15808830,14402030,25808710,-28271480,17242430,52978520
2026-01-14 16:52:39.101,-33577220,-15549880,14143090,73800820,-31347660,16662600,53741460
2026-01-14 16:52:39.111,14130050,-21620620,7554442,25057750,-34106440,29449460,18936160
2026-01-14 16:52:39.121,13439520,-21361670,7295491,24539850,-4050293,8306885,14167790
2026-01-14 16:52:39.131,-37893060,-71720580,-68923930,74663980,-49023440,14428710,-30288700
2026-01-14 16:52:39.141,-39274120,-71703320,-68941190,74663980,-63183590,16052250,-13500980
2026-01-14 16:52:39.151,11255700,-71686060,-68941180,22753090,-75683590,14770510,-20300290
2026-01-14 16:52:39.161,10522010,-71686060,-68941180,22105710,-90722660,-19302370,-21350100
2026-01-14 16:52:39.171,9796949,-71677430,-68949820,21449710,-10019530,-19824220,-25976560
2026-01-14 16:52:39.181,9184098,-83865350,-56761900,20854120,-10380860,-2524414,-3791504
2026-01-14 16:52:39.191,8666198,-83606400,-57020840,20336220,-10205080,-15014650,-5336914
2026-01-14 16:52:39.201,-4428051,-83442400,-57202110,7224708,-89746100,-50445560,-6328125
2026-01-14 16:52:39.211,7656293,-83183450,-57461060,19274530,-7626953,-12306210,-74072260
2026-01-14 16:52:39.221,7250604,-83010820,-57633700,18817050,-5205078,625,-8071289
2026-01-14 16:52:39.231,12026510,-19549020,5482839,13177980,-3491211,109436000,-8178711
2026-01-14 16:52:39.241,6430598,-19376380,5310207,17910720,-23120120,7434082,-78466800
2026-01-14 16:52:39.251,6102594,-19117430,5051256,17548190,-14050290,8380127,-7607422
2026-01-14 16:52:39.261,5679642,-12528790,11122000,17107980,-6500244,8270264,-7519531
2026-01-14 16:52:39.271,-4617946,-12269840,10863050,6810391,12550350,8404541,-71240230
2026-01-14 16:52:39.281,4894159,-12010890,10604100,16339760,5029297,116882300,-7167969
2026-01-14 16:52:39.291,4436681,-714444,4,-692346,8,15934070,23147580,13586430,-6821289
2026-01-14 16:52:39.301,4065519,-17822680,3756504,15614700,-4071045,10180660,-66552740
2026-01-14 16:52:39.311,3677094,-17563730,3497554,15312590,-12731930,9790039,-6508789
2026-01-14 16:52:39.321,3280041,-110613200,96547000,15019110,-1854248,657959,-6254883
2026-01-14 16:52:39.331,-50495300,-80507630,-60136880,68103910,-23925780,30578610,-5908203
2026-01-14 16:52:39.341,7860000,-80335000,-60309510,9058076,-29711910,73928830,-5571289
2026-01-14 16:52:39.351,-5248061,-80153740,-60473520,6888073,-34765620,-30334470,-54248050
2026-01-14 16:52:39.361,1795389,-16784290,2723293,14086890,-38134770,-5493164,-53027340
2026-01-14 16:52:39.371,-54638500,-16610800,2551526,70002880,-3737793,-11541750,-52685550
2026-01-14 16:52:39.381,1096220,-79782570,-60792890,13750250,-3527832,-14086910,-5234375
2026-01-14 16:52:39.391,733693,-16436440,2380615,13594890,-39916990,-121032700,-58154300
2026-01-14 16:52:39.401,457478,-16262940,2208845,13525830,-41479490,-7287598,-57128900
2026-01-14 16:52:39.411,163999,5,-79497720,-61025940,13474040,-45483400,-6994629,-5517578
2026-01-14 16:52:39.421,-61025940,-16174900,2124258,74318720,-50390620,-9790039,-52685550
2026-01-14 16:52:39.431,-328003,5,-16174030,2125118,13448150,-5332031,-6915283,-5625
2026-01-14 16:52:39.441,-63701760,-79376880,-61077720,76649260,-6567383,-61645510,-54785160
2026-01-14 16:52:39.451,-750955,5,-9938078,8533704,13525830,-7402344,-5899048,-52783200
2026-01-14 16:52:39.461,-958118,-79437300,-60965520,13560360,-8198242,-33996580,-5390625
2026-01-14 16:52:39.471,54759340,-16341490,2302929,69536770,-8432617,48065180,-48583980
2026-01-14 16:52:39.481,54638500,-79584040,-60766990,69657610,-8623047,49987790,-47314450
2026-01-14 16:52:39.491,54509020,-16684170,2650784,69787090,-87060540,32104490,-4189453
2026-01-14 16:52:39.501,54379550,-16855070,2825145,69916560,-85839840,-10154720,-34985350
2026-01-14 16:52:39.511,-72592380,-17112300,3085827,85194620,-8378906,-7775879,-30908200
2026-01-14 16:52:39.521,-1631389,-80386780,-59843400,14406260,-87158200,-15161130,-2626953
2026-01-14 16:52:39.531,-74836620,-17541290,3520000,87956760,-87060540,-23620600,-24450680
2026-01-14 16:52:39.541,-1519178,-80792480,-59385920,14984580,-8925781,-27197270,-2076416
2026-01-14 16:52:39.551,-1458756,-80870160,-59290980,15269430,-921875,-31640620,-19519040
2026-01-14 16:52:39.561,-1389700,-17882240,3869580,15545650,-9560547,-33666990,-17944340
2026-01-14 16:52:39.571,-1320650,-71150900,-68958450,15821860,-9667969,-3491211,-1427002
2026-01-14 16:52:39.581,-1148013,-17879650,3872170,16167130,-99658200,-3713379,-16052250
2026-01-14 16:52:39.591,-975382,-80818370,-59239180,16512390,-10097660,-39013670,-20495600
2026-01-14 16:52:39.601,-785483,-17705290,3701262,16840400,-10683590,-4013672,-20947270
2026-01-14 16:52:39.611,-8044721,-17445480,3443176,9719265,-11015630,-43041990,-27368160
2026-01-14 16:52:39.621,-138109,-80188260,-59817500,17746720,-11132810,-45751950,-35546880
2026-01-14 16:52:39.631,155367,-79920670,-60067820,18143780,-11396480,-4597168,-42236330
2026-01-14 16:52:39.641,630109,-79489090,-60499410,18704840,-11640630,-44262700,-4897461
2026-01-14 16:52:39.651,9278187,-16061820,2064696,11092570,-11943360,-45483400,-5415039
2026-01-14 16:52:39.661,1683176,-15630240,1633112,19896010,-1203125,-41064450,-55078120
2026-01-14 16:52:39.671,2252867,-8813544,7414004,20534750,-11767580,-39819340,-5708008
2026-01-14 16:52:39.681,2831188,-8209327,6809787,21164860,-10947270,-31860350,-60498050
2026-01-14 16:52:39.691,3504457,-77046330,-62890380,21872660,-10273440,-25048830,-52001950
2026-01-14 16:52:39.701,4169096,-76528420,-63408280,22589090,-8408203,-14172360,-33618160
2026-01-14 16:52:39.711,4842369,-13124460,-867483,6,23296890,-5864258,8666992,-11291500
2026-01-14 16:52:39.721,5420691,-12865510,-1126434,23927000,-3425293,46191410,21179200
2026-01-14 16:52:39.731,5835011,-12779200,-1212750,24375850,-15881350,8652344,3737793
2026-01-14 16:52:39.741,14347570,-12778330,-1211888,16208560,-34656520,11738280,47021480
2026-01-14 16:52:39.751,5938591,-12864650,-1125571,24617540,5505371,12207030,6459961
2026-01-14 16:52:39.761,5558796,-75984620,-63900280,24306790,-19702150,11494140,78759770
2026-01-14 16:52:39.771,5006371,-132090500,-7794400,23823420,-5727539,91308590,8613281
2026-01-14 16:52:39.781,-8036089,-13553460,-433310,1,10832750,-7783203,68359380,8959961
2026-01-14 16:52:39.791,4091415,-14071360,84590,41,23012040,-88720700,48583980,80126950
2026-01-14 16:52:39.801,12258700,-14675570,688807,1,14154220,-9589844,32666020,75927740
2026-01-14 16:52:39.811,3288668,-7829793,-6155247,22261090,-10058590,21911620,70996100
2026-01-14 16:52:39.821,2960663,-16056640,2069875,21898560,-10361330,1842041,69628900
2026-01-14 16:52:39.831,2649924,-16833490,2846726,21518760,-10302730,33740230,61376950
2026-01-14 16:52:39.841,2278759,-80559420,-59325500,21026760,-8613281,5263672,5161133
2026-01-14 16:52:39.851,182991,7,-18475240,4485018,2043980,-57177740,6489258,44873050
2026-01-14 16:52:39.861,9695096,-19339270,5347323,11538820,-3022461,79541020,36669920
2026-01-14 16:52:39.871,880432,-13819920,12420380,19145050,-72753900,82910160,33276370
2026-01-14 16:52:39.881,448847,-8370999,-5626126,18540840,14172360,7558594,34570310
2026-01-14 16:52:39.891,86315,-84236510,-55751980,18040200,25024410,6196289,38134770
2026-01-14 16:52:39.901,-198530,-84676730,-55329030,17634510,33544920,46972660,40161130
2026-01-14 16:52:39.911,-319374,-84849360,-55156400,17410080,43481440,3178711,38720700
2026-01-14 16:52:39.921,-284845,-22020260,8017962,17375560,5732422,27929690,3503418
2026-01-14 16:52:39.931,-86317,-22020260,8017962,17522300,6611328,17370600,43115230
2026-01-14 16:52:39.941,276213,-22106580,8104279,17850300,6875,41656500,46875
2026-01-14 16:52:39.951,716429,-22020260,8017962,18273260,61035160,-50476070,52441410
2026-01-14 16:52:39.961,1242961,-22021130,8017099,18782520,5004883,-13146970,5834961
2026-01-14 16:52:39.971,9741708,-21848500,7844465,11492210,4116211,-18151860,49072260
2026-01-14 16:52:39.981,-86144110,-21762180,7758154,88388350,39916990,-1932373,4621582
2026-01-14 16:52:39.991,-75181890,-21675860,7671835,98832670,4501953,-33520510,5024414
2026-01-14 16:52:40.001,-74146080,-84702620,-55354920,99177940,3251953,-52197260,5336914
2026-01-14 16:52:40.011,4505732,-84702620,-55354930,21734550,22314450,-58203120,47485350
2026-01-14 16:52:40.021,-7190185,-21763900,7756424,9935056,2064209,-5776367,4543457
2026-01-14 16:52:40.031,5904065,-21850220,7842740,22925730,28222660,-5600586,42456060
2026-01-14 16:52:40.041,-69398660,-21937400,7928196,99609520,33862300,-53564450,33520510
2026-01-14 16:52:40.051,-68103900,-85073780,-55035560,99695830,4399414,-45214840,24780270
2026-01-14 16:52:40.061,-8172472,-85073780,-55035560,8503922,5595703,-43603520,21826170
2026-01-14 16:52:40.071,16434710,-22025440,8012782,18091990,64404300,-3972168,14099120
2026-01-14 16:52:40.081,9719265,-21939130,7926467,26188500,6948242,-40600580,1451416
2026-01-14 16:52:40.091,10539280,-21767360,7752970,26922190,78125,-42919920,12121580
2026-01-14 16:52:40.101,-79540880,-21508410,7494023,83425140,90234380,-4663086,10522460
2026-01-14 16:52:40.111,-61025940,-21163140,7148756,101249500,9765625,-47558590,27359010
2026-01-14 16:52:40.121,12714450,-71453010,-68708130,28890210,10126950,-48413090,-4558,563
2026-01-14 16:52:40.131,13430880,-83373340,-56787790,29554850,10820310,-47705080,-48339840
2026-01-14 16:52:40.141,-5826383,-82855450,-57305690,10263060,10566410,-37695310,-97473140
2026-01-14 16:52:40.151,14742900,-82337540,-57823590,30832340,11054690,-2421875,-16015630
2026-01-14 16:52:40.161,15433430,-81819650,-58341490,31522870,11318360,-16137700,-23181150
2026-01-14 16:52:40.171,23363350,-8120681,-5893709,24974020,12578130,-692749,-3022461
2026-01-14 16:52:40.181,-5593325,-17537840,3523450,10547910,1265625,-413208,-38964840
2026-01-14 16:52:40.191,17271980,-17019070,3006411,33482260,13662110,-25634770,-45117190
2026-01-14 16:52:40.201,-55501670,-16501180,2488515,107464400,13632810,-14314650,-51416020
2026-01-14 16:52:40.211,18290520,-159824100,19714740,34707960,13427730,3201294,-48168940
2026-01-14 16:52:40.221,18825680,-15463650,1454436,35381240,12705080,81848140,-48779300
2026-01-14 16:52:40.231,-5593328,-77969920,-62087640,11134860,11650390,2154541,-43676760
2026-01-14 16:52:40.241,19930540,-14510710,508404,9,36865880,10185550,29614260,-34106440
2026-01-14 16:52:40.251,20595180,-77080860,-62924910,37754940,91308590,38085940,-32348630
2026-01-14 16:52:40.261,-86707760,-13644960,-352168,2,87306800,7529297,4284668,-2541504
2026-01-14 16:52:40.271,-5748695,-13297100,-694849,1,11894450,640625,3713379,-1505127
2026-01-14 16:52:40.281,22649510,-75984620,-63900280,40534340,5703125,30126950,-6384277
2026-01-14 16:52:40.291,31461590,-12775740,-1209299,33275970,50097660,16503910,16494750
2026-01-14 16:52:40.301,-9159590,-75604830,-64211020,9225876,34936520,7324219,7116699
2026-01-14 16:52:40.311,32905660,-70443100,-69320980,34766650,25830080,154418900,11956790
2026-01-14 16:52:40.321,25023220,-12683380,-1289573,43857540,1373291,-28121950,11694340
2026-01-14 16:52:40.331,25437540,-75630740,-64064290,44479010,6439209,-47973630,8929443
2026-01-14 16:52:40.341,-607669,9,-12853430,-1114350,1317193,8795166,-8428955,8306885
2026-01-14 16:52:40.351,2628342,-75863780,-63779440,4570468,19311520,-10888670,7244873
2026-01-14 16:52:40.361,26620090,-69128500,55167620,46231250,23669430,-14379880,5883789
2026-01-14 16:52:40.371,26956720,-13366150,-591271,1,46757780,31079100,-16149900,54534910
2026-01-14 16:52:40.381,27207030,-76329900,-63209750,47197990,36791990,-1439209,27053830
2026-01-14 16:52:40.391,36625060,-13621650,-328868,38643140,47143560,-5618286,17196660
2026-01-14 16:52:40.401,27776730,-76468000,-63002590,48182000,4399414,-6109619,4006958
2026-01-14 16:52:40.411,-6465124,-13790830,-152780,14147310,38476560,-3479004,38482660
2026-01-14 16:52:40.421,-6542809,-13875420,-64737,54,14294050,39331060,-40008540,5593872
2026-01-14 16:52:40.431,28648520,-76588840,-62778160,49727070,38256840,-62042240,16571050
2026-01-14 16:52:40.441,28959270,-13871100,-60422,54,50279500,37963870,-9844971,3955841
2026-01-14 16:52:40.451,29261380,-13783060,-145013,5,50840560,40649420,-14526370,-2355957
2026-01-14 16:52:40.461,29649800,-13607840,-315057,5,51487940,32080080,-17871090,-3036499
2026-01-14 16:52:40.471,-6948501,-76062310,-63114800,15165850,2746582,-16381840,-82336420
2026-01-14 16:52:40.481,3040936,-75863780,-63261540,5279992,3034668,-18041990,-10510250
2026-01-14 16:52:40.491,30789180,-75578940,-63494600,53455960,25219730,-14343260,-115478500
2026-01-14 16:52:40.501,31160340,-12734310,-1167867,54120600,25683590,-1385498,-10864260
2026-01-14 16:52:40.511,31540140,-55074400,53684700,54776600,20617680,-10443120,-13745120
2026-01-14 16:52:40.521,31911300,-58735960,44844140,55441240,2565918,-1071167,-15539550
2026-01-14 16:52:40.531,-7500924,-55280700,41394060,16322490,26342770,-8666992,-22058100
2026-01-14 16:52:40.541,-7587241,-51825430,37943980,16512390,2010498,-725708,-27124020
2026-01-14 16:52:40.551,-11737350,-11081340,-2794936,12638500,13964840,-7885742,-32299800
2026-01-14 16:52:40.561,44256320,-10818940,-3050436,46721530,6744385,-4534912,-38305660
2026-01-14 16:52:40.571,33370060,-10471090,-3393113,58298330,71777340,-52459720,-42382810
2026-01-14 16:52:40.581,-7975671,-72575120,-66015040,17211560,16143800,-22506710,-44384770
2026-01-14 16:52:40.591,-12257840,-98616880,-39921490,13188330,-19363400,34362790,-43554690
2026-01-14 16:52:40.601,3401741,-96001490,-42485100,5972252,-16601560,42053220,-44995120
2026-01-14 16:52:40.611,-8251880,-31091290,17246080,17694930,-10002140,6451416,-45776370
2026-01-14 16:52:40.621,-8338197,-27636030,13796010,17850300,56381220,9765625,-4453125
2026-01-14 16:52:40.631,-8424514,-25043940,11209090,17988410,-20690920,11505130,-44140620
2026-01-14 16:52:40.641,34837440,-22451850,8622179,61492040,3186035,12805180,-4387207
2026-01-14 16:52:40.651,47080600,-82069960,-56174940,49766780,847168,15856930,-42797850
2026-01-14 16:52:40.661,-8666200,-18994860,5173826,18419990,15917970,1706543,-39941410
2026-01-14 16:52:40.671,-8735254,-18129110,4313249,18558100,24072270,16491700,-34375
2026-01-14 16:52:40.681,-8804308,-17264210,3451808,18678940,2902832,12597660,-3239746
2026-01-14 16:52:40.691,-8881996,-79394140,-58678130,18808420,3059082,12042240,-29663090
2026-01-14 16:52:40.701,-8942414,-18986230,5182458,18920630,3232422,892334,-25561520
2026-01-14 16:52:40.711,-9002838,-19847670,6047352,19032840,28930660,36346440,-23937990
2026-01-14 16:52:40.721,-9071891,-84512730,-53438700,19136420,27514650,-3765869,-2548828
2026-01-14 16:52:40.731,-9140944,-24159190,10367510,19222740,26416020,-11291500,-26245120
2026-01-14 16:52:40.741,-9209998,-88802670,-49096960,19309050,29052730,-18847660,-31420900
2026-01-14 16:52:40.751,-13822760,-28472440,14685930,14834400,3947754,-12878420,-37060550
2026-01-14 16:52:40.761,-9330840,-31060220,17277160,19464420,32104490,-9472656,-33496090
2026-01-14 16:52:40.771,-13952240,-32785690,19004360,14963870,28149410,-18139650,-30395510
2026-01-14 16:52:40.781,-9468950,-97373930,-40404870,19568000,27905270,-32226560,-3305664
2026-01-14 16:52:40.791,-9546632,-9909162,-3866989,19611160,27734380,-4038086,-34887700
2026-01-14 16:52:40.801,-9632947,-32625920,31248470,19645690,28686520,-44018560,-34350580
2026-01-14 16:52:40.811,-9745159,-10251840,-3519133,19671580,2529297,-5283203,-30249020
2026-01-14 16:52:40.821,-9866004,-10509930,-3259320,19688850,31103520,-58935550,-30786130
2026-01-14 16:52:40.831,33559950,-43999100,30233300,63287440,45874020,-60498050,-31225590
2026-01-14 16:52:40.841,-10168110,-10766290,-2997780,19732010,66552740,-52685550,-41333010
2026-01-14 16:52:40.851,-10340750,-72687340,-64918830,19766530,73339840,-4465332,-43408200
2026-01-14 16:52:40.861,-14700610,-108482900,-29071480,15631090,62939450,-37402340,-44848630
2026-01-14 16:52:40.871,44304660,-46581700,32829710,47363720,3930664,-27978520,-43701170
2026-01-14 16:52:40.881,-10910440,-46579110,32832300,19939170,22363280,-12426760,-4658203
2026-01-14 16:52:40.891,2898518,-47439680,33698060,6009369,18725590,32196040,-47460940
2026-01-14 16:52:40.901,-11298860,-46573930,32837480,20085910,12017820,17016600,-44604490
2026-01-14 16:52:40.911,27509140,-108362000,-28950630,59152860,-15625,28100590,-4194336
2026-01-14 16:52:40.921,26870400,-108336100,-28924740,58755800,-14624020,41186520,-35717770
2026-01-14 16:52:40.931,26248920,-108310300,-28898850,58341480,-22070310,6118164,-20214840
2026-01-14 16:52:40.941,25808710,-47427600,33710140,58091170,-17590330,8120117,94055180
2026-01-14 16:52:40.951,-12049820,-109138900,-28001150,20388010,-17077640,10390630,22888180
2026-01-14 16:52:40.961,-12118870,-10739530,-2971021,20457070,-1607666,115625,24816900
2026-01-14 16:52:40.971,-12162030,-72169430,-64918820,20500220,-10083010,10195310,21984860
2026-01-14 16:52:40.981,-15929760,-10219900,-3487196,16767030,-3543091,7138672,21533200
2026-01-14 16:52:40.991,40315960,-38790750,25083640,43583910,6964111,3791504,24694820
2026-01-14 16:52:41.001,25722390,-99618160,-37470100,58350110,12597660,21020510,20019530
2026-01-14 16:52:41.011,25765550,-9876364,-3834191,58306960,17004400,25561520,1907959
2026-01-14 16:52:41.021,25834600,-71591110,-65548940,58237900,22192380,45825200,111694300
2026-01-14 16:52:41.031,25912280,-37932760,24215300,58160220,46704100,6015625,4486084
2026-01-14 16:52:41.041,25989970,-100541700,-36667360,58082530,72265620,59375,-19885250
2026-01-14 16:52:41.051,26067650,-4052574,2680134,58004850,8964844,52001950,-359375
2026-01-14 16:52:41.061,26050390,-10402900,-3324922,57849480,10332030,36035160,-46484380
2026-01-14 16:52:41.071,-15420490,-106635700,-30676970,16257750,9897461,19592280,-4736328
2026-01-14 16:52:41.081,2590367,-47436230,33701510,5747830,88427740,47973630,-46801760
2026-01-14 16:52:41.091,-11592340,-11270380,-2466069,19878750,7788086,-80566410,-43847660
2026-01-14 16:52:41.101,2547205,-73438290,-63943440,5687408,6381836,-14440920,-39379880
2026-01-14 16:52:41.111,25161330,-11876320,-1863580,56494310,47753900,-16894530,-35351560
2026-01-14 16:52:41.121,24919650,-60387200,46645560,56218090,34448240,-19335940,-27685550
2026-01-14 16:52:41.131,24677960,-7431875,-6309756,55941880,21411130,-18823240,-21948240
2026-01-14 16:52:41.141,24513950,-74499980,-62933540,55760620,1027832,-15686040,-17492680
2026-01-14 16:52:41.151,38489500,-74672620,-62760900,41612430,1033783,-15393070,-118774400
2026-01-14 16:52:41.161,24358580,-74845250,-62588270,55570720,-42175290,-16430660,-1126709
2026-01-14 16:52:41.171,24185960,-69020600,55275520,55398080,-10784910,-20617680,-91308590
2026-01-14 16:52:41.181,24108270,-69020600,55275520,55303140,-13769530,-16137700,-6774902
2026-01-14 16:52:41.191,24125530,-13173660,-571417,3,55285880,-1182251,-15014650,-28656010
2026-01-14 16:52:41.201,24056480,-13174530,-572280,8,55182290,-8288574,-14428710,-7675171
2026-01-14 16:52:41.211,24073740,-69021460,55274650,55165030,-9057617,-14501950,-5078125
2026-01-14 16:52:41.221,24099630,-74871140,-62614170,55139130,-8496094,-16479490,-13130190
2026-01-14 16:52:41.231,24047840,-74793460,-62709120,55018290,-100097700,-1451416,-5105591
2026-01-14 16:52:41.241,24082370,-12745530,-1006454,54983760,-13598630,-17285160,-42388920
2026-01-14 16:52:41.251,24030580,-12573760,-1179950,54862920,-15002440,-15673830,-50354000
2026-01-14 16:52:41.261,24073740,-68832420,-68721940,54819760,-15258790,-14099120,-22628780
2026-01-14 16:52:41.271,24030580,-60394960,46637800,54690280,-13977050,-17480470,-6603241
2026-01-14 16:52:41.281,23996060,-12144770,-1614124,54552180,-7006836,-19934080,25894160
2026-01-14 16:52:41.291,37750630,-74077030,-63546390,40797610,-5291748,-19116210,5038452
2026-01-14 16:52:41.301,24004690,-58672080,44908010,54370910,-16308590,-11791990,15112310
2026-01-14 16:52:41.311,-11229810,-12148220,-1617575,19032840,-14331060,-13061520,26489260
2026-01-14 16:52:41.321,-11186650,-60401000,46631760,18972420,-76293940,-1295166,36035160
2026-01-14 16:52:41.331,-11152120,-61265040,47494060,18903360,-657959,-10131840,44921880
2026-01-14 16:52:41.341,-11108960,-1249781,-127662,18825680,-12084960,-17333980,6435547
2026-01-14 16:52:41.351,2349542,-12671300,-1104854,5332648,-9262085,-11383060,80126950
2026-01-14 16:52:41.361,23288260,-74853880,-62942170,53015740,7739258,-2286377,86572260
2026-01-14 16:52:41.371,23158780,-13019160,-762177,9,52799950,16052250,-29858400,90478510
2026-01-14 16:52:41.381,22942990,-13192650,-590407,4,52497850,23596190,-31420900,8666992
2026-01-14 16:52:41.391,36073490,-75397670,-62450160,39022070,26953120,-36132810,85595700
2026-01-14 16:52:41.401,22658140,-13625960,-160549,9,52092150,23828120,-38793940,8364258
2026-01-14 16:52:41.411,22580460,-13971230,184717,6,51997210,12548830,-39868160,8613281
2026-01-14 16:52:41.421,22494140,-14230180,443667,7,51910890,-18873220,-4970703,8955078
2026-01-14 16:52:41.431,22485510,-82851990,69065480,51919520,-17541500,-5966797,88720700
2026-01-14 16:52:41.441,22640880,-76692420,-61155410,52109410,-4099121,-6040039,86376950
2026-01-14 16:52:41.451,22701300,-76865060,-60982780,52221630,-6826172,-6713867,8745117
2026-01-14 16:52:41.461,22848040,-14832670,1049611,52420160,-9013672,-5083008,87353520
2026-01-14 16:52:41.471,23003410,-14918120,1136791,52610060,-10175780,-19439700,80908200
2026-01-14 16:52:41.481,36410130,-15004440,1223107,39375970,-10458980,97961420,85058590
2026-01-14 16:52:41.491,36323810,-69726660,-68069380,39289650,-10722660,20141600,103125
2026-01-14 16:52:41.501,22899840,-15349710,1568375,52541000,-11962890,66748050,11962890
2026-01-14 16:52:41.511,22589090,-15523210,1740144,52161210,-13496090,10224610,13632810
2026-01-14 16:52:41.521,22045300,-15697570,1911052,51496570,-14931640,11337890,14814450
2026-01-14 16:52:41.531,-11014020,-78013070,-59886560,18247360,-16152340,12431640,14970700
2026-01-14 16:52:41.541,33938880,-78392870,-59575820,36840840,-1640625,11513670,13935550
2026-01-14 16:52:41.551,34469380,-78850350,-59170130,34756640,-15078130,8598633,12109380
2026-01-14 16:52:41.561,19628430,-110485400,96674740,48043890,-12998050,44580080,9819336
2026-01-14 16:52:41.571,-10737800,-17698390,3880801,17332400,-10410160,17810060,7475586
2026-01-14 16:52:41.581,18333670,-80429940,-57814950,46058610,-6850586,-6585693,5292969
2026-01-14 16:52:41.591,17634510,-18655640,4822516,45031450,-48901370,-17138670,32788090
2026-01-14 16:52:41.601,-10496120,-19090680,5250648,16590080,-29614260,-18396000,15466310
2026-01-14 16:52:41.611,16210280,-19524850,5679641,43003000,-22570800,-14294430,7550049
2026-01-14 16:52:41.621,28742150,-20046200,6194088,28744800,-25048830,-64453120,6304932
2026-01-14 16:52:41.631,-10340750,-20480380,6623086,15934070,-40234380,-68359380,10974120
2026-01-14 16:52:41.641,-10288960,-8329566,-5532903,15726910,-57421880,-76141360,13305660
2026-01-14 16:52:41.651,25125080,-21262400,7394755,27700770,-75390620,-3793335,1138916
2026-01-14 16:52:41.661,13154670,-84124300,-54603970,38635370,-99560540,-6695557,13635250
2026-01-14 16:52:41.671,12792140,-84581780,-54198280,37962100,-11523440,-16357420,13964840
2026-01-14 16:52:41.681,-9909164,-22565790,8680877,14915530,-12421880,-1854248,1204834
2026-01-14 16:52:41.691,-9753792,-23087140,9195323,14708370,-12988280,-1496582,11431890
2026-01-14 16:52:41.701,-9563897,-23781130,9882406,14483950,-13144530,-13623050,12780760
2026-01-14 16:52:41.711,-11546590,-87050430,-52005840,12035140,-1296875,-1574707,1517334
2026-01-14 16:52:41.721,-11296270,-25169960,11255710,11784820,-12685550,-15283200,1517334
2026-01-14 16:52:41.731,13076990,-25864810,11941920,35605660,-12783200,-14648440,99853520
2026-01-14 16:52:41.741,13387730,-26559660,12628140,35294920,-12080080,-10900880,92285150
2026-01-14 16:52:41.751,13638050,-89993840,-49424960,34871960,-11679690,-51635740,2368,689
2026-01-14 16:52:41.761,23142380,-90736160,-48786220,25194990,-11162110,5041504,-8392334
2026-01-14 16:52:41.771,14199100,-28560490,14597890,33965640,-10966800,10491940,-12561040
2026-01-14 16:52:41.781,22961980,-9205682,-4769001,24857500,-10888670,7220459,-22607420
2026-01-14 16:52:41.791,14682480,-29693820,15708780,32791730,-11445310,6542969,-2878418
2026-01-14 16:52:41.801,14863740,-30131450,16134330,32092560,-11933590,7128906,-36572260
2026-01-14 16:52:41.811,-58350120,-30481900,16474420,104788500,-12177730,33172610,-43579100
2026-01-14 16:52:41.821,15269430,-93912620,-46265780,30651070,-11943360,-9727478,-48535160
2026-01-14 16:52:41.831,15467960,-94223350,-46058620,29934640,-11464840,-47424320,-48950200
2026-01-14 16:52:41.841,-65428090,-31273420,17236590,69916560,-10351560,-10333250,-53466800
2026-01-14 16:52:41.851,-4100048,-94568620,-45885980,8536722,-9086914,-13916020,-546875
2026-01-14 16:52:41.861,-3677095,-94603150,-45920510,8061980,-7783203,-17553710,-56152340
2026-01-14 16:52:41.871,21121710,-31371820,17310820,22209300,-6557617,-17480470,-6142578
2026-01-14 16:52:41.881,16460610,-31288100,17221920,26525130,-5678711,-14819340,-62158200
2026-01-14 16:52:41.891,16685030,-31290680,17219330,25955440,-5161133,-17993160,-63183590
2026-01-14 16:52:41.901,-21492870,-31206960,17130420,63788080,-46142580,-19116210,-60009770
2026-01-14 16:52:41.911,17237450,-94577260,-46239880,25057750,-43139650,-20996090,-62158200
2026-01-14 16:52:41.921,17651770,-31211270,17126100,24816060,-37304690,-27368160,-5986328
2026-01-14 16:52:41.931,18135150,-94689470,-46179460,24677950,-3310547,-2849121,-58251950
2026-01-14 16:52:41.941,-8027456,-31386500,17296150,51531100,-26342770,-2849121,-5083008
2026-01-14 16:52:41.951,-27101250,-72911750,-68008970,27105670,-14807130,-2467041,-43896480
2026-01-14 16:52:41.961,20249910,-72937650,-67983070,25152700,-60028080,-16821290,-39038090
2026-01-14 16:52:41.971,23303310,-72980800,-67957170,23307730,11340330,-8703613,-25170900
2026-01-14 16:52:41.981,4229520,-96018740,-44919230,43762580,24499510,19607540,-12866210
2026-01-14 16:52:41.991,-15053640,-33029100,18933580,19990950,3330078,20373540,-5529785
2026-01-14 16:52:42.001,-15025150,-33633320,19537800,15530970,3635254,37841800,13305660
2026-01-14 16:52:42.011,12602250,-34151220,20055700,38669900,32836910,5151367,34179690
2026-01-14 16:52:42.021,14846480,-7323977,-6771549,36425670,26904300,7685547,45654300
2026-01-14 16:52:42.031,-8378766,-9844425,-4251099,8884582,2142334,9277344,45043940
2026-01-14 16:52:42.041,-3927411,-35274200,21176950,8847465,14746090,9399414,41015620
2026-01-14 16:52:42.051,-19507580,-35533160,21435900,66809160,20248410,8095703,38452150
2026-01-14 16:52:42.061,-20198120,-99152050,-41837730,24686580,-19262700,5419922,3852539
2026-01-14 16:52:42.071,21145880,-99324680,-41665100,21149320,-32470700,2355957,42358400
2026-01-14 16:52:42.081,21492870,-99669950,-41319820,18212830,-3918457,-18234250,5
2026-01-14 16:52:42.091,22010770,-100101500,-40888250,15278060,-39453120,-23168940,5605469
2026-01-14 16:52:42.101,68535490,-73507340,-67482430,-33318270,-2722168,-44384770,65966800
2026-01-14 16:52:42.111,8398616,-70803040,-70186740,-5066796,-10601810,-49169920,7211914
2026-01-14 16:52:42.121,16546920,-102000500,-38989280,14872370,5419922,-50878900,79248050
2026-01-14 16:52:42.131,24772910,-39417400,25320150,4920053,1505127,-4736328,84033200
2026-01-14 16:52:42.141,12964780,-10371820,-3725431,-10168110,105651900,-42456060,83496100
2026-01-14 16:52:42.151,26240290,-41229190,27133670,-172635,5,44830320,-36572260,8251953
2026-01-14 16:52:42.161,27017140,-105513600,-35424380,-2848458,-16738890,-34838870,8300781
2026-01-14 16:52:42.171,2788028,-74068390,-66869580,-561062,1,-4660034,-29882810,80810540
2026-01-14 16:52:42.181,28743480,-107490200,-33430480,-8545364,-9283447,-3713379,78222660
2026-01-14 16:52:42.191,29606640,-45024540,30934200,-11480130,-9881592,-60546880,86865230
2026-01-14 16:52:42.201,30556130,-10928560,-3160058,-14673850,-28182980,-7788086,94384770
2026-01-14 16:52:42.211,9287684,-46748290,32663120,4350362,8905029,-10117190,10957030
2026-01-14 16:52:42.221,27405570,-47524270,33440830,-26283450,22607420,-11787110,11640630
2026-01-14 16:52:42.231,71383940,-70818580,-69998560,13206460,37036130,-12646480,11855470
2026-01-14 16:52:42.241,31695510,-11182330,-2895928,-31143080,48364260,-12636720,11035160
2026-01-14 16:52:42.251,46006820,-11198730,-2877802,-21838140,52685550,-11904300,10361330
2026-01-14 16:52:42.261,36511470,-11205640,-2867444,-36512500,421875,-10478520,77001950
2026-01-14 16:52:42.271,15019110,-11187510,-2883843,-63356490,41674800,-69921870,5258789
2026-01-14 16:52:42.281,-2934768,-4837964,3431177,-86834640,19421390,-3461914,26367190
2026-01-14 16:52:42.291,-2080237,-70732260,-69912250,-11039910,16235350,4890442,12524410
2026-01-14 16:52:42.301,-3694356,-47599370,33538370,-13223730,7104492,30517580,28549190
2026-01-14 16:52:42.311,-5222161,-47165200,33109380,-15321220,-5004883,68603520,770874
2026-01-14 16:52:42.321,-6491021,-109967500,-30556130,-17159770,-13293460,98583980,119262700
2026-01-14 16:52:42.331,-12472770,-46212260,32163340,-13594890,-27075200,10517580,1887207
2026-01-14 16:52:42.341,4505734,-1088886,-315487,9,-7285133,-26391600,11445310,2121582
2026-01-14 16:52:42.351,47474210,-45171280,31132720,-76131370,-13415530,13466800,103759800
2026-01-14 16:52:42.361,50408980,-107723300,-32627730,-79066140,10003660,10478520,5130005
2026-01-14 16:52:42.371,53430060,-43958530,29928610,-81741950,45947260,6586914,26107790
2026-01-14 16:52:42.381,69131090,-7375763,-6648982,-71910480,81152340,4345703,-22155760
2026-01-14 16:52:42.391,59817500,-4291751,2889796,-86920960,12011720,3671875,-6768799
2026-01-14 16:52:42.401,62838580,-7361952,-6652435,-89251510,14677730,14685060,-10089110
2026-01-14 16:52:42.411,65859670,-42049200,28039990,-91409430,16816410,-34088140,-13964840
2026-01-14 16:52:42.421,-4341731,-41701340,27697320,-20517490,19238280,-43121340,-2319336
2026-01-14 16:52:42.431,-11169390,-104270600,-35735130,-12826670,19541020,-21774290,-36743160
2026-01-14 16:52:42.441,73110280,-40834720,26837600,-96070540,19238280,8392334,-5629883
2026-01-14 16:52:42.451,8577467,-4040228,2640688,-8599565,18925780,7091522,-64990230
2026-01-14 16:52:42.461,76390320,-73265650,-66671060,-97278980,18681640,-15026860,-74121100
2026-01-14 16:52:42.471,-8878539,-39364750,25372810,-10629050,17958980,-22766110,-8564453
2026-01-14 16:52:42.481,-80982370,-38674210,24682280,-98556460,15976560,-9918213,-9379883
2026-01-14 16:52:42.491,7984300,-37983680,23991740,-9624318,14267580,-19335940,-9560547
2026-01-14 16:52:42.501,1381065,-72989440,-66947260,-16227550,13134770,-7159424,-98583980
2026-01-14 16:52:42.511,2244234,-99402360,-40534340,-15364390,11650390,6500244,-8847656
2026-01-14 16:52:42.521,3012455,-29356930,27957390,-14578900,10009770,11175540,-81933590
2026-01-14 16:52:42.531,3789305,-3505063,2105524,-13802050,82177740,23022460,-7578125
2026-01-14 16:52:42.541,-33482260,-975981,1,-423554,7,-51108140,60009770,31835940,-6743164
2026-01-14 16:52:42.551,-37116110,-3427378,2027841,-37116290,3251953,4165039,-5449219
2026-01-14 16:52:42.561,-23046570,-72687330,-67249380,-40827820,9773254,4453125,-42504880
2026-01-14 16:52:42.571,-19524850,-9723580,-4268363,-37444200,-22668460,43237300,-35180660
2026-01-14 16:52:42.581,-17712200,-9748612,-4241605,-35804180,-34936520,36157230,-27392580
2026-01-14 16:52:42.591,-1587365,-9781414,-4205352,-3419007,-37353520,27514650,-18884280
2026-01-14 16:52:42.601,-14889640,-98314770,-41518350,-33447740,-2565918,15905760,-7891846
2026-01-14 16:52:42.611,-13888360,-35991490,22013360,-32722680,-7141113,1864624,44677740
2026-01-14 16:52:42.621,-21485960,-36680300,22705620,-23398740,113708500,-501709,12976070
2026-01-14 16:52:42.631,-12723090,-72894500,-66800530,-32161620,25219730,-7977295,18188480
2026-01-14 16:52:42.641,-12576350,-100982000,-38661260,-32308360,4104004,-114868200,21032720
2026-01-14 16:52:42.651,-13292780,-101560300,-38031160,-33318270,56933590,-20117190,21716310
2026-01-14 16:52:42.661,-13146040,-39346620,25390940,-33465000,7260742,-2668457,20019530
2026-01-14 16:52:42.671,-13879730,-10255290,-3695219,-34457640,87060540,-28637700,15332030
2026-01-14 16:52:42.681,-13767520,-73058490,-66412100,-34569860,9790039,-30273440,16882320
2026-01-14 16:52:42.691,8001564,-40635340,26691730,-13007940,10869140,-33251950,16516110
2026-01-14 16:52:42.701,-1444941,-40978870,27038720,-3561431,11308590,-26000980,17590330
2026-01-14 16:52:42.711,8148303,-41236960,27298530,-13154670,11298830,-21569820,1706543
2026-01-14 16:52:42.721,8191458,-104296500,-35070490,-13197840,10595700,-11291500,1459961
2026-01-14 16:52:42.731,-23095770,-104546800,-34802910,-25241610,10126950,9361267,12451170
2026-01-14 16:52:42.741,-12559090,-104892100,-34457640,-34051960,92626950,45196530,15209960
2026-01-14 16:52:42.751,-10824120,-70029630,-69320110,-32334260,8383789,74646000,1340332
2026-01-14 16:52:42.761,-8243252,-73248380,-66101360,-29736120,7211914,115722700,12902830
2026-01-14 16:52:42.771,9097782,-73274280,-66075460,-12377820,58496100,925293,15222170
2026-01-14 16:52:42.781,-3953309,-73282910,-66066830,-25394390,49951170,72387700,12536620
2026-01-14 16:52:42.791,-526535,-73300180,-66049570,-21915820,46166990,11193850,949707
2026-01-14 16:52:42.801,2045707,-106100500,-33249200,-19309060,4519043,9899902,14880370
2026-01-14 16:52:42.811,10650880,-106368100,-32998890,-10652100,34765620,60638430,18493650
2026-01-14 16:52:42.821,10630770,-106713400,-32653620,-10637680,1850586,11090090,2841797
2026-01-14 16:52:42.831,10623860,-107058700,-32308360,-10627320,-55511480,2290039,37402340
2026-01-14 16:52:42.841,10616960,-107490200,-31876770,-10616960,-44067380,3720703,31884770
2026-01-14 16:52:42.851,10627310,-73498700,-65851040,-10623870,-84033200,60253900,22253420
2026-01-14 16:52:42.861,1064801,-73550500,-65799250,-1063771,-10449220,7006836,12524410
2026-01-14 16:52:42.871,21907190,-10876770,-3056477,535163,8,-10673830,6386719,91796870
2026-01-14 16:52:42.881,29727490,-109009400,-30288550,8251876,-8588867,4050293,15490720
2026-01-14 16:52:42.891,1357764,-46583420,32655350,-805337,3,-40161130,3289795,39501950
2026-01-14 16:52:42.901,4715483,-109328800,-29917380,2535118,3918457,-22595220,62402340
2026-01-14 16:52:42.911,55881460,-40488080,39095960,33887950,35668940,-44970700,7890625
2026-01-14 16:52:42.921,62899010,-109466900,-29710220,40681080,4963379,-5625,84814460
2026-01-14 16:52:42.931,6905341,-46921780,33007520,4661103,47021480,-6772461,828125
2026-01-14 16:52:42.941,17479140,-47005510,33096430,-5222166,46362300,-75,80078130
2026-01-14 16:52:42.951,17781250,-109751700,-29304530,-5179010,4609375,-7524414,73828130
2026-01-14 16:52:42.961,18083360,-109812200,-29192320,-5135852,53808590,-65234380,7446289
2026-01-14 16:52:42.971,18212830,-41263720,39874020,-5265324,6459961,-5595703,7597656
2026-01-14 16:52:42.981,18238730,-47601090,33709280,-5463853,68408200,-47436520,7055664
2026-01-14 16:52:42.991,18264620,-110183300,-28700320,-5662383,67529300,-3449707,63720700
2026-01-14 16:52:43.001,74206500,-47770280,33885360,50089610,62939450,-16455080,55322260
2026-01-14 16:52:43.011,18273250,-47682230,33800780,-6016279,55126950,-57678220,42407230
2026-01-14 16:52:43.021,18342310,-47681370,33801640,-6085332,43432620,-1108551,34838870
2026-01-14 16:52:43.031,18316410,-110045200,-28734840,-6232074,3544922,22644040,2944336
2026-01-14 16:52:43.041,18359570,-47507010,33630730,-6275231,24169920,57373050,28320310
2026-01-14 16:52:43.051,18316410,-47419830,33545280,-6404704,17504880,758667,3059082
2026-01-14 16:52:43.061,7021869,-47419830,33545280,4544574,140625,58776860,30004880
2026-01-14 16:52:43.071,18100620,-109760400,-28967900,-6706816,15405270,7281494,32617190
2026-01-14 16:52:43.081,12476220,-109674100,-29054220,-12365740,89416500,-724411,32055660
2026-01-14 16:52:43.091,65945990,-109674100,-29054220,41086770,64208980,-21911620,31982420
2026-01-14 16:52:43.101,17694930,-109587700,-29140530,-7164294,5142212,-762558,27075200
2026-01-14 16:52:43.111,63356490,-109501400,-29226850,38497260,1965332,-19180300,23303220
2026-01-14 16:52:43.121,17427350,-109328800,-29399480,-7414614,28778080,-53863520,15124510
2026-01-14 16:52:43.131,17410090,-46729300,32854740,-7397347,61279300,25115970,8709717
2026-01-14 16:52:43.141,17401460,-46470340,32595790,-7388715,9185791,3137207,13473510
2026-01-14 16:52:43.151,63304700,-46125940,32249660,38549060,904541,53833010,-46142580
2026-01-14 16:52:43.161,64159240,-10831030,-3045258,39420860,17260740,8917236,-6750488
2026-01-14 16:52:43.171,65876940,-73248380,-65531660,41155820,21081540,791626,-7757568
2026-01-14 16:52:43.181,66722840,-73213860,-65566190,42036250,22741700,99487300,-9893799
2026-01-14 16:52:43.191,12895720,-107369400,-31410660,-11773610,20202640,9423828,-88012700
2026-01-14 16:52:43.201,6929510,-44660290,30780550,4464301,16235350,11584470,-82336420
2026-01-14 16:52:43.211,18100620,-44315020,30435280,-6534180,12683110,12866210,-97473140
2026-01-14 16:52:43.221,7099554,-44056930,30175470,4639523,914917,11273190,-11468510
2026-01-14 16:52:43.231,18161040,-43884300,30002840,-6421968,5770874,14794920,-14135740
2026-01-14 16:52:43.241,18238730,-43625340,29743890,-6327019,37078860,18530270,-14367680
2026-01-14 16:52:43.251,18230100,-105927900,-32903940,-6318390,28640750,20996090,-1697998
2026-01-14 16:52:43.261,18212830,-105841600,-32990260,-6301126,-8773804,21887210,-18334960
2026-01-14 16:52:43.271,18204200,-69779320,-69052540,-6292493,-21270750,23583980,-17675780
2026-01-14 16:52:43.281,18273260,-7305849,-6579063,-6188912,-48309330,22705080,-16772460
2026-01-14 16:52:43.291,18255990,-7305849,-6579063,-6171647,-37323000,18457030,-15002440
2026-01-14 16:52:43.301,18325050,-7305849,-6579063,-6068069,-44311520,13574220,-1352539
2026-01-14 16:52:43.311,18307780,-43368990,29482350,-6050806,-4925537,10229490,-12414550
2026-01-14 16:52:43.321,18290520,-43455300,29568660,-6033544,-57006840,38360600,-78063970
2026-01-14 16:52:43.331,74292820,-43541620,29654980,50003290,-519104,22262570,-6713867
2026-01-14 16:52:43.341,74266930,-43714250,29827610,50029180,-5178833,-12176510,-62438960
2026-01-14 16:52:43.351,74249660,-106385400,-32498260,50046440,-16052250,-19485470,-62164310
2026-01-14 16:52:43.361,74232400,-106558000,-32325620,50063710,-31051640,-14732360,-35003660
2026-01-14 16:52:43.371,7507829,-106730700,-32152990,5094410,-15808110,3774643,-46966550
2026-01-14 16:52:43.381,18342310,-106911900,-31988990,-5740067,-3768921,13618470,-7354736
2026-01-14 16:52:43.391,74171980,-107170900,-31730040,50124130,-4660034,1007843,-37963870
2026-01-14 16:52:43.401,63348720,-107429800,-31471090,60947390,-7977295,13031010,-57678220
2026-01-14 16:52:43.411,18117880,-73274290,-65626620,-5860910,-105407700,21026610,-66223140
2026-01-14 16:52:43.421,18014300,-73300180,-65600730,-5929963,-9197998,-11238100,-80444340
2026-01-14 16:52:43.431,17910720,-10821530,-3070288,-5999014,-107177700,-74272160,-7702637
2026-01-14 16:52:43.441,17807140,-10856060,-3035761,-6068068,-680542,-21652220,-9051514
2026-01-14 16:52:43.451,17712200,-46306340,32414530,-6145753,-8068848,-29266360,-848999
2026-01-14 16:52:43.461,17608620,-46651610,32759800,-6214808,-6994629,-4085541,-7006836
2026-01-14 16:52:43.471,11958320,-46910560,33018740,-11847840,-56518560,-28305050,-61950680
2026-01-14 16:52:43.481,65402200,-47255830,33364010,41630560,-50811770,-16952520,-11077880
2026-01-14 16:52:43.491,17142510,-47601090,33709280,-6611866,-59776300,-34885410,-10974120
2026-01-14 16:52:43.501,62795430,-7355915,-6535907,39058330,-43258670,-29678340,-12158200
2026-01-14 16:52:43.511,60188660,-11089110,-2802707,36486090,-7438,66,-35949710,-10290530
2026-01-14 16:52:43.521,16503760,-7364544,-6527273,-7181553,3452301,-30532840,-7220459
2026-01-14 16:52:43.531,16227550,-49241110,35349300,-7423243,4760742,16448980,-13793950
2026-01-14 16:52:43.541,54103340,-49672700,35780880,30487070,51940920,72387700,-20800780
2026-01-14 16:52:43.551,51496570,-50276910,36385100,27914830,5670166,12237550,-25317380
2026-01-14 16:52:43.561,4802664,-11330800,-2561018,2447942,57037350,1381836,-2841797
2026-01-14 16:52:43.571,15122690,-11399850,-2491965,-8389988,35369870,5444336,-2668457
2026-01-14 16:52:43.581,14751530,-52175880,38284070,-8709361,4425049,-53749080,-21789550
2026-01-14 16:52:43.591,11989400,-52866420,38974600,-11436970,69885260,-56671140,-18457030
2026-01-14 16:52:43.601,25337420,-11607010,-2284805,22999960,53375240,-513916,-16918940
2026-01-14 16:52:43.611,32377410,-69924340,-68976580,9054624,32714840,-5923462,-15368650
2026-01-14 16:52:43.621,28898840,-117528900,-21372030,5627845,-35266880,-5758667,-1381836
2026-01-14 16:52:43.631,24557110,-69939010,-68961900,1337907,-11856080,-44830320,-12451170
2026-01-14 16:52:43.641,20215380,-74413670,-64487240,-2952036,-6213379,-33691410,-10345460
2026-01-14 16:52:43.651,11553490,-74499980,-64400930,-11544870,-7727051,-43396000,-8544922
2026-01-14 16:52:43.661,11531920,-120722600,-18178310,-11531920,-7067871,-463562,-83984380
2026-01-14 16:52:43.671,11501700,-69970940,-68929970,-11510340,-8728027,-6390381,-99243170
2026-01-14 16:52:43.681,2848450,-74724410,-64159240,-20111800,-12438970,-993042,-8831787
2026-01-14 16:52:43.691,10081800,-122958200,-15925450,-12843940,-117614700,-11553960,-8135986
2026-01-14 16:52:43.701,-6689551,-74871140,-64012500,-29563490,-89904780,-16052250,-2558899
2026-01-14 16:52:43.711,-11022650,-74931570,-63952080,-33862060,-8929443,-21960450,-39764400
2026-01-14 16:52:43.721,-15355750,-12493480,-1393152,-38160630,-100097700,-2446289,-4272461
2026-01-14 16:52:43.731,8372724,-12545280,-1341363,-14414900,-9832764,-24975590,-6530762
2026-01-14 16:52:43.741,-23150150,-63308150,49421520,-45903250,-109436000,-2524414,-43701170
2026-01-14 16:52:43.751,-25756920,-63653420,49766780,-48475490,-10864260,-2548828,-9887695
2026-01-14 16:52:43.761,-28355050,-63826050,49939420,-51056360,-9210205,-2548828,-12561040
2026-01-14 16:52:43.771,-30953180,-63912370,50025740,-53637230,-117004400,-22558590,-1673584
2026-01-14 16:52:43.781,-31816350,-12648850,-1237781,-54500390,-12146000,-23095700,-19360350
2026-01-14 16:52:43.791,-33542680,-63826050,49939420,-56226730,-9283447,-19812010,-24499510
2026-01-14 16:52:43.801,-34405850,-63653420,49766780,-57089900,-109375,-18652340,-26611330
2026-01-14 16:52:43.811,-34397220,-63394470,49507840,-57098530,-108947800,-12042240,-32055660
2026-01-14 16:52:43.821,-34388590,-75061040,-63822600,-57107160,-8660889,-8093262,-30395510
2026-01-14 16:52:43.831,-34371330,-75017890,-63865760,-57124420,-76416020,-5178833,-30737300
2026-01-14 16:52:43.841,-33490900,-74983360,-63900290,-56278520,-43640140,-27572630,-2919922
2026-01-14 16:52:43.851,7017548,-74940200,-63943450,-15821860,-57159420,-28076170,-26586910
2026-01-14 16:52:43.861,-31712770,-12389900,-1496731,-54603970,-48675540,-33599860,-24646000
2026-01-14 16:52:43.871,-30823710,-60977600,47090970,-53766700,-26016240,-284729,-21911620
2026-01-14 16:52:43.881,7362820,-60546020,46659380,-15649230,-84991460,-48858640,-16748050
2026-01-14 16:52:43.891,-28173790,-12251800,-1634839,-51237620,50621030,-6500244,-16137700
2026-01-14 16:52:43.901,-26412920,-12200010,-1686629,-49545810,18600460,-6994629,-14172360
2026-01-14 16:52:43.911,-35956100,-12156850,-1729786,-38276300,13694760,-97961420,-14697270
2026-01-14 16:52:43.921,8096510,-12104200,-1780715,-15174480,17990110,-1048584,-11230470
2026-01-14 16:52:43.931,8381358,-57955650,44070740,-14941430,1701355,-114746100,-6604004
2026-01-14 16:52:43.941,-19378110,-11991980,-1892925,-42769950,36102300,-9094238,-39100650
2026-01-14 16:52:43.951,-16754080,-11940190,-1944716,-40214970,6317139,-8337402,28625490
2026-01-14 16:52:43.961,-14138680,-11888400,-1996506,-37651360,6378174,-54473880,3591919
2026-01-14 16:52:43.971,-12377820,-11836610,-2048296,-35959560,6573486,-4385376,35247800
2026-01-14 16:52:43.981,-9762422,-55366150,41481240,-33395950,758667,7534027,5758667
2026-01-14 16:52:43.991,-8010196,-117408000,-21423820,-31695510,8276367,54107660,6640625
2026-01-14 16:52:44.001,-6257967,-74171980,-64659880,-29995070,9637451,8648682,55725100
2026-01-14 16:52:44.011,10245800,-74128820,-64703030,-13525840,105407700,82092290,66711420
2026-01-14 16:52:44.021,-2770770,-74094300,-64737560,-26576930,8892822,9423828,836792
2026-01-14 16:52:44.031,-11755480,-74059770,-64772090,-14139550,99365230,6915283,97473140
2026-01-14 16:52:44.041,716426,-74025240,-64806610,-23158790,89782710,46661380,13745120
2026-01-14 16:52:44.051,1588227,-115250100,-23581740,-22304250,847168,14190670,11883550
2026-01-14 16:52:44.061,3323194,-114904800,-23927000,-20586550,1048584,-13523100,12756350
2026-01-14 16:52:44.071,11962810,-114645900,-24185950,-11964200,9362793,-14541630,13549810
2026-01-14 16:52:44.081,11962980,-73913030,-64918820,-11964020,10473630,-309906,13623050
2026-01-14 16:52:44.091,11968680,-73887140,-64944720,-11975590,12561040,-20019530,105163600
2026-01-14 16:52:44.101,11970410,-11387770,-2497144,-11973860,111816400,-17578120,72387700
2026-01-14 16:52:44.111,11962640,-11353240,-2531671,-11964360,11138920,33355710,36895750
2026-01-14 16:52:44.121,11963500,-11327350,-2557566,-11963500,12011720,43945310,54656980
2026-01-14 16:52:44.131,11956600,-50619590,36732950,-11953150,9210205,40496820,50476070
2026-01-14 16:52:44.141,11949690,-50360640,36474000,-11942790,7562256,25177000,5319214
2026-01-14 16:52:44.151,11941920,-50101690,36215050,-11933290,8282471,30059810,39764400
2026-01-14 16:52:44.161,11929580,-49929060,36042420,-11928370,440979,1838684,39123540
2026-01-14 16:52:44.171,1192724,-112168600,-26715040,-1191349,3137207,16723630,17700200
2026-01-14 16:52:44.181,19680220,-111996000,-26887670,-4143209,14251710,-5619049,12313840
2026-01-14 16:52:44.191,20526120,-111832000,-27068940,-3262778,39398190,-17745970,40618900
2026-01-14 16:52:44.201,21380660,-111659300,-27241570,-2390979,60653690,-15213010,27069090
2026-01-14 16:52:44.211,22226560,-111486700,-27414200,-1510547,-18676760,4142761,34423830
2026-01-14 16:52:44.221,23081100,-7364545,-6527274,-638744,-2432251,20507810,32562260
2026-01-14 16:52:44.231,23063830,-11115010,-2776811,-621480,2,-27542110,61035160,-22735600
2026-01-14 16:52:44.241,13267750,-11098610,-2794937,10900940,9109497,8807373,-1676941
2026-01-14 16:52:44.251,24764270,-11081340,-2812201,1130750,-5680084,1701355,-3652954
2026-01-14 16:52:44.261,13189200,-11064080,-2829464,-10427060,26454930,28656010,-42144780
2026-01-14 16:52:44.271,26473340,-73585020,-65367670,2874344,-10061260,-33988950,-17974850
2026-01-14 16:52:44.281,27319250,-110390500,-28562210,3754773,-720,9778,-9117126,8026123
2026-01-14 16:52:44.291,2817377,-110304200,-28648520,462653,-14099120,-2381897,28396610
2026-01-14 16:52:44.301,29019690,-110217800,-28734840,5507001,-20584110,-1777649,-4600525
2026-01-14 16:52:44.311,18438120,-41263720,39874020,16088580,-24810790,-15914920,-49705500
2026-01-14 16:52:44.321,29865600,-41177400,39787700,6387437,-40008540,-44952390,-18625260
2026-01-14 16:52:44.331,30711500,-41091090,39701380,7267868,-39123540,-36193850,138549800
2026-01-14 16:52:44.341,30702870,-47259280,33360560,7276500,-48950200,-20370480,-35247800
2026-01-14 16:52:44.351,31557400,-47172960,33274240,8148300,-51727300,-79574580,-17242430
2026-01-14 16:52:44.361,31548770,-47086650,33187930,8156931,-4748535,13458250,-51239020
2026-01-14 16:52:44.371,21884750,-47000330,33101610,19547290,-35064700,31982420,-6463623
2026-01-14 16:52:44.381,32394670,-109466900,-29537590,9037359,-48065180,39764400,-6866455
2026-01-14 16:52:44.391,32386040,-109466900,-29537590,9045990,-4763794,4147339,-74279780
2026-01-14 16:52:44.401,33240580,-109380600,-29623900,9917788,-33294680,23513790,-6695557
2026-01-14 16:52:44.411,33231940,-109294300,-29710220,9926420,-2243042,11558530,-8526611
2026-01-14 16:52:44.421,33231940,-109294300,-29710220,9926420,-35858150,11367800,-8703613
2026-01-14 16:52:44.431,33223310,-109294300,-29710220,9935051,-20751950,-6248474,-8453369
2026-01-14 16:52:44.441,33214680,-109294300,-29710220,9943683,-19165040,10032650,-7507324
2026-01-14 16:52:44.451,33214680,-109294300,-29710220,9943683,24089810,19897460,-8532715
2026-01-14 16:52:44.461,33214680,-46829420,32927250,9943687,-21850590,8323669,-8178711
2026-01-14 16:52:44.471,33206050,-46829420,32927250,9952319,-31414030,42785640,-10058590
2026-01-14 16:52:44.481,32342880,-109466900,-29537590,9089149,25577540,5947876,-10229490
2026-01-14 16:52:44.491,32342880,-109553200,-29451270,9089149,18676760,6591797,-1149292
2026-01-14 16:52:44.501,32351520,-109639500,-29364950,9080517,22415160,5819702,-114990200
2026-01-14 16:52:44.511,32351520,-109812200,-29192320,9080517,3567505,4309082,-11608890
2026-01-14 16:52:44.521,32351520,-109898500,-29106000,9080517,10238650,7698059,-10443120
2026-01-14 16:52:44.531,31496980,-110071100,-28933370,8208717,19226070,9796143,-8154297
2026-01-14 16:52:44.541,31496980,-110243700,-28760740,8208717,31173710,-1739502,-61279300
2026-01-14 16:52:44.551,31496980,-47863500,33964780,8208721,463562,-472641,-6390381
2026-01-14 16:52:44.561,31505610,-11058040,-2840686,8200092,37597660,-24429320,-15670780
2026-01-14 16:52:44.571,30642440,-11075300,-2823422,7336924,17852780,-19088740,-19989010
2026-01-14 16:52:44.581,30651080,-11101200,-2797527,7328292,26168820,-36102300,-79574580
2026-01-14 16:52:44.591,30651080,-11118460,-2780264,7328292,37109380,-55480960,1651001
2026-01-14 16:52:44.601,30659710,-1113486,-276214,9,7319660,48706060,-53710940,14625550
2026-01-14 16:52:44.611,30659710,-42817420,41427720,7319658,43518060,-55664060,29312130
2026-01-14 16:52:44.621,30668340,-42990060,41600350,7311027,4663086,-5621338,30288700
2026-01-14 16:52:44.631,30668340,-43162690,41772980,7311027,362854,-4135132,17501830
2026-01-14 16:52:44.641,21021580,-43335320,41945620,18684120,59021000,-803833,17318730
2026-01-14 16:52:44.651,21021580,-112203100,-26749560,18684120,5569458,-82092290,6389618
2026-01-14 16:52:44.661,21021580,-112375800,-26576920,18684120,47027590,-9100342,3074646
2026-01-14 16:52:44.671,32411940,-112462100,-26490600,9020095,49804690,-8795166,340271
2026-01-14 16:52:44.681,32411940,-112462100,-26490600,9020095,4925537,-8795166,8323669
2026-01-14 16:52:44.691,33283740,-112548400,-26404290,9874630,64208980,-6689453,-14587400
2026-01-14 16:52:44.701,33283740,-112548400,-26404290,9874630,32165530,-68481450,-16983030
2026-01-14 16:52:44.711,34155530,-112548400,-26404290,10729160,4006958,-657959,-2809143
2026-01-14 16:52:44.721,34164160,-112462100,-26490600,10720530,22720340,-4724121,-4360962
2026-01-14 16:52:44.731,35035970,-49932510,36038970,11575070,37261960,-3768921,-32989500
2026-01-14 16:52:44.741,35044600,-49846190,35952650,11566440,11421200,-23651120,-34210200
2026-01-14 16:52:44.751,25343460,-49759880,35866330,22993920,3665161,983429,-57525640
2026-01-14 16:52:44.761,14268160,-49673560,35780020,-9261790,16159060,-1786232,-7312012
2026-01-14 16:52:44.771,14285420,-49587240,35693700,-9279053,21408080,11878970,-7147217
2026-01-14 16:52:44.781,14294050,-49586380,35694560,-9287684,46310420,31799320,-8062744
2026-01-14 16:52:44.791,37703160,-49500060,35608250,14086890,25405880,5041504,-8416748
2026-01-14 16:52:44.801,27078430,-49500060,35608250,24711620,1473999,3933716,-7281494
2026-01-14 16:52:44.811,38609480,-111918300,-26982620,14906900,118255600,30151370,-21316530
2026-01-14 16:52:44.821,38626740,-111918300,-26982620,14889630,4837036,21392820,-8651733
2026-01-14 16:52:44.831,12170660,-111918300,-26982620,-11618240,4447937,2986145,-20542140
2026-01-14 16:52:44.841,12187920,-111996000,-26887670,-11635500,-5092621,41412350,14183040
2026-01-14 16:52:44.851,12213820,-111996000,-26887670,-11661400,-17074580,26138310,223732
2026-01-14 16:52:44.861,40439400,-49583790,35697150,16529660,33569340,38116460,11634830
2026-01-14 16:52:44.871,29682600,-49670110,35783470,27286450,24108890,16830440,39367680
2026-01-14 16:52:44.881,41345720,-49755560,35870650,17349660,30975340,-13450620,62347410
2026-01-14 16:52:44.891,41362980,-49928200,36043280,17332400,46142580,-4589081,95581060
2026-01-14 16:52:44.901,41380240,-112488000,-26343870,17315130,27023320,-22445680,9429932
2026-01-14 16:52:44.911,15070900,-112574300,-26257560,-9028737,37288660,-25848390,7861328
2026-01-14 16:52:44.921,4227796,-50185420,36303960,1814376,22750850,-12451170,25741580
2026-01-14 16:52:44.931,15105430,-50271730,36390280,-9063260,28259280,17333980,23479460
2026-01-14 16:52:44.941,43175640,-50358060,36476590,18972420,6109619,-18234250,12329100
2026-01-14 16:52:44.951,43192900,-50443510,36563770,18955150,6854248,-43426510,12275700
2026-01-14 16:52:44.961,44064700,-50529820,36650090,19809690,8416748,-88378900,33721920
2026-01-14 16:52:44.971,44081960,-50616140,36736400,19792430,10479740,-7562256,46295170
2026-01-14 16:52:44.981,15424800,-73766280,-65013760,-8864732,9979248,-7739258,491333
2026-01-14 16:52:44.991,3401568,-73766280,-65013760,3158499,814209,-7757568,31555180
2026-01-14 16:52:45.001,3487884,-73774910,-65005130,3244816,4940796,-6616211,25985720
2026-01-14 16:52:45.011,3487884,-73774910,-65005130,3244816,41656500,-48461910,-11053090
2026-01-14 16:52:45.021,34648230,-73774910,-65005130,34405160,8682251,-52948000,200,4206
2026-01-14 16:52:45.031,34648230,-73774910,-65005130,34405160,-41008000,-62194820,-27313230
2026-01-14 16:52:45.041,34648230,-73766280,-65013760,34405160,13191220,-62683100,-44158940
2026-01-14 16:52:45.051,46671460,-73766280,-65013760,22381930,12702940,-34484860,-30334470
2026-01-14 16:52:45.061,15683750,-50616140,36736410,-8605780,32165530,-24993900,-26275640
2026-01-14 16:52:45.071,15675120,-50616140,36736410,-8597150,19088740,-40008540,-3112793
2026-01-14 16:52:45.081,15675120,-50529820,36650090,-8597150,-2380371,-35369870,-58288580
2026-01-14 16:52:45.091,15666490,-50443500,36563780,-8588518,-13990400,-50079340,-6225586
2026-01-14 16:52:45.101,15657860,-50443500,36563780,-8579886,-34454340,-14190670,-5065918
2026-01-14 16:52:45.111,15649230,-50357190,36477460,-8571254,-33996580,-4650879,-39855960
2026-01-14 16:52:45.121,46636940,-50271740,36390270,22416450,-21698000,-15670780,-52978520
2026-01-14 16:52:45.131,46628300,-50271740,36390270,22425090,-24536130,-11146550,-49957280
2026-01-14 16:52:45.141,46628300,-50185420,36303960,22425090,-3062439,-28793340,-60180660
2026-01-14 16:52:45.151,46619680,-50099100,36217640,22433720,-1473999,-345459,-6317139
2026-01-14 16:52:45.161,46619680,-50099100,36217640,22433720,-30593870,-4749298,-48034670
2026-01-14 16:52:45.171,15450700,-50012780,36131330,-8717993,-12176510,76904300,-45898440
2026-01-14 16:52:45.181,15450700,-49926470,36045010,-8717993,2396,107,4901886,-73913580
2026-01-14 16:52:45.191,15442070,-49926470,36045010,-8709361,25222780,21591190,-7501221
2026-01-14 16:52:45.201,15442060,-112315300,-26516510,-8709364,24246220,17364500,-6390381
2026-01-14 16:52:45.211,4573060,-112315300,-26516510,2159640,16815190,-68969730,-63964840
2026-01-14 16:52:45.221,15424800,-112315300,-26516510,-8692102,34698490,-8804321,-5432129
2026-01-14 16:52:45.231,46576510,-112229000,-26602820,22476870,25253300,881958,-45715330
2026-01-14 16:52:45.241,46567880,-112229000,-26602820,22485510,49743650,8377075,-36102300
2026-01-14 16:52:45.251,46559250,-112229000,-26602820,22494140,43060300,10261540,-40496820
2026-01-14 16:52:45.261,15562910,-49841880,35956960,-8484940,42053220,10444640,-48583980
2026-01-14 16:52:45.271,15554280,-49841880,35956960,-8476306,1991272,30258180,-21499630
2026-01-14 16:52:45.281,4739654,-49928200,36043280,2338319,8018494,1689148,-37384030
2026-01-14 16:52:45.291,15537020,-49928200,36043280,-8459042,-737381,-62828060,-2998352
2026-01-14 16:52:45.301,4737065,-49928200,36043280,2340908,20706180,2614975,-41870120
2026-01-14 16:52:45.311,15597440,-50015380,36128740,-8346831,10322570,-9597778,-3048706
2026-01-14 16:52:45.321,15588810,-50015380,36128740,-8338199,-5771637,-47424320,-25894160
2026-01-14 16:52:45.331,15580170,-50101690,36215050,-8329568,-10475160,-3668213,-21942140
2026-01-14 16:52:45.341,15562910,-50188010,36301370,-8312305,-11062620,-3463745,-20751950
2026-01-14 16:52:45.351,15554280,-50188010,36301370,-8303672,-6587982,-31311040,-40130620
2026-01-14 16:52:45.361,4817339,-50274320,36387680,2433267,-1625061,-18920900,-26367190
2026-01-14 16:52:45.371,15537010,-112772800,-26110820,-8286413,-25009160,-12741090,-3540039
2026-01-14 16:52:45.381,15528380,-112859200,-26024500,-8277781,-23010250,-9086609,-61798100
2026-01-14 16:52:45.391,15519750,-112859200,-26024500,-8269149,-32440190,-16342160,-28503420
2026-01-14 16:52:45.401,15511120,-112945500,-25938180,-8260518,-3050232,-35064700,-37628180
2026-01-14 16:52:45.411,15502490,-113031800,-25851870,-8251887,-3253174,-1991272,-22476200
2026-01-14 16:52:45.421,15493850,-113031800,-25851870,-8243254,-25909420,-18432620,-44708250
2026-01-14 16:52:45.431,15485220,-113118100,-25765550,-8234623,-3086853,-26443480,-4107666
2026-01-14 16:52:45.441,15485220,-113118100,-25765550,-8234623,-34973140,-32409670,-34820560
2026-01-14 16:52:45.451,15476590,-73818080,-65065560,-8225989,-2798462,-8834839,-3062439
2026-01-14 16:52:45.461,15476590,-73818080,-65065560,-8225989,-34118650,-25680540,-60546880
2026-01-14 16:52:45.471,15467960,-73818080,-65065560,-8217357,-58624270,-20828250,-6359863
2026-01-14 16:52:45.481,15467960,-73826710,-65056930,-8217357,-42755130,-184021,-36895750
2026-01-14 16:52:45.491,15467960,-73835340,-65048300,-8217357,-58624270,-40222170,-4360962
2026-01-14 16:52:45.501,15467960,-73835340,-65048300,-8217357,-7977295,-29403690,-5255127
2026-01-14 16:52:45.511,15467960,-73843980,-65039670,-8217357,-7861328,-18325810,-335083
2026-01-14 16:52:45.521,15467960,-73843980,-65039670,-8217357,-47332760,-25024410,-19607540
2026-01-14 16:52:45.531,48967490,-73852610,-65031040,25264910,-56640620,-8865356,-37872310
2026-01-14 16:52:45.541,48967490,-69442260,-69441380,25264910,-3189087,-43182370,524,5209
2026-01-14 16:52:45.551,48976120,-73869870,-65013780,25256280,-48309330,-32287600,-21255490
2026-01-14 16:52:45.561,48976120,-73869870,-65013780,25256280,-51879880,-6781006,34389500
2026-01-14 16:52:45.571,48984750,-73878500,-65005140,25247640,-39367680,-55511480,-3780365
2026-01-14 16:52:45.581,48993380,-11388630,-2498009,25239020,-42907720,-4434204,20843510
2026-01-14 16:52:45.591,49002020,-11397260,-2489377,25230380,-61523440,-413208,4852295
2026-01-14 16:52:45.601,49010650,-11397260,-2489377,25221750,-6500244,-23117060,2659607
2026-01-14 16:52:45.611,49882450,-11405900,-2480746,26076290,-36346440,-24002080,-23841860
2026-01-14 16:52:45.621,39171400,-11405030,-2479882,36787330,-14846800,-25436400,-11497500
2026-01-14 16:52:45.631,15813230,-11405030,-2479881,-8044720,4714966,-36132810,-19226070
2026-01-14 16:52:45.641,51651940,-11405030,-2479882,27759470,23330690,-60333250,-23788450
2026-01-14 16:52:45.651,52532370,-11405030,-2479883,28605370,105896,-103027300,8758545
2026-01-14 16:52:45.661,5341278,-73878500,-64953350,2945124,24658200,-11785890,31097410
2026-01-14 16:52:45.671,54293230,-73878500,-64953350,30297170,-15357970,-12512210,5227661
2026-01-14 16:52:45.681,55173660,-73869870,-64961980,31143080,-655365,-8917236,41290280
2026-01-14 16:52:45.691,16434710,-11394670,-2486786,-7630401,-12413030,-8770752,3866577
2026-01-14 16:52:45.701,56934520,-11386040,-2495420,32834890,-16815190,-10797120,57006840
2026-01-14 16:52:45.711,57823580,-11376550,-2503188,33672160,-34240720,-95703130,368042
2026-01-14 16:52:45.721,16840400,-11367910,-2511818,-7345557,-31585690,-7080078,35095220
2026-01-14 16:52:45.731,60456250,-11350650,-2529083,36218500,-2178955,-24536130,18432620
2026-01-14 16:52:45.741,5041586,-73792180,-64987870,4798518,-11268620,-93307500,7160187
2026-01-14 16:52:45.751,17185660,-73783540,-64996500,-7172924,-41412350,868988,1727295
2026-01-14 16:52:45.761,63132070,-11314400,-2561884,38721690,-34942630,22201540,23864750
2026-01-14 16:52:45.771,53014020,-50613550,36738990,50566080,-33172610,-2329,35,3060913
2026-01-14 16:52:45.781,17539560,-50527230,36652680,-7008922,-72509770,-32684330,1763916
2026-01-14 16:52:45.791,65833780,-112867800,-25860500,41198980,-6921387,-37078860,53131100
2026-01-14 16:52:45.801,65876940,-112686500,-26024500,41155820,-7977295,-51635740,7861328
2026-01-14 16:52:45.811,66783260,-50179380,36310000,41975830,-7611084,-54351810,6866455
2026-01-14 16:52:45.821,12510750,-50006740,36137370,-12400270,-84228510,-5633545,28045650
2026-01-14 16:52:45.831,12562540,-49919560,36051920,-12452060,-715332,-43151860,2519226
2026-01-14 16:52:45.841,1816966,-112142700,-26516500,-694854,7,-579834,-15014650,3540039
2026-01-14 16:52:45.851,18307780,-49658020,35795550,-6913973,-3326416,-22216800,60272220
2026-01-14 16:52:45.861,18454520,-111857900,-26749560,-6888081,-134887700,10879520,74768060
2026-01-14 16:52:45.871,18601260,-111676600,-26913560,-6862187,-62789920,18173220,31986240
2026-01-14 16:52:45.881,18842950,-49223850,35366560,-6758605,30090330,4260254,27053830
2026-01-14 16:52:45.891,18998310,-111391800,-27146610,-6741344,33569340,37902830,-60272220
2026-01-14 16:52:45.901,75078300,-48962310,35110190,49217810,41870120,43945310,17410280
2026-01-14 16:52:45.911,19395370,-48875130,35024740,-6620497,5682373,62683100,8880615
2026-01-14 16:52:45.921,19550740,-1110983,-273711,3,-6603232,53131100,647583,20263670
2026-01-14 16:52:45.931,19706110,-11100330,-2744874,-6585968,5908203,72631840,17028810
2026-01-14 16:52:45.941,19861480,-73377860,-65039670,-6568707,64819340,7861328,37872310
2026-01-14 16:52:45.951,20025480,-11088250,-2750052,-6560074,6921387,9436035,73913580
2026-01-14 16:52:45.961,20180850,-73351970,-65013770,-6542812,7861328,85632320,8654785
2026-01-14 16:52:45.971,8248428,-11085660,-2747462,5562251,713501,12646480,8807373
2026-01-14 16:52:45.981,20491590,-73326070,-64987880,-6508285,6341553,10003660,10888670
2026-01-14 16:52:45.991,20646960,-11091700,-2736242,-6491018,5911255,9857178,1583252
2026-01-14 16:52:46.001,8528092,-73300180,-64944720,5800483,74279780,35217280,17956540
2026-01-14 16:52:46.011,21035390,-4868868,3486591,-6361545,7537842,1499939,17834470
2026-01-14 16:52:46.021,21190760,-11079620,-2741421,-6344283,847168,6286621,12237550
2026-01-14 16:52:46.031,21337500,-11077890,-2739695,-6318386,6591797,80566410,12512210
2026-01-14 16:52:46.041,89847100,-11068400,-2747466,62070370,66345220,59661860,10247800
2026-01-14 16:52:46.051,9077932,-11066670,-2745737,6286448,33569340,2444458,84472660
2026-01-14 16:52:46.061,21872660,-11057180,-2753505,-6163017,-26626590,21698000,53741460
2026-01-14 16:52:46.071,22028030,-73179340,-64892930,-6145756,1928711,2255249,51971440
2026-01-14 16:52:46.081,14984590,-11027830,-2775947,-13344570,9429932,24841310,60699460
2026-01-14 16:52:46.091,22701300,-73118920,-64901560,-5783225,10064700,56793210,22995000
2026-01-14 16:52:46.101,23141520,-41517750,40137890,-5532906,10223390,40161130,-6021118
2026-01-14 16:52:46.111,23573100,-109458300,-28493160,-5273957,7598877,21453860,-18322750
2026-01-14 16:52:46.121,23927000,-46860500,33068810,-5109954,-7470703,-15283200,-40673830
2026-01-14 16:52:46.131,24272270,-46340870,32552630,-4937320,19134520,-22094730,-40283200
2026-01-14 16:52:46.141,24617530,-72834070,-65013770,-4764687,6695557,-28125,-16271970
2026-01-14 16:52:46.151,24790170,-10766290,-3015045,-4764685,46661380,-19482420,-84106450
2026-01-14 16:52:46.161,25049120,-72730500,-65048300,-4678370,-12475590,-10821530,-7873535
2026-01-14 16:52:46.171,118530200,-38754410,37376960,88630030,-24475100,64697260,-13977050
2026-01-14 16:52:46.181,25661970,-44692220,30921240,-4428052,-3137207,26657100,-21435550
2026-01-14 16:52:46.191,12304450,-44344370,30578570,9274732,-32373050,-8319092,-2442627
2026-01-14 16:52:46.201,16357020,-106014200,-31609200,-14164580,-20227050,-13977050,-30151370
2026-01-14 16:52:46.211,2651652,-43735830,29978670,-424680,3,-15533450,-13574220,-24255370
2026-01-14 16:52:46.221,26896300,-43387980,29635990,-4108679,2565918,-15905760,-12097170
2026-01-14 16:52:46.231,27189780,-10490070,-3256732,-4056888,46313480,-16796880,-635376
2026-01-14 16:52:46.241,27578200,-10460730,-3279174,-3927412,52197260,-15490720,-16448980
2026-01-14 16:52:46.251,13585390,-10423610,-3311111,10410660,6723633,-9655762,52093500
2026-01-14 16:52:46.261,28173790,-41995690,28266140,-3832465,68603520,-15426640,18722530
2026-01-14 16:52:46.271,28562210,-35471860,34099430,-3702991,71728510,5697632,3213501
2026-01-14 16:52:46.281,14313910,-41212790,27495340,11063220,73291020,14294430,4737854
2026-01-14 16:52:46.291,29244110,-40864940,27152660,-3521725,8276367,15478520,2758789
2026-01-14 16:52:46.301,29718860,-10211270,-3495830,-3305932,9042969,19750980,4660034
2026-01-14 16:52:46.311,30098650,-3391696,3254693,-3167824,9736328,16503910,8288574
2026-01-14 16:52:46.321,18135150,-10144810,-3550209,-15390280,10400390,9844971,15979000
2026-01-14 16:52:46.331,18281890,-39472640,25782810,-15485220,11337890,2633667,2668457
2026-01-14 16:52:46.341,31238030,-39210240,25527310,-2753505,11240230,-29647830,30249020
2026-01-14 16:52:46.351,31609190,-38862390,25184640,-2606767,11796880,-95581060,33618160
2026-01-14 16:52:46.361,31980360,-38514530,24841960,-2460028,12236330,-11138920,3203125
2026-01-14 16:52:46.371,32256560,-99669940,-37003990,-2390977,12138670,-15563970,33642580
2026-01-14 16:52:46.381,32541410,-99298780,-37323360,-2330556,12363280,-16882320,35375980
2026-01-14 16:52:46.391,17031150,-71358050,-65212300,13524970,12626950,-2097168,34716800
2026-01-14 16:52:46.401,32998890,-71306260,-65212300,-2270132,11025390,-10772710,36450200
2026-01-14 16:52:46.411,17138190,-9844425,-3802253,13590570,92871100,-5996704,30273440
2026-01-14 16:52:46.421,33283740,-7120268,-6521232,-2382343,75683590,10089110,2019043
2026-01-14 16:52:46.431,17416990,-36597440,22961120,13829670,61816410,1875,17810060
2026-01-14 16:52:46.441,33758480,-36422210,22791070,-2339184,5048828,18054200,20483400
2026-01-14 16:52:46.451,34043330,-30028990,28666390,-2278764,36669920,10571290,20397950
2026-01-14 16:52:46.461,34241850,-35984590,22365530,-2304657,19128420,9112549,18688960
2026-01-14 16:52:46.471,17895190,-35894820,22282670,14214640,-868,7973,8685303,14025880
2026-01-14 16:52:46.481,34500800,-96942340,-39110120,-2563610,-19238280,12359620,8972168
2026-01-14 16:52:46.491,34630280,-96821490,-39161900,-2693086,-30444340,24279780,5203247
2026-01-14 16:52:46.501,34846070,-35452880,21861440,-2736243,-32128910,3449707,52368160
2026-01-14 16:52:46.511,35148180,-35363100,21778580,-2693082,-2770996,41259770,10644530
2026-01-14 16:52:46.521,20698760,-29077090,27719330,-17401460,-17358400,43969730,1673584
2026-01-14 16:52:46.531,18920630,-35097250,21526530,15088170,-62316900,34545900,22790530
2026-01-14 16:52:46.541,17801360,-95958330,-39679820,17415870,1914978,18469240,30737300
2026-01-14 16:52:46.551,37590940,-70598460,-64987870,-1165276,4675293,-4208374,3479004
2026-01-14 16:52:46.561,20765220,-70546670,-64970610,16868880,-3048706,-21606440,31567380
2026-01-14 16:52:46.571,21510130,-70512150,-64953350,-17660410,-7940674,-26464840,28271480
2026-01-14 16:52:46.581,21648240,-70468990,-64927460,17712190,-11517330,-30395510,2401123
2026-01-14 16:52:46.591,39809280,-70443100,-64901560,241683,9,-13256840,-29516600,25634770
2026-01-14 16:52:46.601,40163180,-70408570,-64867030,405687,9,-14892580,-30688480,27392580
2026-01-14 16:52:46.611,40439390,-70391310,-64832510,474739,9,-17871090,-27539060,2475586
2026-01-14 16:52:46.621,40706980,-9537137,-3978341,552425,9,-2064209,-26367190,20678710
2026-01-14 16:52:46.631,22820420,-70339510,-64763450,18784250,-20812990,-28295900,20947270
2026-01-14 16:52:46.641,41173090,-3471832,2121491,604215,9,-23168940,-27026370,19140620
2026-01-14 16:52:46.651,41285300,-9553537,-3942951,492003,9,-2220459,-23535160,16564940
2026-01-14 16:52:46.661,41397510,-34884050,21394470,379792,8,-24084470,-13513180,113708500
2026-01-14 16:52:46.671,41526980,-95638950,-39187800,250314,8,-2746582,-335083,859375
2026-01-14 16:52:46.681,41656460,-34962600,21488550,120842,8,-33911130,121536300,43396000
2026-01-14 16:52:46.691,41699620,-95552640,-39101490,-94953,23,-37963870,6677246,2281189
2026-01-14 16:52:46.701,41760040,-34953970,21497180,-328003,2,-38793940,8850098,19195560
2026-01-14 16:52:46.711,41820460,-95380000,-39101490,-561061,3,-35766600,3326416,46173100
2026-01-14 16:52:46.721,22763450,-9525054,-3914466,18495950,-3095703,-38391110,8874512
2026-01-14 16:52:46.731,20758220,-69951090,-64340500,20328540,-23449710,-31829830,13574220
2026-01-14 16:52:46.741,42165730,-9506926,-3913603,-1078960,-15441900,-53985600,21264650
2026-01-14 16:52:46.751,42303830,-69847500,-64271440,-1217070,-10168460,-26565550,22290040
2026-01-14 16:52:46.761,42424680,-9481031,-3922235,-1337910,-748291,-59051510,20129400
2026-01-14 16:52:46.771,42536890,-9468946,-3927414,-1450122,-43914800,35308840,20715330
2026-01-14 16:52:46.781,42735420,-67223480,-66671060,-1476018,-3677368,78063970,17687990
2026-01-14 16:52:46.791,42916680,-69666250,-64159240,-1484648,-3491211,73791500,16442870
2026-01-14 16:52:46.801,43175630,-69631720,-64141980,-1398334,-1600647,10089110,14782720
2026-01-14 16:52:46.811,43348260,-69605820,-64116080,-1398334,8460999,57556150,16674810
2026-01-14 16:52:46.821,43598590,-9419746,-3947267,-1303380,1689148,74279780,20568850
2026-01-14 16:52:46.831,43753960,-9417157,-3944677,-1286120,-32806400,81848140,21862790
2026-01-14 16:52:46.841,21632440,-3404074,2068407,21180660,-6210327,79956060,19836430
2026-01-14 16:52:46.851,23757820,-69502240,-64029760,19227920,-1340332,22792820,1763916
2026-01-14 16:52:46.861,21806280,-69476350,-64003870,21352080,-15637210,-88012700,18359380
2026-01-14 16:52:46.871,23855360,-9408526,-3936044,19303010,-15563970,-4598999,18408200
2026-01-14 16:52:46.881,44384070,-9398167,-3942951,-1225698,-15930180,-40008540,21875
2026-01-14 16:52:46.891,44513540,-9388672,-3950720,-1182540,-8679199,-5392456,19116210
2026-01-14 16:52:46.901,44556700,-93783140,-39576220,-1225703,-40527340,-129470800,18493650
2026-01-14 16:52:46.911,44591230,-33511610,20177400,-1260227,-6939697,10375980,19934080
2026-01-14 16:52:46.921,44712080,-27165860,25832610,-1208435,-80200190,-28884890,17614750
2026-01-14 16:52:46.931,44737970,-92635140,-40672450,-1234331,-103271500,-86120610,1541748
2026-01-14 16:52:46.941,44763860,-6917424,-6411610,-1260224,-97473140,-1665039,120788600
2026-01-14 16:52:46.951,24054750,-6908794,-6420241,19448890,-10546880,-96069340,15917970
2026-01-14 16:52:46.961,24057340,-30141810,16814500,19446300,-14929200,-18652340,20983890
2026-01-14 16:52:46.971,44729340,-8916520,-4410788,-1398332,-15527340,-24951170,22790530
2026-01-14 16:52:46.981,44556700,-28330020,15000980,-1570965,-16271970,-121521000,14489750
2026-01-14 16:52:46.991,44194170,-87456130,-45851460,-1898969,-19799800,1743164,806427
2026-01-14 16:52:47.001,23018950,-20864740,19531490,18413090,-32055660,40356440,-9820557
2026-01-14 16:52:47.011,43115220,-26433640,13099430,-2891611,-49023440,3798828,-18005370
2026-01-14 16:52:47.021,24919640,-68630440,-64746190,-21035390,-6113281,29418940,-19226070
2026-01-14 16:52:47.031,20852400,-8594559,-4744833,16263800,-71191410,23461910,-23596190
2026-01-14 16:52:47.041,40525710,-68630440,-64797980,-5308482,-73095700,25683590,-22741700
2026-01-14 16:52:47.051,24539850,-8597146,-4747422,-21242550,-7290039,27783200,-17810060
2026-01-14 16:52:47.061,38143370,-8623905,-4722391,-7587243,-67089840,2680664,-9832764
2026-01-14 16:52:47.071,24229110,-26614040,13264290,-21432450,-64990230,14038090,-3543091
2026-01-14 16:52:47.081,35476180,-87223070,-46308930,-10099060,-68115230,25299070,15014650
2026-01-14 16:52:47.091,13667390,-21729120,20393450,9120226,-74902340,-18396000,-15525820
2026-01-14 16:52:47.101,12452920,-88552350,-45048710,7917831,-79541020,-41723630,-357666
2026-01-14 16:52:47.111,31678250,-8926014,-4437546,-13551730,-8564453,-4230957,-16748050
2026-01-14 16:52:47.121,30573390,-30076210,16707470,-14518480,-92333980,-43823240,-29467770
2026-01-14 16:52:47.131,29477170,-91202270,-42519630,-15493860,-91064460,-3413086,-3918457
2026-01-14 16:52:47.141,28380950,-32151260,18775620,-16469240,-8964844,-32202150,-5336914
2026-01-14 16:52:47.151,73300180,-33275110,19896010,28553580,-82128900,-14624020,-62939450
2026-01-14 16:52:47.161,6635168,-945254,8,-392827,8,2169140,-8154297,-8325195,-71972660
2026-01-14 16:52:47.171,39346620,-29239880,27901800,34885780,-8486328,-72753900,-89208980
2026-01-14 16:52:47.181,54232820,-30103050,28764970,9641579,-7441406,12463380,-10546880
2026-01-14 16:52:47.191,22589090,-9702001,-3677094,-22036660,-63183590,27416990,-11054690
2026-01-14 16:52:47.201,44789760,-69951100,-63822600,94943,87,-5097656,47998050,-10888670
2026-01-14 16:52:47.211,39662540,-97934980,-35786920,-5135852,-5102539,54785160,-10927730
2026-01-14 16:52:47.221,14332030,-37931030,24562290,9836655,-43041990,64941410,-11679690
2026-01-14 16:52:47.231,2257011,-38100210,24738380,-2255631,-44848630,59033200,-12617190
2026-01-14 16:52:47.241,22667640,-98280240,-35269020,-22665920,-5004883,55615230,-13925780
2026-01-14 16:52:47.251,2279108,-38265080,24918780,-2280145,-56689450,140625,-13457030
2026-01-14 16:52:47.261,11713180,-98098980,-35260380,-34155540,-4807129,-1262207,-12773440
2026-01-14 16:52:47.271,-14954380,-97788240,-35467540,-19572330,-30004880,-9436035,-12792970
2026-01-14 16:52:47.281,-20979290,-66875620,-66259320,-25631760,-109191900,1138916,-13574220
2026-01-14 16:52:47.291,20422540,-69562660,-63451440,-26464720,4982,948,19116210,-13007810
2026-01-14 16:52:47.301,-13491310,-69484980,-63408280,-60741100,3540039,77941900,-11777340
2026-01-14 16:52:47.311,-21078550,-9658840,-3616671,-68690860,42236330,6298828,-11083980
2026-01-14 16:52:47.321,18730730,-69320980,-63296070,-29261380,-12001040,-18081660,-10595700
2026-01-14 16:52:47.331,18221460,-66547620,-65948580,-30133180,-7043457,-12384030,-9667969
2026-01-14 16:52:47.341,-4209667,-36483500,23247690,-9083113,-16955570,-26489260,-8833008
2026-01-14 16:52:47.351,17297880,-36390270,23168270,-31799090,-20007320,-4255371,-7397461
2026-01-14 16:52:47.361,16961240,-95647580,-36434300,-32498260,-1986084,-54345700,-69970700
2026-01-14 16:52:47.371,16874920,-95414530,-36546500,-32929840,-21557620,-6582031,-6640625
2026-01-14 16:52:47.381,1686630,-35938840,22756550,-3326649,-23071290,-64941410,-71191410
2026-01-14 16:52:47.391,24393110,-35847340,22675410,-26050400,-24157720,-67871100,-6875
2026-01-14 16:52:47.401,24548480,-29919370,28603380,-26188500,-2512207,-71777340,-6723633
2026-01-14 16:52:47.411,-5391343,-35749810,22600320,-10490940,-23913570,-79052740,-6152344
2026-01-14 16:52:47.421,18117890,-35659170,22518310,-33137000,-21105960,-7890625,-61865230
2026-01-14 16:52:47.431,18834310,-94663580,-36658720,-32645000,-19506840,-7578125,-63427740
2026-01-14 16:52:47.441,-59562870,-35391590,22268000,-64733240,-18469240,-7495117,-671875
2026-01-14 16:52:47.451,-27569570,-94231980,-36917670,-79463200,-18054200,-6953125,-69677740
2026-01-14 16:52:47.461,21639610,-34952240,21844180,-30443920,-21179200,-5698242,-6870117
2026-01-14 16:52:47.471,-752682,3,-9355872,-3745284,-5980024,-21142580,-4116211,-7324219
2026-01-14 16:52:47.481,-18956880,-6823338,-6270911,-24201490,-23095700,-1706543,-87646480
2026-01-14 16:52:47.491,17686300,-68164340,-62709120,-34949650,-31396480,-5960083,-921875
2026-01-14 16:52:47.501,26425010,-92160380,-38644010,-26418110,-38891600,-7196045,-89697260
2026-01-14 16:52:47.511,44651650,-32776190,19704380,-8398621,-38427740,-14819340,-9082031
2026-01-14 16:52:47.521,30003700,-90865640,-39766130,-23271000,-4609375,-20605470,-8857422
2026-01-14 16:52:47.531,31678240,-67732740,-62795430,-21838140,-5107422,-13256840,-85253900
2026-01-14 16:52:47.541,33266470,-30345520,17301330,-20491600,-546875,28305050,-7963867
2026-01-14 16:52:47.551,34846070,-29478030,16442480,-19136430,-49389650,23376460,-7138672
2026-01-14 16:52:47.561,36253040,-8731801,-4295123,-17953880,-45629880,36401370,-6269531
2026-01-14 16:52:47.571,130787100,-28002020,14983720,76373060,-4580078,45532230,-6333008
2026-01-14 16:52:47.581,14210330,-27393480,14383820,8749927,-5053711,38452150,-51708980
2026-01-14 16:52:47.591,39912860,-26784950,13783920,-14881010,-5,22094730,-41992190
2026-01-14 16:52:47.601,40957300,-84737140,-45204080,-14026480,-49438480,25161740,-328125
2026-01-14 16:52:47.611,17088130,-8417609,-4567883,11569030,-4975586,-15979000,-31445310
2026-01-14 16:52:47.621,42804470,-83606400,-46144930,-12593620,-5488281,-26660160,-31713870
2026-01-14 16:52:47.631,43693540,-24782400,11815900,-11928980,-6381836,-22497560,-40698240
2026-01-14 16:52:47.641,29598010,-24431090,11476670,-26300710,-7895508,-2265625,-48120120
2026-01-14 16:52:47.651,45109130,-82397960,-47008100,-11100340,-8754883,-2734375,-5332031
2026-01-14 16:52:47.661,20178270,-23898520,10973450,14521070,-85253900,-31567380,-44189450
2026-01-14 16:52:47.671,20544250,-81707430,-47353370,14845610,-8417969,-3317871,-375
2026-01-14 16:52:47.681,46688730,-23274450,10389080,-10780960,-7368164,-24768070,-22949220
2026-01-14 16:52:47.691,47051260,-64463070,-64131620,-10970860,-66552740,-2421875,-6341553
2026-01-14 16:52:47.701,47362000,-80473100,-47845370,-11281600,-70410160,-1817627,8529663
2026-01-14 16:52:47.711,20833410,-79972460,-48035260,14901720,-8149414,-9765625,-23536680
2026-01-14 16:52:47.721,47629580,-79549500,-48130210,-12412350,-8017578,19897460,4144287
2026-01-14 16:52:47.731,20390600,-79022980,-48294220,14308720,-67626950,11987310,19494630
2026-01-14 16:52:47.741,47802210,-15826430,14557060,-13793420,-41308590,23693850,4465332
2026-01-14 16:52:47.751,4794030,-78470550,-48087060,-1444946,-12646480,46923830,859375
2026-01-14 16:52:47.761,33214680,-15995360,14733410,-29917380,34484860,39794920,14863280
2026-01-14 16:52:47.771,32085660,-21656010,9072753,-31754200,36468500,30419920,22324220
2026-01-14 16:52:47.781,49243700,-21208020,8657568,-15234910,60009770,7192383,23359380
2026-01-14 16:52:47.791,17847630,-21019860,8500472,17196970,9067383,11269530,23261720
2026-01-14 16:52:47.801,50918250,-77227590,-47707260,-14665220,89501950,12138670,2390625
2026-01-14 16:52:47.811,51919520,-77193060,-47500100,-14112790,9589844,10625,22460940
2026-01-14 16:52:47.821,23173460,-77080850,-47387890,16532240,11259770,99121100,17685550
2026-01-14 16:52:47.831,24140200,-21146740,8718854,17464470,11708980,96435540,14335940
2026-01-14 16:52:47.841,55372190,-21397060,8986435,-11695920,96191410,5253906,11064450
2026-01-14 16:52:47.851,56641050,-21561060,9167699,-10720540,89208980,28198240,75878900
2026-01-14 16:52:47.861,57987580,-77598750,-46179460,-9650215,9404297,-2407074,5673828
2026-01-14 16:52:47.871,59325500,-22149740,9787454,-8571255,10761720,-16333010,55908200
2026-01-14 16:52:47.881,60741100,-77969920,-45514820,-7397349,11416020,-40844730,6010742
2026-01-14 16:52:47.891,36960830,-7807348,-4527315,-31402030,12890630,-54052740,69628900
2026-01-14 16:52:47.901,63209750,-7826339,-4494516,-5377534,14042970,-38256840,87890620
2026-01-14 16:52:47.911,64254180,-22986150,10677380,-4522999,14716800,-25073240,10800780
2026-01-14 16:52:47.921,37539150,-17619400,16389390,-31393400,14677730,-11566160,12314450
2026-01-14 16:52:47.931,65954620,-23236470,10944960,-3116035,14140630,-6856,918,11689450
2026-01-14 16:52:47.941,66610630,-78513710,-44332280,-2563609,13925780,1776123,11435550
2026-01-14 16:52:47.951,36090750,-78315180,-44479020,29164700,13847660,2166748,11767580
2026-01-14 16:52:47.961,3498763,-2288343,1060746,-3432472,14140630,14746090,12207030
2026-01-14 16:52:47.971,38022530,-6302847,-5971394,-31307090,14550780,31158450,12988280
2026-01-14 16:52:47.981,68595920,-22450980,10176740,-750956,7,153125,-101257300,13486330
2026-01-14 16:52:47.991,37560730,-22192040,9917792,30629490,16240230,-2199707,13964840
2026-01-14 16:52:48.001,68820340,-77184430,-45592500,-457480,7,16552730,-31079100,14179690
2026-01-14 16:52:48.011,68794450,-21677590,9396438,-431584,7,17089840,-3972168,13134770
2026-01-14 16:52:48.021,68587280,-76701060,-46144930,-569696,7,17578120,-48706060,1375
2026-01-14 16:52:48.031,68371490,-76468010,-46429780,-699172,7,17919920,-5390625,1484375
2026-01-14 16:52:48.041,6797442,-76157260,-46809580,-99267,89,17900390,-5239258,15751950
2026-01-14 16:52:48.051,6748243,-20394060,8090469,-136381,4,18115230,-50927740,16230470
2026-01-14 16:52:48.061,66886840,-62950800,-60171400,-1804022,18457030,-47680660,16875
2026-01-14 16:52:48.071,66196310,-19626700,7304120,-2321921,19277340,-47583010,1734375
2026-01-14 16:52:48.081,65488510,-19201160,6866494,-2822559,20019530,-39648440,18769530
2026-01-14 16:52:48.091,6459943,-74258300,-49226440,-348722,8,20292970,-36938480,18447270
2026-01-14 16:52:48.101,63693120,-18180030,5816018,-4134573,19648440,-34033200,18300780
2026-01-14 16:52:48.111,32380860,-17669900,5290352,25623990,18583980,-18566900,17705080
2026-01-14 16:52:48.121,36460190,-63071640,-60879200,-30849610,17509770,18829350,16015630
2026-01-14 16:52:48.131,36235770,-16649640,4239014,-30797810,16357420,26245120,13505860
2026-01-14 16:52:48.141,59627610,-16225820,3799661,-7147027,15078130,47021480,12001950
2026-01-14 16:52:48.151,33502120,-15887460,3447489,-32996300,13847660,47631840,11591800
2026-01-14 16:52:48.161,27653300,-15549960,3094455,21029350,12119140,41333010,12041020
2026-01-14 16:52:48.171,26864360,-71409840,-53283330,20264580,10058590,47827150,11640630
2026-01-14 16:52:48.181,55648400,-15046730,2561879,-10073160,79052740,7285156,10527340
2026-01-14 16:52:48.191,34949650,-71038680,-53947960,-30495710,6503906,1046875,87402340
2026-01-14 16:52:48.201,5449173,-63408280,-61751000,-1064288,46435550,13671880,7373047
2026-01-14 16:52:48.211,54241440,-70693420,-54638500,-10565170,28955080,14892580,8198242
2026-01-14 16:52:48.221,34414480,-70615730,-54906080,-30029600,18676760,14228520,11474610
2026-01-14 16:52:48.231,32025720,-8310748,7053631,-32021300,17407230,11162110,14589840
2026-01-14 16:52:48.241,34051960,-13979000,1385383,-29580750,1182251,68652340,17529300
2026-01-14 16:52:48.251,33836160,-70848780,-55311770,-29347700,6341553,23535160,17910160
2026-01-14 16:52:48.261,33594470,-71306260,-55078720,-29106010,-24597170,-11268620,16767580
2026-01-14 16:52:48.271,33318260,-14963870,2299476,-28881580,-1640625,-2849121,15126950
2026-01-14 16:52:48.281,33033420,-15752800,3064243,-28648530,-3959961,-2644043,13867190
2026-01-14 16:52:48.291,52074890,-73843970,-53300590,-9089154,-5629883,-19958500,14228520
2026-01-14 16:52:48.301,24177320,-11944600,10670390,18117890,-50390620,-3994751,13496090
2026-01-14 16:52:48.311,50711090,-18814460,6044758,-9279049,-44873050,43237300,12207030
2026-01-14 16:52:48.321,49865180,-65376300,-62631430,-9468950,-36157230,90283200,10849610
2026-01-14 16:52:48.331,48907060,-79350980,-48967490,-9719271,-29956060,121875,95410160
2026-01-14 16:52:48.341,47828100,-66006420,-62657330,-10021380,-28515620,13720700,7314453
2026-01-14 16:52:48.351,46541990,-24923960,12019610,-10461590,-2241211,13583980,7089844
2026-01-14 16:52:48.361,45048710,-26756460,13812410,-11039910,-27978520,11259770,6640625
2026-01-14 16:52:48.371,18635780,-64938300,-64933880,13128770,-33374020,71484380,38134770
2026-01-14 16:52:48.381,14943930,-30252290,17221920,14403760,-38842770,5131836,-30685420
2026-01-14 16:52:48.391,16024700,-90839740,-39912860,10733480,-34814450,8557129,-17712400
2026-01-14 16:52:48.401,37979370,-33577220,20457070,-13810680,-3161621,-4104004,-2244873
2026-01-14 16:52:48.411,3628754,-94301050,-37331990,-1436315,-4584961,-90283200,-6098633
2026-01-14 16:52:48.421,34604380,-36381640,23176910,-14924170,-74902340,-14072270,-11884770
2026-01-14 16:52:48.431,11226350,-97209920,-35234500,6382256,-9863281,-18378910,-15996090
2026-01-14 16:52:48.441,31574670,-38750180,25469480,-15865020,-12597660,-20449220,-2078125
2026-01-14 16:52:48.451,9404210,-9953185,-3358585,4751737,-16611330,-19521480,-26699220
2026-01-14 16:52:48.461,29252740,-10027420,-3311975,-16477870,-18886720,-17753910,-30878910
2026-01-14 16:52:48.471,8036951,-100809300,-32791730,3529487,-20410160,-14550780,-34667970
2026-01-14 16:52:48.481,27543670,-101068300,-32705420,-17013040,-21796880,-11513670,-37285160
2026-01-14 16:52:48.491,4749630,-101042400,-32852160,4745207,-22128910,-84277340,-38476560
2026-01-14 16:52:48.501,64288710,-40620660,27224300,20301700,-20957030,-63183590,-37910160
2026-01-14 16:52:48.511,40174400,-70356780,-63641340,35784330,-18632810,-31152340,-36484380
2026-01-14 16:52:48.521,25333960,-70304980,-63693120,-18601260,-16005860,-59814450,-33867190
2026-01-14 16:52:48.531,5224751,-99514580,-34431750,817415,1,-13447270,12634280,-30703120
