Timestamp,Rotation X,Rotation Y,Rotation Z,Rotation W,Acceleration X,Acceleration Y,Acceleration Z
2026-01-14 16:52:34.871,27647250,-34472320,-38776070,74776200,-14976500,-12908940,-10296630
2026-01-14 16:52:34.881,-18452790,-15079540,-58151590,28693410,84991460,-35743710,-770874
2026-01-14 16:52:34.891,27595460,-15062280,-58168860,74776190,-64964300,-14831540,-10119630
2026-01-14 16:52:34.901,-18481280,-34458510,-38772620,28716720,-9025574,-381279,-8319092
2026-01-14 16:52:34.911,-18499410,17927120,-25248510,28733120,970459,74691780,-99975580
2026-01-14 16:52:34.921,27535040,17936620,-25256280,74784820,27282720,67863460,-8917236
2026-01-14 16:52:34.931,48795710,-14975960,-58203380,53524150,41046140,21240230,-8251953
2026-01-14 16:52:34.941,-18535660,1797286,-2528907,28765920,10246280,34362790,-8709717
2026-01-14 16:52:34.951,2747461,17991000,-25305480,7481073,-22140500,29754640,-7757568
2026-01-14 16:52:34.961,27457350,18008260,-25322740,74810720,-43151860,-16870500,-94055180
2026-01-14 16:52:34.971,50888460,-14889640,-58237910,51362350,-4397583,15464780,-9057617
2026-01-14 16:52:34.981,-18599530,-1486376,-5824653,28822890,-7299805,14930730,-49346920
2026-01-14 16:52:34.991,-18609030,18053150,-25364170,28830660,-7269287,26626590,-35491940
2026-01-14 16:52:35.001,27362410,18071270,-25380580,74836620,-60180660,16708370,6311035
2026-01-14 16:52:35.011,-18636650,18079900,-25389210,28854830,-56518560,1036644,-14762880
2026-01-14 16:52:35.021,2732787,-34362700,-38713060,7483660,-68603520,-23849490,-61523440
2026-01-14 16:52:35.031,27310620,-14777430,-58298340,74836620,-501709,28717040,14419560
2026-01-14 16:52:35.041,48686960,-34360110,-38715660,53443020,-317688,-30014040,12496950
2026-01-14 16:52:35.071,27207040,-1471704,-5832424,74871140,-61950680,-90408330,87768550
2026-01-14 16:52:35.081,2718977,-1471701,-5832423,7487115,-71899420,-25520320,10473630
2026-01-14 16:52:35.111,-18747140,-14742900,-58332860,28951500,-28930660,-3519,058,19805910
2026-01-14 16:52:35.121,27163870,18131690,-25441000,74862510,8544922,40008540,12283330
2026-01-14 16:52:35.131,48629120,-1477745,-5833288,53397260,9475708,5029297,-51818850
2026-01-14 16:52:35.141,2718112,-34386000,-38741540,7486250,1927185,7116699,-6518555
2026-01-14 16:52:35.151,-18729870,-14794690,-58332860,28934230,-13628010,7446289,-82336420
2026-01-14 16:52:35.161,-18721240,-14794690,-58332860,28925600,15853880,88256830,-7635498
2026-01-14 16:52:35.211,4864034,18111840,-25426320,5340332,11606220,1234436,-440979
2026-01-14 16:52:35.221,4864034,18111840,-25426320,5340332,-32215120,-24871830,-3363037
2026-01-14 16:52:35.231,4864897,18111840,-25426320,5341195,3833,771,-22537230,-36987300
2026-01-14 16:52:35.241,4864896,-14794690,-58332860,5341194,15022280,-3326416,-10536190
2026-01-14 16:52:35.251,4864897,18111840,-25426320,5341195,-19622800,-5203247,-9605408
2026-01-14 16:52:35.261,4864897,18103210,-25417690,5341195,-105896,-33050540,-38700100
2026-01-14 16:52:35.271,-18703980,21394640,-22126260,28908340,-18081660,-19561770,-17440800
2026-01-14 16:52:35.281,-18694480,-34414490,-38764850,28900570,16723630,-30197140,-50468440
2026-01-14 16:52:35.291,-18685850,-14846480,-58332860,28891940,13542180,-15434270,-33447270
2026-01-14 16:52:35.301,27267460,18074720,-25394390,74810720,22323610,-4699707,-5419922
2026-01-14 16:52:35.311,-18658230,18065230,-25386620,28867770,22201540,62561040,-5596924
2026-01-14 16:52:35.321,-18640970,-1488965,-5832422,28850510,22247310,-50811770,-61553960
2026-01-14 16:52:35.331,-18631470,-14906900,-58324220,28842740,52124020,-39596560,-7110596
2026-01-14 16:52:35.341,48692140,-14906910,-58324230,53437840,33294680,944519,-6341553
2026-01-14 16:52:35.351,27362410,-14915540,-58315600,74784830,54718020,7850647,-7434082
2026-01-14 16:52:35.361,-18594360,-34446420,-38784700,28810800,56671140,20935060,-6915283
2026-01-14 16:52:35.371,4872146,-14932800,-58298330,5346027,50933840,26535030,-74035650
2026-01-14 16:52:35.381,27414200,18013440,-25334830,74784820,47332760,11734010,-41046140
2026-01-14 16:52:35.391,27422830,18013440,-25334830,74776190,54779050,54779050,-60272220
2026-01-14 16:52:35.401,2744008,18004810,-25326200,7477621,52001950,15449520,-5117798
2026-01-14 16:52:35.431,48769820,17979780,-25299440,53498260,4071045,57640080,-43060300
2026-01-14 16:52:35.441,-18519260,-1496734,-5822927,28747790,5206299,-12023930,-46325680
2026-01-14 16:52:35.451,-18509760,17962510,-25282170,28740020,5319214,77552790,-29556270
2026-01-14 16:52:35.461,27543670,17962510,-25282170,74776190,57006840,2079773,-4977417
2026-01-14 16:52:35.471,-18499410,-3443780,-3875880,28733120,6774902,8804321,-16052250
2026-01-14 16:52:35.481,2756956,17936620,-25256280,7478484,574646,31921390,-51635740
2026-01-14 16:52:35.491,27595460,17927980,-25247650,74776190,5166626,5432129,-7019043
2026-01-14 16:52:35.501,-1846230,17927990,-25247650,2870119,6896973,56488040,-79711910
2026-01-14 16:52:35.511,2762134,-15010480,-58168860,7478483,7739258,2760315,-55236820
2026-01-14 16:52:35.521,27638630,1791242,-2522867,74784830,84228510,61798100,-60455320
2026-01-14 16:52:35.531,27638630,1791242,-2522867,74784830,55755620,748291,-30639650
2026-01-14 16:52:35.541,27655880,-1500188,-5814297,74784820,26184080,9442139,-50567630
2026-01-14 16:52:35.551,-18441570,-1500186,-5814295,28687370,27740480,597229,-3668213
2026-01-14 16:52:35.561,-18432940,-34406720,-38720830,28678740,25131230,6738281,-61553960
2026-01-14 16:52:35.571,-18440710,-15001850,-58125700,28688230,45806880,68725580,-20584110
2026-01-14 16:52:35.581,-18432080,-1498460,-5812569,28679600,-3376007,6317139,-423584
2026-01-14 16:52:35.591,-18432080,-1498460,-5812569,28679600,16220090,42053220,-44067380
2026-01-14 16:52:35.601,27690410,17924530,-25233840,74802100,62446590,42053220,-43426510
2026-01-14 16:52:35.611,27690410,17924530,-25233840,74802100,7061,958,4020691,-39611820
2026-01-14 16:52:35.621,27690410,17933160,-25242470,74802100,11917110,-28419500,-3515625
2026-01-14 16:52:35.631,-18432080,-14950060,-58125700,28679600,13282780,-36411280,12331010
2026-01-14 16:52:35.641,-18440710,-14950060,-58125700,28688230,19760130,17593380,31219480
2026-01-14 16:52:35.651,-18440710,-14950060,-58125700,28688230,-14945980,24368290,12388230
2026-01-14 16:52:35.661,-18449340,-14941430,-58134330,28696860,-17745970,18325810,-28518680
2026-01-14 16:52:35.671,-18449340,-14941430,-58134330,28696860,-23422240,2128601,-3845215
2026-01-14 16:52:35.681,-18450210,-14941430,-58134330,28696000,-16983030,4675293,-40374760
2026-01-14 16:52:35.691,-18450210,-36321830,-36753930,28696000,-5821228,3439331,-60699460
2026-01-14 16:52:35.701,-18440710,-36321830,-36753930,28688230,-392,6754,54107660,-53375240
2026-01-14 16:52:35.711,-18440710,-36321830,-36753930,28688230,-6477356,715332,-61828610
2026-01-14 16:52:35.721,-18440710,-36321830,-36753930,28688230,-62065120,9881592,-97473140
2026-01-14 16:52:35.751,-18440710,-14915530,-58142960,28688230,-7940674,11633300,-96191410
2026-01-14 16:52:35.761,-18449340,17970280,-25274400,28696860,-8795166,11767580,-7800293
2026-01-14 16:52:35.771,-18467470,17971140,-25273540,28713260,-104003900,12768560,-31707760
2026-01-14 16:52:35.781,-18476100,-1488102,-5814295,28721900,-13916020,11425780,-16693120
2026-01-14 16:52:35.791,2762134,-34340260,-38666450,7483660,-13146970,8770752,-756073
2026-01-14 16:52:35.801,27595460,-14863750,-58142960,74845250,-11828610,5630493,54656980
2026-01-14 16:52:35.811,27586830,17990130,-25289080,74853870,-13427730,3253174,49468990
2026-01-14 16:52:35.821,48847510,17990130,-25289080,53575940,-9802246,7575989,8343506
2026-01-14 16:52:35.831,27560940,17990130,-25289080,74862510,-84350580,1928711,118896500
2026-01-14 16:52:35.841,-18530480,-34340260,-38666450,28771100,-4928589,12962340,12347410
2026-01-14 16:52:35.851,-18539110,-34340260,-38666450,28779730,-7147217,24353030,14672850
2026-01-14 16:52:35.861,-18539110,17971140,-25273540,28779730,-37139890,19638060,11065670
2026-01-14 16:52:35.871,2753504,-3435148,-3867249,7487115,-11619570,32989500,11987310
2026-01-14 16:52:35.881,2753503,17935750,-25239880,7487116,-21484380,20599360,9423828
2026-01-14 16:52:35.891,-18539110,-34372190,-38686300,28779730,-8636475,47454830,7208252
2026-01-14 16:52:35.901,-18539110,17898640,-25207940,28779730,-12382510,46691900,4083252
2026-01-14 16:52:35.911,27552310,17880510,-25191540,74871150,-24108890,5355835,10995870
2026-01-14 16:52:35.921,27560940,-34411900,-38715650,74862510,-52093500,37963870,-25375370
2026-01-14 16:52:35.931,48856140,17844260,-25158740,53584570,-5355835,64941410,-55633540
2026-01-14 16:52:35.941,27586830,-150971,3,-580653,9,74853870,-46203610,3164673,-56427000
2026-01-14 16:52:35.991,-18446750,17745860,-25067240,28699450,-6237793,29769900,-6463623
2026-01-14 16:52:36.001,27716310,-15226280,-58004860,74827980,-50109860,58631900,-49224860
2026-01-14 16:52:36.011,2773355,-34486990,-38761400,7482797,-38391110,3019333,-48339840
2026-01-14 16:52:36.021,27768090,17682840,-25009410,74827980,-30761720,6793976,-50628660
2026-01-14 16:52:36.031,27793990,17656950,-24983520,74819350,1159668,-18630980,-33813480
2026-01-14 16:52:36.041,-18371660,17630190,-24958480,28636440,35247800,281,3339,-16662600
2026-01-14 16:52:36.071,49012380,17550780,-24882530,53704550,27740480,21621700,-6008148
2026-01-14 16:52:36.081,-18306060,17515390,-24848860,28581200,28900150,2305603,-9399414
2026-01-14 16:52:36.091,49049490,17489500,-24822970,53736490,76416020,27114870,-3921509
2026-01-14 16:52:36.101,-18276710,17463600,-24797070,28558760,970459,2722168,-44555660
2026-01-14 16:52:36.111,49077980,17429070,-24762550,53759800,10223390,45654300,12962340
2026-01-14 16:52:36.121,-22877480,17403180,-24736650,23906200,109436000,7196045,-28869630
2026-01-14 16:52:36.131,28070200,17377280,-24710760,74836620,83984380,715332,-9185791
2026-01-14 16:52:36.141,2809609,17360020,-24693490,7484526,8148193,8654785,-22720340
2026-01-14 16:52:36.151,-18217150,17334130,-24667600,28514740,8972168,9667969,-15960690
2026-01-14 16:52:36.161,28147890,17309090,-24640840,74862510,9118652,85510260,-8384705
2026-01-14 16:52:36.171,2816514,17283200,-24614950,7486252,93566900,569458,-12641910
2026-01-14 16:52:36.181,28191050,17257300,-24589050,74871140,10229490,46020510,-18814090
2026-01-14 16:52:36.191,-18176580,-34559500,-38740680,28486250,6451416,774765,-3604126
2026-01-14 16:52:36.201,28242840,-1576147,-5752150,74888410,61401370,-2331543,-25466920
2026-01-14 16:52:36.211,2826872,17189980,-24518270,7489705,49438480,-12504580,-41748050
2026-01-14 16:52:36.221,-18145510,17173580,-24500140,28465540,44189450,-87509150,-21713260
2026-01-14 16:52:36.231,28320520,17147680,-24474250,74914300,2961731,-30288700,-4234314
2026-01-14 16:52:36.241,2834642,-1584776,-5741790,7492293,6969452,-14465330,-21224980
2026-01-14 16:52:36.251,28380940,17104520,-24431090,74922930,-16113280,-1550293,-50445560
2026-01-14 16:52:36.261,-18086810,17078630,-24405190,28420650,-31463620,7369995,-5758667
2026-01-14 16:52:36.271,49363680,17051870,-24380170,54009250,-3540039,-256,5384,-51452640
2026-01-14 16:52:36.281,4938353,17025980,-24354270,5402394,-26748660,5542755,-7141113
2026-01-14 16:52:36.311,28657160,16929300,-24261050,74871140,-31795500,76416020,-11444090
2026-01-14 16:52:36.321,-17902100,16893910,-24227380,28260100,-2456665,9851074,-13830570
2026-01-14 16:52:36.331,2876074,-1614124,-5719348,7487115,27954100,9387207,-15527340
2026-01-14 16:52:36.341,-17836490,-3461735,-3871737,28204860,17852780,9692383,-14550780
2026-01-14 16:52:36.351,28855680,-1620169,-5713307,74862510,63095090,7006836,-17260740
2026-01-14 16:52:36.361,-17789880,16781700,-24115170,28165150,-6538391,4510498,-13122560
2026-01-14 16:52:36.371,-17761400,16755810,-24089280,28141850,13969420,3475952,-13220220
2026-01-14 16:52:36.381,-17742410,16739410,-24071150,28126310,27526860,17242430,-9338379
2026-01-14 16:52:36.391,-17723420,16722140,-24053890,28110770,2281189,-24795530,-9234619
2026-01-14 16:52:36.401,-17704430,-16279340,-57020840,28095240,75302130,-54107660,-4156494
2026-01-14 16:52:36.411,-17694940,-34614740,-38685440,28087470,16616820,-77697750,-17822270
2026-01-14 16:52:36.421,2909735,-16313870,-56986320,7486251,5531311,-6500244,-30269620
2026-01-14 16:52:36.431,-17675080,-16331130,-56969060,28072790,-20370480,-5532837,15792850
2026-01-14 16:52:36.441,49711540,16635820,-23967570,54282870,-27023320,-6842041,-41008000
2026-01-14 16:52:36.451,29166420,16617700,-23951170,74845250,-13755800,-44830320,-9757996
2026-01-14 16:52:36.461,2919231,-34649270,-38702700,7483660,274086,-4135132,-5832672
2026-01-14 16:52:36.471,-17603440,16580580,-23919230,28006330,-37384030,-19073490,-2180481
2026-01-14 16:52:36.481,29252740,-34678620,-38725150,74810720,16662600,945,5681,-5822754
2026-01-14 16:52:36.491,-17540430,-1651241,-5692589,27948500,17807010,35572050,-9118652
2026-01-14 16:52:36.501,-22198080,16516710,-23862260,23239060,3378296,27236940,-1149292
2026-01-14 16:52:36.511,29356330,16497720,-23846730,74758940,74279780,27786260,-13891600
2026-01-14 16:52:36.521,2939084,16479590,-23830330,7474168,10601810,52459720,-15551760
2026-01-14 16:52:36.531,-17451520,-16624600,-56900000,27864770,1352539,8276367,-23876950
2026-01-14 16:52:36.541,-17451520,-16633240,-56908630,27864770,12023930,55664060,-2052002
2026-01-14 16:52:36.551,-17460150,-16641870,-56900000,27873400,10546880,61828610,-1463623
2026-01-14 16:52:36.561,49790090,-16633240,-56908630,54325170,68847660,8613586,-10949710
2026-01-14 16:52:36.571,29373590,-16633240,-56908630,74741670,39611820,20385740,-52246100
2026-01-14 16:52:36.581,-22172180,-16633240,-56908630,23213160,6969452,-18707280,-2659607
2026-01-14 16:52:36.591,-22172180,16459740,-23815650,23213160,-39100650,-2494812,-15037540
2026-01-14 16:52:36.601,-22172180,-1666777,-5690862,23213160,-25177000,-29266360,22521970
2026-01-14 16:52:36.611,-1747053,-16693660,-56900000,2788030,-995636,-30765530,3390503
2026-01-14 16:52:36.621,-17451520,16396730,-23757820,27864770,20095820,24673460,13450620
2026-01-14 16:52:36.631,29451270,16369970,-23732790,74715770,47027590,38208010,-7789612
2026-01-14 16:52:36.641,-17387650,-16797240,-56848210,27807800,6964111,7196045,-6628418
2026-01-14 16:52:36.651,29546220,1631642,-2368274,74689880,10620120,6628418,-94177250
2026-01-14 16:52:36.661,-17332400,1629055,-2365682,27759470,99853520,61828610,-7141113
2026-01-14 16:52:36.671,-17304780,-1689220,-5678778,27735300,10626220,309906,-793457
2026-01-14 16:52:36.681,29675690,16237900,-23605900,74663980,115112300,3164673,-970459
2026-01-14 16:52:36.691,2971020,-16943970,-56753260,7466398,11566160,48034670,-10015870
2026-01-14 16:52:36.701,-17231410,-36828730,-36868500,27670560,14172360,8782959,-20666500
2026-01-14 16:52:36.711,49960130,-16969870,-56727370,54448600,7684326,9880066,-24560550
2026-01-14 16:52:36.721,29753380,-16978510,-56718740,74655350,7324219,59265140,-574646
2026-01-14 16:52:36.731,29753380,-34862470,-38834770,74655350,70495610,-4156494,-39855960
2026-01-14 16:52:36.741,29744750,-34871110,-38843400,74663980,7511139,-178833,13589860
2026-01-14 16:52:36.751,-17240050,-17004400,-56710100,27679190,-8552551,-28747560,15945440
2026-01-14 16:52:36.761,29753380,16157630,-23530810,74655350,11940000,-14709470,12184140
2026-01-14 16:52:36.771,49960130,-1704758,-5670149,54448600,28182980,13671880,17318730
2026-01-14 16:52:36.781,-17203790,-17073450,-56692840,27646390,62805180,11985780,-16326900
2026-01-14 16:52:36.791,-17185660,16103250,-23481610,27629990,91308590,4763794,8323669
2026-01-14 16:52:36.801,29856960,-1711664,-5666696,74620820,13513180,5581665,-30563350
2026-01-14 16:52:36.811,-17148550,16067860,-23447950,27598050,16247560,7312012,-27877810
2026-01-14 16:52:36.821,-17139050,-1715978,-5664104,27590280,16687010,50720220,-38726810
2026-01-14 16:52:36.831,2990012,16041970,-23422050,7461221,15856930,33721920,-26794430
2026-01-14 16:52:36.841,50029180,16033330,-23413420,54500390,1640625,21636960,-5682373
2026-01-14 16:52:36.851,29900120,-1718570,-5661517,74629460,13623050,11627200,-55236820
2026-01-14 16:52:36.861,29891490,-1718570,-5661517,74638090,9057617,90408330,-28915400
2026-01-14 16:52:36.871,29891490,16016070,-23396160,74638090,6390381,6738281,-19454960
2026-01-14 16:52:36.881,29891490,16007440,-23387520,74638090,2418518,1550293,8660889
2026-01-14 16:52:36.891,29891490,-17220190,-56597900,74638090,85876460,3425293,3166504
2026-01-14 16:52:36.901,2991738,-1723746,-5659789,7462946,12109380,5498047,7348633
2026-01-14 16:52:36.911,50057660,-17246090,-56572000,54523700,32128910,5131836,11757810
2026-01-14 16:52:36.921,30038230,15947020,-23327100,74612190,33740230,5498047,15302730
2026-01-14 16:52:36.931,-17024250,-17237460,-56477050,27497920,3088379,98046870,22265620
2026-01-14 16:52:36.941,3018495,-34837440,-38756220,7467260,6894531,14716800,33300780
2026-01-14 16:52:36.951,-17000950,-1721157,-5622672,27503970,96875,203125,475
2026-01-14 16:52:36.961,30392120,15680300,-23006870,74897040,12861330,2171875,5234375
2026-01-14 16:52:36.971,50627360,-34621650,-38436850,55058860,13974610,18193360,53789060
2026-01-14 16:52:36.981,-16646180,15088170,-22373300,27271780,14023440,22988280,51289060
2026-01-14 16:52:36.991,51318760,-18048840,-54612610,55644950,17753910,31894530,49609380
2026-01-14 16:52:37.001,3270540,-34474040,-38014760,7510418,2578125,33867190,4859375
2026-01-14 16:52:37.011,33663530,-19153690,-53145220,75095570,29433590,41289060,51289060
2026-01-14 16:52:37.021,-14725640,-1983560,-5222163,25705130,31425780,47695310,55859380
2026-01-14 16:52:37.031,3570060,14928220,-15645170,7518189,34277340,50351560,5515625
2026-01-14 16:52:37.041,-13698470,10735210,-17852890,24902380,34179690,51875,528125
2026-01-14 16:52:37.051,37659990,9739978,-16793790,75535780,32265620,51054690,49960940
2026-01-14 16:52:37.061,55312630,-22675410,-47085790,59039790,31054690,53085940,50390620
2026-01-14 16:52:37.071,-12504710,-23314150,-45566610,24059060,27871090,44140620,50859380
2026-01-14 16:52:37.081,-12143910,-23901110,-43978380,23815650,24511720,49101560,43046880
2026-01-14 16:52:37.091,-11801230,-24453530,-42338360,23588640,15634770,4828125,38125
2026-01-14 16:52:37.101,-11458550,-24962800,-40620660,23361630,12646480,45585940,28984380
2026-01-14 16:52:37.111,-11107240,3511364,-9936783,23125980,9033203,4609375,215625
2026-01-14 16:52:37.121,43823010,24867850,-87689180,77503810,48828120,50664060,15898440
2026-01-14 16:52:37.131,44617120,42338360,-48466860,77814540,5498047,50976560,13203130
2026-01-14 16:52:37.141,4530763,5058160,-64685770,7815981,33740230,55117190,7861328
2026-01-14 16:52:37.151,-10108560,-433311,-5353365,22553700,-1537323,56328120,42285160
2026-01-14 16:52:37.161,-10044680,11873730,-17473960,22583050,-2043457,52929690,27816770
2026-01-14 16:52:37.171,-10045540,-22114350,-31954460,22668500,-7270508,48984380,-5751953
2026-01-14 16:52:37.181,47051260,-46008120,45487620,79972460,-9770508,44765620,-12080080
2026-01-14 16:52:37.191,-10201780,-26387030,-23590370,22978380,-14472660,403125,-17753910
2026-01-14 16:52:37.201,-10314850,-47396520,-440215,3,23158780,-16992190,37910160,-18242190
2026-01-14 16:52:37.211,4764684,-26136710,-19524850,8143121,-23984380,35820310,-2078125
2026-01-14 16:52:37.221,47776320,-44812200,40468740,81871430,-17519530,26054690,-2453125
2026-01-14 16:52:37.231,-10695510,-25774180,-15416170,23710340,-23945310,26640620,-26425780
2026-01-14 16:52:37.241,-10845700,-25549760,-13379100,23905420,-20390620,20703120,-27792970
2026-01-14 16:52:37.251,47931690,-19028530,-17638830,83062600,-20449220,17333980,-32773440
2026-01-14 16:52:37.261,4785400,-24980060,-9425788,8343375,-20761720,12958980,-36757810
2026-01-14 16:52:37.271,4770726,-24652060,-7475029,8382218,-20878910,74365230,-39257810
2026-01-14 16:52:37.281,-11776190,-24315430,-5550166,24942950,-2125,16564940,-403125
2026-01-14 16:52:37.291,-12099880,-11523290,8761151,25275270,-19228520,-44873050,-41796880
2026-01-14 16:52:37.301,-12445150,-2358175,-182990,9,25620540,-19697270,-11318360,-42382810
2026-01-14 16:52:37.311,-12800770,-23176050,-43157,15,25972710,-17714840,-17607420,-425
2026-01-14 16:52:37.321,46058620,-22761730,1700438,85574420,-15449220,-21972660,-43554690
2026-01-14 16:52:37.331,4562703,-22330140,3392247,8586788,-13867190,-2625,-4390625
2026-01-14 16:52:37.341,-13917710,-97624240,-70693410,27048210,-13857420,-315625,-42460940
2026-01-14 16:52:37.351,44720700,-21423820,6680915,86377160,-11904300,-35058590,-41835940
2026-01-14 16:52:37.361,63311600,-20957710,8269142,67544580,-8935547,-39316410,-42890620
2026-01-14 16:52:37.371,43823010,-20482970,9831476,86756960,-6879883,-42539060,-42695310
2026-01-14 16:52:37.381,-15228000,-58928440,-27560940,28258370,-5097656,-45703120,-41835940
2026-01-14 16:52:37.391,-15466240,-4951130,-1712523,28468990,-3623047,-47226560,-39101560
2026-01-14 16:52:37.401,-15662170,-40249500,-6879444,28635580,763,8931,-4859375,-37792970
2026-01-14 16:52:37.411,4245922,-18549470,15770070,8699864,18200680,-478125,-37480470
2026-01-14 16:52:37.421,42243420,-22010770,13206460,86938220,43139650,-48203120,-3609375
2026-01-14 16:52:37.431,4207078,3117761,6722348,8685191,66308590,-46640620,-36425780
2026-01-14 16:52:37.441,-15965140,-4264046,32575940,28833250,88378900,-46484380,-34726560
2026-01-14 16:52:37.451,41829100,23204010,23579660,86592960,11005860,-4640625,-3453125
2026-01-14 16:52:37.461,-15929750,13335940,51574260,28747790,13515630,-45585940,-34765620
2026-01-14 16:52:37.471,-15864150,-15295330,23581730,28658020,15361330,-45976560,-34394530
2026-01-14 16:52:37.481,-15764020,-14708370,24755640,28533730,17978520,-46132810,-33320310
2026-01-14 16:52:37.491,61546430,39032430,79048870,65943410,21113280,-44765620,-30214840
2026-01-14 16:52:37.501,61480830,47422420,87922240,65836380,22246090,-421875,-2734375
2026-01-14 16:52:37.511,-15169300,55596610,96493490,27885490,26328120,-403125,-28378910
2026-01-14 16:52:37.521,-14890500,63710380,104952500,27594600,27832030,-40,-29882810
2026-01-14 16:52:37.531,-20288490,7159972,11311810,21557870,31074220,-38242190,-31660160
2026-01-14 16:52:37.541,42856260,7924736,12100740,83994820,34335940,-38105470,-33867190
2026-01-14 16:52:37.551,43236060,8684323,12877590,83563240,36171880,-37929690,-35019530
2026-01-14 16:52:37.561,61431630,9438733,13642360,65367670,40585940,-36933590,-39648440
2026-01-14 16:52:37.571,61512770,-8735257,33318260,65338320,465625,-37148440,-46914060
2026-01-14 16:52:37.581,61639650,-7958407,34043320,65332280,51835940,-38378900,-546875
2026-01-14 16:52:37.591,45903240,11700230,15886600,81241310,61914060,-4078125,-67695310
2026-01-14 16:52:37.601,-10366640,-6249331,35355340,23106990,77304690,-43710940,-87421870
2026-01-14 16:52:37.611,48233800,-526535,6,3590775,79497720,9515625,-4359375,-11921880
2026-01-14 16:52:37.621,-7947182,-18665130,21886470,20761770,110234400,-38828120,-157734400
2026-01-14 16:52:37.631,-6525544,-2995190,36745040,19386740,120390600,-25429690,-196875
2026-01-14 16:52:37.641,63404830,-1691810,36909040,65707760,1325,-75439460,-23515620
2026-01-14 16:52:37.651,5472483,16435570,20128200,7495747,130234400,9003906,-2728125
2026-01-14 16:52:37.661,56304420,-15445520,19219290,74033870,110859400,24550780,-30171880
2026-01-14 16:52:37.671,-77978980,-13782200,17654370,79290130,85078130,378125,-329375
2026-01-14 16:52:37.681,58755810,6145752,33370050,73222490,33339840,45234380,-3603125
2026-01-14 16:52:37.691,-64053070,9020098,31065400,77333760,-30058590,51445310,-3859375
2026-01-14 16:52:37.701,-750091,5,12265610,28234210,14096390,-1078125,43945310,-38875
2026-01-14 16:52:37.711,-7608734,19971970,20873120,8946818,-19453120,24550780,-356875
2026-01-14 16:52:37.721,65872620,14328580,26930820,67780220,-27953120,-5620117,-305
2026-01-14 16:52:37.731,65281350,56226720,-14380370,67508320,-364375,-39492190,-239375
2026-01-14 16:52:37.741,-6428012,100256900,-57530110,19536070,-4421875,-7109375,-1490625
2026-01-14 16:52:37.751,-8527231,3427637,962432,21372890,-4865625,-10375,-39082030
2026-01-14 16:52:37.761,60778210,39429490,5886798,64156650,-4909375,-13734380,8078125
2026-01-14 16:52:37.771,4737063,3735788,799292,8,7911793,808125,-20359380,1141875
2026-01-14 16:52:37.781,50089610,36080400,9960952,77814540,156625,5515625,9575
2026-01-14 16:52:37.791,-5937729,35346710,6775866,18869700,-15671880,97421870,476875
2026-01-14 16:52:37.801,52394260,16289690,-12125780,77132640,-264375,-16734380,-5628125
2026-01-14 16:52:37.811,5297259,34388590,5455218,7710676,-3428125,-480,51601560
2026-01-14 16:52:37.821,55147770,33283740,5299849,76070950,19828120,-9301758,-203125
2026-01-14 16:52:37.831,5570883,33223320,4013729,7576885,35078120,-66054690,133828100
2026-01-14 16:52:37.841,54906080,16945700,-13368740,76485260,-64335940,-18054200,51289060
2026-01-14 16:52:37.851,-6016277,32593200,1795390,19119160,-22695310,24853520,20996090
2026-01-14 16:52:37.861,63608530,32049400,958113,1,66626160,17724610,-5078125,2796875
2026-01-14 16:52:37.871,62736740,31514240,-198530,9,66324060,27519530,-104140600,44257810
2026-01-14 16:52:37.881,-14382100,30737390,-1493279,27153520,12695310,-1175,46875
2026-01-14 16:52:37.891,-22873070,29779280,-3055611,24135030,-4338379,-129296900,41015620
2026-01-14 16:52:37.901,-19800200,28579470,-4756050,32266060,-48320310,-12453130,4921875
2026-01-14 16:52:37.911,33301000,27077560,-6447864,89890260,-68476560,-110,49023440
2026-01-14 16:52:37.921,57903860,10269100,6925190,63958120,-67695310,-86171870,4828125
2026-01-14 16:52:37.931,2838097,84176090,50995930,9228991,-7046875,-56679690,51796880
2026-01-14 16:52:37.941,2645608,21208020,-11626870,9316167,-71367180,-240625,48945310
2026-01-14 16:52:37.951,24859220,4355539,1116938,93843570,-71054690,-7714844,396875
2026-01-14 16:52:37.961,-29530680,21967610,-9883266,41318100,-74921870,25683590,31054690
2026-01-14 16:52:37.971,54922480,8628,-31255300,62157550,-778125,-9680176,18369140
2026-01-14 16:52:37.981,2136337,-22304250,-52963950,9492251,-8984375,-14619140,8876953
2026-01-14 16:52:37.991,-31453830,-44703440,-74758930,43003000,-105,-21074220,-18603520
2026-01-14 16:52:38.001,1983555,-66688320,-96105060,9489661,-118828100,-17939450,-15810550
2026-01-14 16:52:38.011,19309060,-10128070,-10415320,94698100,-1253125,-93896480,-27539060
2026-01-14 16:52:38.021,1896378,1588227,-26343870,9438737,-124296900,140625,-39277340
2026-01-14 16:52:38.031,1875662,-949484,-28018410,9395579,-119765600,15830080,-4171875
2026-01-14 16:52:38.041,52309680,-3556251,-29641170,59781250,-111484400,29667970,-38710940
2026-01-14 16:52:38.051,1875662,-17483460,-19978010,9273007,-102890600,39414060,-37324220
2026-01-14 16:52:38.061,5182112,-904599,8,-3271405,5911316,-9390625,43867190,-409375
2026-01-14 16:52:38.071,-30222080,-11894450,-34198690,41265440,-87578130,46992190,-48164060
2026-01-14 16:52:38.081,-29356320,-14820590,-35622920,40353080,-85078130,5140625,-56523440
2026-01-14 16:52:38.091,20983600,-17824410,-36969460,88535090,-828125,56054690,-66132810
2026-01-14 16:52:38.101,51278180,57219370,-116277300,57791660,-77929690,63320310,-78359380
2026-01-14 16:52:38.111,-25806980,-23866580,-39300020,36669080,-75546870,73046870,-853125
2026-01-14 16:52:38.121,-24444040,3325783,-10036050,35252620,-69140620,8453125,-928125
2026-01-14 16:52:38.131,2529944,-2988286,-4110403,8211312,-52929690,9078125,-9765625
2026-01-14 16:52:38.141,-21607680,8079248,-82725970,32271240,-3625,90546870,-9796875
2026-01-14 16:52:38.151,-20192080,-4074152,-73990710,30769330,-16152340,86953130,-98359380
2026-01-14 16:52:38.161,-23532270,-1558018,-6564387,24580680,9472656,84375,-975
2026-01-14 16:52:38.171,-17500720,-26007230,-58117060,27884620,14892580,80,-95703130
2026-01-14 16:52:38.181,2995191,-3518271,-5158289,7281681,29804690,7625,-93203130
2026-01-14 16:52:38.191,-1978484,12805950,-21720740,2080131,45859380,72148440,-8953125
2026-01-14 16:52:38.201,48322700,-35639320,26508730,52184510,59296880,65234380,-8515625
2026-01-14 16:52:38.211,-13513750,-108767700,15528390,23447080,69570310,58710940,-79140620
2026-01-14 16:52:38.221,-12907800,-123450200,28467260,22723740,76210940,51171880,-72890620
2026-01-14 16:52:38.231,-12465000,-12077440,2423775,22165280,79453130,43710940,-65703120
2026-01-14 16:52:38.241,-12141310,-102466600,4566157,21729370,796875,35976560,-58046880
2026-01-14 16:52:38.251,30728760,-71142260,-27983890,64081550,77929690,29277340,-51796880
2026-01-14 16:52:38.261,-16026170,-28527680,-71686060,16964090,75859380,2375,-46132810
2026-01-14 16:52:38.271,30038230,-43158370,-58004850,62804060,73554690,18974610,-40078120
2026-01-14 16:52:38.281,-11699370,8192322,-18393240,20893830,7171875,14863280,-34003900
2026-01-14 16:52:38.291,-11671750,-3186815,-7088331,20783350,70039060,10556640,-284375
2026-01-14 16:52:38.301,29011060,-25731020,-77693700,61328040,6875,7216797,-21777340
2026-01-14 16:52:38.311,28743470,-19464420,-84547250,60887820,67929690,42260740,-15644530
2026-01-14 16:52:38.321,-11511200,-1334458,-9120226,20408730,66523440,17272950,-10195310
2026-01-14 16:52:38.331,-11392950,-4800938,-5702084,20233510,6578125,-12695310,-46899420
2026-01-14 16:52:38.341,-11238440,45566610,-56114520,20025490,65195310,-51171880,-70373540
2026-01-14 16:52:38.351,28303260,-4732749,-5854866,59118340,65039060,-7446289,26733400
2026-01-14 16:52:38.361,-10787870,773397,5,-11397260,19492050,65390620,-93603520,5732422
2026-01-14 16:52:38.371,28527680,11713180,-118279800,58203380,66210940,-10966800,8588867
2026-01-14 16:52:38.381,28743470,-46559250,-60300880,57745900,67890620,-12578130,12226560
2026-01-14 16:52:38.391,-9840974,1843726,-12553910,18470920,69414060,-1390625,15380860
2026-01-14 16:52:38.401,-9492252,6947202,-8020120,18111840,70976560,-15380860,1671875
2026-01-14 16:52:38.411,29623900,2370256,-13114970,56520210,72539060,-15546880,17099610
2026-01-14 16:52:38.421,-8812076,7438000,-8513334,17428210,74140620,-16054690,17753910
2026-01-14 16:52:38.431,30297180,-4558390,-6198407,55915980,75664060,-16484380,17607420
2026-01-14 16:52:38.441,41913680,83707470,-84782820,44420330,7734375,-16572270,18886720
2026-01-14 16:52:38.451,30961810,-45065970,-62363850,55544820,79179690,-16357420,20664060
2026-01-14 16:52:38.461,31255290,-44737970,-62519220,55475770,80703130,-15117190,23046880
2026-01-14 16:52:38.471,-7639032,3799663,-14499490,16339760,809375,-13574220,25
2026-01-14 16:52:38.481,-7562210,4110403,-14775700,16295740,8015625,-11845700,253125
2026-01-14 16:52:38.491,42665500,4450490,-15074360,45049580,78398440,-96484380,25058590
2026-01-14 16:52:38.501,-757343,9,4821654,-15393730,1638810,7625,-70703130,24394530
2026-01-14 16:52:38.511,32230670,-42070780,-63028490,56416620,73632820,-47631840,23671880
2026-01-14 16:52:38.521,32334250,-41345720,-63063020,56848200,70703130,-24255370,22988280
2026-01-14 16:52:38.531,-7967037,6082740,-16445930,16943980,67695310,43823240,22285160
2026-01-14 16:52:38.541,-8175924,6531588,-16808460,17218460,64414060,3310547,2109375
2026-01-14 16:52:38.551,-8408978,6983887,-17167540,17520570,6109375,6538086,2046875
2026-01-14 16:52:38.561,32653620,7440502,-17522300,59187390,578125,9375,19521480
2026-01-14 16:52:38.571,-8963996,-48585970,-51161660,18225780,54335940,12460940,17929690
2026-01-14 16:52:38.581,32757200,-36019980,-62571010,60654780,50976560,15820310,16386720
2026-01-14 16:52:38.591,32791730,-35044600,-62337960,61431620,46992190,18515620,14804690
2026-01-14 16:52:38.601,-9963543,9203091,-18815320,19470470,43125,21582030,13525390
2026-01-14 16:52:38.611,32834880,-33050690,-61759630,63080270,38964840,23632810,11396480
2026-01-14 16:52:38.621,3282626,-3204941,-6141436,6393481,34238280,25292970,9741211
2026-01-14 16:52:38.631,-11113280,10390810,-19595630,20875700,29941410,27226560,85253900
2026-01-14 16:52:38.641,32791730,10755930,-19817460,65695670,25195310,27871090,7348633
2026-01-14 16:52:38.651,-11942780,11088250,-20003040,21876120,209375,28613280,6538086
2026-01-14 16:52:38.661,-12357110,-42252910,-45410380,22376750,17041020,29765620,6948242
2026-01-14 16:52:38.671,48738750,11695050,-20311190,52303630,13027340,30976560,7158203
2026-01-14 16:52:38.681,-13179700,11951420,-20417360,23366800,8339844,3203125,6269531
2026-01-14 16:52:38.691,-13578490,12174110,-20488140,23848450,3779297,33378910,5449219
2026-01-14 16:52:38.701,3262772,12360560,-20526120,7088332,-1038208,34453120,49316410
2026-01-14 16:52:38.711,-14308730,-23564470,-56606520,24740970,-5151367,34511720,4116211
2026-01-14 16:52:38.721,32662260,12628140,-20500230,72454280,-9345703,33613280,30786130
2026-01-14 16:52:38.731,50940690,-3698675,-4030131,54987220,-13134770,32949220,19812010
2026-01-14 16:52:38.741,-15207280,-21380660,-54474500,25879480,-17001950,31582030,115356400
2026-01-14 16:52:38.751,-15452430,-20733280,-53723540,26204040,-20546880,30585940,14732360
2026-01-14 16:52:38.761,33067940,-20120440,-52955330,75242300,-23730470,29355470,31738280
2026-01-14 16:52:38.771,-15865020,15964020,-16680970,26775450,-26660160,27890620,-2583313
2026-01-14 16:52:38.781,3343909,-18946530,-51367100,7647663,-29257810,2578125,-24505620
2026-01-14 16:52:38.791,3366351,-18394100,-50555720,7704632,-3171875,23632810,-4321289
2026-01-14 16:52:38.801,33905220,-17850300,-49735710,77598750,-34375,20878910,-6719971
2026-01-14 16:52:38.811,34190060,-17315140,-48907070,78125280,-36933590,18154300,-9881592
2026-01-14 16:52:38.821,-16407090,-16788610,-48087060,27718030,-390625,1515625,-12011720
2026-01-14 16:52:38.831,-16445070,-16253440,-47258420,27835420,-41367190,1234375,-13684080
2026-01-14 16:52:38.841,35156810,-15726910,-46421150,79540880,-43046880,87597660,-13098150
2026-01-14 16:52:38.851,-16444210,-15183110,-45601140,27991660,-44453120,56689450,-15319820
2026-01-14 16:52:38.861,-16414860,-14639320,-44781120,28038260,-45703120,21838380,-14416500
2026-01-14 16:52:38.871,-16376880,-14095520,-43978380,28076240,-465625,-5899048,-111206100
2026-01-14 16:52:38.881,56638460,-13543100,-43184270,61080320,-47304690,-38745120,-10913090
2026-01-14 16:52:38.891,37038510,-12990670,-42407420,81388060,-4796875,-70654300,-9362793
2026-01-14 16:52:38.901,37418300,11917750,-17326360,81698800,-48398440,-9614258,-7159424
2026-01-14 16:52:38.911,37772200,-11851290,-40940040,81983640,-48984380,-12666020,-27526860
2026-01-14 16:52:38.921,-16044560,-11281600,-40249500,28080560,-48867190,-15380860,-4524231
2026-01-14 16:52:38.931,38445480,11925520,-16956060,82484280,-48789060,-18203120,28640750
2026-01-14 16:52:38.941,58525340,11949690,-16862840,62922320,-48710940,-20976560,3378296
2026-01-14 16:52:38.951,3901515,-9598423,-38393690,8291586,-4859375,-23535160,7116699
2026-01-14 16:52:38.961,3925685,12060180,-16752350,8310577,-4828125,-26171880,103271500
2026-01-14 16:52:38.971,-15770070,-8528095,-37392410,28044310,-47695310,-284375,15344240
2026-01-14 16:52:38.981,3965390,-8001563,-36969460,8343376,-4734375,-309375,16015630
2026-01-14 16:52:38.991,-15712240,-20600350,-23507500,28050350,-46796880,-33261720,20458980
2026-01-14 16:52:39.001,-15691520,-7060709,-36287560,28053800,-46289060,-35722660,19641110
2026-01-14 16:52:39.011,-15682030,-6629127,-36028610,28063300,-45664060,-37851560,23925780
2026-01-14 16:52:39.021,-15674260,-6232069,-35838720,28071070,-44960940,-39609380,28442380
2026-01-14 16:52:39.031,59849440,-19310780,-22293890,64222250,-43984380,-41210940,3413086
2026-01-14 16:52:39.041,-15648370,-5576061,-35666080,28062440,-43125,-42734380,37548830
2026-01-14 16:52:39.051,59903820,14978110,-15388120,64271450,-42421880,-43867190,42358400
2026-01-14 16:52:39.061,-15604340,-5101320,-35761030,28020140,-4171875,-44804690,43701170
2026-01-14 16:52:39.071,4027539,13449870,-17537840,8383083,-41445310,-4515625,47485350
2026-01-14 16:52:39.081,40266760,15461480,-15871490,83735870,-40625,-45195310,5004883
2026-01-14 16:52:39.091,-15480910,-19044930,-22214480,27867360,-39980470,-44960940,5527344
2026-01-14 16:52:39.101,-15429980,-4790579,-36865880,27797440,-39296880,-43984380,5834961
2026-01-14 16:52:39.111,59562000,-4851003,-37340620,63870940,-3875,-42617190,60009770
2026-01-14 16:52:39.121,40094120,-4971846,-37875790,83045340,-38320310,-40742190,64404300
2026-01-14 16:52:39.131,59257310,-5144481,-38497270,63536900,-38085940,-38652340,69970700
2026-01-14 16:52:39.141,-15209010,-5368902,-39187800,27448720,-37792970,-36484380,74072260
2026-01-14 16:52:39.151,-15171900,-5636482,-39938760,27365000,-37089840,-33632810,7841797
2026-01-14 16:52:39.161,39481280,15066580,-19736330,81914590,-36992190,-30820310,90527340
2026-01-14 16:52:39.171,-20578170,15264250,-20056560,21786090,-36367190,-27089840,9848633
2026-01-14 16:52:39.181,57942700,15456740,-20381980,62175680,-36386720,-22949220,10361330
2026-01-14 16:52:39.191,57562910,-7147028,-43520900,61795890,-35976560,-1828125,11191410
2026-01-14 16:52:39.201,38091580,-7639034,-44548070,80438580,-35917970,-13525390,11953130
2026-01-14 16:52:39.211,37599570,-25015460,-28759880,80015620,-35742190,-7944336,12714840
2026-01-14 16:52:39.221,37055780,16207690,-21754410,79575410,-35507810,-2253418,13056640
2026-01-14 16:52:39.231,36468820,16369970,-22092770,79109300,-34902340,36035160,134375
2026-01-14 16:52:39.241,35821440,-10064540,-48993390,78600020,-34023440,9609375,13515630
2026-01-14 16:52:39.251,-15814950,16641870,-22735830,27136260,-32441410,15380860,13105470
2026-01-14 16:52:39.261,-15965150,-11549180,-51341200,27158700,-30800780,20800780,12675780
2026-01-14 16:52:39.271,-16109300,-12351920,-52506480,27169920,-28945310,25742190,11289060
2026-01-14 16:52:39.281,52449500,-13180570,-53663120,56792960,-26289060,30234380,10244140
2026-01-14 16:52:39.291,51744300,16928440,-23813070,56099840,-23398440,33613280,8959961
2026-01-14 16:52:39.301,-16499450,-14941430,-55907350,27142300,-19912110,36289060,71484380
2026-01-14 16:52:39.311,3066833,16929300,-24209260,7434462,-1625,38789060,59375
2026-01-14 16:52:39.321,-21302800,16884420,-24357720,22338950,-12392580,40585940,38793940
2026-01-14 16:52:39.331,48947640,-36242680,-40372070,53303180,-78222660,415625,19555660
2026-01-14 16:52:39.341,-16635830,16734230,-24576970,26729710,-27929690,42382810,31909940
2026-01-14 16:52:39.351,-21063530,-19447160,-60723830,22060310,22265620,42695310,-21228030
2026-01-14 16:52:39.361,27837150,-20327600,-61517940,70650260,73095700,42578120,-42895510
2026-01-14 16:52:39.371,27465990,16371690,-24715070,69899300,12412110,41875,-64404300
2026-01-14 16:52:39.381,-16194750,-21976250,-62942170,25824240,18105470,40703120,-8408203
2026-01-14 16:52:39.391,26844510,-41125620,-45208400,68431920,23085940,38769530,-10205080
2026-01-14 16:52:39.401,-15852930,19906620,-20783090,25285630,2796875,36816410,-12285160
2026-01-14 16:52:39.411,44679270,-2413419,-6472032,48749970,31914060,340625,-14375
2026-01-14 16:52:39.421,-15525800,15743310,-24739240,24784130,35351560,31210940,-15878910
2026-01-14 16:52:39.431,2591226,-25273540,-65704300,6585967,38652340,28261720,-17255860
2026-01-14 16:52:39.441,25670600,-2573969,-6615317,65307250,409375,24863280,-18066410
2026-01-14 16:52:39.451,-15177080,15587080,-24860950,24200630,43242190,21386720,-18271480
2026-01-14 16:52:39.461,-15127010,-26481980,-66999060,24078050,4515625,17773440,-18339840
2026-01-14 16:52:39.471,2485059,-2674956,-6740475,6393481,46914060,13935550,-18017580
2026-01-14 16:52:39.481,24522580,-45337870,-49420650,63555010,48359380,10322270,-17558590
2026-01-14 16:52:39.491,-15146860,-2712073,-6817295,23885570,4921875,6948242,-16875
2026-01-14 16:52:39.501,2380614,-45832460,-49961860,6289036,49648440,3684082,-16542970
2026-01-14 16:52:39.511,41052240,20312490,-21274920,44971020,49921880,75927740,-16123050
2026-01-14 16:52:39.521,-15395460,16107570,-25773320,23930450,50078120,-19543460,-15820310
2026-01-14 16:52:39.531,22597720,16235310,-25939050,62096270,50507810,-45410160,-15507810
2026-01-14 16:52:39.541,-15642320,16363930,-26103910,24046120,50976560,-6958008,-15341800
2026-01-14 16:52:39.551,-15786470,-2750052,-7024456,24126390,51757810,-9301758,-14931640
2026-01-14 16:52:39.561,21320230,16607340,-26412930,61457520,52773440,-11435550,-14980470
2026-01-14 16:52:39.571,-16089440,16722140,-26557070,24306790,53515620,-13652340,-15390630
2026-01-14 16:52:39.581,-16256900,16830040,-26690860,24415560,54453120,-15087890,-16035160
2026-01-14 16:52:39.591,20034120,-2756097,-7128901,61000040,55078120,-16542970,-1671875
2026-01-14 16:52:39.601,38184800,-27560940,-71496160,42314190,5609375,-17939450,-17587890
2026-01-14 16:52:39.611,1917955,-27552300,-71677420,6081877,57265620,-19111330,-18183590
2026-01-14 16:52:39.621,-21005520,-27526410,-71824160,21013470,58515620,-19394530,-19052730
2026-01-14 16:52:39.631,-17259900,21729370,-22723740,25173420,59257810,-19667970,-2015625
2026-01-14 16:52:39.641,17936620,-47505280,-51966130,60836040,60,-18847660,-21386720
2026-01-14 16:52:39.651,1753956,21876120,-22870480,6092237,60078120,-18027340,-22402340
2026-01-14 16:52:39.661,1715112,-47431050,-51919520,6105181,59921880,-16308590,-23710940
2026-01-14 16:52:39.671,-18325050,21998170,-22990120,26128080,59179690,-13867190,-24902340
2026-01-14 16:52:39.681,-18623700,17597390,-27494470,26416380,58320310,-10205080,-265625
2026-01-14 16:52:39.691,36663900,22078360,-23065300,41228330,57890620,-4892578,-28261720
2026-01-14 16:52:39.701,15847750,-26611450,-71755110,62096260,57070310,50109860,-29550780
2026-01-14 16:52:39.711,-23035960,-2643020,-7155657,23816780,56992190,49804690,-30449220
2026-01-14 16:52:39.721,36780420,-26248920,-71289000,41526120,55859380,78125,-31308590
2026-01-14 16:52:39.731,36924580,17606890,-27312350,41727240,54453120,10078130,-32070310
2026-01-14 16:52:39.741,-20335360,-25877760,-70624360,28243700,51367190,11435550,-32441410
2026-01-14 16:52:39.751,1526943,-2567923,-7021867,6434913,48125,11923830,-32109380
2026-01-14 16:52:39.761,15373010,-25463440,-69761190,64901560,44453120,11962890,-30976560
2026-01-14 16:52:39.771,-20900740,17295280,-26743510,29007610,40859380,11123050,-29824220
2026-01-14 16:52:39.781,15873640,-24945540,-68708130,66092730,38535160,10927730,-28671880
2026-01-14 16:52:39.791,1624480,17105390,-26380990,6672285,36933590,11240230,-28046880
2026-01-14 16:52:39.801,-21130340,-24280900,-67508320,29537590,35253900,12880860,-2765625
2026-01-14 16:52:39.811,-21157960,-4321104,-4750787,29682600,33183590,15068360,-27304690
2026-01-14 16:52:39.821,1772943,-23409100,-66170420,6872538,30585940,1828125,-26914060
2026-01-14 16:52:39.831,18290520,-22899830,-65453980,69424560,27460940,21738280,-26582030
2026-01-14 16:52:39.841,18834320,-2232154,-6472030,70158260,23808590,25683590,-2625
2026-01-14 16:52:39.851,19369480,-2169143,-6396935,70900580,19863280,30019530,-25683590
2026-01-14 16:52:39.861,-21318510,-20992230,-63183860,30471540,15957030,34101560,-24511720
2026-01-14 16:52:39.871,-21419500,16938800,-25201040,30698550,11044920,36875,-23027340
2026-01-14 16:52:39.881,-21548120,-19429900,-61552470,30949730,5629883,38632810,-20664060
2026-01-14 16:52:39.891,21147600,17097620,-25024950,74077030,-18569950,39082030,-17861330
2026-01-14 16:52:39.901,-21876980,17185660,-24936910,31518560,-6303711,38125,-15195310
2026-01-14 16:52:39.911,-22059970,-16771340,-58911180,31818940,-11630860,36601560,-12011720
2026-01-14 16:52:39.921,-22226560,-15847750,-57970330,32101200,-16875,33984380,-8984375
2026-01-14 16:52:39.931,-22384520,1745582,-2464946,32374820,-21601560,30664060,-6279297
2026-01-14 16:52:39.941,-22515720,17525750,-24527760,32623410,-25996090,26914060,-37109380
2026-01-14 16:52:39.951,23400470,17579260,-24387930,78850340,-2984375,23105470,-1665039
2026-01-14 16:52:39.961,-22675410,17631920,-24248960,33016160,-33066410,18935550,24902340
2026-01-14 16:52:39.971,24358580,-11229810,-53007120,80222780,-35585940,15234380,16125490
2026-01-14 16:52:39.981,24893750,-10323490,-51979940,80844260,-37402340,11552730,26489260
2026-01-14 16:52:39.991,25446170,-28123720,-32280740,81413950,-38984380,8535156,3449707
2026-01-14 16:52:40.001,25998600,17816640,-23667190,81949120,-40195310,5986328,40722660
2026-01-14 16:52:40.011,26551020,-7604512,-49019280,82449750,-41914060,4025879,5053711
2026-01-14 16:52:40.021,27086190,-668958,5,-4808707,82898600,-43125,24255370,5888672
2026-01-14 16:52:40.031,27595460,-5774596,-47189370,83321550,-44335940,6896973,69628900
2026-01-14 16:52:40.041,-22249000,-485101,5,-4631756,33425300,-45742190,-93322750,82470700
2026-01-14 16:52:40.051,-22185130,18322450,-23264950,33437380,-4703125,-22851560,953125
2026-01-14 16:52:40.061,-22150610,-2977928,-44720700,33471910,-48203120,-41918940,10498050
2026-01-14 16:52:40.071,-22155780,-2019814,-43987010,33535780,-49140620,-63427740,12216800
2026-01-14 16:52:40.081,29252740,-1053070,-43296480,85047890,-49609380,-8847656,13652340
2026-01-14 16:52:40.091,-22238650,-77688,-42631840,33711860,-49960940,-11191410,15078130
2026-01-14 16:52:40.101,54721360,880428,-42018990,60338860,-5015625,-13955080,17148440
2026-01-14 16:52:40.111,29451270,1855806,-41440670,85885160,-50273440,-16875,19375
2026-01-14 16:52:40.121,29390850,282252,-4090552,86135480,-49648440,-19082030,21523440
2026-01-14 16:52:40.131,-22753090,20256810,-23920090,34319540,-48710940,-2140625,2359375
2026-01-14 16:52:40.141,5757947,4712894,-39930130,5815401,-48007810,-24003910,25097660
2026-01-14 16:52:40.151,28950630,5636480,-39507180,86800110,-47226560,-26015620,26757810
2026-01-14 16:52:40.161,-23337460,6525545,-39101490,34909080,-46171880,-28144530,28105470
2026-01-14 16:52:40.171,284843,6,7405977,-38738960,871626,8,-446875,-29980470,29707030
2026-01-14 16:52:40.181,28208310,21813960,-24831600,87318020,-42890620,-31738280,31210940
2026-01-14 16:52:40.191,54717050,9028727,-38117480,60671180,-41289060,-33496090,32871090
2026-01-14 16:52:40.201,27621360,-13796960,-14273250,87594230,-40,-34980470,34394530
2026-01-14 16:52:40.211,-24443180,22698710,-25414240,35944020,-38359380,-36914060,35488280
2026-01-14 16:52:40.221,-24660700,11134860,-37461460,36140820,-3671875,-3859375,36660160
2026-01-14 16:52:40.231,2668912,23243370,-25801800,8787045,-35058590,-40195310,375
2026-01-14 16:52:40.241,2639564,12248350,-37228410,8792224,-334375,-41953120,37734380
2026-01-14 16:52:40.251,-25213980,1270581,-3718524,36623330,-31347660,-43476560,38164060
2026-01-14 16:52:40.261,-25364180,23928730,-26342140,36749350,-29414060,-44609380,38164060
2026-01-14 16:52:40.271,2563606,13361830,-37271570,8797403,-27207030,-45546880,38476560
2026-01-14 16:52:40.281,-25577380,24297300,-26681370,36915940,-25253910,-4609375,38320310
2026-01-14 16:52:40.291,-25649020,-9399030,-14527970,36965140,-22949220,-4640625,384375
2026-01-14 16:52:40.301,25144070,-9505203,-14663490,87810020,-20722660,-45820310,38730470
2026-01-14 16:52:40.311,25031850,13646670,-38212420,87697810,-19121090,-44882810,38671880
2026-01-14 16:52:40.321,-25680960,13491310,-38626740,36933210,-17519530,-43710940,38730470
2026-01-14 16:52:40.331,-25649020,-10304490,-15538740,36878830,-16542970,-41914060,38496100
2026-01-14 16:52:40.341,-25609320,24931730,-27600640,36814950,-16162110,-39980470,38300780
2026-01-14 16:52:40.351,24738380,12515920,-40189080,87059070,-15869140,-37851560,38242190
2026-01-14 16:52:40.361,2465204,12032560,-40810560,8686917,-16103520,-35449220,37792970
2026-01-14 16:52:40.371,24548480,24973160,-27973530,86662010,-16416020,-32558590,37695310
2026-01-14 16:52:40.381,-25471210,10824120,-42191620,36556000,-16914060,-29648440,37304690
2026-01-14 16:52:40.391,24246370,-16417180,-16417710,86204530,-17412110,-26230470,36835940
2026-01-14 16:52:40.401,24047840,24778080,-28220400,85954220,-18173830,-22871090,36855470
2026-01-14 16:52:40.411,54756250,839859,5,-4451357,54762440,-19101560,-19101560,3671875
2026-01-14 16:52:40.421,23573100,7414606,-45342190,85427680,-19990230,-15527340,36445310
2026-01-14 16:52:40.431,51124540,6352912,-46196720,57306550,-20742190,-11738280,35839840
2026-01-14 16:52:40.441,-25492790,5204896,-47085780,36275480,-215625,-77441410,35019530
2026-01-14 16:52:40.451,2273581,3979202,-47966220,8443504,-22382810,-35668940,33710940
2026-01-14 16:52:40.461,22450980,2667182,-48881180,84046620,-23300780,9564209,32148440
2026-01-14 16:52:40.471,2215749,1286118,-49796130,8361503,-2375,6196289,30117190
2026-01-14 16:52:40.481,-25382300,22738420,-27825930,35885320,-23710940,11240230,26972660
2026-01-14 16:52:40.491,21605080,-1665916,-51626050,82631020,-23046880,16572270,24042970
2026-01-14 16:52:40.501,21337500,-322828,-5253238,82087220,-21972660,215625,20332030
2026-01-14 16:52:40.511,-25073290,21384970,-27211350,35331170,-20507810,25449220,16230470
2026-01-14 16:52:40.521,-24936050,20880020,-26956720,35105880,-18466800,30136720,12246090
2026-01-14 16:52:40.531,-24774630,-29274320,-33978580,34852980,-15751950,3359375,77783200
2026-01-14 16:52:40.541,2032759,-973653,3,-5596778,7952362,-12324220,36484380,27563480
2026-01-14 16:52:40.551,20068640,-11359290,-56744630,78815820,-85839840,38554690,-23071290
2026-01-14 16:52:40.561,19801060,18757490,-25799210,78099390,-42089840,40117190,-7416992
2026-01-14 16:52:40.571,19533480,-14432160,-58177490,77382960,28137210,40859380,-12099610
2026-01-14 16:52:40.581,-23920960,-37134410,-37564100,33514200,54003900,40390620,-16679690
2026-01-14 16:52:40.591,1895515,17280610,-24945540,7599327,10253910,39199220,-20878910
2026-01-14 16:52:40.601,1863579,-1844589,-6001604,7532862,14316410,37519530,-25195310
2026-01-14 16:52:40.611,43687490,-19559380,-60542570,49327430,18144530,34882810,-28554690
2026-01-14 16:52:40.621,17962510,16161940,-24320610,74120190,21640620,32421880,-315625
2026-01-14 16:52:40.631,17617250,-39445890,-43452710,73585020,25039060,28964840,-334375
2026-01-14 16:52:40.641,-2339705,-22157510,-61897740,3243264,2765625,25917970,-34453120
2026-01-14 16:52:40.651,16926710,15505080,-24010730,72652800,29667970,22285160,-346875
2026-01-14 16:52:40.661,41661640,15393730,-23983970,47227340,30839840,18701170,-34570310
2026-01-14 16:52:40.671,41345720,15314320,-23977070,46904520,32050780,15175780,-3375
2026-01-14 16:52:40.681,16106710,-2398745,-6324429,71608370,32695310,11738280,-32148440
2026-01-14 16:52:40.691,-23335740,-41920590,-45846280,32062350,33398440,8852539,-30507810
2026-01-14 16:52:40.701,15821860,-2447083,-6372767,71081840,34023440,5776367,-28613280
2026-01-14 16:52:40.711,-23212300,-24660690,-63934810,31875040,34941410,28979490,-26953120
2026-01-14 16:52:40.721,-26990730,-42507540,-46433230,27854930,35566410,37963870,-25371090
2026-01-14 16:52:40.731,-22970610,15148590,-24073740,31598830,36503900,-23706060,-23925780
2026-01-14 16:52:40.741,42835280,15108020,-24062520,43377870,3765625,-5161133,-22734380
2026-01-14 16:52:40.751,-26534460,-25351230,-64452710,27396240,38769530,-75097660,-21796880
2026-01-14 16:52:40.761,16322490,14997530,-24000370,69890660,39648440,-96972660,-21152340
2026-01-14 16:52:40.771,40472190,-2567062,-6456494,45792760,40546880,-11572270,-20625
2026-01-14 16:52:40.781,-22095360,14865470,-23908010,30730490,41445310,-13173830,-20351560
2026-01-14 16:52:40.791,16978500,18873330,-19779310,69459080,42304690,-14375,-20097660
2026-01-14 16:52:40.801,17211560,-26102180,-64633980,69346870,43046880,-15253910,-19785160
2026-01-14 16:52:40.811,17427350,18759910,-19668310,69251920,434375,-15917970,-19472660
2026-01-14 16:52:40.821,17625880,-26292080,-64633980,69174240,43828120,-15732420,-19287110
2026-01-14 16:52:40.831,1782440,14588390,-23684450,6911383,43671880,-15322270,-1921875
2026-01-14 16:52:40.841,18005670,-43578740,-47399110,69070660,4359375,-14414060,-19082030
2026-01-14 16:52:40.851,1816967,14545230,-23641290,6904478,43671880,-13154300,-18828120
2026-01-14 16:52:40.861,41149780,-26361140,-64547660,46220030,4390625,-11191410,-18886720
2026-01-14 16:52:40.871,-20897290,14578030,-23660280,29649800,44140620,-9057617,-19267580
2026-01-14 16:52:40.881,-20829090,-2618851,-6451312,29597150,44726560,-7089844,-1953125
2026-01-14 16:52:40.891,-20777310,14704920,-23757820,29562620,44960940,-38867190,-20058590
2026-01-14 16:52:40.901,-20742780,14811090,-23841550,29545360,44375,-55541990,-20703120
2026-01-14 16:52:40.911,-20725520,-25567020,-64478610,29545360,4359375,3461914,-21601560
2026-01-14 16:52:40.921,-2514829,15125290,-24097050,2515713,43046880,8120117,-22128910
2026-01-14 16:52:40.931,-20758320,15326400,-24258460,29616140,425,11669920,-21835940
2026-01-14 16:52:40.941,19127790,15565500,-24450950,69640350,41835940,13632810,-21230470
2026-01-14 16:52:40.951,-20893830,15824450,-24658100,29791360,40273440,14589840,-20410160
2026-01-14 16:52:40.961,-20993960,16104980,-24878210,29915660,38496100,14990230,-19404300
2026-01-14 16:52:40.971,-21101860,16414850,-25120760,30049450,35703120,15009770,-18017580
2026-01-14 16:52:40.981,-21225290,-41053110,-45263640,30202220,32734380,15302730,-16962890
2026-01-14 16:52:40.991,19188210,-2140659,-6408156,70926460,29882810,16289060,-15517580
2026-01-14 16:52:41.001,-21489420,-40132110,-44458300,30542310,27011720,17441410,-1390625
2026-01-14 16:52:41.011,19326320,-1987878,-6372766,71651530,24746090,18291020,-12050780
2026-01-14 16:52:41.021,1942989,18071270,-26330060,7204860,22246090,19267580,-9941406
2026-01-14 16:52:41.031,-21836410,-18281890,-63218380,31041220,19726560,19960940,-8144531
2026-01-14 16:52:41.041,19775160,18700520,-26736610,72877220,16845700,20683590,-63720700
2026-01-14 16:52:41.051,-21988330,-16624600,-62545110,31320890,13691410,21328120,-45043940
2026-01-14 16:52:41.061,-26262130,-36663040,-41298240,27202460,1046875,21992190,-30273440
2026-01-14 16:52:41.071,20612440,19548150,-27218260,74197870,75878900,22324220,-1661377
2026-01-14 16:52:41.081,2096633,19794160,-27334790,7463810,45263670,22070310,-12702940
2026-01-14 16:52:41.091,21346130,20033250,-27440960,75086940,15014650,21835940,12573240
2026-01-14 16:52:41.101,-22015090,20255950,-27529000,31742980,-11022950,21132810,27954100
2026-01-14 16:52:41.111,-21971930,20470880,-27607550,31786140,-36499020,19970700,42944340
2026-01-14 16:52:41.121,-21919280,-10815490,-59170130,31821530,-60498050,18417970,5410156
2026-01-14 16:52:41.131,-21849360,-34269340,-34317950,31839660,-82714850,16494140,69433590
2026-01-14 16:52:41.141,-21763040,-9166844,-58022120,31839660,-10322270,15214840,8178711
2026-01-14 16:52:41.151,24047840,21259810,-27837150,77564220,-12324220,13535160,94873050
2026-01-14 16:52:41.161,-21583510,21441940,-27879440,31829300,-13964840,11552730,10791020
2026-01-14 16:52:41.171,24971440,-29019690,-33974270,78280660,-15644530,9165039,11982420
2026-01-14 16:52:41.181,2541164,-28326570,-33303590,7861728,-17011720,734375,12578130
2026-01-14 16:52:41.191,25825970,-27641210,-32642400,78928030,-1875,5083008,13574220
2026-01-14 16:52:41.201,26223020,-26965350,-31988990,79221500,-1984375,27905270,14453130
2026-01-14 16:52:41.211,2658555,22346540,-28114230,7949773,-21152340,9289551,15185550
2026-01-14 16:52:41.221,26922190,-25673190,-30743430,79765300,-22109380,-960083,15966800
2026-01-14 16:52:41.231,2720702,-2140656,-53067540,8001562,-23027340,-28955080,16523440
2026-01-14 16:52:41.241,-21010360,-24467350,-29584200,31780960,-23691410,-49072260,17421880
2026-01-14 16:52:41.251,2767314,-23894200,-29035230,8048172,-2453125,-6855469,17949220
2026-01-14 16:52:41.261,27845780,-23347820,-28511280,80688900,-25566410,-828125,18574220
2026-01-14 16:52:41.271,27992520,500632,-51358460,80887420,-26113280,-99902340,19345700
2026-01-14 16:52:41.281,51937640,1078958,-50987300,57235770,-27265620,-11611330,20332030
2026-01-14 16:52:41.291,2817379,162275,-5065067,8125858,-27988280,-13154300,21191410
2026-01-14 16:52:41.301,-21111350,212337,5,-5032265,32077030,-28925780,-14921880,21894530
2026-01-14 16:52:41.311,28277360,23919230,-28664930,81586580,-296875,-16103520,22695310
2026-01-14 16:52:41.321,-21195940,2960660,-49744340,32199600,-30527340,-17177730,23691410
2026-01-14 16:52:41.331,-21230470,3297298,-49494020,32251390,-30976560,-18583980,24199220
2026-01-14 16:52:41.341,-21248590,3573512,-49269600,32285050,-31367190,-19755860,24394530
2026-01-14 16:52:41.351,28475890,-19989240,-25275270,82044060,-31328120,-20683590,24550780
2026-01-14 16:52:41.361,-21251180,-19816600,-25102630,32316990,-31503910,-21816410,24101560
2026-01-14 16:52:41.371,28631270,407411,3,-4873445,82164910,-31308590,-22851560,23417970
2026-01-14 16:52:41.381,-21194210,412592,5,-4861358,32287640,-31054690,-2421875,22539060
2026-01-14 16:52:41.391,-21145020,4134570,-48518640,32250530,-30878910,-25390620,21347660
2026-01-14 16:52:41.401,-21087180,4100044,-48449590,32204780,-3015625,-26230470,20019530
2026-01-14 16:52:41.411,29054210,4013724,-48415060,82225330,-29707030,-26679690,18652340
2026-01-14 16:52:41.421,-20956840,3892880,-48397800,32093430,-29570310,-26386720,17548830
2026-01-14 16:52:41.431,2925273,23834640,-28300670,8216492,-2984375,-25273440,16953120
2026-01-14 16:52:41.441,-25838320,-19851990,-25049980,26953010,-30039060,-23925780,16445310
2026-01-14 16:52:41.451,-25777890,3314560,-48510010,26892590,-30429690,-22050780,15898440
2026-01-14 16:52:41.461,53097740,3046980,-48604960,58354430,-31640620,-19765620,15214840
2026-01-14 16:52:41.471,-20670270,23440170,-28039130,31810310,-328125,-17207030,14375
2026-01-14 16:52:41.481,-20649560,-20680630,-25809570,31779230,-34179690,-13613280,13857420
2026-01-14 16:52:41.491,2939083,2011178,-49071070,8178511,-35214840,-10585940,13046880
2026-01-14 16:52:41.501,-20638340,1570964,-49286860,31738670,-36152340,-72802740,12236330
2026-01-14 16:52:41.511,-20649560,1087590,-49545810,31727450,-36601560,-42089840,11679690
2026-01-14 16:52:41.521,52640260,543796,-49830660,57879690,-3671875,-1862793,10859380
2026-01-14 16:52:41.531,-25663180,22539890,-27558340,26765610,-36152340,30944820,96875
2026-01-14 16:52:41.541,2873483,-673270,-50478030,8118090,-35234380,18017580,84472660
2026-01-14 16:52:41.551,2856221,-132927,8,-5082330,8100827,-34414060,2376709,6958008
2026-01-14 16:52:41.561,2838094,21922730,-27243290,8082701,-32929690,2265625,546875
2026-01-14 16:52:41.571,-20763500,-2718982,-51574250,31648040,-31738280,18188480,4111328
2026-01-14 16:52:41.581,-20756590,21495460,-27031810,31603150,-303125,18518070,26220700
2026-01-14 16:52:41.591,2791481,-4117308,-52333840,8018826,-28769530,15307620,14929200
2026-01-14 16:52:41.601,27776730,21077680,-26828110,79946570,-26894530,12817380,15899660
2026-01-14 16:52:41.611,-20647830,-5463852,-53076170,31383910,-25117190,12658690,-10333250
2026-01-14 16:52:41.621,27578200,20682350,-26636480,79437300,-23789060,15393070,-23620600
2026-01-14 16:52:41.631,27491880,-27910520,-32614780,79178350,-21796880,2199707,-3557129
2026-01-14 16:52:41.641,27414190,-7354190,-54137860,78910770,-20390620,26586910,-46704100
2026-01-14 16:52:41.651,2735375,-7941140,-54483130,7864318,-18974610,34179690,-56103520
2026-01-14 16:52:41.661,-20267170,-8519468,-54819770,30832340,-17724610,43701170,-61083980
2026-01-14 16:52:41.671,27189770,19825230,-26250650,78099390,-16396480,55078120,-6899414
2026-01-14 16:52:41.681,-20123020,-9650214,-55501670,30613960,-15273440,67285150,-76416020
2026-01-14 16:52:41.691,26973980,-10202640,-55829670,77555590,-14423830,8022461,-8144531
2026-01-14 16:52:41.701,26827250,-33229270,-33683470,77288020,-13515630,9038086,-8574219
2026-01-14 16:52:41.711,26680510,-11298860,-56494310,77020430,-12724610,10097660,-8979492
2026-01-14 16:52:41.721,26499240,19060460,-25927820,76752850,-11865230,11650390,-93359380
2026-01-14 16:52:41.731,2630932,-12412350,-57158950,7649389,-10693360,12841800,-95214850
2026-01-14 16:52:41.741,48653290,-12973410,-57478330,53666570,-10097660,13964840,-10146480
2026-01-14 16:52:41.751,2588639,-1355173,-5779769,7595011,-9013672,14697270,-10449220
2026-01-14 16:52:41.761,2567923,18363020,-25589460,7569117,-7788086,15185550,-10585940
2026-01-14 16:52:41.771,-19918460,-14777430,-58401910,30007150,-66748050,15419920,-11132810
2026-01-14 16:52:41.781,-24400280,-1541618,-5867811,25404480,-5654297,15410160,-11572270
2026-01-14 16:52:41.791,47511330,17672490,-25175140,52477990,-41552740,15498050,-121875
2026-01-14 16:52:41.801,25049120,-1677138,-5917014,74525880,-30639650,15234380,-12832030
2026-01-14 16:52:41.811,-24121560,-17479140,-59377290,25113510,-14147950,14931640,-13525390
2026-01-14 16:52:41.821,2495416,-36818410,-40952980,7391301,23483280,1390625,-14443360
2026-01-14 16:52:41.831,49271180,-18955160,-59696660,49319800,14245610,13222660,-15371090
2026-01-14 16:52:41.841,-19199440,16067860,-24017630,29034360,27539060,12109380,-16103520
2026-01-14 16:52:41.851,46698220,15690660,-23721570,51478440,44311520,10742190,-16914060
2026-01-14 16:52:41.861,2535984,-21199390,-59886550,7269596,57470700,9321289,-17558590
2026-01-14 16:52:41.871,46661100,14873240,-23054340,51342920,73876950,7949219,-18144530
2026-01-14 16:52:41.881,-18250810,14460640,-22707340,28049490,91748050,6489258,-18632810
2026-01-14 16:52:41.891,-17972010,-23348680,-59722550,27775860,10429690,47827150,-19375
2026-01-14 16:52:41.901,26464720,13600060,-21962440,71660160,11289060,35058590,-19443360
2026-01-14 16:52:41.911,-17410090,-24686590,-59437710,27232930,11826170,24230960,-19833980
2026-01-14 16:52:41.921,-17134740,-25316700,-59256450,26973120,12207030,18041990,-19863280
2026-01-14 16:52:41.931,2750049,-25938180,-59049290,7105593,12714840,15856930,-19599610
2026-01-14 16:52:41.941,2784577,11865100,-20400100,7088332,12792970,15710450,-19365230
2026-01-14 16:52:41.951,28208310,11432650,-20003910,70727940,12578130,20837400,-19394530
2026-01-14 16:52:41.961,28562210,-41490740,-44549800,70563940,11904300,29663090,-19785160
2026-01-14 16:52:41.971,28898850,-28329160,-58056650,70399940,11679690,42895510,-20351560
2026-01-14 16:52:41.981,29244110,10087830,-18759220,70227300,11064450,58984380,-20898440
2026-01-14 16:52:41.991,-15259940,-42139830,-44936500,25222610,10986330,77246100,-21503910
2026-01-14 16:52:42.001,29891490,9153025,-17898640,69856140,10986330,8251953,-22167970
2026-01-14 16:52:42.011,3021085,8674832,-17461880,6964036,12431640,79296870,-22070310
2026-01-14 16:52:42.021,30538860,-31548780,-56753260,69398660,13662110,6616211,-2171875
2026-01-14 16:52:42.031,30858240,-32256570,-56511580,69131080,15097660,32836910,-21132810
2026-01-14 16:52:42.041,-13815860,-32947100,-56287150,23818240,1640625,-58013920,-20527340
2026-01-14 16:52:42.051,31548770,-33637640,-56062730,68509600,17597660,-41918940,-19492190
2026-01-14 16:52:42.061,3194582,6264870,-15279790,6818160,19179690,-7504883,-18974610
2026-01-14 16:52:42.071,-12745530,-44246830,-46316700,22765180,21269530,-99121100,-18173830
2026-01-14 16:52:42.081,32757210,-35484820,-55423990,67525590,24042970,-11621090,-16923830
2026-01-14 16:52:42.091,33171520,-35994090,-55225460,67214850,26855470,-12402340,-15761720
2026-01-14 16:52:42.101,-11658810,-36399770,-55044190,21711250,29023440,-11992190,-14433590
2026-01-14 16:52:42.111,-11359290,-36727780,-54888820,21423810,31308590,-11386720,-13203130
2026-01-14 16:52:42.121,-11102060,4304616,-13476630,21180400,3296875,-9926758,-11367190
2026-01-14 16:52:42.131,34509430,-37098940,-54638500,66412100,33652340,-82666020,-99853520
2026-01-14 16:52:42.141,-10768880,82422140,-91592420,20874840,33398440,-64160160,-8359375
2026-01-14 16:52:42.151,-10701560,41112660,-132729300,20821330,32226560,-45629880,-7314453
2026-01-14 16:52:42.161,34897860,82693170,-91839300,66420740,30839840,-32080080,-6176758
2026-01-14 16:52:42.171,34906490,4241602,-13367010,66532940,29082030,-18920900,-46191410
2026-01-14 16:52:42.181,34863340,4357267,-13458510,66696950,26953120,-12890630,-28295900
2026-01-14 16:52:42.191,-10970000,4501418,-13573310,21139830,24980470,-14660650,-12359620
2026-01-14 16:52:42.201,-11127090,4648156,-13685520,21310740,22304690,-18737790,13557430
2026-01-14 16:52:42.211,3460438,-3570061,-5431050,6740475,1984375,-21984860,14587400
2026-01-14 16:52:42.221,34509430,4945947,-13905630,67689590,17021480,-21777340,29614260
2026-01-14 16:52:42.231,34440380,-3503599,-5411198,67983070,14707030,-18115230,41870120
2026-01-14 16:52:42.241,-11809860,-3471660,-5396522,22078100,12294920,-40618900,51464840
2026-01-14 16:52:42.251,-11941060,-34414480,-53766700,22240370,9873047,14855960,55908200
2026-01-14 16:52:42.261,49956680,-34138280,-53525020,53398990,7504883,38916020,6142578
2026-01-14 16:52:42.271,-12118870,-33887950,-53240170,22494140,5449219,66015620,62597660
2026-01-14 16:52:42.281,34725220,-3366356,-5291218,69459090,35766600,10097660,67578130
2026-01-14 16:52:42.291,-12176700,-3346501,-5254099,22643470,1899414,13974610,6660156
2026-01-14 16:52:42.301,35165440,8989972,-9844340,70002880,4916382,17695310,6645508
2026-01-14 16:52:42.311,-12124910,5036581,-13521520,22695260,-121276900,20351560,66015620
2026-01-14 16:52:42.321,-12072260,4901927,-13328170,22696120,-2607422,21367190,64941410
2026-01-14 16:52:42.331,-16815630,-32886680,-50754240,17883710,-40039060,2078125,7138672
2026-01-14 16:52:42.341,-11936750,-32765830,-50253610,22676270,-51220700,18916020,7114258
2026-01-14 16:52:42.351,-11846110,-32636360,-49727070,22646060,-61621100,16298830,7685547
2026-01-14 16:52:42.361,-11754620,-32498250,-49174650,22616710,-7216797,13212890,77197260
2026-01-14 16:52:42.371,52908710,40914130,-121879200,56333760,-8222656,10068360,76660160
2026-01-14 16:52:42.381,-11569900,3922232,-11942790,22559740,-9511719,7211914,7739258
2026-01-14 16:52:42.391,-11485310,-3894095,-4048773,22540760,-99902340,5,79003900
2026-01-14 16:52:42.401,-16405100,3604586,-11466320,17517380,-10996090,26953120,84472660
2026-01-14 16:52:42.411,-11333390,69652430,-77431300,22520040,-1203125,713501,87109380
2026-01-14 16:52:42.421,-11275560,-3128983,-4565293,22526080,-12998050,-10430910,9042969
2026-01-14 16:52:42.431,39679800,69794940,-70556090,73446910,-14091800,-26879880,93408200
2026-01-14 16:52:42.441,39973280,-3078922,-4451357,73740390,-15185550,-48461910,92871100
2026-01-14 16:52:42.451,-11170250,-36582760,-37925850,22596860,-1625,-6958008,9472656
2026-01-14 16:52:42.461,-11161620,2889884,-10264790,22640020,-1703125,-9506836,9477539
2026-01-14 16:52:42.471,-11155570,2795798,-10099920,22680590,-17275390,-10839840,10087890
2026-01-14 16:52:42.481,-1117027,-29882860,-42536890,2273496,-17675780,-12753910,11240230
2026-01-14 16:52:42.491,-11204780,58468370,-65655100,22804020,-178125,-15273440,12626950
2026-01-14 16:52:42.501,41078140,2515267,-9655393,75190510,-18544920,-18330080,14697270
2026-01-14 16:52:42.511,41138560,24125520,-95164210,75354520,-1921875,-21152340,15849610
2026-01-14 16:52:42.521,-11300590,-2953760,-4122487,22967160,-19628910,-23300780,15644530
2026-01-14 16:52:42.531,56689390,2184675,-9243662,60114440,-20234380,-25429690,15400390
2026-01-14 16:52:42.541,-11246210,-29675700,-40827820,22935220,-20410160,-26621090,14003910
2026-01-14 16:52:42.551,41483830,1902418,-8956227,75475360,-20351560,-26777340,12412110
2026-01-14 16:52:42.561,-11016610,1741008,-8806897,22715980,-19619140,-2609375,10537110
2026-01-14 16:52:42.571,41785940,47555340,-54643680,75190520,-18652340,-24765620,890625
2026-01-14 16:52:42.581,-10657530,-30668340,-40542980,22349990,-17421880,-23007810,8203125
2026-01-14 16:52:42.591,-10446050,-31048140,-40560240,22129890,-16552730,-20976560,6845703
2026-01-14 16:52:42.601,42295210,42229600,-49438780,74387780,-15537110,-18710940,5673828
2026-01-14 16:52:42.611,42433310,-31928570,-40732880,74059770,-15087890,-16132810,48828120
2026-01-14 16:52:42.621,-9758972,38631060,-45959350,21384110,-14541020,-1296875,37304690
2026-01-14 16:52:42.631,-9540592,36956510,-44353860,21136380,-14082030,-9790039,26611330
2026-01-14 16:52:42.641,42692260,165725,-7637308,72937650,-13496090,-69873050,1796875
2026-01-14 16:52:42.651,-9144399,-293476,-75216420,20669410,-13046880,-4255371,7550049
2026-01-14 16:52:42.661,42700900,-34561230,-41760040,72117640,-12734380,-19592280,-26031490
2026-01-14 16:52:42.671,-8799995,30668340,-38385060,20236960,-12353520,26107790,-11022950
2026-01-14 16:52:42.681,-8633402,-578323,-7224712,20023760,-11992190,2680664,-20117190
2026-01-14 16:52:42.691,42562780,27992520,-35881870,70857420,-11386720,47583010,-2722168
2026-01-14 16:52:42.701,4250235,-36805460,-42951210,7041718,-10615230,6748047,-33032230
2026-01-14 16:52:42.711,-8146579,-10703280,-69916560,19388470,-93115230,86865230,-37670900
2026-01-14 16:52:42.721,42390150,-12153400,-69295090,69528140,-796875,10224610,-37231440
2026-01-14 16:52:42.731,42355620,-38359160,-43900700,69079290,-62158200,11015630,-36499020
2026-01-14 16:52:42.741,-7607096,22778120,-31083520,18702250,-3947754,11679690,-35766600
2026-01-14 16:52:42.751,-1238648,-15580170,-68233380,1349130,-15649410,12236330,-36523440
2026-01-14 16:52:42.761,-7229894,-16365650,-68155700,18233550,10784910,12724610,-3293457
2026-01-14 16:52:42.771,4227793,25123780,-25975730,6734434,3317871,12880860,-36645510
2026-01-14 16:52:42.781,-6882899,21085450,-29668790,17803690,5498047,12714840,-35888670
2026-01-14 16:52:42.791,-6738749,24945020,-25809220,17619840,7504883,12871090,-32348630
2026-01-14 16:52:42.801,42174360,-17850310,-69122460,66256730,9160156,12734380,-26293940
2026-01-14 16:52:42.811,52842250,21693980,-30441330,55226320,10820310,1296875,-20983890
2026-01-14 16:52:42.821,52678240,-17392830,-70563940,55045050,1203125,13496090,-15136720
2026-01-14 16:52:42.831,-6395209,2735798,-2736683,17134740,12880860,13984380,-109191900
2026-01-14 16:52:42.841,-6377082,23699990,-32578530,17083810,13398440,13759770,-36102300
2026-01-14 16:52:42.851,-6375358,-15493860,-73671340,17051010,14121090,12695310,42785640
2026-01-14 16:52:42.861,-6390029,-1470838,-7478483,17036340,14912110,10390630,14147950
2026-01-14 16:52:42.871,-6412474,-13914260,-75889680,17031160,15371090,7651367,22814940
2026-01-14 16:52:42.881,-6441821,27433190,-36441200,17036340,15898440,4633789,31884770
2026-01-14 16:52:42.891,-6478936,-1235193,-7795265,17051010,16171880,14208980,36621100
2026-01-14 16:52:42.901,-6505694,-1175635,-7873813,17058780,16308590,-99487300,36206060
2026-01-14 16:52:42.911,40888240,29648940,-38713930,64504500,16455080,-26879880,3828125
2026-01-14 16:52:42.921,51461180,-10677380,-80076050,53827990,16005860,-3395996,3491211
2026-01-14 16:52:42.931,40750130,30589790,-39672040,64469980,16171880,-3461914,32373050
2026-01-14 16:52:42.941,40706970,34849350,-35757750,64461340,16230470,-28955080,2980957
2026-01-14 16:52:42.951,-6645530,-10038640,-80818370,17160630,15751950,-21740720,2668457
2026-01-14 16:52:42.961,40655180,30676100,-39758360,64513130,15644530,-8984375,20947270
2026-01-14 16:52:42.971,-6686961,30418880,-39497680,17205520,146875,60821530,1685791
2026-01-14 16:52:42.981,-6701635,-10927700,-79808460,17225370,1359375,21777340,11517330
2026-01-14 16:52:42.991,-6706813,29216490,-38283200,17237460,12441410,37841800,35125730
2026-01-14 16:52:43.001,40732870,-1240375,-7817710,64659870,11630860,46069340,-4937744
2026-01-14 16:52:43.011,40810560,27327010,-36374740,64703030,10849610,52001950,-11114500
2026-01-14 16:52:43.021,-6629127,2612462,-3516026,17194300,10380860,5024414,-16577150
2026-01-14 16:52:43.031,41043610,24837640,-33857740,64763450,10292970,4802246,-19677730
2026-01-14 16:52:43.041,-6499651,-1704757,-7298081,17099350,10410160,44140620,-23791500
2026-01-14 16:52:43.051,41371610,-18325050,-71496170,64849770,10429690,44067380,-2541504
2026-01-14 16:52:43.061,41552880,-4226934,-4732749,64892930,10683590,3876953,-26489260
2026-01-14 16:52:43.071,4175138,-20586550,-68751290,6495334,10605470,34765620,-28857420
2026-01-14 16:52:43.081,41932670,18592620,-27500520,65031040,10849610,33325200,-28149410
2026-01-14 16:52:43.091,-6136258,-2220930,-6657610,16858520,10634770,32373050,-26904300
2026-01-14 16:52:43.101,42277940,-22658150,-65816520,65220930,10488280,28710940,-22851560
2026-01-14 16:52:43.111,42424680,20793180,-21674650,65350410,10029300,2944336,-22131350
2026-01-14 16:52:43.121,-10948590,16843850,-25623990,12028930,9394531,2915039,-17736820
2026-01-14 16:52:43.131,-6117269,17120060,-25865680,16946570,8510742,28051760,-13244630
2026-01-14 16:52:43.141,4267499,-2154466,-6556620,6587694,7866211,23144530,-9106445
2026-01-14 16:52:43.151,42683630,18449340,-27125900,66092730,64941410,1821289,-2772522
2026-01-14 16:52:43.161,42674990,19503270,-28143580,66325780,50634770,15673830,44067380
2026-01-14 16:52:43.171,-6503966,-1799705,-6806075,17423030,3791504,9259033,10223390
2026-01-14 16:52:43.181,-6649843,22126430,-30699410,17587900,23339840,13153080,118652300
2026-01-14 16:52:43.191,-6805214,-39921490,-45480290,17760530,1307373,-19042970,16418460
2026-01-14 16:52:43.201,42390150,25006820,-33515930,67301170,12771610,-6488037,19787600
2026-01-14 16:52:43.211,-7145301,-3931728,-4548029,18128240,-8093262,-7598877,25561520
2026-01-14 16:52:43.221,-7330884,-9891896,-74629460,18322460,-16345220,-7946777,40893560
2026-01-14 16:52:43.231,41967200,-8131044,-76148640,68034860,-30029300,-11773680,56396480
2026-01-14 16:52:43.241,5500502,-38471380,-45583870,5503154,-4165039,-1616211,6953125
2026-01-14 16:52:43.251,-7979123,33010110,-41394920,18986230,-5473633,-17810060,80859380
2026-01-14 16:52:43.261,-8203544,-3797074,-4570472,19210650,-671875,-19677730,8520508
2026-01-14 16:52:43.271,41095400,35961280,-44313300,68958450,-7714844,-2607422,84716800
2026-01-14 16:52:43.281,4088824,-35390,25,-8304534,6914835,-82128900,-30517580,82177740
2026-01-14 16:52:43.291,40698340,820000,-84115670,69303710,-8823242,-31103520,77734380
2026-01-14 16:52:43.301,4053432,39170540,-47491470,6943321,-8881836,-30273440,7050781
2026-01-14 16:52:43.311,-9064122,244275,5,-8560031,20059150,-85302740,-2692871,59228520
2026-01-14 16:52:43.321,40327180,290021,-8600602,69605820,-74560540,-2043457,45922850
2026-01-14 16:52:43.331,40275390,-37064410,-46006830,69657620,-6376953,-116882300,3010254
2026-01-14 16:52:43.341,-9238480,335770,8,-8641169,20230060,-49291990,-4360962,20678710
2026-01-14 16:52:43.351,4018908,-3701263,-4602409,6972667,-37475580,14450070,37841800
2026-01-14 16:52:43.361,-9298904,-41059150,-41960290,20290480,-3083496,9283447,-10076900
2026-01-14 16:52:43.371,-9324800,-36986730,-46015460,20316370,-17480470,12438970,-19628910
2026-01-14 16:52:43.381,-9359326,41081590,-49378360,20350900,-11791990,18676760,-28222660
2026-01-14 16:52:43.391,-9411982,3841092,-86791490,20401830,-826416,23291020,-36694340
2026-01-14 16:52:43.401,39973280,41343130,-49634720,69907930,-8984375,25708010,-42407230
2026-01-14 16:52:43.411,39886960,41603800,-49891940,69976980,-8026123,24987790,-44091800
2026-01-14 16:52:43.421,-9647624,-36814090,-46015460,20632290,-12536620,1998291,-47583010
2026-01-14 16:52:43.431,39662550,495455,3,-8774962,70149620,-22888180,1385498,-46679690
2026-01-14 16:52:43.441,-9857374,-36701880,-46024090,20836860,-29223630,12683110,-4777832
2026-01-14 16:52:43.451,-9953184,553289,3,-8820707,20930950,-38330080,7434082,-47460940
2026-01-14 16:52:43.461,-10039500,-36598300,-46006820,21017260,-45825200,-3271103,-47558590
2026-01-14 16:52:43.471,-10107690,-36563780,-45989560,21087180,-48242190,-36315920,-5131836
2026-01-14 16:52:43.481,39256860,589539,8,-8836247,70555310,-5263672,-75927740,-53515620
2026-01-14 16:52:43.491,-10182790,584363,3,-8824160,21167450,-50146480,-15100100,-5463867
2026-01-14 16:52:43.501,3924822,579185,3,-8812077,7065026,-42382810,-18359380,-54541020
2026-01-14 16:52:43.511,-10212140,-36451560,-45791030,21207160,-38305660,-23388670,-5649414
2026-01-14 16:52:43.521,-10208680,-3642568,-4573061,21210610,-36401370,-2861328,-60009770
2026-01-14 16:52:43.531,-10205230,-36417040,-45670190,21214060,-34960940,-3178711,-62841800
2026-01-14 16:52:43.541,39360430,4199307,-5019321,70796990,-35546880,-33862300,-6347656
2026-01-14 16:52:43.551,-10207820,4963212,-86877810,21228740,-37670900,-3708496,-6171875
2026-01-14 16:52:43.561,39420850,41570140,-49752980,70857410,-3984375,-41674800,-5986328
2026-01-14 16:52:43.571,39438120,45080120,-45897720,70891940,-41015620,-42700200,-60058590
2026-01-14 16:52:43.581,-10207820,41231780,-49400800,21246010,-44995120,-45141600,-61572260
2026-01-14 16:52:43.591,-10197460,432445,8,-8596283,21239100,-47924800,-4987793,-61083980
2026-01-14 16:52:43.601,-10186240,-36304820,-45299020,21233050,-4970703,-50878900,-61572260
2026-01-14 16:52:43.611,-10167250,401372,-8558304,21217520,-52490230,-52685550,-62597660
2026-01-14 16:52:43.621,39602120,375474,8,-8532411,70917840,-50683590,-5361328,-6225586
2026-01-14 16:52:43.631,3965391,358214,3,-8515147,7088331,-48999020,-50878900,-63720700
2026-01-14 16:52:43.641,-10035190,-36391140,-45212710,21090630,-46118160,-48901370,-6347656
2026-01-14 16:52:43.651,39783380,302968,5,-8466811,70788360,-421875,-4597168,-6328125
2026-01-14 16:52:43.661,39852430,2839816,-84512730,70719300,-36767580,-41845700,-6459961
2026-01-14 16:52:43.671,39921490,39416540,-47590740,70650260,-2980957,-35253900,-6582031
2026-01-14 16:52:43.681,53756340,2606764,-84400510,56815400,-2467041,-27368160,-6586914
2026-01-14 16:52:43.691,-9698552,39410500,-47596780,20754000,-2211914,-2163086,-68115230
2026-01-14 16:52:43.701,-9630362,39493360,-47686550,20684080,-19616700,-117492700,-6826172
2026-01-14 16:52:43.711,40163180,-36624200,-45393980,70356780,-17236330,-8685303,-6611328
2026-01-14 16:52:43.721,-14989770,-36632830,-45454400,15100250,-16455080,-24353030,-62109380
2026-01-14 16:52:43.731,40232230,345263,8,-8562623,70218670,-1505127,3353882,-6035156
2026-01-14 16:52:43.741,40249500,-36606940,-45635660,70149620,-14941410,55023190,-5683594
2026-01-14 16:52:43.751,40266760,41631420,-49864320,70080570,-14245610,7672119,-54248050
2026-01-14 16:52:43.761,-9356736,-3654652,-4585146,20388020,-14807130,9552002,-47729490
2026-01-14 16:52:43.771,-14286630,-40768260,-41716020,15389070,-15490720,14318850,-35083010
2026-01-14 16:52:43.781,-9302360,6888072,-89441410,20321550,-16333010,19311520,-18200680
2026-01-14 16:52:43.791,-9279050,763039,3,-9025278,20293070,-19091800,27514650,84350580
2026-01-14 16:52:43.801,-9255745,820008,-9089152,20264580,-17358400,34985350,35546880
2026-01-14 16:52:43.811,53552630,859712,-9135767,56501220,-13891600,34594730,57470700
2026-01-14 16:52:43.821,-9207406,891650,8,-9172879,20209340,-13427730,3425293,7841797
2026-01-14 16:52:43.831,53524150,905460,-9193599,56460640,-1418457,34838870,90234380
2026-01-14 16:52:43.841,-9140942,894240,-9187553,20137700,-14318850,30932620,10009770
2026-01-14 16:52:43.851,-9090020,-36494720,-46507460,20085040,-9680176,29833980,10263670
2026-01-14 16:52:43.861,40439390,-36572410,-46498830,69493620,-68237300,25708010,10283200
2026-01-14 16:52:43.871,40508450,745774,-9059807,69424560,-12046810,24914550,9633789
2026-01-14 16:52:43.881,-8884584,47834930,-48667190,19876160,75187680,19592280,86279300
2026-01-14 16:52:43.891,-8806898,581774,-8913066,19798470,55389400,16894530,7792969
2026-01-14 16:52:43.901,4073287,491142,3,-8831067,6916561,11975100,12573240,60253900
2026-01-14 16:52:43.911,4081915,4091412,-87576980,6907929,18396000,9466553,44995120
2026-01-14 16:52:43.921,40888240,335768,8,-8692961,68992980,23522950,7861328,28710940
2026-01-14 16:52:43.931,4094001,-37383780,-46274400,6890664,31591800,9240723,17565920
2026-01-14 16:52:43.941,40983190,-37487360,-46274410,68828980,39672850,1161499,53771970
2026-01-14 16:52:43.951,-8390852,39483870,-47868680,19368620,44873050,10076900,-25863650
2026-01-14 16:52:43.961,40991820,39306060,-47701220,68716760,48339840,11029050,-13256840
2026-01-14 16:52:43.971,40957290,39301740,-47705540,68682230,5053711,95703130,-22485350
2026-01-14 16:52:43.981,-8392581,1614124,-85738420,19349630,49194340,7946777,-28564450
2026-01-14 16:52:43.991,-8431420,3981100,-4823207,19379840,47485350,7733154,-37548830
2026-01-14 16:52:44.001,4073285,-37703160,-46593780,6864769,42919920,48675540,-38989260
2026-01-14 16:52:44.011,40637920,277936,5,-8716266,68656340,3605957,51696780,-43701170
2026-01-14 16:52:44.021,-8601468,3262772,-87715070,19520530,3071289,60455320,-45166020
2026-01-14 16:52:44.031,-8657572,-37651360,-46869990,19568000,26464840,66467280,-47753900
2026-01-14 16:52:44.041,40335810,-37634100,-46956310,68664970,19836430,18203740,-51953120
2026-01-14 16:52:44.051,-8752517,479920,5,-8945866,19645690,16784670,3139,973,-54003900
2026-01-14 16:52:44.061,-8782730,519626,-8992477,19667270,18359380,-10650640,-5336914
2026-01-14 16:52:44.071,-8802582,550700,-9030457,19681940,18408200,8079529,-5185547
2026-01-14 16:52:44.081,-8805174,43922270,-52407210,19679360,21838380,10307310,-5229492
2026-01-14 16:52:44.091,40120020,44178640,-52668760,68587290,27563480,34851070,-50390620
2026-01-14 16:52:44.101,4012000,48171560,-49021090,6855278,32885740,31555180,-49536130
2026-01-14 16:52:44.111,-8767193,44432410,-52932880,19631020,3557129,4675293,-44628900
2026-01-14 16:52:44.121,-8742160,-37642730,-47396520,19604260,43188480,56396480,-3894043
2026-01-14 16:52:44.131,40145920,-3764276,-4741381,68457810,43847660,7531738,-34692380
2026-01-14 16:52:44.141,40163180,640467,5,-9147850,68440540,46606440,119506800,-3178711
2026-01-14 16:52:44.151,40180440,648236,-9157345,68423280,42358400,11029050,-28759770
2026-01-14 16:52:44.161,40189080,665499,-9174609,68414660,4128418,13903810,-22021480
2026-01-14 16:52:44.171,40197710,674130,5,-9183240,68406020,36083980,16638180,-12756350
2026-01-14 16:52:44.181,-8673106,683628,5,-9191006,19535200,36938480,17272950,-33081060
2026-01-14 16:52:44.191,-8672242,693123,-9198775,19536070,35961910,19628910,7110596
2026-01-14 16:52:44.201,-8672244,-37565050,-47474210,19536070,3581543,18811040,14050290
2026-01-14 16:52:44.211,40223600,712110,5,-9214314,68431910,3581543,18261720,21264650
2026-01-14 16:52:44.221,-8687783,-41996550,-42990920,19555060,37841800,16809080,27026370
2026-01-14 16:52:44.231,-8713675,731965,-9228985,19580950,33374020,16699220,3173828
2026-01-14 16:52:44.241,4014590,-37461460,-47474210,6852685,2890625,14990230,32543940
2026-01-14 16:52:44.251,40094130,-37426940,-47491480,68561390,2319336,12634280,34399420
2026-01-14 16:52:44.261,-8862140,-3738379,-4750010,19725970,19580080,12414550,36645510
2026-01-14 16:52:44.271,-8923428,8407252,-93273870,19785520,16235350,10290530,3449707
2026-01-14 16:52:44.281,39886970,46943360,-55428300,68716760,10180660,11883550,30004880
2026-01-14 16:52:44.291,-9055491,-37254300,-47560530,19912410,61706540,94177250,23095700
2026-01-14 16:52:44.301,-9125408,947757,5,-9427514,19980600,61706540,7550049,18261720
2026-01-14 16:52:44.311,-14070840,982284,-9462041,15156010,44891360,6774902,119262700
2026-01-14 16:52:44.321,52773190,1017672,-9495708,55709690,3717041,6713867,35949710
2026-01-14 16:52:44.331,3948126,-41852400,-42910640,6896706,25604250,9057617,-30838010
2026-01-14 16:52:44.341,39420850,-37038520,-47707270,69010230,18356320,9466553,-101135300
2026-01-14 16:52:44.351,-9426656,11402450,-96148220,20266310,107803300,10418700,-13891600
2026-01-14 16:52:44.361,-9479308,49884170,-58357020,20317240,28514860,8648682,-17211910
2026-01-14 16:52:44.371,39230960,5023028,-5870145,69131080,6542206,9588623,-21057130
2026-01-14 16:52:44.381,-9575979,1238645,-9706317,20410460,-24963380,7635498,-2631836
2026-01-14 16:52:44.391,-9610505,1265403,-9731349,20444980,-43762210,7574463,-30419920
2026-01-14 16:52:44.401,-9636401,1275761,-9738255,20470880,-4196167,56243900,-31298830
2026-01-14 16:52:44.411,-9662297,-4175141,-4285626,20496780,-3768921,2432251,-3161621
2026-01-14 16:52:44.421,52672200,-42231340,-42341820,55689840,-17990110,-2866745,-32617190
2026-01-14 16:52:44.431,-9676972,-36745040,-47776320,20516630,9216309,-1171875,-3076172
2026-01-14 16:52:44.441,39118740,1291296,-9739983,69312340,20141600,-25543210,-3527832
2026-01-14 16:52:44.451,-9673520,-36727780,-47724530,20520080,15838620,-3414917,-35009770
2026-01-14 16:52:44.461,-9671794,-36710510,-47690000,20521800,30090330,-3427124,-33276370
2026-01-14 16:52:44.471,3918778,-36693250,-47655480,6936411,30761720,-5734253,-33862300
2026-01-14 16:52:44.481,52784410,-36684620,-47612320,55802050,47912600,-55786130,-34106440
2026-01-14 16:52:44.491,3923096,1242962,-9667476,6940730,26550290,-4537964,-3251953
2026-01-14 16:52:44.501,3924822,5034165,-5876272,6942456,-46653750,-7647705,-29907230
2026-01-14 16:52:44.511,39256860,1238643,-9654530,69450460,-34484860,-904541,-26123050
2026-01-14 16:52:44.521,-9660572,-36615560,-47508740,20533030,-54504400,-7885742,-22290040
2026-01-14 16:52:44.531,39274120,1242959,-9650214,69484980,-8642578,-6982422,-18066410
2026-01-14 16:52:44.541,39274120,1244685,-9648487,69502240,-13439940,-6347656,-13757320
2026-01-14 16:52:44.551,-9683013,-3657241,-4744831,20562380,-17150880,-6707764,-11541750
2026-01-14 16:52:44.561,-9690780,-3655515,-4743105,20571870,-20922850,-5960083,-9124756
2026-01-14 16:52:44.571,39274120,5387336,-5471310,69554030,-22607420,-4876709,-28884890
2026-01-14 16:52:44.581,39274120,50009340,-58404500,69554030,-25024410,-55419920,-24154660
2026-01-14 16:52:44.591,3927408,12153400,-96087800,6957130,-25952150,-29891970,8201599
2026-01-14 16:52:44.601,3928271,11980760,-95915170,6957994,-24523930,-41015620,20004270
2026-01-14 16:52:44.611,3928271,11808140,-95742540,6957994,-26220700,-3387451,28396610
2026-01-14 16:52:44.621,-9696826,11635500,-95569900,20583090,-2607422,-57640080,4421997
2026-01-14 16:52:44.631,-9696824,-36624190,-47310210,20583090,-29125980,-21305080,31234740
2026-01-14 16:52:44.641,-9688191,1119528,-9514693,20574460,-29858400,18081660,3753662
2026-01-14 16:52:44.651,-9679560,5257863,-5341832,20565830,-29833980,16799930,17669680
2026-01-14 16:52:44.661,-9670928,1074643,-9473262,20557200,-31420900,17044070,35583500
2026-01-14 16:52:44.671,-9653667,-36753670,-47249780,20539930,-30981440,11871340,43945310
2026-01-14 16:52:44.681,-9627769,1011632,-9415429,20514040,-31860350,44403080,3866577
2026-01-14 16:52:44.691,-9601877,-36848620,-47206630,20488140,-2602539,4714966,23864750
2026-01-14 16:52:44.701,-9567350,47153980,-55562950,20453620,-21386720,46081540,5443573
2026-01-14 16:52:44.711,-9532826,8951044,-93075340,20419090,-1776123,6341553,-17181400
2026-01-14 16:52:44.721,-9498295,-3702126,-4713757,20384560,-13977050,6604004,-31173710
2026-01-14 16:52:44.731,-9455136,4602581,-5444688,20341400,-101745600,637207,-3515625
2026-01-14 16:52:44.741,-9421472,768218,5,-9192732,20306010,-82336420,5218506,-29159550
2026-01-14 16:52:44.751,-9378316,-37193890,-47085780,20262850,-3152466,46325680,-22781370
2026-01-14 16:52:44.761,-9343788,695713,-9127131,20228330,-27023320,20446780,-36987300
2026-01-14 16:52:44.771,-9309260,658597,-9095195,20193800,17766950,1348114,-60638430
2026-01-14 16:52:44.781,-9274738,6223440,-90623950,20159280,23651120,345459,-42175290
2026-01-14 16:52:44.791,52945820,43942980,-52386500,55882330,58441160,16326900,-7873535
2026-01-14 16:52:44.801,39766120,-37452840,-47016740,69062020,7183838,920105,-88134770
2026-01-14 16:52:44.811,39800650,530844,5,-8981259,69027500,10424810,-9735107,-9039307
2026-01-14 16:52:44.821,39826540,494592,-8948459,69001610,1427002,1127243,-12536620
2026-01-14 16:52:44.831,-9121092,-37590940,-46982210,20002180,1315918,22323610,-14294430
2026-01-14 16:52:44.841,-9086564,439352,-8900119,19967650,14147950,13832090,-14855960
2026-01-14 16:52:44.851,-9061534,-41855850,-42786350,19940890,13146970,25939940,-18603520
2026-01-14 16:52:44.861,39912860,-37720420,-46973580,68863500,15893560,4034424,-1965332
2026-01-14 16:52:44.871,39921500,372885,5,-8845742,68837600,17993160,47180180,-20629880
2026-01-14 16:52:44.881,-8995070,41681490,-50159520,19869250,21447750,49621580,-17333980
2026-01-14 16:52:44.891,-8978672,3426776,-88241610,19851120,2553711,22903440,-17883300
2026-01-14 16:52:44.901,-8963132,41505400,-49990340,19832140,2529297,1864624,-16186520
2026-01-14 16:52:44.911,-8946733,41417360,-49905750,19814010,23303220,12168880,-12323000
2026-01-14 16:52:44.921,39947380,3202348,-88120770,68708130,26904300,19378660,-11999510
2026-01-14 16:52:44.931,-8939828,45323110,-46172640,19803650,27563480,16586300,-8099365
2026-01-14 16:52:44.941,-8940692,41499360,-49996380,19802790,23046880,30410770,-4244995
2026-01-14 16:52:44.951,39921490,3340452,-88327940,68682230,21789550,25482180,-143966700
2026-01-14 16:52:44.961,39912860,41583950,-50084430,68673600,17785640,1259613,-27130130
2026-01-14 16:52:44.971,-8951912,41669410,-50171610,19808830,19030760,2279663,-43411260
2026-01-14 16:52:44.981,-8961408,3400880,-88440140,19816600,20178220,17730710,-5279541
2026-01-14 16:52:44.991,-8961406,41581360,-50087020,19816600,15637210,831604,12718200
2026-01-14 16:52:45.001,39878340,41580500,-50087880,68656340,17468260,39794920,20965580
2026-01-14 16:52:45.011,-13846420,41493320,-50002420,14931590,1706543,39855960,-11802670
2026-01-14 16:52:45.021,-13837790,41320690,-49829790,14922960,17541500,51513670,-44006350
2026-01-14 16:52:45.031,-13837790,2934768,-88043080,14922960,21252440,59692380,-5682373
2026-01-14 16:52:45.041,-13829160,2848452,-87956770,14914330,23071290,51330570,-6225586
2026-01-14 16:52:45.051,-13829150,41060010,-49572570,14914330,2442627,3540039,-80444340
2026-01-14 16:52:45.061,-8946734,40973700,-49486260,19796750,22998050,5947876,-60760500
2026-01-14 16:52:45.071,-8946734,40973700,-49486260,19796750,24475100,814209,-8288574
2026-01-14 16:52:45.081,-8955364,40973700,-49486260,19805380,23291020,6329346,-87890620
2026-01-14 16:52:45.091,-8963994,40973700,-49486260,19814010,22583010,33233640,-9539795
2026-01-14 16:52:45.101,-8972630,2675820,-87784130,19822640,20214840,27740480,-7531738
2026-01-14 16:52:45.111,-8981262,2762132,-87870450,19831270,2175293,18981930,-6842041
2026-01-14 16:52:45.121,-8989890,41061740,-49570840,19839910,18603520,-4508972,-50201420
2026-01-14 16:52:45.131,-13889570,41148920,-49656300,14974750,19421390,18444060,-31707760
2026-01-14 16:52:45.141,-13898210,41235240,-49742610,14983380,15405270,-57296750,-37506100
2026-01-14 16:52:45.151,-13915470,41322410,-49828060,15000640,1776123,-14846800,-42175290
2026-01-14 16:52:45.161,-13924100,3141932,-88181180,15009270,14648440,-22537230,-56671140
2026-01-14 16:52:45.171,-13932740,3141932,-88181180,15017910,13671880,-1499939,-7006836
2026-01-14 16:52:45.181,-13950000,41496770,-49998970,15035170,16503910,-49972540,-6237793
2026-01-14 16:52:45.191,-13958630,41583090,-50085290,15043800,17456060,-23101810,-6842041
2026-01-14 16:52:45.201,-13975890,41670270,-50170740,15061070,18359380,-28778080,-8856201
2026-01-14 16:52:45.211,-910987,2,359078,-8859551,1996161,16601560,-418396,-10595700
2026-01-14 16:52:45.221,-9127998,-37875790,-47111680,19978010,16357420,-10925290,-121032700
2026-01-14 16:52:45.231,-9145258,386698,5,-8883719,19995270,15234380,5756378,-10845950
2026-01-14 16:52:45.241,-9162524,412593,5,-8909614,20012540,16320800,1932,383,-11755370
2026-01-14 16:52:45.251,-9188418,4253602,-5103132,20038430,13781740,-14633180,-122924800
2026-01-14 16:52:45.261,39610750,-37772210,-47163470,68872130,13427730,22781370,-12072750
2026-01-14 16:52:45.271,39584860,-37737690,-47180740,68898020,10498050,12054440,-13000490
2026-01-14 16:52:45.281,52773190,502361,-8992481,55709690,10571290,13793950,-12487790
2026-01-14 16:52:45.291,-9285091,529121,5,-9017509,20131650,7495117,2911377,-12182620
2026-01-14 16:52:45.301,-9310989,-37642730,-47223890,20157550,6112671,39245600,-1126709
2026-01-14 16:52:45.311,-9328252,43922270,-52407210,20174810,50720220,25314330,-1303711
2026-01-14 16:52:45.321,-9355011,44181230,-52666160,20199850,4498291,3201294,-10491940
2026-01-14 16:52:45.331,-9380907,44441040,-52924250,20225740,2130127,3427124,-7678223
2026-01-14 16:52:45.341,-9398169,-41918860,-42895970,20243000,21957400,4107666,-72021490
2026-01-14 16:52:45.351,39369060,-37504630,-47310210,69062020,13114930,30548100,-8770752
2026-01-14 16:52:45.361,39351800,680173,-9159935,69079290,16845700,4107666,-8868408
2026-01-14 16:52:45.371,39325910,697436,5,-9177198,69087930,-10673520,36010740,-7702637
2026-01-14 16:52:45.381,39308650,714699,5,-9194461,69105190,-35003660,6427002,-58013920
2026-01-14 16:52:45.391,3928275,723334,5,-9203092,6911382,-39916990,42785640,-41503900
2026-01-14 16:52:45.401,-9512968,-3741832,-4736200,20352630,-19348140,60546880,-62805180
2026-01-14 16:52:45.411,-9521600,-3741832,-4736200,20361260,-3527832,6762695,-45562740
2026-01-14 16:52:45.421,-9530232,741460,-9219491,20369890,-6524658,7965088,-6048584
2026-01-14 16:52:45.431,-9538864,-37401040,-47362000,20378520,-56488040,6359863,-5819702
2026-01-14 16:52:45.441,-9547496,-41884340,-42878700,20387150,-4888916,38635260,-3970337
2026-01-14 16:52:45.451,-9547496,-37409680,-47336100,20387150,-46875,55908200,-39245600
2026-01-14 16:52:45.461,-9556130,-37409680,-47336100,20395780,-3878784,552063,-6323242
2026-01-14 16:52:45.471,39230960,-37418310,-47327470,69182880,-4296875,43823240,-8013916
2026-01-14 16:52:45.481,39239600,709520,5,-9182377,69174240,-27008060,21881100,-7287598
2026-01-14 16:52:45.491,39248220,692257,-9165113,69182860,-15838620,3955078,-6750488
2026-01-14 16:52:45.501,39256850,683625,5,-9156482,69174230,-15594480,27709960,-52764890
2026-01-14 16:52:45.511,-9536273,674996,5,-9147848,20381110,-13198850,66101070,-9362793
2026-01-14 16:52:45.521,-9527642,4479235,-5326348,20372480,-37750240,4699707,-9838867
2026-01-14 16:52:45.531,-9518148,64995,63,-912108,6,20364710,-11436460,42053220,-12219240
2026-01-14 16:52:45.541,-9518150,-37470100,-47223890,20364710,-26245120,43029780,-12731930
2026-01-14 16:52:45.551,39308640,6335644,-91029650,69174240,-3378296,7330322,-1015625
2026-01-14 16:52:45.561,-9507792,44362490,-52830160,20357810,-14213560,7574463,-11993410
2026-01-14 16:52:45.571,-9507792,44276180,-52743850,20357810,-11421200,99121100,-8337402
2026-01-14 16:52:45.581,-14381580,44189860,-52657530,15466750,-24353030,9436035,-9289551
2026-01-14 16:52:45.591,-14381580,44104400,-52570350,15466750,-4724121,10144040,-8355713
2026-01-14 16:52:45.601,-14381580,44104400,-52570350,15466750,-41870120,107543900,-7434082
2026-01-14 16:52:45.611,-14390210,44018090,-52484030,15475390,-6359863,109069800,-7946777
2026-01-14 16:52:45.621,-14398840,44018090,-52484030,15484020,-6518555,82458500,-75805660
2026-01-14 16:52:45.631,-14407480,5843640,-90485840,15492650,-87524420,95825190,-28259280
2026-01-14 16:52:45.641,-14416110,5757328,-90399530,15501280,-9295654,55480960,-31143190
2026-01-14 16:52:45.651,-14424740,5671012,-90313220,15509910,-109436000,4928589,-56243900
2026-01-14 16:52:45.661,-14433370,-37530520,-47111680,15518540,-10308840,4940796,-552063
2026-01-14 16:52:45.671,-14442000,-37539150,-47103050,15527170,-12878420,20858760,-18676760
2026-01-14 16:52:45.681,-9559580,531710,5,-8997656,20409590,-14123540,36254880,-29190060
2026-01-14 16:52:45.691,-9559580,514447,5,-8980393,20409590,-1430664,4840088,-4067993
2026-01-14 16:52:45.701,-9559580,497184,-8963129,20409590,-15905760,42266850,-5871582
2026-01-14 16:52:45.711,-14433370,471289,-8937235,15518540,-16955570,28060910,-61187740
2026-01-14 16:52:45.721,-14424740,444530,5,-8912203,15509910,-16540530,24017330,-52642820
2026-01-14 16:52:45.731,-14416100,-3768590,-4699084,15501280,-16589360,20431520,-36132810
2026-01-14 16:52:45.741,39317280,392738,-8860415,69217400,-15161130,24475100,-18554690
2026-01-14 16:52:45.751,39325910,366843,-8834521,69208770,-19934080,3616333,-54229740
2026-01-14 16:52:45.761,39334540,3314560,-88008560,69200140,-22790530,49621580,-42114260
2026-01-14 16:52:45.771,3936039,2969292,-87663280,6919150,-21276860,24204250,-37109380
2026-01-14 16:52:45.781,-9469812,-37849900,-46844100,20326730,-2088623,-6008148,-4208374
2026-01-14 16:52:45.791,-9452547,4039018,-4886132,20309470,-22619630,-3314209,-3677368
2026-01-14 16:52:45.801,39429490,-423117,3,-423999,9,69156980,-24267580,-345459,-9994507
2026-01-14 16:52:45.811,52810310,139830,5,-8612688,55776150,-2619629,-25497440,-71372980
2026-01-14 16:52:45.821,39498540,958112,-85703900,69105180,-2434082,-33477780,23773190
2026-01-14 16:52:45.831,3954168,38487770,-46965800,6907931,-2783203,-46691900,-3332138
2026-01-14 16:52:45.841,-9294590,37969010,-46448770,20156690,-28051760,-340271,6604,195
2026-01-14 16:52:45.851,3963665,-81137,5,-8402072,6900161,-2578125,-19226070,-31280520
2026-01-14 16:52:45.861,-9198779,-1519176,-83347450,20062600,-24938960,-3060913,-31433100
2026-01-14 16:52:45.871,39748860,36064860,-44554980,68906660,-2355957,-31036380,-5911255
2026-01-14 16:52:45.881,39809280,-2934772,-82000910,68846240,-21643070,-3643799,-2330017
2026-01-14 16:52:45.891,-9024417,-38609480,-46377990,19891690,-22302250,-23956300,-3338623
2026-01-14 16:52:45.901,-8955365,-4453944,-80585310,19822640,-18762210,-4751587,-859375
2026-01-14 16:52:45.911,-8885446,33034280,-41543390,19754450,-1459961,-66719060,-6561279
2026-01-14 16:52:45.921,-8816394,32168530,-40682810,19685400,-1739502,37708280,-7800293
2026-01-14 16:52:45.931,-8738706,3138908,-3990855,19607710,-1352539,6324768,-9051514
2026-01-14 16:52:45.941,40258130,30608780,-39135150,68449180,-119628900,23895260,-8239746
2026-01-14 16:52:45.951,40335810,-8657576,-76675170,68371500,-107299800,3515625,-9442139
2026-01-14 16:52:45.961,40422130,-39369070,-46015460,68285180,-7867432,64941410,-8660889
2026-01-14 16:52:45.971,40499820,-10271690,-75181890,68207500,-715332,6951904,-76660160
2026-01-14 16:52:45.981,-8341652,27402110,-35954380,19210660,-49621580,76538090,-6756592
2026-01-14 16:52:45.991,-8263968,26621810,-35180980,19132970,-19744870,75927740,-44433590
2026-01-14 16:52:46.001,-8187146,-39817910,-45860090,19054420,-1184082,48675540,-7727051
2026-01-14 16:52:46.011,40784660,-13353200,-72393860,67870860,2820,492,49224860,-53894040
2026-01-14 16:52:46.021,-8033500,24538120,-33121460,18897330,25848390,11772160,-42510980
2026-01-14 16:52:46.031,-7965310,23930450,-32520700,18827410,1576233,17105100,-42755130
2026-01-14 16:52:46.041,40983190,-1545936,-7052944,67620540,40100100,10131840,-36132810
2026-01-14 16:52:46.051,41043610,22627930,-31233720,67542850,32562260,-6298065,-16220090
2026-01-14 16:52:46.061,-7752971,21932220,-30548360,18608160,25558470,-22613520,13748170
2026-01-14 16:52:46.071,-12577560,21237370,-29862140,13662730,24993900,-48858640,37323000
2026-01-14 16:52:46.081,41190340,-40689720,-45644300,67292530,41870120,-8856201,6341553
2026-01-14 16:52:46.091,-7559624,-19222740,-67214850,18404460,44433590,-13171390,13183590
2026-01-14 16:52:46.101,-7493159,18892140,-27546260,18332820,5645752,-20861820,1887207
2026-01-14 16:52:46.111,41354350,-2105269,-6559212,67007690,50231940,-23303220,2866211
2026-01-14 16:52:46.121,-7332608,16982820,-25657650,18165360,28915400,-17175290,42407230
2026-01-14 16:52:46.131,-7239389,-23141520,-63710390,18068680,9841919,-13134770,5888672
2026-01-14 16:52:46.141,-714532,8,-24401740,-62553740,1797286,43182370,19424440,75878900
2026-01-14 16:52:46.151,41665090,13428290,-22134210,66576100,-6134033,107666000,9682617
2026-01-14 16:52:46.161,-6950225,15878050,-16749680,17770890,-37902830,17382810,11210940
2026-01-14 16:52:46.171,-6848371,10395990,-19124340,17665580,-13954160,23291020,12832030
2026-01-14 16:52:46.181,53947280,8750789,-17489500,54190340,16540530,25048830,13623050
2026-01-14 16:52:46.191,-6644666,-32351510,-55139140,17454970,11419680,21374510,13261720
2026-01-14 16:52:46.201,42088040,-34138280,-53473230,65980520,2175293,17163090,12470700
2026-01-14 16:52:46.211,-11311120,-35743770,-51971310,12391460,29614260,5432129,10136720
2026-01-14 16:52:46.221,4222615,2256320,-11036460,6577337,3503418,22125240,7817383
2026-01-14 16:52:46.231,42286570,10435690,-98323410,65678420,3798828,-21713260,50341800
2026-01-14 16:52:46.241,-6239838,3452,5,-8800854,17031160,40356440,-16281130,3095703
2026-01-14 16:52:46.251,-6198406,-776851,3,-8027457,16986270,41357420,-28015140,16723630
2026-01-14 16:52:46.261,42364260,-1384524,-7426695,65479880,44018560,-19958500,80444340
2026-01-14 16:52:46.271,-6158702,22349990,-31166390,16939660,39331060,-2494812,413208
2026-01-14 16:52:46.281,-6161291,19757900,-28579470,16937070,39086910,-6329346,-2948761
2026-01-14 16:52:46.291,42295200,-20819600,-67430640,65428090,31689450,-7055664,-52948000
2026-01-14 16:52:46.301,-6207902,18891280,-27719760,16976780,2565918,-1104126,-9881592
2026-01-14 16:52:46.311,42208890,-20845500,-67456540,65445360,19555660,-14111330,-17749020
2026-01-14 16:52:46.321,-6253649,18888690,-27722350,17017350,1550293,-19555660,-25585940
2026-01-14 16:52:46.331,42139830,-20871390,-67482430,65462620,13708500,-26586910,-34716800
2026-01-14 16:52:46.341,-6290766,19750130,-28587240,17049290,13574220,-3503418,-42163090
2026-01-14 16:52:46.351,42096680,24168240,-24169130,65453990,14672850,-4658203,-5390625
2026-01-14 16:52:46.361,42096680,-41708260,-46714620,65453990,1138916,-52246100,-6035156
2026-01-14 16:52:46.371,-11132360,-1918822,-6925192,12207690,7861328,-57128900,-65625
2026-01-14 16:52:46.381,-11097830,-1918822,-6925192,12173160,14015200,-5390625,-6801758
2026-01-14 16:52:46.391,42208890,19745820,-28591560,65341780,-12817380,-47314450,-6899414
2026-01-14 16:52:46.401,-6092238,17156320,-26002060,16850760,137786900,-36401370,-7084961
2026-01-14 16:52:46.411,-5968804,12840480,-21686220,16732500,9655762,-23571780,-7290039
2026-01-14 16:52:46.421,-5818613,7661474,-16507210,16589220,21374510,-13195800,-77685540
2026-01-14 16:52:46.431,42856260,-4422269,-4423476,64936090,3479004,54351810,-73046870
2026-01-14 16:52:46.441,-5474208,-4421144,-4422869,16260350,41015620,20495600,-64746100
2026-01-14 16:52:46.451,43270580,-4423736,-4416830,64677140,44848630,3317871,-54003900
2026-01-14 16:52:46.461,-10007740,-12187060,3349954,11088080,4423828,5053711,-39672850
2026-01-14 16:52:46.471,43650380,-15638010,6804347,64487240,3779297,68359380,-22180180
2026-01-14 16:52:46.481,-4886390,-19088080,10259610,15708780,101379400,765625,47698980
2026-01-14 16:52:46.491,43969750,-63969340,-24263640,64340500,-12915040,8725586,44482420
2026-01-14 16:52:46.501,44151020,-27198930,26317450,64262820,-21508790,8046875,6855469
2026-01-14 16:52:46.511,44349540,-47655480,-40404870,64185140,-19824220,7246094,875
2026-01-14 16:52:46.521,-4346050,-48725800,-39230960,15213320,-1439209,5620117,10166020
2026-01-14 16:52:46.531,-4218302,-49873820,-37962100,15099390,-11529540,36547850,11533200
2026-01-14 16:52:46.541,4490196,-51021830,-36693250,6402974,-12536620,1763916,12519530
2026-01-14 16:52:46.551,45014180,-5198861,-3558842,64038390,-21789550,-3778076,13056640
2026-01-14 16:52:46.561,-4045661,-94142220,85396610,14961280,-39794920,-22753910,13027340
2026-01-14 16:52:46.571,45074600,-13947930,5214393,64167870,-60546880,-36132810,12841800
2026-01-14 16:52:46.581,-4150109,-14287150,5565705,15081260,-8901367,-46069340,12236330
2026-01-14 16:52:46.591,44979650,-53835760,-33292370,64366390,-11513670,-54345700,11904300
2026-01-14 16:52:46.601,-4283900,-15141680,6437504,15223680,-14238280,-57373050,10439450
2026-01-14 16:52:46.611,-4308070,-54966500,-32006250,15251300,-15976560,-62060550,80810540
2026-01-14 16:52:46.621,-4262320,-12950530,12081320,15210740,-16435550,-59716800,50634770
2026-01-14 16:52:46.631,45135030,-18413950,9725304,64400920,-15810550,-5234375,20666500
2026-01-14 16:52:46.641,-3971432,-20312920,11624280,14931930,-14111330,-41992190,-20950320
2026-01-14 16:52:46.651,-3744420,-22643470,13954830,14710100,-11523440,-2854004,-21435550
2026-01-14 16:52:46.661,-3456123,-64254180,-22649510,14428700,-8125,-16467290,-41796880
2026-01-14 16:52:46.671,-3133297,-23999080,23129870,14112790,-56689450,-97961420,-6479492
2026-01-14 16:52:46.681,46654200,-30759840,22066010,63209750,-28100590,-26809690,-86376950
2026-01-14 16:52:46.691,-2428091,-72825440,-14130050,13419660,-4917145,-12306210,-10654300
2026-01-14 16:52:46.701,-20621070,-75587580,-11367920,130605900,25634770,597229,-12089840
2026-01-14 16:52:46.711,47810850,-39132560,30438730,62243000,49609380,53344730,-12988280
2026-01-14 16:52:46.721,-1399193,-41635750,32941920,12411480,66308590,92285150,-13037110
2026-01-14 16:52:46.731,55072080,-39881360,39012140,55085340,74609380,5709839,-12480470
2026-01-14 16:52:46.741,-894243,-47586420,-39317280,11915160,76904300,12809750,-11767580
2026-01-14 16:52:46.751,-61596840,-47242880,38555960,62699280,72216800,-10418700,-10839840
2026-01-14 16:52:46.761,49071060,-47836740,-39015180,61207200,6015625,-19262700,-9995117
2026-01-14 16:52:46.771,-53871140,-8838837,155372,1,64900700,42993160,-2993164,-94091800
2026-01-14 16:52:46.781,49347280,-50088740,41407000,60982780,22753910,-42163090,-92333980
2026-01-14 16:52:46.791,-1795388,-48035280,-38764850,112142700,-28533940,-46704100,-9633789
2026-01-14 16:52:46.801,49640760,-48069800,-38713060,60758360,-19726560,-4423828,-9482422
2026-01-14 16:52:46.811,1018532,-9058948,384109,4,109432400,-27490230,-4404297,-9013672
2026-01-14 16:52:46.821,49986020,-48078430,-38583590,60533930,-2854004,-31518560,-7373047
2026-01-14 16:52:46.831,4039620,-9102105,444531,3,106583900,-15039060,-22607420,-65478520
2026-01-14 16:52:46.841,50391720,-91210910,4773316,60352660,-54382320,29621120,-5600586
2026-01-14 16:52:46.851,-42965890,-52652350,44022400,54054130,-6665039,28149410,-48388670
2026-01-14 16:52:46.861,55045050,-52901800,44290840,55992800,14575200,51416020,-49804690
2026-01-14 16:52:46.871,90891,53,-9188418,599901,5,1021386,50146480,50878900,-4309082
2026-01-14 16:52:46.881,9883264,-9217770,656870,101551600,8120117,7133789,-5292969
2026-01-14 16:52:46.891,10608330,-9262654,732829,101068300,10605470,8305664,-33544920
2026-01-14 16:52:46.901,-3920075,-93308400,8372728,5039599,12294920,8725586,-22924800
2026-01-14 16:52:46.911,5611872,-47448310,-37073040,5612755,12412110,10029300,-87524420
2026-01-14 16:52:46.921,-37788610,-9538002,1130751,49046040,12695310,12988280,18334960
2026-01-14 16:52:46.931,14268160,-47310210,-36227140,98685940,12138670,14980470,39160160
2026-01-14 16:52:46.941,16201660,-9955778,1662460,97166760,10771480,16298830,50341800
2026-01-14 16:52:46.951,-32202190,-47284310,-34975540,43583910,9873047,16835940,6230469
2026-01-14 16:52:46.961,22787620,-10645450,2491964,91495740,9980469,17871090,8876953
2026-01-14 16:52:46.971,54379550,-110977400,30236750,60387190,12421880,15400390,9838867
2026-01-14 16:52:46.981,55156400,-80039790,72050300,60128240,15361330,13642580,9926758
2026-01-14 16:52:46.991,55985040,-4768140,-3128121,59817500,20371090,13076170,12802730
2026-01-14 16:52:47.001,44876080,-47784950,-30176340,71461630,23046880,12607420,15839840
2026-01-14 16:52:47.011,51090880,-47871270,-29036960,65764730,25957030,13691410,18105470
2026-01-14 16:52:47.021,4229521,-13795140,6213080,7509556,29765620,14228520,20625
2026-01-14 16:52:47.031,62234370,-14290600,6822473,55674300,32128910,13964840,23867190
2026-01-14 16:52:47.041,13431750,-36781980,-36759880,-1587367,34179690,14550780,26269530
2026-01-14 16:52:47.051,70201410,-47664110,-24703860,48794860,33671880,17666020,27363280
2026-01-14 16:52:47.061,13286390,-15409260,8293313,-12090730,34765620,18671880,26777340
2026-01-14 16:52:47.071,61457520,-15642320,8647208,58712650,34472660,18173830,2734375
2026-01-14 16:52:47.081,7402523,-46723260,-21984870,4674913,3375,21757810,26152340
2026-01-14 16:52:47.091,18586580,-4628304,-2116487,-6445272,33144530,20175780,24101560
2026-01-14 16:52:47.101,71573850,-15988450,9371406,50512560,32597660,209375,21464840
2026-01-14 16:52:47.111,8382305,-45186820,-19671580,-7154711,32382810,21328120,20039060
2026-01-14 16:52:47.121,104011700,-15944430,9588060,19421270,2515625,25976560,19257810
2026-01-14 16:52:47.131,6206175,-15911630,9689918,6204448,23007810,27148440,17597660
2026-01-14 16:52:47.141,16633240,-43270590,-17582720,108129000,22011720,28828120,14003910
2026-01-14 16:52:47.151,-3396564,-4259732,-1684040,15938390,19248050,31699220,10039060
2026-01-14 16:52:47.161,47914420,-30296320,-27708540,78125290,1640625,33007810,78466800
2026-01-14 16:52:47.171,-14383830,-29571250,-26966210,27048220,12011720,33925780,6689453
2026-01-14 16:52:47.181,37452840,-15888330,10386490,89760780,8173828,35351560,5390625
2026-01-14 16:52:47.191,-24944680,-40016440,-13448150,37721280,55078120,35605470,24804690
2026-01-14 16:52:47.201,60542560,-39394970,-12446880,67758640,26782230,3859375,-113098100
2026-01-14 16:52:47.211,-33955280,-16216330,11197870,46837190,18469240,40195310,-39160160
2026-01-14 16:52:47.221,64650800,-25627440,-22830780,64651680,41137700,40585940,-73779300
2026-01-14 16:52:47.231,60110980,-16654820,11985080,69640350,-9094238,40351560,-10566410
2026-01-14 16:52:47.241,14155940,-37150730,-7751243,116009700,-25390620,39785160,-13798830
2026-01-14 16:52:47.251,-47593330,-17283200,12979450,60647870,-2614746,40078120,-12763670
2026-01-14 16:52:47.261,5968803,-36158080,-4980476,7120267,-53027340,38671880,-12050780
2026-01-14 16:52:47.271,439352,5,-35674710,-3547621,12679070,-39990230,38320310,-6171875
2026-01-14 16:52:47.281,552424,-35174080,-2114761,130890700,-109558100,3328125,-50097660
2026-01-14 16:52:47.291,5888529,-1695279,1695243,7278228,-40771480,3421875,-5498047
2026-01-14 16:52:47.301,-6781302,-19038890,15694980,8099704,-38720700,31855470,-89404300
2026-01-14 16:52:47.311,58013480,-17529210,-13976410,73964820,-28759770,28769530,-15693360
2026-01-14 16:52:47.321,-1985285,-32929840,3340459,15191750,-5175781,25097660,-20683590
2026-01-14 16:52:47.331,56787780,-32351520,4643839,75311360,-61279300,21015620,-22402340
2026-01-14 16:52:47.341,-3392248,-14797280,-11028690,16598710,-69970700,17304690,-23515620
2026-01-14 16:52:47.351,-4163919,-20369030,17972870,17363480,-97802740,16347660,-23066410
2026-01-14 16:52:47.361,54370920,-13013980,-9117640,77486540,-12949220,13730470,-20742190
2026-01-14 16:52:47.371,53473220,-29926020,9607051,78211600,-14990230,13105470,-19140620
2026-01-14 16:52:47.381,-6616179,-29304540,10746440,19762220,-16171880,14003910,-23164060
2026-01-14 16:52:47.391,51574260,-104244700,-63727650,79644460,-15693360,12949220,-32382810
2026-01-14 16:52:47.401,-8361502,-28009780,12938880,21452300,-15947270,11542970,-41210940
2026-01-14 16:52:47.411,49442230,-27353780,14009210,81085940,-178125,10712890,-46835940
2026-01-14 16:52:47.421,-10257880,-26706400,15070900,23267540,-18388670,72558590,-48789060
2026-01-14 16:52:47.431,63015540,-21584370,20589990,66563160,-18818360,41552740,-48867190
2026-01-14 16:52:47.441,45773770,-25428920,17159770,83235240,-20859380,33935550,-48046880
2026-01-14 16:52:47.451,44453130,-24833330,18186930,83917140,-2125,-37426760,-47382810
2026-01-14 16:52:47.461,43115210,-21952940,21447120,84564510,-22949220,-6484375,-44570310
2026-01-14 16:52:47.471,-1537043,-19711290,-15333310,2806416,-23144530,-10068360,-41953120
2026-01-14 16:52:47.481,40378970,-12133550,-7719309,85781580,-19980470,-16787110,-44492190
2026-01-14 16:52:47.491,38980640,-48121590,-3668465,86351270,-17851560,-21972660,-48554690
2026-01-14 16:52:47.501,37565050,20785070,65531670,86903700,-19423830,-27871090,-515625
2026-01-14 16:52:47.511,36114930,-22508990,22531090,87421600,-17324220,-32988280,-49101560
2026-01-14 16:52:47.521,34621650,15082120,19617210,87930860,-15546880,-38125,-45976560
2026-01-14 16:52:47.531,-21562780,21023300,25587740,33714460,-12978520,-44882810,-40078120
2026-01-14 16:52:47.541,-22572690,6042170,51962680,34620780,-97998050,-48945310,-35019530
2026-01-14 16:52:47.551,3021088,31958780,36576720,8923426,-84228510,-5453125,-30058590
2026-01-14 16:52:47.561,-24445760,36865020,41510580,36286700,-625,-5828125,-25429690
2026-01-14 16:52:47.571,27560940,-18989690,27742200,89864360,-3466797,-5875,-19912110
2026-01-14 16:52:47.581,-26052980,2432404,7131491,37700560,-3466797,-6125,-13857420
2026-01-14 16:52:47.591,25264910,27819880,75069660,90313220,-2939453,-63320310,-13251950
2026-01-14 16:52:47.601,2424638,3097044,7847918,9048584,37750240,-66757810,-12949220
2026-01-14 16:52:47.611,23314150,-23308120,24459580,90623950,33618160,-70820310,-11796880
2026-01-14 16:52:47.621,2246825,3606314,8408977,9074480,6801758,-76054690,-14228520
2026-01-14 16:52:47.631,21717300,59818360,64650370,90822480,95410160,-84296870,-18007810
2026-01-14 16:52:47.641,-29312300,-17919360,30763290,40500680,11445310,-88203130,-19970700
2026-01-14 16:52:47.651,52110280,-17962520,31186240,59152000,10605470,-853125,-18457030
2026-01-14 16:52:47.661,-29899250,43167000,92868180,40966790,8208008,-77460940,-11035160
2026-01-14 16:52:47.671,1951623,4459123,9489663,9067574,6875,-64882810,42236330
2026-01-14 16:52:47.681,1929179,-1834231,3253278,9053763,38378900,-47460940,84228510
2026-01-14 16:52:47.691,19248630,4593773,9734802,90390900,-13515630,-31367190,22070310
2026-01-14 16:52:47.701,51253160,4576511,9769327,58334580,-23789060,-18681640,28027340
2026-01-14 16:52:47.711,19688850,-19076000,33352790,90002470,-23144530,-21660160,22050780
2026-01-14 16:52:47.721,20077280,67961490,73252700,89786680,-8725586,-30253910,25585940
2026-01-14 16:52:47.731,2047435,-19775170,33654900,8956225,-17211910,-33144530,-12255860
2026-01-14 16:52:47.741,-28760740,67315920,67856100,39774760,3274536,-28320310,-17519530
2026-01-14 16:52:47.751,51674380,37918940,92591970,58483050,-22021480,-17207030,-13300780
2026-01-14 16:52:47.761,-28358500,34707960,90106050,39365620,-46777340,-28515620,-48364260
2026-01-14 16:52:47.771,2125122,31056760,87197170,8869910,-8256836,9897461,6791992
2026-01-14 16:52:47.781,2131162,-22891200,34026060,8848329,-12373050,19707030,17617190
2026-01-14 16:52:47.791,21372030,-23607630,34034690,88267500,-11826170,27871090,27675780
2026-01-14 16:52:47.801,21458350,-24263640,34051950,88060340,-73583980,32402340,35097660
2026-01-14 16:52:47.811,-27681780,-24824700,34043320,38626740,3555298,34707030,39804690
2026-01-14 16:52:47.821,21682760,-25273550,34026060,87732340,73339840,39140620,43203120
2026-01-14 16:52:47.831,51416290,38969420,44930450,57998800,81591800,4421875,46679690
2026-01-14 16:52:47.841,21864030,37838670,43816960,87551070,11914060,48710940,48164060
2026-01-14 16:52:47.851,21864030,10237160,70037410,87551070,15986330,5265625,44921880
2026-01-14 16:52:47.861,-27461670,36978960,42950350,38398000,14677730,5671875,415625
2026-01-14 16:52:47.871,-32564800,10547910,70071940,33657400,16396480,60234380,39492190
2026-01-14 16:52:47.881,21164870,37951740,43876520,87904980,17421880,61484380,36523440
2026-01-14 16:52:47.891,-28274780,-25282180,33637640,39155860,16044920,58398440,34492190
2026-01-14 16:52:47.901,-28724480,13543100,72083110,39569320,15019530,53203120,32363280
2026-01-14 16:52:47.911,19343580,-24660700,33465000,88673190,13173830,4703125,29941410
2026-01-14 16:52:47.921,18506310,42691390,48459080,88975300,13271480,39648440,27109380
2026-01-14 16:52:47.931,1758272,1868757,7591558,8929467,12177730,3140625,26640620
2026-01-14 16:52:47.941,49461220,-23435000,33309630,56760160,11044920,22695310,25957030
2026-01-14 16:52:47.951,-31865550,-22951620,33309630,42418640,11757810,14023440,2375
2026-01-14 16:52:47.961,48632580,-22433730,33344160,56190480,11054690,6479492,21191410
2026-01-14 16:52:47.971,-33224180,-27062890,28214350,43632250,10117190,-7751465,20371090
2026-01-14 16:52:47.981,51287430,-21285710,33473630,52068250,10839840,-6645508,16972660
2026-01-14 16:52:47.991,-34512890,-20681490,33542690,44777680,9116211,-12578130,15634770
2026-01-14 16:52:48.001,1075511,41000450,94689470,9118503,10332030,-19208980,14511720
2026-01-14 16:52:48.011,50225820,4480701,9796086,51040990,11835940,-27675780,9736328
2026-01-14 16:52:48.021,-36237500,-18834320,33801640,46298580,1234375,-33789060,7416992
2026-01-14 16:52:48.031,8251880,5223885,10433970,91737440,12255860,-39101560,72021490
2026-01-14 16:52:48.041,752686,5,55959140,107524800,9189283,10927730,-42890620,75097660
2026-01-14 16:52:48.051,45210990,5961033,11060630,53725270,8310547,-43828120,95214850
2026-01-14 16:52:48.061,-37971600,-16365660,34060580,47827240,7597656,-43125,11064450
2026-01-14 16:52:48.071,601629,5,-15735540,34086480,9229849,77197260,-47460940,77441410
2026-01-14 16:52:48.081,44765590,-15114070,34103740,53428340,70166020,-52070310,42871100
2026-01-14 16:52:48.091,44755230,-23335740,25295120,53438700,6040039,-5796875,4013672
2026-01-14 16:52:48.101,44804430,-23030170,25048250,53493070,67089840,-66328120,25854490
2026-01-14 16:52:48.111,-38466190,-13413620,34164170,48316660,6894531,-725,40863040
2026-01-14 16:52:48.121,45080650,-22488970,24622710,53734760,4321289,-725,6817627
2026-01-14 16:52:48.131,656870,5,-1238646,3431091,9267828,-5203247,-66953120,34301760
2026-01-14 16:52:48.141,719020,-11903080,34414490,9266102,-56933590,-5953125,65625
2026-01-14 16:52:48.151,801883,9235028,13828810,9262650,-64746100,-53046880,11943360
2026-01-14 16:52:48.161,46630900,-10970860,34569850,54981180,-46069340,-52734380,11503910
2026-01-14 16:52:48.171,47248060,9793496,14306140,55468870,-5957031,-5453125,4663086
2026-01-14 16:52:48.181,1157509,-10107690,34656170,9233302,2290039,-55546880,-29296880
2026-01-14 16:52:48.191,-34362700,-973654,8,3468208,44876070,-5498047,-509375,-6220703
2026-01-14 16:52:48.201,-3352714,-9425789,34733860,4415792,-9321289,-4015625,-93066410
2026-01-14 16:52:48.211,1561471,-20697030,23255460,9179785,-13330080,-23066410,-9121094
2026-01-14 16:52:48.221,1687494,-9028731,34768380,9159069,-18779300,-72802740,-6123047
2026-01-14 16:52:48.231,1803159,-8925151,34733860,9140079,-19248050,4416504,-26489260
2026-01-14 16:52:48.241,-30547500,-8838837,34647540,41578780,-17783200,13886720,7086182
2026-01-14 16:52:48.251,20042750,-8778417,34518060,91064170,-15859380,20996090,35327150
2026-01-14 16:52:48.261,2088004,-8700728,34354060,9095195,-11582030,28222660,5708008
2026-01-14 16:52:48.271,21622350,-8579889,34146900,90865630,-82373050,35625,84521490
2026-01-14 16:52:48.281,-28613140,-8415884,33896580,39922360,-67871100,434375,11533200
2026-01-14 16:52:48.291,53423160,10606600,14787780,60221460,-4326172,52890620,1359375
2026-01-14 16:52:48.301,-28068480,-7967037,33240580,39483000,-5395508,60546880,11914060
2026-01-14 16:52:48.311,23642150,-7682195,32834890,90934690,-66308590,66054690,67041020
2026-01-14 16:52:48.321,-3355427,-7380082,32377410,3366919,-6816406,71289060,1307373
2026-01-14 16:52:48.331,2389248,10472810,14369150,9123680,-9482422,7328125,-3486328
2026-01-14 16:52:48.341,54231950,-6749972,31436560,61000910,-10976560,728125,-7426758
2026-01-14 16:52:48.351,-28352460,-6439230,30987710,39872290,-11787110,6953125,-93896480
2026-01-14 16:52:48.361,2302068,-17109700,19557650,9198775,-12333980,63398440,-83154300
2026-01-14 16:52:48.371,-29196640,-5714171,30210860,40668140,-11416020,55273440,-89501950
2026-01-14 16:52:48.381,21725920,-5273957,29891490,92574700,-6879883,46640620,-7807617
2026-01-14 16:52:48.391,2099224,-4764686,29623910,9285955,-4321289,36816410,-68896480
2026-01-14 16:52:48.401,20241280,-4186368,29408120,93127140,13374330,28847660,-6616211
2026-01-14 16:52:48.411,19542110,11186650,14466690,93360190,33081060,21777340,-7421875
2026-01-14 16:52:48.421,-36761090,-2934772,29088750,37885630,44091800,17451170,-11953130
2026-01-14 16:52:48.431,5225962,-14297510,16966420,5979679,46826170,12949220,-15996090
2026-01-14 16:52:48.441,52036050,-1665915,28890210,59640560,4819336,8417969,-234375
2026-01-14 16:52:48.451,-32768420,-1070330,28829790,43898100,40356440,45629880,-28691410
2026-01-14 16:52:48.461,-33108520,-13252210,16078220,44196760,32543940,14770510,-35351560
2026-01-14 16:52:48.471,-33458960,-86318,28778000,44502320,17297360,-20593260,-39609380
2026-01-14 16:52:48.481,51033050,284843,28752110,58899960,47454830,-6645508,-43710940
2026-01-14 16:52:48.491,1498461,569691,28743480,9441325,-16394040,-10683590,-4734375
2026-01-14 16:52:48.501,-34670840,785480,28717580,45551930,-40820310,-15253910,-49492190
2026-01-14 16:52:48.511,1356900,914960,28691690,9463767,-7006836,-19609380,-51953120
2026-01-14 16:52:48.521,1281805,984010,28657160,9474988,-96728510,-26445310,-5359375
2026-01-14 16:52:48.531,1206709,13439520,16201650,9486210,-10478520,-32636720,-53085940
2026-01-14 16:52:48.541,1134204,975380,28614000,9494841,-12128910,-37617190,-50859380
2026-01-14 16:52:48.551,-36888330,923587,28596740,47460400,-12519530,-39492190,-47148440
2026-01-14 16:52:48.561,10116320,863162,28553580,95103790,-13242190,-4015625,-42578120
2026-01-14 16:52:48.571,-42228480,785480,28493160,43276890,-12773440,-42734380,-39101560
2026-01-14 16:52:48.581,47996420,699165,28406840,56584940,-13300780,-46640620,-37324220
2026-01-14 16:52:48.591,915821,5,586955,28294630,9528505,-13515630,-503125,-34453120
2026-01-14 16:52:48.601,-37912900,440213,28182420,48352050,-13710940,-51953120,-31445310
2026-01-14 16:52:48.611,-37937070,267582,28044310,48379670,-13964840,-52539060,-27871090
2026-01-14 16:52:48.621,-37905140,-12541830,15338490,48359820,-1359375,-51992190,-23945310
2026-01-14 16:52:48.631,929632,-250318,27785360,9542315,-13427730,-5203125,-19667970
2026-01-14 16:52:48.641,953801,-604217,27638620,9544043,-11679690,-5265625,-14238280
