Timestamp,Rotation X,Rotation Y,Rotation Z,Rotation W,Acceleration X,Acceleration Y,Acceleration Z
2026-01-14 16:52:35.051,-38143380,19697480,-59713920,67491060,-93,40048,30349730,-62072750
2026-01-14 16:52:35.061,-51348970,19697480,-59713920,54285460,54359440,-53520200,-8984375
2026-01-14 16:52:35.071,9418880,19688850,-59722560,19980600,-13885500,-10749820,-8416748
2026-01-14 16:52:35.081,9428374,19680220,-59731190,19988370,-63171390,14862060,-8117676
2026-01-14 16:52:35.091,9437008,19680220,-59731190,19997000,-28591160,-10139470,-6958008
2026-01-14 16:52:35.101,-38065680,37702290,-41709110,67516960,-5580902,18188480,-53588870
2026-01-14 16:52:35.111,-51317030,19662950,-59748450,54265610,11833190,25131230,-60913090
2026-01-14 16:52:35.121,-38031160,19645690,-59748450,67534220,-7522583,18371580,-47698980
2026-01-14 16:52:35.131,-38022530,37691070,-41703070,67542860,-3189087,55725100,-30349730
2026-01-14 16:52:35.141,9482756,19628430,-59765720,20037570,-30212400,36590580,-22369380
2026-01-14 16:52:35.151,9482756,19628430,-59782980,20037570,-44647220,58746340,-6378174
2026-01-14 16:52:35.161,9482756,19619800,-59791610,20037570,-5697632,6384277,12565610
2026-01-14 16:52:35.171,9483620,37696250,-41715160,20036710,-8178711,5441284,27648930
2026-01-14 16:52:35.181,9474986,19593900,-59800240,20028070,-58044430,35614020,21942140
2026-01-14 16:52:35.191,9483619,19585270,-59808870,20036710,-5670166,3842163,58410640
2026-01-14 16:52:35.201,-37996630,37685020,-41709110,67516960,-72265620,28900150,3704834
2026-01-14 16:52:35.211,-37996630,-16168850,-24106540,67516960,-8068848,12802120,41778560
2026-01-14 16:52:35.221,9485346,-16186120,-24123800,20034980,-7678223,2041626,18859860
2026-01-14 16:52:35.231,-3797938,-16194750,-24132430,6751695,-9552002,5760193,22949220
2026-01-14 16:52:35.241,-3797074,1950758,-5986930,6750833,-90148930,29792790,15022280
2026-01-14 16:52:35.251,9503473,-16220640,-24158330,20051380,-9020996,-19216540,15289310
2026-01-14 16:52:35.261,-37953470,-16229280,-24166960,67508320,-597229,-3778076,-12275700
2026-01-14 16:52:35.271,-37944840,1948166,-5989517,67499690,-65979000,-15716550,4032135
2026-01-14 16:52:35.281,-37936210,-16246540,-24184220,67508320,-49224860,-25283810,-21636960
2026-01-14 16:52:35.291,9514694,-16255170,-24192860,20057420,-40863040,-46844480,-79422
2026-01-14 16:52:35.301,9523326,1945579,-5992109,20066050,-16571050,-3692627,-12382510
2026-01-14 16:52:35.311,9532822,1945579,-5992109,20073820,-1436615,-26290890,-14640810
2026-01-14 16:52:35.321,9541453,-16272430,-24210120,20082450,-16693120,21972660,-33111570
2026-01-14 16:52:35.331,9550084,-16281060,-24218750,20091080,-9346008,-848,2933,-21484380
2026-01-14 16:52:35.341,-51213450,-16289700,-24227380,54179290,-19622800,-4146576,-19760130
2026-01-14 16:52:35.351,9569074,1942126,-5995562,20106620,-39611820,8758545,-7972717
2026-01-14 16:52:35.361,9578568,-16306960,-24244650,20114390,-52124020,23239140,-77781680
2026-01-14 16:52:35.371,9587199,-16315590,-24253280,20123020,-45928960,37261960,-418,1862
2026-01-14 16:52:35.381,-37806730,1939535,-5998149,67534220,-51635740,52124020,-47836300
2026-01-14 16:52:35.391,14345760,19395370,-59998770,15399000,-7965088,33813480,-13298040
2026-01-14 16:52:35.401,9615683,19386740,-60007400,20146330,-88012700,29571530,-4058838
2026-01-14 16:52:35.411,-37754950,19378110,-60016030,67534220,-8300781,22979740,-30227660
2026-01-14 16:52:35.421,-37729050,37672940,-41738460,67542860,-8709717,4901123,-36590580
2026-01-14 16:52:35.431,-3771181,19369480,-60041930,6754286,-9350586,15853880,-40527340
2026-01-14 16:52:35.441,9662293,19369480,-60041930,20186030,-9991455,-2128601,-32287600
2026-01-14 16:52:35.451,9670926,19360850,-60050560,20194670,-116882300,-4634857,-56884770
2026-01-14 16:52:35.461,-37668630,-16373430,-24316290,67551490,-9527588,41503900,-66467280
2026-01-14 16:52:35.471,-37668630,-16373430,-24316290,67551490,-8898926,-23040770,-7635498
2026-01-14 16:52:35.481,9689916,-16373420,-24316290,20210200,-8276367,-27771000,-7910156
2026-01-14 16:52:35.491,9689916,-16372560,-24317150,20210200,-10620120,-24673460,-9832764
2026-01-14 16:52:35.501,9689916,-16363930,-24308520,20210200,-7092285,-46813960,-78552250
2026-01-14 16:52:35.511,9689916,37698840,-41764360,20210200,-6402588,-38909910,-77697750
2026-01-14 16:52:35.521,9681284,19412630,-60050560,20201570,-7354736,-28244020,-62561040
2026-01-14 16:52:35.531,9681286,-16336310,-24284350,20201570,-9490967,4095459,-4916382
2026-01-14 16:52:35.541,9672654,-16326810,-24276580,20192940,-9240723,4727173,-27648930
2026-01-14 16:52:35.551,9664021,1945579,-6004194,20184310,-5630493,38146970,-19973760
2026-01-14 16:52:35.561,-51118510,19473050,-60041920,54101610,-53222660,26626590,-27389530
2026-01-14 16:52:35.571,-37703160,19481690,-60033290,67516960,-56877140,27130130,-22628780
2026-01-14 16:52:35.581,9636400,37730770,-41784210,20160140,-19515990,28564450,18112180
2026-01-14 16:52:35.591,9626904,19498950,-60016030,20152370,-28457640,463562,12016300
2026-01-14 16:52:35.601,9618272,19507580,-60007400,20143740,-8117676,5105591,211792
2026-01-14 16:52:35.611,-37763580,19516210,-59998760,67508330,-6573486,62072750,839,2334
2026-01-14 16:52:35.621,-37763580,37734220,-41780750,67508330,-6402588,413208,-4234314
2026-01-14 16:52:35.631,-37772210,1953345,-5999875,67499700,-7672119,4019165,-31986240
2026-01-14 16:52:35.641,-37789470,-16247400,-24200620,67499700,-6585693,2218628,50468440
2026-01-14 16:52:35.651,-37798100,-16238770,-24191990,67491060,-57891850,23788450,-13198850
2026-01-14 16:52:35.661,9572527,1955936,-5997288,20103170,-56854250,12207030,-13542180
2026-01-14 16:52:35.671,-3782401,-16221510,-24174730,6748243,-42755130,-24223330,-58670040
2026-01-14 16:52:35.681,14293970,-16212870,-24166100,15347200,-23239140,-14953610,-31219480
2026-01-14 16:52:35.691,-37858520,1958524,-5994696,67482430,-37963870,-1701355,-17089840
2026-01-14 16:52:35.701,-37858520,1958524,-5994696,67482430,-68237300,11871340,-8613586
2026-01-14 16:52:35.711,-37867150,1958524,-5994696,67473800,-8465576,-6965637,-14602660
2026-01-14 16:52:35.721,9526778,-16195610,-24148840,20062600,-10076900,-23727420,-29464720
2026-01-14 16:52:35.731,9518146,-20159610,-20167570,20053970,-7128906,-17730710,-39642340
2026-01-14 16:52:35.741,9509515,-20150980,-20158940,20045340,-6915283,14762880,-27069090
2026-01-14 16:52:35.751,9491390,-2010656,-2018611,20028940,-5441284,18798830,-13702390
2026-01-14 16:52:35.761,9482756,-16159360,-24116040,20020300,-4437256,3118515,-46043400
2026-01-14 16:52:35.771,-37962100,-16150730,-24107400,67430640,-36590580,1253128,-17232900
2026-01-14 16:52:35.781,9446504,1966295,-5990383,19987500,-30151370,-15457150,12557980
2026-01-14 16:52:35.791,9437008,-16133460,-24090140,19979730,-38970950,-3213501,5821228
2026-01-14 16:52:35.801,-38022520,-20099190,-20107150,67422000,-6048584,-5230713,2508545
2026-01-14 16:52:35.811,-51262650,-2005479,-2013429,54199140,-793457,-7110596,33294680
2026-01-14 16:52:35.821,9391261,-20081930,-20089880,19939170,-7751465,-6072998,32165530
2026-01-14 16:52:35.831,9373997,-20081930,-20089880,19921900,-8862305,-7598877,3527832
2026-01-14 16:52:35.841,9355870,-20073300,-20081250,19905500,-7495117,-7537842,54901120
2026-01-14 16:52:35.851,-38143370,-16090310,-24046980,67370220,-77941900,-7965088,29922480
2026-01-14 16:52:35.861,-51297180,1972336,-5984338,54216410,-6210327,-60821530,21362300
2026-01-14 16:52:35.871,9302353,19740640,-59843400,19855440,-45562740,-40771480,32958980
2026-01-14 16:52:35.881,9284226,19740640,-59843400,19839040,-30654910,-24108890,390625
2026-01-14 16:52:35.891,9266964,19749270,-59834770,19821780,16174320,-11810300,2520752
2026-01-14 16:52:35.901,-38255580,37788600,-41795430,67309800,-7129669,21957400,65193180
2026-01-14 16:52:35.911,-38272840,-16045420,-24005550,67309790,28549190,56152340,-10128020
2026-01-14 16:52:35.921,-51340340,-16036790,-23996910,54242300,28945920,5441284,21057130
2026-01-14 16:52:35.931,9221217,-16028160,-23988290,19781210,4840088,8996582,-7522583
2026-01-14 16:52:35.941,9212584,1980105,-5980025,19772580,32592770,7751465,-19664760
2026-01-14 16:52:35.951,9203090,-16010890,-23971020,19764810,53955080,10797120,5218506
2026-01-14 16:52:35.961,9194458,-16002260,-23962390,19756180,58746340,1048584,489,2349
2026-01-14 16:52:35.971,-38350530,-16002260,-23962390,67283900,6719971,12548830,-1272583
2026-01-14 16:52:35.981,-38350530,1982693,-5977433,67283900,9185791,108947800,-20111080
2026-01-14 16:52:35.991,9175468,37794650,-41789390,19740640,98083500,109191900,-11520390
2026-01-14 16:52:36.001,9174604,37794650,-41789390,19741500,11602780,11779790,-35064700
2026-01-14 16:52:36.011,9174605,-15986730,-23943400,19741500,10437010,1159668,-2482605
2026-01-14 16:52:36.021,-38385060,-19961090,-19969040,67301170,11694340,10284420,-10894780
2026-01-14 16:52:36.031,-38385060,-1993395,-2001345,67301170,14086910,10040280,-1977539
2026-01-14 16:52:36.041,9181512,1979242,-5973983,19751860,10845950,7904053,-3805542
2026-01-14 16:52:36.051,9181512,1977516,-5972257,19751860,1270752,64453120,-1889038
2026-01-14 16:52:36.061,9190143,-16008300,-23956350,19760490,11505130,37963870,-12535100
2026-01-14 16:52:36.071,9197909,19740640,-59722550,19769990,93688970,1474762,-11550900
2026-01-14 16:52:36.081,9206542,1972337,-5972256,19778620,6829834,-1779,795,27267460
2026-01-14 16:52:36.091,9215173,19697480,-59713930,19787250,6707764,-33843990,22415160
2026-01-14 16:52:36.101,-51418020,19671590,-59722550,54319990,17974850,-24108890,32165530
2026-01-14 16:52:36.111,-38341900,1964566,-5971391,67396110,-44136050,-12809750,36224360
2026-01-14 16:52:36.121,-51415440,19619790,-59722550,54322580,-3543091,756073,52825930
2026-01-14 16:52:36.131,9258334,-16102390,-24034900,19830410,-44891360,630188,37200930
2026-01-14 16:52:36.141,9266966,-19689370,-20482450,19839040,-39642340,-16393660,27267460
2026-01-14 16:52:36.151,9275595,19542110,-59748450,19847670,-31463620,-2255249,18844600
2026-01-14 16:52:36.161,9292860,1951621,-5975709,19864940,-23788450,9544373,19088740
2026-01-14 16:52:36.171,9301492,-16166260,-24091870,19873570,-3515625,29708860,31219480
2026-01-14 16:52:36.181,9302355,37604750,-41634020,19872710,-5029297,60577390,737381
2026-01-14 16:52:36.191,-3825561,19455790,-59765710,6744791,-647583,60333250,3932953
2026-01-14 16:52:36.201,9328250,-16212010,-24132440,19898600,-62469480,78125,14381410
2026-01-14 16:52:36.211,-38221060,-16230140,-24148830,67465170,-55877690,6530762,-13877870
2026-01-14 16:52:36.221,-38212420,-16238770,-24157470,67473800,-56793210,64575200,-3491211
2026-01-14 16:52:36.231,-38195160,37564180,-41605530,67491060,-47729490,5206299,-3173828
2026-01-14 16:52:36.241,-38186530,-16257760,-24173000,67499700,-27755740,37353520,-6903076
2026-01-14 16:52:36.251,-38177900,-16258620,-24172140,67508330,-13755800,12908940,-51452640
2026-01-14 16:52:36.261,-51374870,19334950,-59782970,54311360,592041,26901240,-7293701
2026-01-14 16:52:36.271,-38152000,1931766,-5978296,67534220,31402590,284729,-7519531
2026-01-14 16:52:36.281,-38134740,-16287110,-24195440,67551480,41778560,42388920,-7885742
2026-01-14 16:52:36.291,-38117480,19283160,-59782970,67568750,34973140,5429077,-10308840
2026-01-14 16:52:36.301,-51368820,-16306960,-24210120,54317400,22415160,61767580,-11578370
2026-01-14 16:52:36.311,-38082950,1923997,-5977433,67603280,20736690,6549072,-100097700
2026-01-14 16:52:36.321,-38065690,19222740,-59774340,67620540,12611390,6781006,-85754390
2026-01-14 16:52:36.331,-38039790,-16335450,-24233430,67646430,5584717,6112671,-8868408
2026-01-14 16:52:36.341,-38022530,1918818,-5977433,67663700,12950900,64697260,-89538580
2026-01-14 16:52:36.351,-38005260,37443340,-41501950,67680960,-7785797,5407715,-6506348
2026-01-14 16:52:36.361,9571660,19153690,-59774340,20138560,-28015140,4510498,-4864502
2026-01-14 16:52:36.371,9588927,-16373420,-24264500,20155820,-41015620,57678220,-26687620
2026-01-14 16:52:36.381,9607052,-16391550,-24280900,20172220,-4916382,28717040,-28640750
2026-01-14 16:52:36.391,9624316,-16400180,-24289530,20189490,-4058838,3652954,-45074460
2026-01-14 16:52:36.401,-51325670,19076000,-59800240,54308770,-48553470,35705570,-2861023
2026-01-14 16:52:36.411,9651938,-16427800,-24313700,20213650,-54656980,4736328,-38208010
2026-01-14 16:52:36.421,9669202,3739154,-4146743,20230920,-7269287,6188965,-28747560
2026-01-14 16:52:36.431,9678695,-16453700,-24339600,20238680,-79956060,49041750,-26397700
2026-01-14 16:52:36.441,-37815360,-16462330,-24348230,67767270,-45562740,45166020,-2645874
2026-01-14 16:52:36.451,-37798100,1901555,-5984339,67767280,-84472660,36895750,-58517460
2026-01-14 16:52:36.461,-37789470,-16480460,-24364630,67775910,-847168,3427124,29663090
2026-01-14 16:52:36.471,9715812,1898104,-5986067,20270620,-6616211,23162840,3869629
2026-01-14 16:52:36.481,-3777224,18963790,-59860660,6777592,-45562740,53588870,2243042
2026-01-14 16:52:36.491,9733074,37365650,-41458800,20287890,-59661860,41381840,30975340
2026-01-14 16:52:36.501,9733938,-20088930,-20877000,20287020,-7055664,23284910,26992800
2026-01-14 16:52:36.511,9742570,-20097560,-20885630,20295650,-7324219,21713260,3274536
2026-01-14 16:52:36.521,-37737680,-16569360,-24448350,67775900,-44921880,44708250,2482605
2026-01-14 16:52:36.531,-37729050,37333720,-41438940,67784540,-11947630,52825930,1222229
2026-01-14 16:52:36.541,9778821,18842950,-59912460,20328460,-33050540,3277588,-4321289
2026-01-14 16:52:36.551,9805581,37322500,-41432900,20353490,-39520260,2848816,-826416
2026-01-14 16:52:36.561,-37625460,-16632380,-24506180,67836330,-546875,4863739,-83496100
2026-01-14 16:52:36.571,-37590940,-16641010,-24514820,67853580,-6384277,72135930,-10449220
2026-01-14 16:52:36.581,9894488,-16659130,-24531220,20437210,-50354000,37963870,-18188480
2026-01-14 16:52:36.591,9921247,-16667770,-24539850,20462250,-79589840,-29182430,-17810060
2026-01-14 16:52:36.601,9940236,1874799,-5997288,20477780,-9863281,48217770,-1652832
2026-01-14 16:52:36.611,9958362,-16685030,-24557110,20494180,-8312988,30044560,-14489750
2026-01-14 16:52:36.621,-37426940,-16692800,-24566610,67914010,-10882570,19241330,-1352539
2026-01-14 16:52:36.631,14725550,-16692800,-24566610,15778790,-10522460,31097410,-14453130
2026-01-14 16:52:36.641,9995477,18739370,-60016030,20526120,-8276367,31585690,-99731450
2026-01-14 16:52:36.651,-37383790,18748000,-60024660,67905380,-6762695,64575200,-8605957
2026-01-14 16:52:36.661,-37375150,1874797,-6004191,67914020,-55480960,5227661,-52246100
2026-01-14 16:52:36.671,-37366520,1874797,-6004191,67905380,-3878784,42175290,-16616820
2026-01-14 16:52:36.681,10015330,-20261560,-21049630,20540790,-30838010,45715330,19683840
2026-01-14 16:52:36.691,10016190,-1673251,-2461322,20539930,-55999760,58898930,-18539430
2026-01-14 16:52:36.701,-37331990,-20287460,-21075530,67888120,-2848816,66101070,1638794
2026-01-14 16:52:36.711,-37323360,-20296090,-21084160,67896750,-24230960,7720947,12107850
2026-01-14 16:52:36.721,-3730612,18722100,-60102350,6789676,-24032590,4321289,38337710
2026-01-14 16:52:36.731,-3730612,37342350,-41482100,6789677,2696228,2664566,35705570
2026-01-14 16:52:36.741,10044680,-1675840,-2463912,20563240,19577030,-35186770,4070282
2026-01-14 16:52:36.751,10044680,-20313350,-21101420,20563240,4611206,-463562,617218
2026-01-14 16:52:36.761,10053310,-20313350,-21101420,20571870,30288700,-24398800,17471310
2026-01-14 16:52:36.771,10053310,-20313350,-21101420,20571870,25634770,-18554690,655365
2026-01-14 16:52:36.781,-3727158,-20313350,-21101420,6791400,57792660,54016110,31951900
2026-01-14 16:52:36.791,-3727158,-16776520,-24655520,6791400,18173220,11329650,41809080
2026-01-14 16:52:36.801,-3727158,-16776520,-24655520,6791400,6011963,25344850,51635740
2026-01-14 16:52:36.811,-37254300,-16785160,-24664140,67914020,9643555,30029300,27618410
2026-01-14 16:52:36.821,-37254300,-16785160,-24664140,67914020,11413570,423584,31463620
2026-01-14 16:52:36.831,-37245670,1866165,-6012823,67922650,48339840,-53253180,41625980
2026-01-14 16:52:36.841,10089560,-16802420,-24681410,20604670,6008911,33569340,49926760
2026-01-14 16:52:36.851,10098190,-16811050,-24690040,20613300,4107666,26306150,5303955
2026-01-14 16:52:36.861,10106830,37310410,-41462250,20621940,36865230,4272461,43426510
2026-01-14 16:52:36.871,-3718528,18609890,-60145510,6794855,4386902,60272220,22659300
2026-01-14 16:52:36.881,-37159360,1858397,-6015412,67957180,-1612854,3656006,44677740
2026-01-14 16:52:36.891,-37150730,-16865430,-24739240,67965810,-40405270,27893070,17684940
2026-01-14 16:52:36.901,-37124830,1854081,-6018002,67974440,-44799800,25253300,-9994507
2026-01-14 16:52:36.911,14916660,-16892190,-24764270,15967480,-3829956,11468510,-7757568
2026-01-14 16:52:36.921,10206090,37267250,-41436350,20712570,5734253,18664550,-2322998
2026-01-14 16:52:36.931,-37047150,-16937070,-24805710,68000340,13452150,4362793,-44213870
2026-01-14 16:52:36.941,10242340,18411360,-60240460,20745370,35009770,84472660,-89208980
2026-01-14 16:52:36.951,10277730,18325040,-60274980,20779030,10253910,87402340,-14394530
2026-01-14 16:52:36.961,10341610,1817830,-6033541,20836000,17402340,8203125,-21796880
2026-01-14 16:52:36.971,-36779560,-17314280,-25153560,68095280,23710940,13671880,-31875
2026-01-14 16:52:36.981,10531510,1767766,-6054257,21008630,25644530,20175780,-39863280
2026-01-14 16:52:36.991,-50731800,-17774350,-25573920,53918620,21894530,24335940,-42382810
2026-01-14 16:52:37.001,10915610,-18056600,-25826830,21366850,17089840,26230470,-44492190
2026-01-14 16:52:37.011,-3585600,16469230,-60905100,6853550,13496090,28339840,-4296875
2026-01-14 16:52:37.021,11304900,16020390,-60991410,21737150,14189450,30996090,-39941410
2026-01-14 16:52:37.031,-35441660,36033780,-40580950,68846230,1515625,36074220,-375
2026-01-14 16:52:37.041,-3517410,15183110,-60965520,6913109,15410160,4328125,-35195310
2026-01-14 16:52:37.051,12155990,-19180440,-26740060,22595130,17978520,51328120,-36230470
2026-01-14 16:52:37.061,12728260,14527110,-60395820,23179500,22011720,56835940,-40273440
2026-01-14 16:52:37.071,-3362038,1425089,-5984340,7106458,25800780,5984375,-49101560
2026-01-14 16:52:37.081,14401090,34307450,-38820090,24890300,28183590,54179690,-56367190
2026-01-14 16:52:37.091,15423940,-18627150,-25825970,25939040,26015620,46601560,-62695310
2026-01-14 16:52:37.101,-31030870,-18279300,-25362450,74430930,23261720,42070310,-68984380
2026-01-14 16:52:37.111,-50664480,1351718,-5614039,55194380,19921880,44023440,-7078125
2026-01-14 16:52:37.121,-2979655,32197870,-36337620,7661476,15634770,38828120,-69726560
2026-01-14 16:52:37.131,-29615280,13767520,-53732170,77521060,11201170,39609380,-63320310
2026-01-14 16:52:37.141,18869700,-15845170,-22496730,29674830,63134770,42578120,-54570310
2026-01-14 16:52:37.151,18970690,14535740,-51030460,29884580,18652340,475,-43359380
2026-01-14 16:52:37.161,18918040,15036370,-49528550,29954500,4152832,48789060,-34667970
2026-01-14 16:52:37.171,18801510,1555426,-4794033,29967450,41577150,56640620,-2359375
2026-01-14 16:52:37.181,-3215300,-11979900,-18213700,8081836,45288090,6140625,-13349610
2026-01-14 16:52:37.191,18610750,16546920,-44496280,30037370,31201170,6546875,-3701172
2026-01-14 16:52:37.201,-3334418,16987140,-42640470,8213040,-36865230,68085940,4284668
2026-01-14 16:52:37.211,-33767110,17384190,-40689710,82864070,-8388672,64726560,12138670
2026-01-14 16:52:37.221,-34086480,17763980,-38600840,83649560,-15986330,59765620,19306640
2026-01-14 16:52:37.231,19118300,18117880,-36417040,30997210,-19306640,5421875,22890620
2026-01-14 16:52:37.241,-3454401,-52187100,-104736700,8524639,-2640625,49335940,27792970
2026-01-14 16:52:37.251,-34725230,-39774760,-90218260,86031900,-33320310,39453120,36953120
2026-01-14 16:52:37.261,-3488925,-49031360,-53858190,8676557,-28867190,4015625,31191410
2026-01-14 16:52:37.271,-3507052,-14561640,-60533930,8746475,-32871090,28984380,27832030
2026-01-14 16:52:37.281,20228330,-2002550,-45644300,32562990,-38847660,23769530,36503900
2026-01-14 16:52:37.291,-3546756,-7865182,-11987670,8862140,-38027340,11826170,4296875
2026-01-14 16:52:37.301,-3566608,23012040,-15761440,8911342,-41054690,36132810,46835940
2026-01-14 16:52:37.311,20584820,35225860,-1044434,33121460,-38515620,-41479490,4890625
2026-01-14 16:52:37.321,-35959550,19904640,-13827940,89907520,-37402340,-10478520,49335940
2026-01-14 16:52:37.331,-60422580,58919800,27742200,65841550,-35136720,-18828120,49492190
2026-01-14 16:52:37.341,-36045870,19904640,-8717989,90511740,-32734380,-26777340,49960940
2026-01-14 16:52:37.351,-60637520,19861480,-6223434,66110000,-30273440,-3375,52109380
2026-01-14 16:52:37.361,-35925030,19792430,-3772040,90926060,-30488280,-38378900,5125
2026-01-14 16:52:37.371,-35795550,19732000,-1346539,91055540,-284375,-44726560,5328125
2026-01-14 16:52:37.381,-60626300,19671580,1044436,66173010,-25117190,-53515620,50234380
2026-01-14 16:52:37.391,-60559820,19602530,3392252,66118620,-22910160,-56953120,50585940
2026-01-14 16:52:37.401,21485100,8175921,-5652021,34137410,-19609380,-61132810,4640625
2026-01-14 16:52:37.411,21441940,19447160,7967035,34076990,-1546875,-64609380,45234380
2026-01-14 16:52:37.421,-35424390,60421720,-30901390,90736160,-11689450,-66914060,45742190
2026-01-14 16:52:37.431,26862120,49856550,-18333680,28121650,-58935550,-64570310,42734380
2026-01-14 16:52:37.441,-35588390,39412220,-5990382,90157840,-39697260,-64414060,42148440
2026-01-14 16:52:37.451,20757450,29088740,6128488,33311360,30029300,-62578120,39941410
2026-01-14 16:52:37.461,20493320,1850630,1841998,33023060,38891600,-61132810,39960940
2026-01-14 16:52:37.471,20193800,8994204,29537590,32701100,7026367,-60,37675780
2026-01-14 16:52:37.481,-36287560,-863172,40914140,88526450,9663086,-5890625,35683590
2026-01-14 16:52:37.491,-3652059,-10418430,51902260,8803445,13320310,-5765625,33964840
2026-01-14 16:52:37.501,19152820,17280610,25549750,31584160,18662110,-56367190,31660160
2026-01-14 16:52:37.511,-37098940,-29054220,73144810,86972750,22441410,-54765620,30097660
2026-01-14 16:52:37.521,18269800,-3803117,8333018,30654530,2390625,-51679690,27636720
2026-01-14 16:52:37.531,-3789302,-46878620,93299780,8574703,30683590,-50195310,25566410
2026-01-14 16:52:37.541,-38410950,-5559665,10305360,85073780,33339840,-49101560,24765620
2026-01-14 16:52:37.551,-39023800,15381640,33042050,84340100,35527340,-46328120,24492190
2026-01-14 16:52:37.561,-59467060,-7265283,12190520,63845040,37832030,-4515625,26171880
2026-01-14 16:52:37.571,14868930,14371740,35588390,27201860,43789060,-45,33007810
2026-01-14 16:52:37.581,-41647830,13793420,36770940,81785120,51289060,-44492190,43046880
2026-01-14 16:52:37.591,12819770,13154670,37875790,25176870,57890620,-43632810,54492190
2026-01-14 16:52:37.601,-44081960,12464140,38911590,79696260,62539060,-40507810,69921870
2026-01-14 16:52:37.611,10294140,11730450,39886970,22696120,69414060,-37246100,9140625
2026-01-14 16:52:37.621,8882857,-14647870,15165940,21310740,79570310,-30605470,125703100
2026-01-14 16:52:37.631,13050150,10297590,41647830,14295000,88515620,-19169920,1709375
2026-01-14 16:52:37.641,6057709,-16114040,16634530,18525300,9953125,13269040,209375
2026-01-14 16:52:37.651,4728432,24309380,27705080,17213290,10046880,12177730,2371875
2026-01-14 16:52:37.661,-5282583,8364094,43408690,7224712,96328130,275,24734380
2026-01-14 16:52:37.671,-54129230,23730200,27334790,71271740,8640625,31640620,25875
2026-01-14 16:52:37.681,1241236,23058650,26763370,13829670,9671875,49023440,26296880
2026-01-14 16:52:37.691,-56649680,4773314,42839000,69976980,984375,59726560,289375
2026-01-14 16:52:37.701,-4246788,2667184,41768680,123363900,86796870,7453125,3121875
2026-01-14 16:52:37.711,-942577,-60422,40076860,11939330,66601560,79765620,32625
2026-01-14 16:52:37.721,47266190,-3452670,37685890,60284480,23359380,71757810,335
2026-01-14 16:52:37.731,-6015412,-7509557,34578490,7137531,-43789060,48046880,3378125
2026-01-14 16:52:37.741,-4419416,-20568420,22417320,128197600,-112890600,9667969,3228125
2026-01-14 16:52:37.751,4177728,-17738100,26059020,137381700,-2103125,-31289060,28640620
2026-01-14 16:52:37.761,1683177,-37910310,6491020,14975950,-3153125,-69101560,20734380
2026-01-14 16:52:37.771,-55553460,-30193600,14673850,75837890,-440,-94375,93125
2026-01-14 16:52:37.781,6222576,-24039210,21242550,19050970,-536875,-127734400,19355470
2026-01-14 16:52:37.791,9873772,-21312470,-16649640,22236060,-416875,-24796880,-2946875
2026-01-14 16:52:37.801,6930371,-16637550,-12416670,19810560,1025625,19078120,-1039375
2026-01-14 16:52:37.811,-53697640,-14332900,-10163790,76882320,4390625,-99921870,-128625
2026-01-14 16:52:37.821,4673188,-34941020,5679643,17682850,1059375,19453120,-18046880
2026-01-14 16:52:37.831,-53930700,-17218470,-13199550,76062310,-410625,-32988280,59625
2026-01-14 16:52:37.841,4783674,-35597020,4505735,17762260,-119375,-4209375,1384375
2026-01-14 16:52:37.851,10288180,-36089030,4462575,11584480,-11787110,-9546875,120
2026-01-14 16:52:37.861,5002919,-36624200,3685724,17922810,18203120,27675780,-50234380
2026-01-14 16:52:37.871,-51410260,-21498910,18120470,77236220,58398440,22460940,-340625
2026-01-14 16:52:37.881,-4870854,-36675980,1855810,7900570,10351560,-15371090,-11894530
2026-01-14 16:52:37.891,-4539398,-36434300,923590,3,8109457,15019530,-45625,11787110
2026-01-14 16:52:37.901,20039380,-36089030,-284844,21289070,26171880,-8140625,7988281
2026-01-14 16:52:37.911,-59347080,-18738510,15011350,64016820,26796880,-116953100,32641600
2026-01-14 16:52:37.921,19691440,-34682070,-3435406,31874180,13105470,-144765600,9980469
2026-01-14 16:52:37.931,-3221341,-33611740,-5161740,8814664,-17890620,-13484380,-12480470
2026-01-14 16:52:37.941,-29572120,-14697160,10783550,89441410,-26445310,-105390600,-23417970
2026-01-14 16:52:37.951,-2712935,-13128780,9192733,9057216,-29472660,-6984375,-33574220
2026-01-14 16:52:37.961,27541080,-2927866,-1032350,39181760,-28828120,-44296880,-41289060
2026-01-14 16:52:37.971,-22675410,-27655890,-12256980,92384820,-33007810,-26289060,-45820310
2026-01-14 16:52:37.981,-2064697,-7823750,3794484,9304945,-39375,-16845700,-4125
2026-01-14 16:52:37.991,31794770,-24220480,-16555550,43024580,-47226560,-21777340,-33769530
2026-01-14 16:52:38.001,32872870,-38177900,-3133302,43966300,-51679690,-39257810,-26835940
2026-01-14 16:52:38.011,33721360,35886180,-40072550,44688770,-63164060,-5046875,-28183590
2026-01-14 16:52:38.021,-1450122,-18609890,-23616260,9406798,-76679690,-49023440,-2984375
2026-01-14 16:52:38.031,-53460190,24747010,-67094000,54263110,-8734375,-45859380,-25273440
2026-01-14 16:52:38.041,-1328416,-21080550,-21093810,9386944,-9453125,-28710940,-19960940
2026-01-14 16:52:38.051,-13197820,-12222460,-29520330,93645030,-95625,-13398440,-13701170
2026-01-14 16:52:38.061,-13465410,-9857376,-31263920,93325660,-9421875,1315918,-63720700
2026-01-14 16:52:38.071,-49513010,-7380083,-32947100,57398910,-92734380,16376950,43579100
2026-01-14 16:52:38.081,33380410,-4816476,-34595750,44097500,-93828130,2640625,16591800
2026-01-14 16:52:38.091,-15839120,15076940,-18914590,91642480,-975,30722660,26523440
2026-01-14 16:52:38.101,-5021824,440214,-37677260,5760866,-101640600,35214840,35683590
2026-01-14 16:52:38.111,30517280,305559,5,-3904971,41332770,-10171880,390625,46289060
2026-01-14 16:52:38.121,29432280,21247730,-24707300,40277120,-100234400,43867190,53671880
2026-01-14 16:52:38.131,28316210,8269145,-41380250,39183490,-97265620,48359380,60507810
2026-01-14 16:52:38.141,27202720,-13103750,-18419130,38087260,-9078125,50546880,6734375
2026-01-14 16:52:38.151,26076290,-12098160,-17750180,36969460,-81796870,5421875,74453130
2026-01-14 16:52:38.161,-24082380,15804590,-43943850,84866620,-7046875,58632810,784375
2026-01-14 16:52:38.171,23818240,18238730,-44651650,34704510,-57070310,60742190,79804690
2026-01-14 16:52:38.181,-5152508,20603810,-45307660,5714774,-45664060,62148440,80859380
2026-01-14 16:52:38.191,-27207040,22899830,-45963660,81155000,-34863280,63046880,8234375
2026-01-14 16:52:38.201,20463970,-7160838,-14332030,31257020,-265625,63046880,834375
2026-01-14 16:52:38.211,-28924750,27215670,-47241150,78453290,-20,6234375,85390620
2026-01-14 16:52:38.221,18375110,29226850,-47854010,29047310,-13378910,62109380,86015620
2026-01-14 16:52:38.231,17403180,-4659379,-12621240,27999430,-4658203,61015620,8484375
2026-01-14 16:52:38.241,-30815080,-3907563,-12112830,74301460,37402340,59257810,80859380
2026-01-14 16:52:38.251,-50001560,34794280,-49606230,54165480,12099610,57734380,75703130
2026-01-14 16:52:38.261,14798140,-2512682,-11177160,25114720,19794920,55429690,70898440
2026-01-14 16:52:38.271,-31894040,-1887751,-10766290,70184140,26601560,53867190,64648440
2026-01-14 16:52:38.281,13347160,-1311152,-10393400,23441040,33847660,52539060,57734380
2026-01-14 16:52:38.291,-48112090,4094001,-5181592,51652800,4109375,4890625,5109375
2026-01-14 16:52:38.301,12118870,-46284760,-55741620,21976240,471875,44179690,46484380
2026-01-14 16:52:38.311,-47040040,-43521770,-53152980,50325250,52851560,39023440,44179690
2026-01-14 16:52:38.321,-3222207,44349540,-53602700,6391757,57734380,33632810,4328125
2026-01-14 16:52:38.331,10558260,486826,5,-9463768,20049650,61367190,28925780,39082030
2026-01-14 16:52:38.341,10110280,46075880,-54897450,19479100,65507810,26972660,33203120
2026-01-14 16:52:38.351,-31937200,724195,-9511241,60559830,68710940,22871090,27910160
2026-01-14 16:52:38.361,-31816360,47396520,-56252620,59506770,7125,17851560,23964840
2026-01-14 16:52:38.371,-3169552,745777,-9739981,5850549,7375,13525390,19521480
2026-01-14 16:52:38.381,12510490,697439,-9898805,13401800,75585940,9423828,1609375
2026-01-14 16:52:38.391,-31540140,618888,5,-10079200,56589260,7734375,62939450,11328130
2026-01-14 16:52:38.401,-31505610,518760,5,-10272550,55691560,796875,15014650,7529297
2026-01-14 16:52:38.411,7343826,49330020,-59429080,15978960,825,-46435550,38964840
2026-01-14 16:52:38.421,-31540140,-4691922,-5786932,54034280,84296870,-8388672,-12771610
2026-01-14 16:52:38.431,6588555,49623490,-60533930,15076950,8609375,-12695310,-34277340
2026-01-14 16:52:38.441,6213940,49666660,-61077730,14640190,896875,-13828130,-6118164
2026-01-14 16:52:38.451,584364,1,-5425612,-6537889,1421637,915625,-16542970,-8491211
2026-01-14 16:52:38.461,5486290,49511280,-62113530,13814130,92890620,-19707030,-10244140
2026-01-14 16:52:38.471,5150520,-1075507,-12269060,13442110,940625,-22519530,-11894530
2026-01-14 16:52:38.481,4819063,-1478607,-12694600,13083030,940625,-23476560,-12685550
2026-01-14 16:52:38.491,4526448,48579060,-63684490,12771430,9359375,-23925780,-12607420
2026-01-14 16:52:38.501,4264046,-2447944,-13676030,12498660,93671870,-22597660,-11962890
2026-01-14 16:52:38.511,77625500,55236670,-56957830,85858400,92734380,-20078120,-11337890
2026-01-14 16:52:38.521,3915327,-3593366,-14792100,12156850,91484380,-16367190,-9423828
2026-01-14 16:52:38.531,3855767,54858610,-56818000,12112830,89765620,-10878910,-77685540
2026-01-14 16:52:38.541,-33387320,-4856182,-15980680,49442230,8640625,-7192383,-62402340
2026-01-14 16:52:38.551,77584070,-5521687,-16592670,85899830,8265625,-48535160,-51708980
2026-01-14 16:52:38.561,79893900,43331000,-66722850,88251100,78789060,-14672850,-42797850
2026-01-14 16:52:38.571,83062610,-6851828,-17782980,91469860,74648440,25,-37036130
2026-01-14 16:52:38.581,-33206050,-7498338,-18344900,51436150,70,62841800,-37475580
2026-01-14 16:52:38.591,-3306795,-12962270,-14037610,5219573,64960940,98535150,-42089840
2026-01-14 16:52:38.601,5758189,3921369,-6730117,14353610,60039060,13320310,-4609375
2026-01-14 16:52:38.611,6238110,-9298902,-19841630,14909490,55,16416020,-42407230
2026-01-14 16:52:38.621,6724074,3706440,-6718896,15476590,49960940,19277340,-36279300
2026-01-14 16:52:38.631,7216942,-10359740,-20662500,16054050,44648440,22441410,-23779300
2026-01-14 16:52:38.641,-32463730,3492373,-6679188,56822310,39375,25175780,-78063970
2026-01-14 16:52:38.651,8201816,-11286780,-21323690,17227090,33730470,27519530,11553960
2026-01-14 16:52:38.661,8687777,32834890,-66118630,17811460,28730470,3015625,20898440
2026-01-14 16:52:38.671,9162521,-12059310,-21811380,18389780,24082030,31914060,3239746
2026-01-14 16:52:38.681,-32351520,-12393360,-21995230,60956880,19384770,33300780,52441410
2026-01-14 16:52:38.691,-3236016,-12685110,-22135070,6201858,14599610,36054690,5810547
2026-01-14 16:52:38.701,-32368780,-12962190,-22255040,63080270,9868164,38652340,5810547
2026-01-14 16:52:38.711,11039050,-17315910,-18229320,20690990,5058594,39628900,609375
2026-01-14 16:52:38.721,11503430,43059110,-46641250,21262400,18753050,4046875,6689453
2026-01-14 16:52:38.731,-32429200,-13629420,-22433720,66230840,-43774420,4171875,6381836
2026-01-14 16:52:38.741,12450330,-13808950,-22444080,22421640,-86865230,4421875,4399414
2026-01-14 16:52:38.751,-32394670,2410824,-6051666,68354230,-12304690,44296880,6365967
2026-01-14 16:52:38.761,13444690,-14130050,-22416460,23619710,-15664060,44023440,-15942380
2026-01-14 16:52:38.771,-49450860,2220928,-5889390,53266060,-20019530,42421880,-26660160
2026-01-14 16:52:38.781,14419210,-18014820,-18807900,24785850,-25195310,40195310,-22253420
2026-01-14 16:52:38.791,19580170,20267170,-57228000,20626170,-31054690,37714840,-16894530
2026-01-14 16:52:38.801,15320360,1928315,-5638211,25869990,-36757810,34199220,-16564940
2026-01-14 16:52:38.811,-51091750,1830776,-5552754,55302280,-41132810,303125,-1776123
2026-01-14 16:52:38.821,-32135730,1732374,-5466438,75121460,-44726560,26796880,-30151370
2026-01-14 16:52:38.831,16502030,1633975,-5378397,27312340,-46835940,23535160,-54345700
2026-01-14 16:52:38.841,-3216163,-15351430,-22179090,7677011,-48515620,19570310,-7583008
2026-01-14 16:52:38.851,22118060,31342470,-35104160,23215500,-49492190,15800780,-8803711
2026-01-14 16:52:38.861,-32256570,30432690,-34201280,78263390,-51601560,11376950,-9326172
2026-01-14 16:52:38.871,-32325620,29532410,-33306180,78936660,-53789060,61376950,-8911133
2026-01-14 16:52:38.881,17991000,11661390,-49433600,29189730,-553125,8691406,-8725586
2026-01-14 16:52:38.891,18224050,1078958,-4857907,29491840,-5609375,-36132810,-8959961
2026-01-14 16:52:38.901,18440710,26957580,-30736530,29775830,-5578125,-7553711,-10244140
2026-01-14 16:52:38.911,18642690,-16074770,-21680180,30039950,-553125,-11826170,-11191410
2026-01-14 16:52:38.921,18829130,-16136060,-21584370,30285090,-54921880,-15732420,-12294920
2026-01-14 16:52:38.931,-55078710,7639028,-45307650,60033290,-54414060,-19990230,-12675780
2026-01-14 16:52:38.941,-32852150,6948496,-44548070,82777760,-53789060,-24160160,-12773440
2026-01-14 16:52:38.951,19338400,23173450,-26924780,30949730,-525,-28378910,-13037110
2026-01-14 16:52:38.961,19489460,-16274160,-21152780,31143950,-5203125,-3125,-13710940
2026-01-14 16:52:38.971,19633600,-16283660,-21039710,31327800,-5078125,-34160160,-14697270
2026-01-14 16:52:38.981,19770850,21349580,-25071560,31501300,-49179690,-36445310,-15537110
2026-01-14 16:52:38.991,-33033420,4134568,-41250770,84581780,-47578120,-38398440,-165625
2026-01-14 16:52:39.001,-58686670,3702986,-40732870,59204740,-45976560,-40898440,-16748050
2026-01-14 16:52:39.011,-58806300,19948660,-23641290,59326790,-45039060,-43242190,-16689450
2026-01-14 16:52:39.021,-3302480,-16276750,-20563240,8529820,-44140620,-45,-16669920
2026-01-14 16:52:39.031,-33007520,19292650,-22968020,85470840,-43320310,-46640620,-16816410
2026-01-14 16:52:39.041,20387150,2554974,-39222330,32248800,-42421880,-48085940,-17236330
2026-01-14 16:52:39.051,-32964360,20524480,-20890290,85738420,-41523440,-48984380,-17578120
2026-01-14 16:52:39.061,20501090,2356446,-38851170,32376550,-40742190,-4953125,-17880860
2026-01-14 16:52:39.071,-32903940,-16157640,-20268040,85867900,-39765620,-50078120,-18056640
2026-01-14 16:52:39.081,20561510,20396210,-20759610,32436970,-39257810,-50273440,-18525390
2026-01-14 16:52:39.091,-32852150,-16059230,-20193800,85867900,-38945310,-50234380,-18564450
2026-01-14 16:52:39.101,-56676440,2744870,-38928850,61974560,-38847660,-50,-18339840
2026-01-14 16:52:39.111,-32826250,3012452,-39110120,85721150,-39082030,-48828120,-18535160
2026-01-14 16:52:39.121,20457930,3357718,-39369070,32298860,-39589840,-478125,-18662110
2026-01-14 16:52:39.131,-32834890,3772038,-39679800,85419050,-39667970,-4640625,-18828120
2026-01-14 16:52:39.141,-56423530,-15686350,-20117840,61657780,-40039060,-44570310,-18896480
2026-01-14 16:52:39.151,20122160,4799208,-40482560,31909570,-3984375,-42734380,-19013670
2026-01-14 16:52:39.161,19960750,5420690,-40965930,31725720,-40234380,-40664060,-18955080
2026-01-14 16:52:39.171,19766530,6119854,-41492460,31505610,-39902340,-38261720,-19003910
2026-01-14 16:52:39.181,24808810,6862180,-42062150,25979960,-39628900,-35332030,-18964840
2026-01-14 16:52:39.191,-33257840,767352,3,-4268362,83528720,-39765620,-328125,-18720700
2026-01-14 16:52:39.201,-33378680,8553986,-43339640,83062610,-40390620,-29902340,-18076170
2026-01-14 16:52:39.211,-33499530,25030990,-28485390,82544700,-41054690,-27011720,-171875
2026-01-14 16:52:39.221,18397550,-16857660,-17410090,29957090,-41601560,-23476560,-16279300
2026-01-14 16:52:39.231,18041060,11540550,-45514820,29553990,-42226560,-19189450,-15605470
2026-01-14 16:52:39.241,-33905220,1267990,-4629166,80688890,-42304690,-146875,-14726560
2026-01-14 16:52:39.251,17250400,13862470,-47094420,28652850,-4203125,-96728510,-13759770
2026-01-14 16:52:39.261,16816230,1511405,-4791444,28154800,-41914060,-41870120,-12666020
2026-01-14 16:52:39.271,1635011,-12899170,-19417810,2761963,-41054690,1204834,-11054690
2026-01-14 16:52:39.281,20889940,17807140,-49606230,22009480,-39921880,7104492,-93896480
2026-01-14 16:52:39.291,15341070,19222740,-50469400,26453490,-38007810,12636720,-7651367
2026-01-14 16:52:39.301,-53080480,34479220,-37543470,57146000,-35546880,18554690,-5258789
2026-01-14 16:52:39.311,-34889230,-14638550,-15382420,74353240,-31894530,23886720,-2685547
2026-01-14 16:52:39.321,13726090,2370257,-5306755,24546760,-28007810,28984380,-35980220
2026-01-14 16:52:39.331,-51689920,25239010,-53930700,55394630,-23496090,34023440,18066410
2026-01-14 16:52:39.341,12624690,-9923836,-18077320,23214020,-18222660,37851560,37670900
2026-01-14 16:52:39.351,-35010070,-9453412,-17839940,69640350,-12851560,41289060,62597660
2026-01-14 16:52:39.361,-50005880,29770640,-56373460,53349790,-68847660,43710940,82373050
2026-01-14 16:52:39.371,-34863330,31212130,-57141680,67163060,-925293,45273440,10429690
2026-01-14 16:52:39.381,-34751130,32601830,-57858120,65928730,55078120,45898440,12070310
2026-01-14 16:52:39.391,10087840,45009860,-47469900,20019440,11777340,45742190,13896480
2026-01-14 16:52:39.401,9645033,-7270460,-16708330,19443710,17714840,4421875,15185550
2026-01-14 16:52:39.411,-34276380,-6888943,-16502900,62398370,23496090,42109380,16025390
2026-01-14 16:52:39.421,8831926,37470100,-60309510,18375110,29082030,39023440,16533200
2026-01-14 16:52:39.431,-33957010,38480000,-60801510,60283620,33652340,35253900,16337890
2026-01-14 16:52:39.441,8091328,39394960,-61233100,17406640,37519530,31386720,16435550
2026-01-14 16:52:39.451,7752969,-5603685,-15785610,16968140,40039060,27441410,16435550
2026-01-14 16:52:39.461,-44437590,40957290,-61932260,46833740,41914060,23574220,16494140
2026-01-14 16:52:39.471,7093510,-5090099,-15470550,16142960,43320310,19550780,16552730
2026-01-14 16:52:39.481,10815060,-9558802,-10604790,11713610,446875,15683590,16044920
2026-01-14 16:52:39.491,-43578740,42761310,-62510590,45759100,4578125,11894530,14599610
2026-01-14 16:52:39.501,6093959,43261960,-62596910,14984590,46523440,8334961,128125
2026-01-14 16:52:39.511,-34129640,-4134574,-14768790,54465860,47226560,48950200,11494140
2026-01-14 16:52:39.521,-34397220,-3888571,-14565950,53956600,475,12207030,10019530
2026-01-14 16:52:39.531,-34707970,44565330,-62571000,53473230,48007810,-20324710,82421870
2026-01-14 16:52:39.541,-35053230,-3397429,-14142130,53007110,48515620,-50878900,69091800
2026-01-14 16:52:39.551,4163054,45333550,-62389740,12962190,48671880,-7910156,5566406
2026-01-14 16:52:39.561,76999710,53145220,-54802500,85793660,49179690,-10498050,4104004
2026-01-14 16:52:39.571,3328373,-2636977,-13452470,12122320,49570310,-12890630,24926760
2026-01-14 16:52:39.581,68713300,-2385798,-13220280,77507260,4984375,-14912110,11639400
2026-01-14 16:52:39.591,2506633,-21458340,-129941200,11304040,50078120,-17148440,-33203120
2026-01-14 16:52:39.601,21164860,-68024500,-78886600,109173400,5046875,-18515620,-18762210
2026-01-14 16:52:39.611,-37884420,47223890,-61483420,50175920,50859380,-19716800,-34326170
2026-01-14 16:52:39.621,5351120,-1491554,-12370920,6232587,50976560,-20332030,-49243160
2026-01-14 16:52:39.631,1044428,-12999300,-121827500,9866003,51171880,-20566410,-68359380
2026-01-14 16:52:39.641,47028810,-1126436,-12010980,55860740,49882810,-19736330,-8808594
2026-01-14 16:52:39.651,44087140,48000740,-60827410,52932880,49101560,-19707030,-10390630
2026-01-14 16:52:39.661,45218410,48121580,-60654780,46104720,49140620,-21054690,-11816410
2026-01-14 16:52:39.671,38457560,-693988,-11562990,47341280,49335940,-19511720,-13242190
2026-01-14 16:52:39.681,-4307204,-570558,-11427470,84754420,49648440,-17265620,-14150390
2026-01-14 16:52:39.691,-7121136,48328750,-60085090,82216700,49335940,-14921880,-15673830
2026-01-14 16:52:39.701,-9771052,4835461,-5986929,79860260,49023440,-11630860,-15556640
2026-01-14 16:52:39.711,-1226563,-51137490,-61937440,7769368,48867190,-72998050,-15253910
2026-01-14 16:52:39.721,-1460480,-163138,5,-10937190,7571705,49375,-17248540,-15048830
2026-01-14 16:52:39.731,24122080,-82002,5,-10828440,33192240,50234380,35742190,-15986330
2026-01-14 16:52:39.741,-18445890,-48417660,-59133020,72652810,5125,7558594,-16962890
2026-01-14 16:52:39.751,21319370,24167,5,-10658390,30470670,50976560,9472656,-17451170
2026-01-14 16:52:39.761,-43460480,40567,-10605740,48501380,49804690,9848633,-16816410
2026-01-14 16:52:39.771,-43728060,-5265271,-5265373,48699900,47226560,97998050,-15859380
2026-01-14 16:52:39.781,-2143246,6905,5,-10554810,7149616,4453125,96484380,-14267580
2026-01-14 16:52:39.791,20874840,47258420,-57858120,30224670,41914060,95458980,-13681640
2026-01-14 16:52:39.801,21707800,-115665,-10570350,31118050,38671880,9760742,-12900390
2026-01-14 16:52:39.811,-197667,9,-48838880,-59229690,750090,4,35976560,10800780,-12851560
2026-01-14 16:52:39.821,-18748000,-302975,5,-10624730,76752850,33398440,1234375,-12978520
2026-01-14 16:52:39.831,-45083240,-427270,-10673060,51194460,30019530,15136720,-12363280
2026-01-14 16:52:39.841,27427140,-56314010,-56415660,37137780,27070310,16943360,-10791020
2026-01-14 16:52:39.851,-14881010,-683632,5,-10761970,83071230,24511720,18916020,-9638672
2026-01-14 16:52:39.861,-45825560,44125120,-55743350,53007120,21679690,22460940,-8955078
2026-01-14 16:52:39.871,-12153400,-54094710,-63986600,87594220,18994140,24980470,-78466800
2026-01-14 16:52:39.881,34673440,4297709,-5495789,44737970,16357420,26582030,-7192383
2026-01-14 16:52:39.891,-46611040,-1238648,-10932010,54949240,1359375,28085940,-6166992
2026-01-14 16:52:39.901,-729381,-13845210,-109760400,9516420,11005860,28339840,-5131836
2026-01-14 16:52:39.911,-47051260,41147190,-53732170,56304420,8334961,28300780,-40893560
2026-01-14 16:52:39.921,-4724118,40508450,-53317860,5701223,55566410,27304690,-31811520
2026-01-14 16:52:39.931,-47387900,-60617660,-69893260,57728640,30029300,25585940,-23571780
2026-01-14 16:52:39.941,174357,39170540,-52497840,10770610,33599860,23535160,-9539795
2026-01-14 16:52:39.951,-47595060,-63488550,-72546630,59196020,-21496580,2125,-14984130
2026-01-14 16:52:39.961,766492,-2482470,-11431790,11525010,-43188480,18300780,72265620
2026-01-14 16:52:39.971,59663860,-2711212,-11548320,70501790,-6591797,16054690,17041020
2026-01-14 16:52:39.981,1422497,-68833290,-77559910,12336390,-89990230,13974610,20788570
2026-01-14 16:52:39.991,-47664110,-3211849,-11824530,62217110,-1140625,12246090,2290039
2026-01-14 16:52:40.001,2161370,42416400,-42571080,13220270,-13916020,10205080,22106930
2026-01-14 16:52:40.011,25497970,-3766006,-12150810,136777500,-15976560,7783203,29614260
2026-01-14 16:52:40.021,2939948,-4056888,-12326030,14133500,-18339840,6044922,33740230
2026-01-14 16:52:40.031,3339590,-80168400,-88321890,14597020,-20546880,4326172,38378900
2026-01-14 16:52:40.041,-47189370,-46464300,-126859700,65989140,-23222660,23303220,4272461
2026-01-14 16:52:40.051,4144066,-4926960,-12854290,15518890,-25488280,20629880,48095700
2026-01-14 16:52:40.061,-46895890,29986430,-48199260,67404740,-2734375,-7086182,5048828
2026-01-14 16:52:40.071,4920053,29252740,-47879900,16400180,-30214840,-5783081,46972660
2026-01-14 16:52:40.081,5293806,-9122902,-9884044,16820540,-32441410,-6536865,4267578
2026-01-14 16:52:40.091,-46403880,-5918742,-13433470,69277820,-33964840,-2211914,42358400
2026-01-14 16:52:40.101,6004191,27293350,-46939050,17612070,-35351560,-43188480,46264650
2026-01-14 16:52:40.111,-46058620,-6283864,-13620780,70382670,-36484380,-59521480,5053711
2026-01-14 16:52:40.121,6651568,-6427145,-13684660,18328500,-37910160,-7451172,5371094
2026-01-14 16:52:40.131,6947635,-6534179,-13715730,18653910,-39257810,-8696289,5366211
2026-01-14 16:52:40.141,12490210,2538575,-4573925,13663770,-40820310,-96191410,5576172
2026-01-14 16:52:40.151,-45480290,-6661067,-13709690,72134900,-41796880,-10820310,57373050
2026-01-14 16:52:40.161,7649388,33940600,-35975960,19436810,-42617190,-12519530,60595700
2026-01-14 16:52:40.171,-4533356,-6664516,-13602660,7278228,-43203120,-14658200,63623050
2026-01-14 16:52:40.181,-45316290,24384480,-44513540,73041230,-43242190,-165625,67578130
2026-01-14 16:52:40.191,-57903860,24272270,-44194170,60695340,-43046880,-18408200,765625
2026-01-14 16:52:40.201,-45419870,-6435781,-13244440,73421020,-42578120,-20429690,8051758
2026-01-14 16:52:40.211,13413800,-6306302,-13080440,14604620,-41992190,-21308590,8774414
2026-01-14 16:52:40.221,13906390,-6148343,-12893130,14025710,-42109380,-21230470,9404297
2026-01-14 16:52:40.231,7902296,24263640,-42942580,19857170,-4203125,-21210940,10175780
2026-01-14 16:52:40.241,7770232,24367220,-42649100,19747550,-41679690,-21386720,11357420
2026-01-14 16:52:40.251,7604504,2451395,-4236426,19602530,-40742190,-21660160,12460940
2026-01-14 16:52:40.261,7412877,-53697640,-120489500,19431620,-40234380,-22011720,13330080
2026-01-14 16:52:40.271,7197089,-5155701,-11831440,19233100,-39160160,-22226560,14228520
2026-01-14 16:52:40.281,-47275680,25118170,-41656460,73239760,-38066410,-22695310,15537110
2026-01-14 16:52:40.291,-47595060,25385750,-41475190,73041230,-37285160,-22128910,15869140
2026-01-14 16:52:40.301,6419374,25670600,-41328460,18491640,-36582030,-21308590,16640630
2026-01-14 16:52:40.311,11575330,-42536890,-109725800,12783250,-36699220,-19433590,17363280
2026-01-14 16:52:40.321,5844506,32973860,-34456780,17927130,-36367190,-18544920,17519530
2026-01-14 16:52:40.331,-48812120,26645980,-41078140,71996800,-35664060,-1796875,18037110
2026-01-14 16:52:40.341,5260140,-66943810,-73752480,17337580,-34863280,-17314450,18554690
2026-01-14 16:52:40.351,-49338650,27371040,-41112660,71349420,-33964840,-17109380,18720700
2026-01-14 16:52:40.361,-49571710,-32852160,-101802000,70995520,-32929690,-16816410,18408200
2026-01-14 16:52:40.371,-49770240,28121990,-41328460,70624360,-31582030,-16171880,18515620
2026-01-14 16:52:40.381,4132844,-61495500,-68497510,16151590,-30449220,-15205080,18320310
2026-01-14 16:52:40.391,-58987140,28898840,-41742770,60958610,-29550780,-13867190,18203120
2026-01-14 16:52:40.401,-50244980,-2805297,-9935055,69407300,-28808590,-12568360,17919920
2026-01-14 16:52:40.411,3348225,29675700,-42347000,15278930,-28007810,-10566410,17792970
2026-01-14 16:52:40.421,3109129,-2678410,-9958364,15000120,-27128910,-9033203,17802730
2026-01-14 16:52:40.431,-50443500,30487070,-43158370,68034860,-26210940,-74365230,17460940
2026-01-14 16:52:40.441,2646470,30892760,-43633110,14444250,-253125,-5336914,171875
2026-01-14 16:52:40.451,-50417610,31298450,-44159640,67024950,-24003910,-34594730,16972660
2026-01-14 16:52:40.461,-50348560,-61261580,-68904060,66507050,-22675780,-1628418,16298830
2026-01-14 16:52:40.471,72736540,-2739698,-10484040,84359940,-21445310,47698980,15498050
2026-01-14 16:52:40.481,1860985,-28173780,-106653000,13417070,-19912110,23742680,15371090
2026-01-14 16:52:40.491,1698714,-6875468,-6883422,13182290,-18115230,44970700,14541020
2026-01-14 16:52:40.501,1537298,-66401740,-74467180,12946650,-16357420,6660156,13671880
2026-01-14 16:52:40.511,13957420,-6824553,-7642140,127256800,-1421875,86816410,12724610
2026-01-14 16:52:40.521,1255908,-3288668,-11575080,12502980,-12363280,10683590,12021480
2026-01-14 16:52:40.531,-55140860,3434541,-4964074,56483950,-10195310,125,10966800
2026-01-14 16:52:40.541,-48820760,-36253030,-121361300,61923630,-7866211,14169920,10029300
2026-01-14 16:52:40.551,912362,5,-38117480,-124330600,11897040,-5395508,15341800,859375
2026-01-14 16:52:40.561,-48216540,3527763,-5202308,60732460,-2854004,16796880,7285156
2026-01-14 16:52:40.571,5588318,-4221752,-13058860,6668658,-41290280,1765625,65625
2026-01-14 16:52:40.581,-47560520,-4438409,-13377370,59575810,20410160,18095700,5288086
2026-01-14 16:52:40.591,53728720,-4665423,-13702790,64352590,4465332,18603520,4272461
2026-01-14 16:52:40.601,-46869990,-4895025,-14025610,58470960,64453120,18769530,32495120
2026-01-14 16:52:40.611,489413,5,36373880,-55829670,10938920,88623050,18496090,22241210
2026-01-14 16:52:40.621,4453944,-9530236,-10460730,108103100,10800780,18417970,105896000
2026-01-14 16:52:40.631,398783,-5562251,-14946610,10684290,13027340,1796875,-28930660
2026-01-14 16:52:40.641,-45583880,46243330,-48342550,56494320,14677730,17392580,-117126500
2026-01-14 16:52:40.651,48621360,-5955858,-15485230,58756670,16552730,16621090,-23181150
2026-01-14 16:52:40.661,-45065980,-6131081,-15724320,55613880,17998050,15625,-32495120
2026-01-14 16:52:40.671,-44858810,-6282135,-15935800,55182290,19501950,14384770,-41577150
2026-01-14 16:52:40.681,68189,-6417650,-16128280,10013610,20917970,13144530,-5332031
2026-01-14 16:52:40.691,-33663,5,-6521230,-16283650,9856508,22421880,11699220,-6044922
2026-01-14 16:52:40.701,-164002,5,-6600642,-16411400,9676106,23925780,10634770,-6635742
2026-01-14 16:52:40.711,41023760,-6664518,-16520160,50817260,25585940,89160160,-76171870
2026-01-14 16:52:40.721,-4875592,-6694727,-16593530,4876475,26796880,7270508,-7939453
2026-01-14 16:52:40.731,37525340,-6709402,-16647910,47237700,284375,56884770,-83740230
2026-01-14 16:52:40.741,35643630,38177890,-61569730,45321470,29902340,36865230,-87597660
2026-01-14 16:52:40.751,-47838470,38359160,-61751000,48611870,31445310,20166020,-9086914
2026-01-14 16:52:40.761,32051140,3853178,-6190639,41663370,32773440,4019165,-9379883
2026-01-14 16:52:40.771,30339470,38704420,-62044480,39922360,34199220,-13317870,-97265620
2026-01-14 16:52:40.781,28885900,38877060,-62165320,38441170,35507810,-3076172,-10361330
2026-01-14 16:52:40.791,27517780,39049690,-62286160,37047150,36855470,-44213870,-10712890
2026-01-14 16:52:40.801,26408610,3919642,-6239839,35912080,38261720,-5864258,-10908200
2026-01-14 16:52:40.811,2555836,39351800,-62501960,3503599,39316410,-68066410,-11269530
2026-01-14 16:52:40.821,-17574090,39472640,-62605530,76960010,40078120,-7363281,-11474610
2026-01-14 16:52:40.831,24632210,-6442683,-16672940,34063180,40703120,-80566410,-11835940
2026-01-14 16:52:40.841,24557110,-6432325,-16683300,33965640,4140625,-8413086,-12050780
2026-01-14 16:52:40.851,-17505030,-6432327,-16700560,76373060,41914060,-8227539,-12070310
2026-01-14 16:52:40.861,-16987140,-6423696,-16709190,76718330,4265625,-7729492,-12734380
2026-01-14 16:52:40.871,-43719430,-6425420,-16724730,49813390,43046880,-6801758,-12763670
2026-01-14 16:52:40.881,26663240,-11059510,-12090650,36002710,43515620,-45751950,-12382810
2026-01-14 16:52:40.891,27791400,-6415061,-16735090,37118790,43632810,-18225100,-12119140
2026-01-14 16:52:40.901,29003290,40050970,-63201120,38323780,43242190,51361080,-11318360
2026-01-14 16:52:40.911,30472400,-6394347,-16721280,39789430,43320310,33496090,-10908200
2026-01-14 16:52:40.921,32112420,-6359821,-16686760,41429450,42773440,6347656,-10097660
2026-01-14 16:52:40.931,-811378,3,-6311481,-16631510,8510831,42148440,10146480,-94091800
2026-01-14 16:52:40.941,35643640,-10886870,-11918010,44976200,41484380,14619140,-8574219
2026-01-14 16:52:40.951,37447660,-6167334,-16464920,46797490,403125,18408200,-8051758
2026-01-14 16:52:40.961,-284847,5,50273460,-52512520,9089155,38867190,20585940,-76416020
2026-01-14 16:52:40.971,45450340,-5930826,-16183530,46390680,37011720,209375,-68066410
2026-01-14 16:52:40.981,-42441940,4020632,-6200993,51971310,34921880,20234380,-6074219
2026-01-14 16:52:40.991,-42511000,-5620949,-15802870,52368370,31894530,19111330,-52783200
2026-01-14 16:52:41.001,3029720,-5436233,-15573270,98478770,29257810,17617190,-39868160
2026-01-14 16:52:41.011,-42847630,-5238565,-15322080,53240170,26796880,16181640,-29223630
2026-01-14 16:52:41.021,-43080690,49103860,-51109860,53714920,25332030,1515625,-19946290
2026-01-14 16:52:41.031,49241110,39981920,-59541290,59000090,2390625,14375,-11242680
2026-01-14 16:52:41.041,-43693540,-4581695,-14459780,54724820,22558590,13564450,-49591060
2026-01-14 16:52:41.051,-44030180,-4371083,-14169760,55268620,21015620,12539060,18434520
2026-01-14 16:52:41.061,5239167,-4172552,-13884910,6240959,19267580,11767580,11651610
2026-01-14 16:52:41.071,-44677550,-8323094,-9285522,56416620,17412110,10703130,26293940
2026-01-14 16:52:41.081,933947,5,3904969,-5626126,11133130,15253910,97314460,3347168
2026-01-14 16:52:41.091,61806330,-79613380,-89049530,62835050,134375,85498050,4477539
2026-01-14 16:52:41.101,59377290,3841092,-5498380,69752560,11083980,73583980,5517578
2026-01-14 16:52:41.111,6201076,-35441660,-127869600,7247066,86035150,64160160,6567383
2026-01-14 16:52:41.121,17565460,37651360,-53792600,122958200,60253900,53808590,7290039
2026-01-14 16:52:41.131,2054339,-3477702,-12525420,12671300,35375980,42529300,80029300
2026-01-14 16:52:41.141,2381479,-3474250,-12425300,13069220,59539800,30810550,8535156
2026-01-14 16:52:41.151,27362410,-3486339,-12344160,134913100,-19958500,17602540,9042969
2026-01-14 16:52:41.161,3102220,-74595800,-83363850,13919440,-4736328,69885260,94970700
2026-01-14 16:52:41.171,3479424,-74380000,-83061740,14353610,-74560540,-37384030,98779300
2026-01-14 16:52:41.181,3849722,-35562500,-121534000,14777430,-10419920,-10229490,9951172
2026-01-14 16:52:41.191,4204489,3476838,-5040898,15182250,-13369140,-16101070,10273440
2026-01-14 16:52:41.201,4551481,-3564882,-12006660,15577580,-15664060,-21972660,10400390
2026-01-14 16:52:41.211,4865675,-3558840,-11926390,15936660,-17919920,-2631836,10556640
2026-01-14 16:52:41.221,5154836,-3533809,-11830570,16268980,-19697270,-3190918,10830080
2026-01-14 16:52:41.231,-44789770,-71931190,-80158900,66766000,-21210940,-29467770,11064450
2026-01-14 16:52:41.241,-44755240,33283730,-48337370,67214860,-21875,-3022461,11054690
2026-01-14 16:52:41.251,-44737970,33059310,-47923050,67629170,-22890620,-32348630,11005860
2026-01-14 16:52:41.261,5997284,-69351180,-77387280,17273700,-23242190,-35986330,10996090
2026-01-14 16:52:41.271,6150932,-3246373,-11220310,17465330,-23945310,-40820310,11230470
2026-01-14 16:52:41.281,6287310,-3172141,-11087390,17639690,-24257810,-43017580,1109375
2026-01-14 16:52:41.291,-44841550,-69955320,-70740970,69044760,-24707030,-4790039,10390630
2026-01-14 16:52:41.301,6518641,-3040076,-10839660,17943520,-24980470,-5185547,98876950
2026-01-14 16:52:41.311,6621356,31859510,-45566610,18082500,-25507810,-54345700,92089840
2026-01-14 16:52:41.321,-4500558,-63914960,-71602330,6995106,-26132810,-5986328,9243164
2026-01-14 16:52:41.331,-45057340,-2881256,-10515100,70227300,-26835940,-6665039,88720700
2026-01-14 16:52:41.341,-4509188,37895050,-37908310,7050353,-27109380,-7270508,82177740
2026-01-14 16:52:41.351,12238590,31065400,-44220070,13397480,-27480470,-7807617,74853520
2026-01-14 16:52:41.361,-56788650,-27854420,-102656500,59376420,-27480470,-82470700,6665039
2026-01-14 16:52:41.371,7248012,-27828520,-102164500,18888690,-27617190,-8779297,5683594
2026-01-14 16:52:41.381,-45117760,-64454360,-65193390,71513420,-27773440,-9350586,46777340
2026-01-14 16:52:41.391,7494017,-61063060,-68412060,19177850,-27636720,-10410160,35009770
2026-01-14 16:52:41.401,7632988,-61169220,-68478530,19332360,-28359380,-11728520,33691410
2026-01-14 16:52:41.411,-57210740,-61359120,-68633900,59938340,-2859375,-12890630,29052730
2026-01-14 16:52:41.421,-44832920,-29045580,-101465300,72437010,-28886720,-14130860,21411130
2026-01-14 16:52:41.431,13379270,29503060,-42623210,14552830,-29199220,-15419920,116760300
2026-01-14 16:52:41.441,-44599860,-3001237,-10187960,72842700,-29492190,-16445310,14282230
2026-01-14 16:52:41.451,-4447902,3574652,-3587911,7303260,-29941410,-17070310,-7556152
2026-01-14 16:52:41.461,-44349550,-3101363,-10243210,73196600,-30390620,-17480470,-16625980
2026-01-14 16:52:41.471,8682602,2889884,-4232973,20440670,-31445310,-17363280,-23071290
2026-01-14 16:52:41.481,-57330720,-31954460,-103044900,60267210,-32734380,-16611330,-26367190
2026-01-14 16:52:41.491,-44030170,-64381940,-71480620,73585020,-34160160,-14863280,-28125
2026-01-14 16:52:41.501,-43943850,-3280903,-10374410,73654070,-35957030,-13173830,-27783200
2026-01-14 16:52:41.511,-43866180,-6498791,-7208310,73679980,-37089840,-11132810,-31518560
2026-01-14 16:52:41.521,-43823010,28631260,-42390150,73671340,-37578120,-92333980,-3491211
2026-01-14 16:52:41.531,-4377986,-3329237,-10446920,7361092,-37304690,-84375,-38867190
2026-01-14 16:52:41.541,-43762590,-3335282,-10475400,73507340,-36679690,-76416020,-40161130
2026-01-14 16:52:41.551,8946731,-3319743,-10490940,20659910,-35878900,-7363281,-41210940
2026-01-14 16:52:41.561,-43779860,29123270,-42951210,73179340,-33847660,-7788086,-44360350
2026-01-14 16:52:41.571,8741296,-3297301,-10547910,20416500,-31582030,-8930664,-48535160
2026-01-14 16:52:41.581,8614412,-3282627,-10579840,20267170,-2859375,-96240230,-54589840
2026-01-14 16:52:41.591,-43840270,29779270,-43693530,72428380,-2578125,-10527340,-59033200
2026-01-14 16:52:41.601,8347692,-3299027,-10701550,19946940,-22148440,-11269530,-66064450
2026-01-14 16:52:41.611,-43831640,-33318260,-107895900,71850060,-19462890,-11923830,-73828130
2026-01-14 16:52:41.621,-43779850,-3379304,-10897490,71556580,-16992190,-12255860,-7817383
2026-01-14 16:52:41.631,-43676270,30659700,-45143650,71263100,-15166020,-12460940,-7866211
2026-01-14 16:52:41.641,-43555430,30858230,-45583870,70969630,-13710940,-12373050,-8129883
2026-01-14 16:52:41.651,7942867,3105676,-4605862,19350490,-13300780,-11601560,-8339844
2026-01-14 16:52:41.661,7924739,-3766000,-11546590,19282300,-12695310,-11025390,-84472660
2026-01-14 16:52:41.671,-4295122,-3885979,-11737350,7010646,-12539060,-10068360,-8857422
2026-01-14 16:52:41.681,7925603,31643720,-47595050,19177860,-12333980,-8696289,-94970700
2026-01-14 16:52:41.691,7937684,-77396770,-85396610,19131240,-11601560,-7397461,-94189460
2026-01-14 16:52:41.701,7949773,-7899796,-8707548,19084630,-11748050,-63134770,-8930664
2026-01-14 16:52:41.711,795491,3,-80511940,-88668870,1902763,-115625,-51708980,-8779297
2026-01-14 16:52:41.721,-41604670,32593200,-49787490,68500970,-11328130,-37890620,-8618164
2026-01-14 16:52:41.731,-41345730,-86763780,-87596050,68121170,-10625,-23852540,-81884770
2026-01-14 16:52:41.741,7852234,-4617084,-13026060,18733320,-96533200,-8850098,-7890625
2026-01-14 16:52:41.751,-4090551,-4659378,-13156400,6724937,-78808590,9893799,-7578125
2026-01-14 16:52:41.761,-40724240,-4682686,-13271200,66757370,-5283203,25146480,-7006836
2026-01-14 16:52:41.771,12309890,34371330,-52428790,13377980,-25878910,4321289,-63964840
2026-01-14 16:52:41.781,7339512,-4693907,-13467140,17951290,31982420,5258789,-5961914
2026-01-14 16:52:41.791,7166879,-4699084,-13565540,17709610,3630371,59765620,-53515620
2026-01-14 16:52:41.801,6995109,-4704263,-13663940,17467060,6616211,6586914,-46411130
2026-01-14 16:52:41.811,-39973280,3601995,-5450901,64021130,9692383,6958008,-37573240
2026-01-14 16:52:41.821,-39800660,36408400,-55035560,63451440,128125,7270508,-32861330
2026-01-14 16:52:41.831,-39602120,-4790582,-14026470,62890380,16074220,7739258,-27319340
2026-01-14 16:52:41.841,6402974,37107570,-56131780,16574540,19501950,7919922,-25219730
2026-01-14 16:52:41.851,-49323980,-4945952,-14354470,51597560,22734380,7885742,-31958010
2026-01-14 16:52:41.861,6282995,-5069383,-14559050,16297460,259375,76660160,-34643560
2026-01-14 16:52:41.871,6271774,-5220437,-14787790,16205110,28457030,73095700,-31860350
2026-01-14 16:52:41.881,-38039790,-5407746,-15049320,60499410,30644530,69921870,-2854004
2026-01-14 16:52:41.891,6376215,38074320,-59014760,16152450,31914060,65771480,-25317380
2026-01-14 16:52:41.901,10839830,47782360,-49928200,11809690,33476560,60546880,-26879880
2026-01-14 16:52:41.911,10921230,-6100005,-15928030,11883660,34570310,5571289,-2866211
2026-01-14 16:52:41.921,-3626167,-6359818,-16237910,5929097,35976560,5083008,-33447270
2026-01-14 16:52:41.931,6882032,48454770,-50774960,16371700,36992190,47387700,-39038090
2026-01-14 16:52:41.941,-35389870,37901680,-61690570,58902550,37558590,48242190,-4099121
2026-01-14 16:52:41.951,-34992810,-7193641,-17182210,58764440,38105470,5185547,-42700200
2026-01-14 16:52:41.961,-45453540,3759092,-6253646,47854860,38515620,6142578,-42114260
2026-01-14 16:52:41.971,7481070,37392420,-62890380,16773930,38964840,7290039,-44677740
2026-01-14 16:52:41.981,-3406923,-7980846,-18017760,5854864,39550780,8720703,-45458980
2026-01-14 16:52:41.991,7722757,36960830,-63442810,16963830,40195310,10302730,-42236330
2026-01-14 16:52:42.001,7824612,-8438326,-18475240,17051870,40507810,12207030,-36889650
2026-01-14 16:52:42.011,-44848450,-8642034,-18668580,47355090,40976560,14560550,-30786130
2026-01-14 16:52:42.021,8017100,-8840562,-18849850,17239180,415625,16240230,-24035640
2026-01-14 16:52:42.031,8134486,35907770,-63960710,17363480,41640620,16220700,-1796875
2026-01-14 16:52:42.041,-3334417,-9229848,-19185620,5910107,40585940,15380860,-93688970
2026-01-14 16:52:42.051,8410703,-13875760,-14867720,17674220,39335940,12265630,3503418
2026-01-14 16:52:42.061,8578157,-9607055,-19481690,17869290,37265620,9375,10406490
2026-01-14 16:52:42.071,-45276580,-9788320,-19611160,47962760,35,6435547,19104000
2026-01-14 16:52:42.081,8974351,-9973037,-19737190,18336260,31992190,36401370,2734375
2026-01-14 16:52:42.091,-45644290,-14525560,-15495410,48423690,29570310,20007320,30688480
2026-01-14 16:52:42.101,9419743,32972990,-63287440,18874880,27148440,848999,33081060
2026-01-14 16:52:42.111,-33154260,3244644,-6303711,61949530,24433590,45013430,38549800
2026-01-14 16:52:42.121,-33197420,-10700690,-20166180,62493320,21699220,14587400,45117190
2026-01-14 16:52:42.131,10082660,31315720,-62458800,19713880,18769530,26660160,546875
2026-01-14 16:52:42.141,-3332690,3073739,-6213943,6362407,16025390,44091800,6484375
2026-01-14 16:52:42.151,-33413210,-11234130,-20426860,64193760,12939450,6455078,69140620
2026-01-14 16:52:42.161,10709320,-11403310,-20499370,20537340,10166020,8125,75634770
2026-01-14 16:52:42.171,-33620380,28907480,-61069100,65333140,7626953,9604492,7709961
2026-01-14 16:52:42.181,11108960,28286000,-60706570,21069920,51171880,10585940,79296870
2026-01-14 16:52:42.191,-33818900,2764722,-6032676,66463900,25170900,10449220,81347660
2026-01-14 16:52:42.201,-33913850,26999870,-59955610,67007690,16098020,98291020,8251953
2026-01-14 16:52:42.211,11702820,26335240,-59584450,21857130,-19311520,8598633,87646480
2026-01-14 16:52:42.221,11904810,-12535780,-21024170,22121260,-40722660,7182617,89697260
2026-01-14 16:52:42.231,12117140,-12751570,-21136380,22392290,-61816410,5390625,93310540
2026-01-14 16:52:42.241,-3415555,-12976860,-21256360,6916560,-82910160,40893560,93359380
2026-01-14 16:52:42.251,-3417283,23555840,-58168860,6970079,-10537110,28564450,9638672
2026-01-14 16:52:42.261,12811990,2282214,-5783223,23251140,-12519530,15100100,9741211
2026-01-14 16:52:42.271,-34129640,22079820,-57504210,70745200,-14853520,7080078,10253910
2026-01-14 16:52:42.281,18074640,2132023,-5719349,19127880,-17373050,3930664,10439450
2026-01-14 16:52:42.291,13625960,-14306140,-22050480,24198040,-20058590,50689700,10615230
2026-01-14 16:52:42.301,13927210,-14608250,-22249000,24535530,-22734380,15332030,10400390
2026-01-14 16:52:42.311,-51231580,35824900,-39564140,55145180,-2546875,26733400,10136720
2026-01-14 16:52:42.321,-3338733,-15242670,-22684900,7321386,-27597660,4008789,9736328
2026-01-14 16:52:42.331,-3311110,1750503,-5600231,7364545,-29667970,47729490,93847660
2026-01-14 16:52:42.341,-32791730,16797240,-55864200,74068400,-31171880,5449219,8491211
2026-01-14 16:52:42.351,-3242057,1610670,-5576062,7445682,-31972660,50146480,7885742
2026-01-14 16:52:42.361,16065270,-16571090,-23687040,26747830,-32070310,35180660,71972660
2026-01-14 16:52:42.371,16458870,14820590,-55682940,27131080,-32597660,14050290,66552740
2026-01-14 16:52:42.381,-51056360,-17246950,-24236880,55493040,-33105470,-16320800,6479492
2026-01-14 16:52:42.391,17254720,13629410,-55717460,27888940,-33691410,-44140620,6225586
2026-01-14 16:52:42.401,-3011592,-17903820,-24788440,7600188,-34023440,-6621094,5654297
2026-01-14 16:52:42.411,18003080,32018330,-36344530,28590700,-34082030,-83691410,49438480
2026-01-14 16:52:42.421,-2916645,12049820,-55881460,7645075,-3359375,-9580078,41137700
2026-01-14 16:52:42.431,-2872622,-21854450,-22529620,7664926,-32636720,-9814453,3166504
2026-01-14 16:52:42.441,-28294640,11108960,-56028200,76821900,-31914060,-10283200,24609380
2026-01-14 16:52:42.451,-2788897,10677380,-56114510,7696865,-3140625,-10009770,21264650
2026-01-14 16:52:42.461,-275006,3,-19637060,-26283450,770980,3,-31074220,-94433590,20495600
2026-01-14 16:52:42.471,-27129350,-19884790,-26501830,77210330,-31132810,-8574219,19519040
2026-01-14 16:52:42.481,24753050,9537998,-56373460,25794030,-31113280,-7783203,15515140
2026-01-14 16:52:42.491,-2642158,9209998,-56459780,7741749,-31308590,-71533200,14672850
2026-01-14 16:52:42.501,-49228170,8899254,-56546100,54369190,-31582030,-66015620,14440920
2026-01-14 16:52:42.511,-51418800,8623040,-56632410,51936870,-31835940,-6347656,8227539
2026-01-14 16:52:42.521,25569350,8364088,-56718740,26600490,-31640620,-6333008,42785640
2026-01-14 16:52:42.531,-48827660,8131036,-56779160,54079170,-31757810,-6538086,-22750850
2026-01-14 16:52:42.541,-48718040,-21223560,-27700770,53998890,-31425780,-7216797,-7678223
2026-01-14 16:52:42.551,-5127815,7742612,-56908630,5128343,-31660160,-78125,-15100100
2026-01-14 16:52:42.561,-48560070,-21450580,-27905340,53880630,-31777340,-89990230,-20617680
2026-01-14 16:52:42.571,21528260,7475030,-57003580,31763700,-31679690,-9760742,-26489260
2026-01-14 16:52:42.581,21529120,-21603360,-28046040,31762830,-31132810,-10654300,-28881840
2026-01-14 16:52:42.591,21477330,-21655150,-28097830,31711040,-30390620,-11162110,-3359375
2026-01-14 16:52:42.601,25987290,7311026,-57133060,27011180,-29609380,-11884770,-33422850
2026-01-14 16:52:42.611,21237370,-21703480,-28153070,31484890,-28066410,-11992190,-27246090
2026-01-14 16:52:42.621,-2509228,735418,3,-5724527,7748654,-27109380,-12353520,-16467290
2026-01-14 16:52:42.631,20864480,-21726790,-28198820,31132720,-26464840,-12226560,-7067871
2026-01-14 16:52:42.641,-25610180,7457762,-57417900,77175790,-25351560,-12255860,37555700
2026-01-14 16:52:42.651,20424270,-24672000,-25322660,30709770,-23984380,-11845700,4901123
2026-01-14 16:52:42.661,-26093560,7613132,-57659580,76813260,-22558590,-11660160,78552250
2026-01-14 16:52:42.671,-2630937,7699452,-57814960,7661475,-21035160,-11386720,9442139
2026-01-14 16:52:42.681,-48947630,-21812240,-28389580,53941920,-19765620,-10800780,13012700
2026-01-14 16:52:42.691,19667270,-21857990,-28464670,29947590,-18388670,-10097660,12237550
2026-01-14 16:52:42.701,-26654610,7949768,-58410540,76010530,-17539060,-921875,91430660
2026-01-14 16:52:42.711,19450610,30811620,-35876690,29698140,-16552730,-81640620,59173580
2026-01-14 16:52:42.721,19385010,8096508,-58937080,29608370,-15546880,-71777340,-52764890
2026-01-14 16:52:42.731,19348760,-22162690,-28902300,29541040,-15058590,-6152344,-1159668
2026-01-14 16:52:42.741,19330630,8234614,-59541290,29490120,-14824220,-48779300,-21289060
2026-01-14 16:52:42.751,-26223030,8312300,-59860660,74991980,-14414060,-35351560,-29589840
2026-01-14 16:52:42.761,19334950,8398618,-60188670,29416750,-13740230,-22314450,-38110350
2026-01-14 16:52:42.771,-47765100,-22564920,-29466810,52638540,-12958980,-9613037,-44360350
2026-01-14 16:52:42.781,-2561882,-25780650,-26475500,7435324,-11513670,-6275177,-5283203
2026-01-14 16:52:42.791,19381560,-22742740,-29737850,29335610,-10185550,62286380,-5854492
2026-01-14 16:52:42.801,-25213130,8881990,-61552470,73895760,-9399414,11584470,-60595700
2026-01-14 16:52:42.811,19390190,903735,-6189775,29257920,-9296875,22106930,-62939450
2026-01-14 16:52:42.821,19376380,9218626,-62217110,29202680,-87353520,32666020,-6411133
2026-01-14 16:52:42.831,19343580,-26199980,-26919350,29131900,-8569336,47143560,-6748047
2026-01-14 16:52:42.841,19301290,-22971480,-30216910,29053350,-8100586,6352539,-6616211
2026-01-14 16:52:42.851,-24505320,-22961980,-30260920,72687330,-77001950,8027344,-6645508
2026-01-14 16:52:42.861,-24453530,34102020,-39422580,72445650,-6982422,10097660,-61083980
2026-01-14 16:52:42.871,-24419000,1046156,-6361543,72186690,-59472660,11328130,-5625
2026-01-14 16:52:42.881,-2441902,34660490,-39968970,7192776,-43554690,11171880,-46679690
2026-01-14 16:52:42.891,18819640,1110032,-6408156,28430140,-22009280,10087890,-38378900
2026-01-14 16:52:42.901,18684120,11454230,-64297340,28272190,-7348633,8276367,-24597170
2026-01-14 16:52:42.911,18548600,-22545930,-30176330,28114220,43701170,63134770,-11022950
2026-01-14 16:52:42.921,-2455713,-22450980,-30133180,7090920,22265620,4248047,-11734010
2026-01-14 16:52:42.931,-24626170,-25844960,-26618360,70650260,3581543,23120120,1005249
2026-01-14 16:52:42.941,18093710,12731720,-65091460,27602370,53515620,8666992,18005370
2026-01-14 16:52:42.951,17947840,36530970,-41758320,27437510,72998050,-10437010,26489260
2026-01-14 16:52:42.961,-24807430,-22183400,-30055490,69899300,9082031,-8270264,3491211
2026-01-14 16:52:42.971,-2483335,36947880,-42170040,6966626,10732420,-927124,44213870
2026-01-14 16:52:42.981,17608610,-22153190,-30102960,27034400,11923830,-62438960,5180664
2026-01-14 16:52:42.991,17553370,1375025,-6609274,26951540,1328125,-27130130,58984380
2026-01-14 16:52:43.001,17534380,13845210,-66308520,26901480,14111330,49438480,6279297
2026-01-14 16:52:43.011,17568910,13897000,-66550210,26901470,14619140,1081543,6748047
2026-01-14 16:52:43.021,17649180,37701430,-42987470,26942050,15136720,13476560,7163086
2026-01-14 16:52:43.031,-44009460,13897000,-67016320,48487570,14980470,15490720,7026367
2026-01-14 16:52:43.041,-23486790,1386244,-6724073,68544130,14833980,17822270,70654300
2026-01-14 16:52:43.051,-23081100,1381065,-6748242,68466450,14267580,16516110,6503906
2026-01-14 16:52:43.061,-2264091,13750260,-67698220,6840603,13828130,15539550,63671880
2026-01-14 16:52:43.071,-22200670,-23024130,-31182790,68362860,13720700,14050290,59814450
2026-01-14 16:52:43.081,18775620,-23145840,-31320030,27783630,13242190,13122560,58251950
2026-01-14 16:52:43.091,23021450,-23243370,-31429650,23917590,12695310,13964840,60498050
2026-01-14 16:52:43.101,-2095771,-27021460,-27841460,6824201,12783200,21191410,6328125
2026-01-14 16:52:43.111,19364300,13568990,-68570020,28248020,12529300,27172850,640625
2026-01-14 16:52:43.121,19510170,13586250,-68673600,28361090,11933590,3527832,6875
2026-01-14 16:52:43.131,19617200,38434250,-43946440,28443960,11601560,49291990,74658200
2026-01-14 16:52:43.141,-19930530,-2343589,-3168600,68147070,11171880,609375,8046875
2026-01-14 16:52:43.151,19752720,38549060,-44056060,28550130,11025390,73046870,9038086
2026-01-14 16:52:43.161,-1980108,-23366810,-31634220,6812117,11025390,8466797,9765625
2026-01-14 16:52:43.171,-41562380,-2331158,-3158587,46394380,11220700,95214850,109375
2026-01-14 16:52:43.181,-1988738,-2325114,-3152546,6815570,11044920,10,12041020
2026-01-14 16:52:43.191,-19999590,38630190,-44095770,68181600,10830080,10058590,12998050
2026-01-14 16:52:43.201,-2013771,-23135480,-31399440,6823337,10361330,10019530,13710940
2026-01-14 16:52:43.211,19565420,1404372,-6847509,28426690,95458980,96728510,13818360
2026-01-14 16:52:43.221,-20500230,-23056070,-31288960,68388750,90234380,9111328,13759770
2026-01-14 16:52:43.231,19431620,13896990,-68190230,28353330,81884770,8642578,13232420
2026-01-14 16:52:43.241,19353940,-23030170,-31211270,28310160,73535150,7758789,12578130
2026-01-14 16:52:43.251,-21190760,-23037940,-31186240,68734020,64990230,71777340,11660160
2026-01-14 16:52:43.261,19195120,-23056070,-31168110,28227300,57421880,6484375,10791020
2026-01-14 16:52:43.271,19114840,13249620,-67491060,28186730,45043940,58496100,10166020
2026-01-14 16:52:43.281,19033700,-23122530,-31153440,28147020,33496090,5419922,93115230
2026-01-14 16:52:43.291,-43430280,12774880,-67102640,48134540,2631836,47070310,86279300
2026-01-14 16:52:43.301,-2252870,12507300,-66904110,6945046,19580080,44921880,75927740
2026-01-14 16:52:43.311,18779930,12239710,-66705580,28021010,91308590,38549800,6791992
2026-01-14 16:52:43.321,-2306385,-23362490,-31206950,6976118,20568850,32250980,59375
2026-01-14 16:52:43.331,-23322780,36239220,-41704790,69916560,-70495610,24279780,5053711
2026-01-14 16:52:43.341,18571910,-23507500,-31251840,27935550,-18273930,16064450,41210940
2026-01-14 16:52:43.351,22740410,-23592960,-31287230,23680740,-25024410,8203125,32202150
2026-01-14 16:52:43.361,-24039220,10729170,-65712940,70374040,-34106440,3164673,23022460
2026-01-14 16:52:43.371,22659010,-23745740,-31341610,23606760,-4152832,-24291990,11218260
2026-01-14 16:52:43.381,18341450,1014220,-6533316,27855280,-4807129,-6768799,3451538
2026-01-14 16:52:43.391,18289650,985736,-6515189,27838010,-5595703,-1274414,-5657959
2026-01-14 16:52:43.401,-45602860,-23971030,-31427060,50208720,-6010742,-18273930,-1105957
2026-01-14 16:52:43.411,-2506642,9313574,-64797980,7105595,-6430664,-23999020,-16296390
2026-01-14 16:52:43.421,-25256280,34069220,-39628010,71176790,-7167969,-28344730,-21789550
2026-01-14 16:52:43.431,18090260,8812940,-64487240,27761190,-76660160,-32104490,-265625
2026-01-14 16:52:43.441,22406270,-2423430,-3152634,23376130,-80810540,-33569340,-30297850
2026-01-14 16:52:43.451,18003080,-24295570,-31551360,27727530,-8652344,-34277340,-32543940
2026-01-14 16:52:43.461,22352060,-24347360,-31568620,23326750,-9121094,-37158200,-39086910
2026-01-14 16:52:43.471,17929710,794112,8,-6394346,27697320,-92333980,-40307620,-4038086
2026-01-14 16:52:43.481,-2614536,-24464750,-31623870,7173784,-9707031,-46655270,-43554690
2026-01-14 16:52:43.491,17876200,-24513950,-31643720,27681780,-9975586,-51171880,-47265620
2026-01-14 16:52:43.501,-26326610,7397342,-63641330,71867320,-10488280,-49853520,-48632810
2026-01-14 16:52:43.511,-2640433,7233342,-63563650,7192775,-11103520,-5185547,-54589840
2026-01-14 16:52:43.521,1783907,32466320,-38106250,2768439,-11152340,-5307617,-56152340
2026-01-14 16:52:43.531,17825270,6948496,-63434180,27680920,-11328130,-56640620,-58154300
2026-01-14 16:52:43.541,-26576930,6827654,-63382380,72065850,-11386720,-60058590,-62353520
2026-01-14 16:52:43.551,-26611460,6715440,-63339230,72100380,-11523440,-59814450,-64453120
2026-01-14 16:52:43.561,-47108220,32132270,-37801550,51655390,-11904300,-6113281,-6484375
2026-01-14 16:52:43.571,-2666326,32085660,-37761850,7213492,-11953130,-5961914,-62841800
2026-01-14 16:52:43.581,-26680510,648235,5,-6329606,72134900,-11748050,-5932617,-6269531
2026-01-14 16:52:43.591,-26689140,-28092740,-28790000,72126270,-11699220,-5673828,-62597660
2026-01-14 16:52:43.601,17778660,32007970,-37701430,27658480,-11806640,-5341797,-6411133
2026-01-14 16:52:43.611,-4711948,6352912,-63356490,5166144,-11679690,-4880371,-63378900
2026-01-14 16:52:43.621,-4709357,-28179050,-28876320,5163553,-11425780,-48120120,-6357422
2026-01-14 16:52:43.631,-49102920,633562,5,-6344279,49557120,-11044920,-43896480,-62597660
2026-01-14 16:52:43.641,-26594190,32065810,-37781700,71996800,-10976560,-42138670,-6381836
2026-01-14 16:52:43.651,17776070,6370174,-63563650,27626540,-10703130,-39282230,-62158200
2026-01-14 16:52:43.661,-26516510,6396070,-63641330,71901850,-10332030,-34399420,-6411133
2026-01-14 16:52:43.671,17768300,32223770,-37951750,27599780,-10185550,-31591800,-6074219
2026-01-14 16:52:43.681,-46829430,6508284,-63805330,51364500,-97265620,-22705080,-61376950
2026-01-14 16:52:43.691,-26369770,657730,5,-6390891,71703320,-90966800,-19396970,-5942383
2026-01-14 16:52:43.701,-46711170,-25141480,-32207370,51241070,-8779297,-14453130,-58154300
2026-01-14 16:52:43.711,17750170,6749968,-64098820,27531590,-85791020,-7342529,-55566410
2026-01-14 16:52:43.721,-2621441,-25130260,-32235850,7146162,-79589840,-8056641,-5444336
2026-01-14 16:52:43.731,-26153980,6948496,-64314600,71383940,-7285156,6604004,-53466800
2026-01-14 16:52:43.741,-26093560,7060708,-64426810,71289000,-70996100,14074710,-5258789
2026-01-14 16:52:43.751,221028,2,-25097460,-32268650,230751,2,-6582031,23205570,-49951170
2026-01-14 16:52:43.761,-4626838,-28323370,-29042740,5078617,-6152344,27856440,-5029297
2026-01-14 16:52:43.771,-48223700,-25075020,-32291090,48675480,-5751953,3017578,-48364260
2026-01-14 16:52:43.781,-48137380,-25063800,-32302310,48589160,-53466800,35595700,-484375
2026-01-14 16:52:43.791,-48051070,7613136,-64979240,48502840,-5073242,38500980,-46679690
2026-01-14 16:52:43.801,17777800,-25042210,-32323890,27417650,-46557620,36743160,-46948240
2026-01-14 16:52:43.811,22116510,-25031860,-32334250,23078940,-4008789,35668940,-44360350
2026-01-14 16:52:43.821,-25437540,-25022360,-32343750,70650260,-3334961,31884770,-45214840
2026-01-14 16:52:43.831,17809730,8036088,-65384940,27402980,-30151370,35205080,-4338379
2026-01-14 16:52:43.841,-25290810,8122402,-65471250,70503510,-23498540,28027340,-43969730
2026-01-14 16:52:43.851,17822680,822597,3,-6555758,27390030,-21289060,26391600,-41723630
2026-01-14 16:52:43.861,17820090,-24958490,-32355830,27375350,-19812010,25512700,-41357420
2026-01-14 16:52:43.871,-25144060,-2493262,-3234719,70304980,-15258790,25927730,-41992190
2026-01-14 16:52:43.881,-45416420,-24906700,-32338570,49929060,-115112300,20617680,-38842770
2026-01-14 16:52:43.891,17783840,8657570,-65851050,27308030,-7879639,18457030,-35888670
2026-01-14 16:52:43.901,-25049120,-24836780,-32304900,70106460,-28930660,17028810,-33935550
2026-01-14 16:52:43.911,17757940,8899258,-65971890,27264870,17227170,15063480,-30541990
2026-01-14 16:52:43.921,17745860,-24748740,-32254840,27242430,7006836,13989260,-2614746
2026-01-14 16:52:43.931,-24954170,915817,8,-6609272,69925200,9844971,13500980,-22607420
2026-01-14 16:52:43.941,1773807,34885780,-40572320,2721569,16235350,123291000,-18139650
2026-01-14 16:52:43.951,17735500,-24615810,-32180610,27200990,20690920,11151120,-12963870
2026-01-14 16:52:43.961,-24798800,9563892,-66291250,69735300,24829100,6970215,-97473140
2026-01-14 16:52:43.971,-44958940,-24526910,-32131410,49454320,33032230,7647705,-44281010
2026-01-14 16:52:43.981,17772620,-24490650,-32115870,27198400,38452150,7336426,-13130190
2026-01-14 16:52:43.991,-2454850,-24454400,-32100330,6955402,43798830,6201172,25680540
2026-01-14 16:52:44.001,-44719840,35507250,-41159270,49227300,47387700,4272461,7110596
2026-01-14 16:52:44.011,-24306790,-24399160,-32086520,69450450,5493164,4449463,75805660
2026-01-14 16:52:44.021,-24177320,-24363760,-32070120,69407300,58447260,52124020,93688970
2026-01-14 16:52:44.031,17997040,35806780,-41446710,27336520,60498050,6530762,12963870
2026-01-14 16:52:44.041,18066960,-24310250,-32054580,27387440,6352539,10406490,14477540
2026-01-14 16:52:44.051,18136010,-24274860,-32038190,27439230,66064450,1060791,15307620
2026-01-14 16:52:44.061,-23573110,-24240330,-32020920,69269180,65966800,13256840,1899414
2026-01-14 16:52:44.071,-2343503,10875910,-67085380,6925193,67089840,17480470,20605470
2026-01-14 16:52:44.081,18351800,10996750,-67137170,27603230,6743164,19274900,27270510
2026-01-14 16:52:44.091,-23150150,36341940,-41947340,69226020,6791992,22338870,30395510
2026-01-14 16:52:44.101,-23029310,-24062520,-31905260,69226030,6826172,22009280,35888670
2026-01-14 16:52:44.111,18551190,-24004690,-31859510,27766370,66308590,21472170,4206543
2026-01-14 16:52:44.121,18608160,1145422,-6721486,27812980,6567383,24169920,48510740
2026-01-14 16:52:44.131,-2272723,11566440,-67206220,6925193,6274414,2626953,5209961
2026-01-14 16:52:44.141,18708290,11678660,-67197590,27902750,61035160,29101560,59277340
2026-01-14 16:52:44.151,-2261502,11782230,-67163060,6931235,5859375,2697754,63183590
2026-01-14 16:52:44.161,-2258911,39222330,-39774760,6933826,54052740,29101560,7084961
2026-01-14 16:52:44.171,-2256320,1195487,-6707674,6938140,5419922,27172850,7636719
2026-01-14 16:52:44.181,-2256322,-23540300,-31443460,6943318,5107422,2376709,8076172
2026-01-14 16:52:44.191,18849850,-23479880,-31383040,28054670,45288090,27661130,8647461
2026-01-14 16:52:44.201,-22597730,12127500,-66869580,69536770,36621100,27270510,8803711
2026-01-14 16:52:44.211,18874880,12144760,-66783270,28098690,33862300,26953120,88427740
2026-01-14 16:52:44.221,-2267542,-23324510,-31210410,6966623,2932129,25585940,9067383
2026-01-14 16:52:44.231,18880920,12153400,-66602000,28127170,2442627,2442627,9145508
2026-01-14 16:52:44.241,-22787620,12136130,-66515680,69812980,18029780,2043457,9238281
2026-01-14 16:52:44.251,-2284806,36549960,-41981010,6989069,9979248,17248540,92285150
2026-01-14 16:52:44.261,18886100,3647485,-4190074,28173790,64086910,10583500,8979492
2026-01-14 16:52:44.271,-22968890,12015280,-66222200,70046030,5645752,6951904,87158200
2026-01-14 16:52:44.281,18880060,11946240,-66118630,28197090,-40649420,23666380,85009770
2026-01-14 16:52:44.291,18872290,-23182090,-30973040,28204860,-8117676,-22720340,82666020
2026-01-14 16:52:44.301,-23201940,11782230,-65937360,70279090,-12475590,-45562740,8251953
2026-01-14 16:52:44.311,18856750,-23201080,-30954050,28220390,-14404300,-54382320,80322260
2026-01-14 16:52:44.321,-44532540,-26699500,-27472890,49241980,-20227050,-99975580,78515620
2026-01-14 16:52:44.331,-2341777,11462860,-65669780,7051216,-2578125,-13146970,7548828
2026-01-14 16:52:44.341,-2349543,-23274450,-30966990,7058982,-28833010,-1303711,7055664
2026-01-14 16:52:44.351,-44756960,-23311560,-30981670,49466400,-3503418,-14916990,6796875
2026-01-14 16:52:44.361,-2363354,35528830,-40965060,7072796,-39111330,-15820310,6015625
2026-01-14 16:52:44.371,18830860,35413170,-40856300,28280820,-43701170,-18249510,59277340
2026-01-14 16:52:44.381,-23763000,-23447950,-31052450,70874680,-46118160,-1895752,5449219
2026-01-14 16:52:44.391,-45024540,-23501460,-31085250,49733980,-54541020,-2109375,49658200
2026-01-14 16:52:44.401,-2390114,10470220,-65143240,7099553,-5727539,-20922850,4567871
2026-01-14 16:52:44.411,23063490,-23609360,-31149990,24013660,-59765620,-21374510,42089840
2026-01-14 16:52:44.421,18782520,-23662870,-31182790,28294630,-6118164,-21594240,38452150
2026-01-14 16:52:44.431,18767850,10030000,-64961980,28292040,-64404300,-22021480,3395996
2026-01-14 16:52:44.441,-24160060,9883262,-64918820,71185420,-69433590,-22875980,31445310
2026-01-14 16:52:44.451,-24220470,974513,3,-6486702,71228580,-7324219,-24145510,25146480
2026-01-14 16:52:44.461,18709150,-23882120,-31326080,28264420,-7504883,-24938960,23266600
2026-01-14 16:52:44.471,18686710,-23942540,-31369230,28252330,-7524414,-24365230,20129400
2026-01-14 16:52:44.481,-24419010,9356728,-64754820,71323520,-78515620,-25732420,17211910
2026-01-14 16:52:44.491,18634920,-24052160,-31449510,28217810,-79345700,-27246090,120666500
2026-01-14 16:52:44.501,18605570,912366,8,-6471167,28195360,-7807617,-27294920,9411621
2026-01-14 16:52:44.511,-45646030,9002832,-64694400,50320940,-8022461,-2775879,80322260
2026-01-14 16:52:44.521,-2466071,-24218750,-31576390,7135804,-81152340,-28979490,62286380
2026-01-14 16:52:44.531,18519250,8787040,-64685770,28126310,-8183594,-25512700,44189450
2026-01-14 16:52:44.541,18491630,-24341320,-31678250,28102140,-8198242,-2668457,15609740
2026-01-14 16:52:44.551,18473510,-24406920,-31733490,28085740,-82373050,-23608400,-34118650
2026-01-14 16:52:44.561,18446750,-24470800,-31790460,28060710,-77685540,-20617680,-6994629
2026-01-14 16:52:44.571,18429490,-24535540,-31846560,28043450,-7832031,-19812010,-8532715
2026-01-14 16:52:44.581,18412220,826050,-6478073,28026180,-7661133,-18896480,-11260990
2026-01-14 16:52:44.591,-4574098,817419,3,-6481525,5038136,-7548828,-20361330,-15698240
2026-01-14 16:52:44.601,-24859220,-24742700,-32036460,71228580,-74121100,-18481440,-17919920
2026-01-14 16:52:44.611,-2485060,-24813480,-32103790,7120267,-73583980,-17028810,-22558590
2026-01-14 16:52:44.621,22678770,-24884260,-32171120,23638790,-7104492,-12963870,-2692871
2026-01-14 16:52:44.631,18353530,-24954170,-32239310,27946770,-6948242,-12573240,-2861328
2026-01-14 16:52:44.641,-2479882,33550450,-39283610,7108185,-68359380,-9588623,-3112793
2026-01-14 16:52:44.651,-24772910,7682184,-65151880,71038680,-6401367,-6512451,-33251950
2026-01-14 16:52:44.661,-24747010,7613130,-65220930,70995520,-61816410,-5508423,-36572260
2026-01-14 16:52:44.671,-2471250,-25221750,-32506880,7094372,-58251950,-34301760,-375
2026-01-14 16:52:44.681,-24677960,750089,5,-6536766,70891940,-57666020,-31143190,-3791504
2026-01-14 16:52:44.691,-24652070,7449134,-65436720,70848780,-55908200,-18493650,-40966800
2026-01-14 16:52:44.701,-2461754,-2539957,-3269160,7079699,-50878900,-5935669,-42138670
2026-01-14 16:52:44.711,-24583010,33566850,-39388050,70745200,-48413090,-12863160,-42529300
2026-01-14 16:52:44.721,18310370,-25499690,-32798640,27834560,-45581060,6591797,-4411621
2026-01-14 16:52:44.731,-24513950,-25548900,-32853020,70641620,-42407230,-63171390,-46655270
2026-01-14 16:52:44.741,-2447944,-25589460,-32898760,7058982,-38891600,18295290,-47998050
2026-01-14 16:52:44.751,-24444910,-25630030,-32944510,70538050,-38598630,5176544,-47973630
2026-01-14 16:52:44.761,-2442766,-25661100,-32982490,7048625,-36254880,2986145,-49023440
2026-01-14 16:52:44.771,18270660,-25683550,-33011840,27753420,-35473630,4321289,-48217770
2026-01-14 16:52:44.781,-24375850,-25705130,-33042050,70382670,-31420900,28427120,-48242190
2026-01-14 16:52:44.791,18252540,733691,3,-6611864,27719760,-27563480,32165530,-4790039
2026-01-14 16:52:44.801,-2433272,7362816,-66179050,7027047,-25219730,3111267,-45947260
2026-01-14 16:52:44.811,-44972750,7405978,-66239460,49561340,-22680660,5303955,-42211910
2026-01-14 16:52:44.821,-24306800,744910,8,-6629988,70158260,-21105960,6347656,-40649420
2026-01-14 16:52:44.831,-44907150,750090,5,-6635166,49488840,-19226070,27786260,-35546880
2026-01-14 16:52:44.841,18183480,-25718070,-33115420,27616180,-16760250,52856440,-3618164
2026-01-14 16:52:44.851,-44832060,-25703400,-33112830,49408570,-14050290,15174870,-34106440
2026-01-14 16:52:44.861,-24211850,7716716,-66515680,69959720,-11993410,19851680,-2770996
2026-01-14 16:52:44.871,-2419461,34237540,-40115710,6990795,-8795166,29144290,-27075200
2026-01-14 16:52:44.881,22369240,-25649020,-33098160,23309580,-11340330,62561040,-24255370
2026-01-14 16:52:44.891,-24142800,7958402,-66671050,69804350,-7751465,72387700,-20617680
2026-01-14 16:52:44.901,-24125530,-25591190,-33069670,69752560,-64575200,10491940,-1730957
2026-01-14 16:52:44.911,22335920,8148300,-66774640,23273840,-32440190,9857178,-1161499
2026-01-14 16:52:44.921,-2406512,-25534220,-33040320,6965760,-4688263,11352540,-9210205
2026-01-14 16:52:44.931,-2402197,-25501420,-33021330,6961445,13442990,119506800,-446167
2026-01-14 16:52:44.941,18109250,-25478110,-33010110,27465990,30639650,107177700,-8171082
2026-01-14 16:52:44.951,-23952900,8502200,-66955900,69528140,3692627,89416500,24871830
2026-01-14 16:52:44.961,-23918370,-25430640,-32988530,69493610,6359863,7446289,16922000
2026-01-14 16:52:44.971,18121340,865755,5,-6704222,27453900,84350580,80566410,44799800
2026-01-14 16:52:44.981,-2383206,874388,-6707674,6942456,10998540,85510260,51086420
2026-01-14 16:52:44.991,-2378891,-25360720,-32954870,6938139,110961900,11895750,10406490
2026-01-14 16:52:45.001,18149820,-25338280,-32942780,27459940,10559080,121521000,11785890
2026-01-14 16:52:45.011,18153270,8951046,-67197580,27456490,9576416,12432860,14404300
2026-01-14 16:52:45.021,18164500,902008,8,-6723213,27462540,10595700,14099120,14245610
2026-01-14 16:52:45.031,18167950,-25271820,-32905670,27459080,12841800,14685060,15991210
2026-01-14 16:52:45.041,-2361628,-25241600,-32884090,6926055,11462400,12780760,18798830
2026-01-14 16:52:45.051,-2359037,920999,3,-6730117,6923466,12207030,15759280,21252440
2026-01-14 16:52:45.061,22767110,-25199310,-32857330,22859920,114990200,15856930,20983890
2026-01-14 16:52:45.071,-23573100,-25170830,-32834020,69200130,10699460,13537600,26367190
2026-01-14 16:52:45.081,-23581730,936533,8,-6733568,69191500,83618160,12463380,26489260
2026-01-14 16:52:45.091,-2358174,941715,5,-6733569,6917424,10882570,13964840,2993164
2026-01-14 16:52:45.101,-23607630,9451682,-67335700,69165600,10211180,12854000,32739260
2026-01-14 16:52:45.111,-23616260,-25075020,-32757200,69156970,9277344,12695310,3293457
2026-01-14 16:52:45.121,-2363355,35538330,-41318100,6915699,9832764,12017820,36621100
2026-01-14 16:52:45.131,22698060,-25037900,-32725270,22790860,8111572,115478500,36035160
2026-01-14 16:52:45.141,-2367669,956389,-6730980,6914834,70373540,101745600,3557129
2026-01-14 16:52:45.151,-23693950,-25011140,-32700230,69148340,6921387,982666,36889650
2026-01-14 16:52:45.161,18075590,-25002510,-32691600,27361540,49865720,8721924,35839840
2026-01-14 16:52:45.171,-46219940,-24985250,-32674340,46674140,4949951,6109619,36108400
2026-01-14 16:52:45.181,18055740,-24977480,-32664840,27346870,484848,6994629,3564453
2026-01-14 16:52:45.191,-23780260,-24960220,-32647580,69165610,60691830,50720220,3791504
2026-01-14 16:52:45.201,18035020,-24951580,-32638950,27333060,-13534550,51940920,3491211
2026-01-14 16:52:45.211,-23840680,35549550,-41306880,69174240,-21514890,48950200,34326170
2026-01-14 16:52:45.221,22192890,9641584,-67197580,23123390,-35095220,51483150,36254880
2026-01-14 16:52:45.231,17986680,9658844,-67180320,27295080,-36468500,46203610,36279300
2026-01-14 16:52:45.241,-44305520,965882,5,-6716304,48830240,-27862550,58807370,36669920
2026-01-14 16:52:45.251,17947840,9650210,-67137170,27264870,-24505620,7208252,3569336
2026-01-14 16:52:45.261,-4435215,-24904970,-32581980,4886994,-55908200,7067871,37304690
2026-01-14 16:52:45.271,17909000,9632952,-67102640,27234660,-43396000,55999760,36669920
2026-01-14 16:52:45.281,-24099640,-24899790,-32569890,69208760,-6451416,6561279,34521480
2026-01-14 16:52:45.291,-44426370,9598418,-67068100,48933820,-72387700,58502200,35351560
2026-01-14 16:52:45.301,-24194580,-24903250,-32566440,69217400,-103149400,50720220,34155270
2026-01-14 16:52:45.311,17820950,-24905830,-32563850,27167330,-9643555,48217770,32543940
2026-01-14 16:52:45.321,-2428093,9529366,-67016320,6923467,-107788100,5331421,29345700
2026-01-14 16:52:45.331,17772610,9503470,-66990420,27129350,-9069824,4977417,2692871
2026-01-14 16:52:45.341,17744130,35345840,-41096270,27106050,-12365720,4928589,26342770
2026-01-14 16:52:45.351,17715650,9434420,-66955900,27082740,-12536620,61920170,2524414
2026-01-14 16:52:45.361,17694930,-24961070,-32594930,27068930,-1171875,5831909,2211914
2026-01-14 16:52:45.371,1766643,35256070,-41013400,2704564,-13146970,5340576,1953125
2026-01-14 16:52:45.381,-2459165,-24993010,-32614780,6925191,-1541748,68115230,18481440
2026-01-14 16:52:45.391,17618110,9253156,-66895480,27007650,-14221190,41259770,16101070
2026-01-14 16:52:45.401,-24686590,35155950,-40923630,69260560,-14892580,3753662,12976070
2026-01-14 16:52:45.411,-2472113,-25063790,-32664840,6926054,-15576170,27145390,8123779
2026-01-14 16:52:45.421,21782290,-25083650,-32679520,22722620,-15771480,-14982220,57495120
2026-01-14 16:52:45.431,17522300,-25112990,-32701960,26930820,-14892580,14572140,6732178
2026-01-14 16:52:45.441,-44838960,-25133710,-32715770,49280820,-18884280,27694700,2507019
2026-01-14 16:52:45.451,17484320,-25162190,-32739080,26899750,-20031740,-11146550,9436,607
2026-01-14 16:52:45.461,17465330,-25182910,-32752890,26884210,-18847660,-15853880,-21072390
2026-01-14 16:52:45.471,-24945540,-25211400,-32776190,69277820,-17297360,-2709961,-37323000
2026-01-14 16:52:45.481,17435980,-25231250,-32790870,26861770,-15075680,-37963870,-6524658
2026-01-14 16:52:45.491,21668870,-25259730,-32814170,22611620,-16491700,-27633670,-6237793
2026-01-14 16:52:45.501,-25014590,8700726,-66809160,69277820,-1583252,-7587433,-8770752
2026-01-14 16:52:45.511,-2503189,8648942,-66809160,6927782,-19494630,56152340,-9503174
2026-01-14 16:52:45.521,-2504051,-25327060,-32867690,6928644,-1895752,55885320,-10119630
2026-01-14 16:52:45.531,17398000,-28746410,-29500130,26830700,-18493650,564,5752,-12084960
2026-01-14 16:52:45.541,-2504052,8528096,-66809160,6928646,-17016600,-21820070,-13513180
2026-01-14 16:52:45.551,-2504050,848493,-6681779,6928645,-15795900,-3149414,-13708500
2026-01-14 16:52:45.561,-2504052,8459042,-66826420,6928646,-16796880,-31204220,-13928220
2026-01-14 16:52:45.571,17416130,-25438410,-32963500,26847100,-16479490,-7896423,-11627200
2026-01-14 16:52:45.581,17416130,-25465170,-32988530,26847100,-17602540,11817930,-14953610
2026-01-14 16:52:45.591,-25014590,8364092,-66852320,69277820,-16345220,22945400,-13024900
2026-01-14 16:52:45.601,21668870,-25502280,-33020470,22611620,-15551760,42633060,-1484375
2026-01-14 16:52:45.611,17435980,8295042,-66869580,26861770,-17199710,47821040,-11956790
2026-01-14 16:52:45.621,-44904560,826912,5,-6687820,49336060,-17541500,4284668,-13867190
2026-01-14 16:52:45.631,-24954170,-29284230,-29359360,69286450,-1763916,43792720,-12719730
2026-01-14 16:52:45.641,-24936910,8200090,-66895470,69286450,-19177250,5041504,-1394043
2026-01-14 16:52:45.651,-2491965,817419,5,-6690411,6928645,-17980960,7098389,-13989260
2026-01-14 16:52:45.661,-24893750,-25629170,-33135270,69277820,-17114260,59417720,-14733890
2026-01-14 16:52:45.671,17492950,8113772,-66930000,26908380,-17333980,57647700,-115234400
2026-01-14 16:52:45.681,-24841960,-25682690,-33185330,69277820,-19128420,93933100,-9863281
2026-01-14 16:52:45.691,17522300,-25709440,-33210370,26930820,-17553710,85754390,-10998540
2026-01-14 16:52:45.701,-24772900,34547410,-40444570,69277820,-16992190,8850098,-9851074
2026-01-14 16:52:45.711,-44772500,7967030,-67007680,49226440,-1295166,100097700,-10949710
2026-01-14 16:52:45.721,-2466071,-25815610,-33311360,6926918,-13879400,8868408,-1204834
2026-01-14 16:52:45.731,-2460028,787208,3,-6706811,6926056,-1352539,7836914,-10864260
2026-01-14 16:52:45.741,21904340,7820298,-67102640,22842260,-14050290,85754390,-12841800
2026-01-14 16:52:45.751,-44611090,34493030,-40429900,49094380,-13342290,80200190,-13098150
2026-01-14 16:52:45.761,17778660,-25982200,-33472770,27140570,-14575200,7507324,-15539550
2026-01-14 16:52:45.771,17835630,-29404830,-30153720,27187180,-118774400,72631840,-15112310
2026-01-14 16:52:45.781,-44449670,-29447990,-30196870,48962310,-117126500,51483150,-17285160
2026-01-14 16:52:45.791,-44391840,7569976,-67301170,48916560,-9210205,43640140,-15271000
2026-01-14 16:52:45.801,-23909740,7526818,-67344320,69277820,-55633540,3366089,-14904790
2026-01-14 16:52:45.811,18098890,7475032,-67396110,27407290,-637207,17333980,-11993410
2026-01-14 16:52:45.821,-23659420,34435200,-40435940,69286450,-62805180,2331543,-111694300
2026-01-14 16:52:45.831,-2352998,7388714,-67482430,6929509,-53710940,41656500,-9979248
2026-01-14 16:52:45.841,18325910,-2634561,-3383445,27594600,-48187260,36712650,-9069824
2026-01-14 16:52:45.851,-23236470,-2638016,-3386896,69312340,-20446780,38238520,-52337650
2026-01-14 16:52:45.861,18486460,-26422420,-33912990,27727530,-21911620,3265381,-19927980
2026-01-14 16:52:45.871,18571050,724196,5,-6766371,27798310,-21240230,53131100,-4840851
2026-01-14 16:52:45.881,-43741010,-26508740,-33999300,48393480,-14793400,35583500,30807500
2026-01-14 16:52:45.891,18740230,34431750,-40491190,27939870,-26611330,58013920,55480960
2026-01-14 16:52:45.901,-22511410,7121128,-67801810,69346870,-27542110,6097412,7147217
2026-01-14 16:52:45.911,-2236469,34423120,-40499820,6935552,-23712160,69885260,10760500
2026-01-14 16:52:45.921,23115190,-26671010,-34165030,24031010,-15403750,9118652,14172360
2026-01-14 16:52:45.931,-22062560,-26714170,-34208190,69381400,-1965332,8343506,1776123
2026-01-14 16:52:45.941,19171810,-26757330,-34251350,28302390,-184021,7556152,20043940
2026-01-14 16:52:45.951,-4320241,-26800490,-34294500,4796534,-1259613,8068848,2319336
2026-01-14 16:52:45.961,19341860,687943,-6806076,28443100,-13175960,9832764,265625
2026-01-14 16:52:45.971,19435080,-26886800,-34380820,28522500,-3137207,7678223,31225590
2026-01-14 16:52:45.981,-21302970,679309,5,-6814706,69433180,-34332280,101623500,33129880
2026-01-14 16:52:45.991,19622380,34388590,-40534340,28680470,-47088620,715332,3400879
2026-01-14 16:52:46.001,-20983600,-27026640,-34517200,69459080,-33203120,7531738,37963870
2026-01-14 16:52:46.011,-20819600,662909,8,-6827654,69467710,-51879880,6738281,3894043
2026-01-14 16:52:46.021,19902910,-30492430,-31241310,28917830,-64086910,72021490,38989260
2026-01-14 16:52:46.031,19987500,-27175960,-34661350,28988610,-66345220,56274420,42456060
2026-01-14 16:52:46.041,24125100,-27228620,-34712280,25023650,-8654785,54229740,44555660
2026-01-14 16:52:46.051,20174810,6396068,-68423280,29146570,-7171631,35003660,46289060
2026-01-14 16:52:46.061,20258540,-27326160,-34804640,29218220,-7122803,29800420,47094730
2026-01-14 16:52:46.071,-19913280,6249326,-68500970,69545400,-9692383,21087650,5024414
2026-01-14 16:52:46.081,20427720,-27441820,-34913400,29359780,-10473630,27023320,51464840
2026-01-14 16:52:46.091,-1962843,610259,3,-6856139,6957129,-11883550,31051640,5258789
2026-01-14 16:52:46.101,-19481690,-27559210,-35020430,69579920,-119140600,-13923650,5253906
2026-01-14 16:52:46.111,-19343580,-27630860,-35086900,69597180,-12146000,-46325680,48828120
2026-01-14 16:52:46.121,-41889520,-27694730,-35143860,46930410,-9460449,-123046900,5102539
2026-01-14 16:52:46.131,-19067370,572277,-6869949,69631720,-73913580,-23413090,51220700
2026-01-14 16:52:46.141,20930940,5610586,-68725390,29788770,-7885742,-25219730,5209961
2026-01-14 16:52:46.151,21006040,-27913970,-35338940,29851780,-80078130,-20080570,51220700
2026-01-14 16:52:46.161,-18661680,33912120,-40251230,69692140,-1104126,-118774400,52685550
2026-01-14 16:52:46.171,-18514940,5265318,-68794450,69718030,-13134770,23010250,52197260
2026-01-14 16:52:46.181,21290890,514446,5,-6881172,30102100,-17944340,17797850,5175781
2026-01-14 16:52:46.191,21401370,-28210040,-35595300,30198770,-24938960,33422850,49316410
2026-01-14 16:52:46.201,21519630,-28275640,-35650540,30304940,-29858400,45239260,48266600
2026-01-14 16:52:46.211,-43597300,33621230,-40024210,44117780,-38354490,53271480,44262700
2026-01-14 16:52:46.221,-41192080,33564260,-39977600,46419420,-45239260,5361328,3720703
2026-01-14 16:52:46.231,21856260,-28437050,-35782610,30607050,-50390620,5185547,34936520
2026-01-14 16:52:46.241,-17392820,-28467260,-35804180,70028780,-5683594,48510740,34960940
2026-01-14 16:52:46.251,-17297870,-28497480,-35825770,70071940,-60058590,46850580,37231440
2026-01-14 16:52:46.261,22071190,-28518190,-35839580,30806440,-6298828,4633789,40698240
2026-01-14 16:52:46.271,22106580,-28538910,-35853390,30840110,-6269531,41210940,46557620
2026-01-14 16:52:46.281,-1718568,-28550120,-35859430,7016687,-54589840,41796880,53125
2026-01-14 16:52:46.291,22140240,-28570840,-35873240,30875500,-51904300,37817380,6035156
2026-01-14 16:52:46.301,-17151140,422085,8,-6871676,70218670,-46142580,3491211,66064450
2026-01-14 16:52:46.311,22192030,-28639900,-35925030,30927290,-4560547,2854004,71435540
2026-01-14 16:52:46.321,22227420,-28688230,-35963010,30960950,-41625980,19567870,7163086
2026-01-14 16:52:46.331,22281800,-28746070,-36008760,31010150,-3959961,95214850,6948242
2026-01-14 16:52:46.341,22353450,32999750,-39489050,31076620,-3544922,19622800,65234380
2026-01-14 16:52:46.351,-16779980,-28898850,-36132190,70365410,-3137207,-8856201,5722656
2026-01-14 16:52:46.361,22534710,-2898432,-3620212,31240620,-31396480,-21154780,5107422
2026-01-14 16:52:46.371,-40779480,-29070620,-36271160,46176000,-31030270,-31591800,4633789
2026-01-14 16:52:46.381,-16348400,3176452,-68673600,70503520,-29785160,-3984375,38891600
2026-01-14 16:52:46.391,-1619304,-32459150,-33176100,7055529,-29589840,-45507810,32226560
2026-01-14 16:52:46.401,-1604630,32489620,-39066960,7059848,-32763670,-46777340,27856440
2026-01-14 16:52:46.411,-1590819,-29376180,-36518020,7063298,-34570310,-40820310,27783200
2026-01-14 16:52:46.421,-1577873,2667190,-68647700,7067615,-35546880,-34106440,27416990
2026-01-14 16:52:46.431,-1564924,32302310,-38909000,7071933,-3239746,-27148440,30737300
2026-01-14 16:52:46.441,23298610,2503186,-68639080,31926840,-36743160,-18920900,34887700
2026-01-14 16:52:46.451,23380620,245138,3,-6862183,32000210,-44970700,-11627200,39038090
2026-01-14 16:52:46.461,-1529536,2408238,-68613180,7083153,-49487300,-46936040,4477539
2026-01-14 16:52:46.471,-15174490,2373704,-68595920,70866050,-5439453,25299070,5185547
2026-01-14 16:52:46.481,-40194260,234779,5,-6858727,45777220,-6015625,15222170,5678711
2026-01-14 16:52:46.491,23697400,233054,-6857004,32287640,-6586914,296875,65478520
2026-01-14 16:52:46.501,-1484648,232191,8,-6856139,7096962,-6972656,43652340,73583980
2026-01-14 16:52:46.511,23852770,32121050,-38745000,32425750,-7114258,5332031,80371100
2026-01-14 16:52:46.521,23926130,2304656,-68561390,32490480,-72314460,54248050,8901367
2026-01-14 16:52:46.531,-1448397,35391250,-35457540,7105596,-71240230,47851560,9448242
2026-01-14 16:52:46.541,24084100,223558,8,-6857867,32626000,-6699219,36499020,10361330
2026-01-14 16:52:46.551,24159190,-29675700,-36753670,32689010,-65234380,19445800,11074220
2026-01-14 16:52:46.561,-14078260,-33275100,-33275110,71081830,-61865230,4559326,11435550
2026-01-14 16:52:46.571,24319740,31968270,-38638830,32821940,-62158200,-1315918,12050780
2026-01-14 16:52:46.581,-39569320,-29923430,-36972050,45297300,-5498047,-2220459,12177730
2026-01-14 16:52:46.591,28294020,1588232,-68725390,29141140,-48876950,-31396480,11611330
2026-01-14 16:52:46.601,24576970,-30200500,-37212870,33030830,-41870120,-33911130,1125
2026-01-14 16:52:46.611,24671920,-30367100,-37357020,33108510,-38378900,-32592770,10605470
2026-01-14 16:52:46.621,-1309427,-30551810,-37517570,7106456,-37329100,-26782230,96484380
2026-01-14 16:52:46.631,24891160,-30746890,-37685020,33286320,-41577150,-20593260,8461914
2026-01-14 16:52:46.641,-12654040,-30951460,-37860250,71055940,-44262700,-8148193,72802740
2026-01-14 16:52:46.651,25157880,-215792,-68992980,33502980,-46923830,-27771000,6142578
2026-01-14 16:52:46.661,-38650920,-578320,-69044770,44541160,-4658203,91308590,49316410
2026-01-14 16:52:46.671,25442720,-93223,75,-6908794,33736040,-48242190,14477540,35839840
2026-01-14 16:52:46.681,25595500,-1294752,-69139710,33859470,-45654300,20080570,2421875
2026-01-14 16:52:46.691,-38196020,30234160,-37317320,44167410,-46166990,24694820,16918940
2026-01-14 16:52:46.701,-11039920,-1985284,-69226030,71030050,-46044920,2861328,7373047
2026-01-14 16:52:46.711,-37884420,-2330554,-69277820,43909320,-43920900,31591800,39154050
2026-01-14 16:52:46.721,-10504750,29727480,-36926300,70995520,-40527340,30004880,54740900
2026-01-14 16:52:46.731,26305020,-2995192,-69372770,34427430,-3552246,27197270,-3842163
2026-01-14 16:52:46.741,26439680,29405520,-36678580,34534460,-32543940,28320310,-6262207
2026-01-14 16:52:46.751,-9745160,29239790,-36550830,70943740,-2783203,28051760,-9387207
2026-01-14 16:52:46.761,26690860,-3987832,-69484980,34732130,-22753910,30444340,-12976070
2026-01-14 16:52:46.771,-9261784,-433313,-6951950,70891940,-20031740,32250980,-14709470
2026-01-14 16:52:46.781,26931680,28727070,-36148590,34922890,-10620120,3017578,-19934080
2026-01-14 16:52:46.791,27048210,28535450,-35994950,35013520,-15771480,36010740,-2783203
2026-01-14 16:52:46.801,-36591400,-5403426,-69588560,42820010,-1829834,37768560,-2548828
2026-01-14 16:52:46.811,-36459330,31525810,-32279530,42710380,-27612300,37280270,-35327150
2026-01-14 16:52:46.821,-807926,3,27914830,-35493440,7083154,-21569820,40942380,-43530270
2026-01-14 16:52:46.831,27573880,27668830,-35290600,35437340,-19128420,36279300,-24963380
2026-01-14 16:52:46.841,31277990,-7095232,-69571300,32061240,-9246826,6254883,-93688970
2026-01-14 16:52:46.851,28003740,-38563230,-38569410,35801600,18615720,9980469,-1739502
2026-01-14 16:52:46.861,-6551444,-8225986,-69372770,70995520,58154300,11708980,-5209961
2026-01-14 16:52:46.871,28775410,-36017390,-42047480,36480040,10234380,11523440,-86621100
2026-01-14 16:52:46.881,-5144478,-958982,3,-6895845,71349420,1390625,92333980,-11464840
2026-01-14 16:52:46.891,-34594890,25232110,-33135270,41312060,15029300,72216800,-1390625
2026-01-14 16:52:46.901,30303220,24716800,-32666570,37835220,14140630,546875,-16259770
2026-01-14 16:52:46.911,30762420,-39682310,-40247000,38239180,10996090,39111330,-175
2026-01-14 16:52:46.921,31132720,-12326030,-68000330,38559420,984375,2927246,-17910160
2026-01-14 16:52:46.931,-1829920,-12826670,-67862220,72057220,7416992,3232422,-18134770
2026-01-14 16:52:46.941,31605740,-13215090,-67750020,38966830,6748047,5,-18222660
2026-01-14 16:52:46.951,31699830,23026720,-31145670,39045380,5644531,69873050,-16347660
2026-01-14 16:52:46.961,-33172390,-13741620,-67637800,40248630,58691410,11513670,-11650390
2026-01-14 16:52:46.971,-36736400,-1393154,-6760326,36736410,7060547,15800780,-6274414
2026-01-14 16:52:46.981,31633360,-14121420,-67551490,38991000,9794922,19277340,-21948240
2026-01-14 16:52:46.991,-33330350,-1432860,-6748242,40384150,10947270,19941410,21350100
2026-01-14 16:52:47.001,-1700440,-1457030,-6737886,72169430,11171880,18896480,58984380
2026-01-14 16:52:47.011,31516830,-1486376,-6725803,38917630,9135742,17939450,82373050
2026-01-14 16:52:47.021,34846500,21840730,-30070170,35587960,6279297,15039060,9296875
2026-01-14 16:52:47.031,31510790,2154551,-2979569,38940940,41015620,10839840,95214850
2026-01-14 16:52:47.041,-33704100,-16003130,-66722840,40752720,7562256,10400390,8979492
2026-01-14 16:52:47.051,-2062968,20874840,-29171610,72566490,-12561040,68652340,796875
2026-01-14 16:52:47.061,-217519,24244560,-25076830,7266145,-23571780,36743160,8901367
2026-01-14 16:52:47.071,-2321920,20122150,-28474170,72721860,-29858400,3154297,79003900
2026-01-14 16:52:47.081,-34130500,19751860,-28136670,41154960,-5175781,48431400,8100586
2026-01-14 16:52:47.091,-276214,8,19389330,-27808670,7278229,-77734380,-109069800,77441410
2026-01-14 16:52:47.101,31080070,-1901559,-6554032,38663860,-10898440,-17443850,74365230
2026-01-14 16:52:47.111,-337501,3,-19542110,-65393560,7275638,-13076170,-265625,92333980
2026-01-14 16:52:47.121,30669200,18331950,-26863500,38315140,-13935550,-36010740,11308590
2026-01-14 16:52:47.131,30427520,17965970,-26538950,38107980,-13964840,-32592770,12597660
2026-01-14 16:52:47.141,30176330,17599120,-26215260,37893050,-14140630,-8868408,13417970
2026-01-14 16:52:47.151,29899250,-2175184,-6484116,37652220,-14667970,64208980,14072270
2026-01-14 16:52:47.161,-5446588,16821400,-25525590,72445650,-13691410,23910520,14208980
2026-01-14 16:52:47.171,-5955856,16434700,-25187220,72333430,-12792970,62927250,15517580
2026-01-14 16:52:47.181,28910060,16046280,-24850590,36776980,-11230470,871582,16689450
2026-01-14 16:52:47.191,-706935,15672530,-24533810,7196228,-10410160,19921880,18710940
2026-01-14 16:52:47.201,-767357,15295330,-24220480,7170333,-10742190,49780270,19755860
2026-01-14 16:52:47.211,-8286408,14889640,-23883840,71401210,-12158200,9975586,22988280
2026-01-14 16:52:47.221,-8899260,-26361140,-64323240,71081840,-11669920,15175780,2484375
2026-01-14 16:52:47.231,26621810,-2720705,-6425420,34645820,-9863281,21191410,26796880
2026-01-14 16:52:47.241,-37202520,13374780,-22602040,43244690,-79003900,26679690,27734380
2026-01-14 16:52:47.251,-40011610,12695470,-22003860,40608230,-45385740,30722660,29199220
2026-01-14 16:52:47.261,25465160,11928970,-21320240,33540960,13354490,32890620,29824220
2026-01-14 16:52:47.271,25184640,11067530,-20541660,33269060,63964840,32363280,29667970
2026-01-14 16:52:47.281,24932590,-3287806,-6270913,33020470,6464844,32402340,25839840
2026-01-14 16:52:47.291,-1169593,9145259,-18786840,6920014,34399420,33457030,20546880
2026-01-14 16:52:47.301,24500140,12951280,-12961010,32589750,121276900,32597660,15625
2026-01-14 16:52:47.311,24281760,6977846,-16776520,32376550,64697260,32890620,12333980
2026-01-14 16:52:47.321,27716910,5821200,-15688930,28527080,36523440,32714840,89404300
2026-01-14 16:52:47.331,23842410,-48718900,-50631670,31952730,53564450,31289060,6430664
2026-01-14 16:52:47.341,-1296478,3339595,-13336800,6825929,96972660,31484380,19433590
2026-01-14 16:52:47.351,23285660,-49578610,-50997660,31421880,953125,29570310,-75805660
2026-01-14 16:52:47.361,26592290,804471,-10917340,27407460,5644531,27949220,-5854492
2026-01-14 16:52:47.371,-14276790,-456619,-9709770,67447900,21408080,27988280,-10800780
2026-01-14 16:52:47.381,-38372110,28727930,-38944380,43594270,-2524414,26855470,-14736330
2026-01-14 16:52:47.391,-15554280,20979710,-22006020,66688320,-2705078,26210940,-15537110
2026-01-14 16:52:47.401,-16313870,-42381520,-60680670,66222210,-32055660,27011720,-17675780
2026-01-14 16:52:47.411,-1714253,-54759340,-48717170,6570428,-5019531,26660160,-2109375
2026-01-14 16:52:47.421,-1802293,-20299110,9911752,6511735,-6743164,26679690,-23222660
2026-01-14 16:52:47.431,-18937900,-54837030,-49399080,64478610,-9707031,27050780,-27050780
2026-01-14 16:52:47.441,17792470,-44502330,34045910,26160010,-12480470,27109380,-30566410
2026-01-14 16:52:47.451,16978510,-51968980,50920570,25368490,-14941410,26679690,-33554690
2026-01-14 16:52:47.461,-3999834,-58911180,-46136300,4407417,-14726560,25742190,-37382810
2026-01-14 16:52:47.471,15392860,-12925070,2404784,23812200,-1453125,24609380,-39941410
2026-01-14 16:52:47.481,-23236470,-53543140,-51746030,60991410,-12734380,23808590,-4453125
2026-01-14 16:52:47.491,13977270,-6300260,-4230385,22396610,-14013670,20546880,-48164060
2026-01-14 16:52:47.501,13335940,-17026840,6503104,21743190,-159375,13369140,-52382810
2026-01-14 16:52:47.511,12740350,-13749140,12698310,21130340,-14960940,5756836,-57460940
2026-01-14 16:52:47.521,-40221020,-67119900,-37703160,43488960,-10693360,-20410160,-60898440
2026-01-14 16:52:47.531,11569030,-53858200,-50619590,19919310,-72998050,-95458980,-5703125
2026-01-14 16:52:47.541,10959640,-18172260,17131280,19285750,-2397461,-16396480,-56289060
2026-01-14 16:52:47.551,14051760,-24242920,13874550,14881610,17321780,-22382810,-5328125
2026-01-14 16:52:47.561,-27578200,-25560120,15233180,55130500,48291020,-27988280,-49882810
2026-01-14 16:52:47.571,8922563,-22162600,21133880,17162360,8491211,-33066410,-45976560
2026-01-14 16:52:47.581,-28752110,-27939010,17688030,53317850,11474610,-375,-4546875
2026-01-14 16:52:47.591,7404250,-74983360,-27215670,15573260,1296875,-41679690,-37988280
2026-01-14 16:52:47.601,-29951910,-29973490,19779480,51306670,13925780,-44296880,-36660160
2026-01-14 16:52:47.611,-39384600,-76675170,-25126800,41356080,12363280,-45703120,-33125
2026-01-14 16:52:47.621,-31030870,-31679980,21508410,49122860,10625,-49140620,-30585940
2026-01-14 16:52:47.631,4275270,-32430070,22260230,12228490,8413086,-5265625,-32324220
2026-01-14 16:52:47.641,3540712,-78893500,-22787620,11426610,6669922,-54960940,-29257810
2026-01-14 16:52:47.651,63678450,-79558140,-22122990,71493570,57714840,-56523440,-27246090
2026-01-14 16:52:47.661,2195897,-80196890,-21484240,9940233,73095700,-5734375,-24863280
2026-01-14 16:52:47.671,-3291259,-80792480,-20888650,4378845,6948242,-57929690,-19814450
2026-01-14 16:52:47.681,44884710,-35589260,25419420,52480580,6699219,-59375,-15644530
2026-01-14 16:52:47.691,5921328,-36093350,25916600,81085950,7470703,-60390620,-12910160
2026-01-14 16:52:47.701,14758,03,-54073120,-47780640,758635,5,2697754,-64140620,-10087890
2026-01-14 16:52:47.711,-2641292,-36941840,26742650,71004160,10058590,-59804690,-9091797
2026-01-14 16:52:47.721,-639607,-8326113,-1895516,6647252,10019530,-55507810,10913090
2026-01-14 16:52:47.731,22551980,-37529660,27276950,29755970,6899414,-55546880,27893070
2026-01-14 16:52:47.741,-1317194,-84029340,-18860200,5805661,5527344,-52578120,24365230
2026-01-14 16:52:47.751,-16227550,-37862840,27530730,54206920,3088379,-49375,40551760
2026-01-14 16:52:47.761,-19024210,-37947430,27566980,50616140,12756350,-45546880,46777340
2026-01-14 16:52:47.771,9242796,-84918410,-19369480,16134320,-5432129,-3921875,74902340
2026-01-14 16:52:47.781,6429736,-37996630,27517780,13250480,-1697998,-31835940,8964844
2026-01-14 16:52:47.791,3872169,-85341370,-19947800,10629040,-27075200,-23632810,11142580
2026-01-14 16:52:47.801,-28475890,-37891330,27312350,38488640,-37695310,-15117190,1265625
2026-01-14 16:52:47.811,-299519,3,-8562621,-2066423,6341691,-43017580,-5415039,12041020
2026-01-14 16:52:47.821,-17410090,-37706610,27030950,48484120,-46704100,29882810,11611330
2026-01-14 16:52:47.831,-32713530,-37615110,26898030,32714560,-44213870,11757810,11464840
2026-01-14 16:52:47.841,-3250687,-37554690,26803080,3250687,-4404297,19414060,10761720
2026-01-14 16:52:47.851,-3235153,-86014640,-21777710,3231695,-9946289,2328125,10644530
2026-01-14 16:52:47.861,-32196140,-37508940,26710720,32196140,-10537110,25332030,8491211
2026-01-14 16:52:47.871,-32079620,-8617865,-2187265,32088250,-1046875,28359380,6142578
2026-01-14 16:52:47.881,-21630980,-57235770,-50781000,42346990,-96728510,34238280,66796880
2026-01-14 16:52:47.891,-14656580,-57192610,-50703320,49183280,-734375,40117190,69677740
2026-01-14 16:52:47.901,-29347690,-38056190,27285590,34354060,-71533200,43320310,81640620
2026-01-14 16:52:47.911,28759010,-38303060,27556620,35115380,-88964850,43242190,64941410
2026-01-14 16:52:47.921,6266598,-38582730,27863910,69692140,-10830080,41445310,25830080
2026-01-14 16:52:47.931,11514650,-86972750,-19887370,74802090,-13017580,38320310,46173100
2026-01-14 16:52:47.941,14164570,-87145380,-19352210,77331170,-14453130,3484375,-19665530
2026-01-14 16:52:47.951,14216370,-39571920,28963580,77279380,-14199220,32890620,-31201170
2026-01-14 16:52:47.961,-27077570,-56282830,-49351600,35881870,-14365230,30097660,-51953120
2026-01-14 16:52:47.971,3828926,-40328040,29812940,4457482,-15703130,2484375,-8540039
2026-01-14 16:52:47.981,6594598,-8781005,-1680587,69364140,-16689450,18427730,-11806640
2026-01-14 16:52:47.991,3167824,-5561132,-4841765,65885570,-16748050,12880860,-12363280
2026-01-14 16:52:48.001,-28337790,-55329900,-48043040,34379960,-17158200,63916020,-12646480
2026-01-14 16:52:48.011,-4626580,-8824164,-1444079,58142960,-17177730,-11834720,-12265630
2026-01-14 16:52:48.021,22991240,-8833657,-1360353,23619800,-16679690,-91503900,-11816410
2026-01-14 16:52:48.031,-14233630,-8841427,-1276624,48760330,-16230470,-15224610,-89697260
2026-01-14 16:52:48.041,-22088460,-4327665,3323455,41078140,-1515625,-19775390,-46923830
2026-01-14 16:52:48.051,-31678240,-4364521,3367735,31678240,-16621090,-23828120,-17675780
2026-01-14 16:52:48.061,-42122580,-53405040,-45600280,21406550,-14921880,-25957030,1710,653
2026-01-14 16:52:48.071,-54284600,-88535090,-9831475,9399890,-14765630,-29121090,-17654420
2026-01-14 16:52:48.081,-66446620,-44535120,34755440,-2606768,-15175780,-32363280,79833980
2026-01-14 16:52:48.091,-77736860,-44769040,35039420,-13758890,-17167970,-35683590,63705440
2026-01-14 16:52:48.101,-3767726,-8853508,-827777,4,2645608,-17587890,-38261720,-97473140
2026-01-14 16:52:48.111,-38635380,-8850057,-786344,1,25687860,-1859375,-39980470,-2783203
2026-01-14 16:52:48.121,-39343170,-45287810,35694560,25187220,-18310550,-40742190,-3173828
2026-01-14 16:52:48.131,-10661850,-51815080,-43685770,-4184638,-17822270,-42695310,-35766600
2026-01-14 16:52:48.141,-40033710,-51628640,-43475160,25014590,-17255860,-44257810,-3840332
2026-01-14 16:52:48.151,-39921490,-8824162,-649963,3,25420280,-17226560,-46757810,-3671875
2026-01-14 16:52:48.161,-39567590,-45667600,36229730,26102180,-12695310,-46757810,-4169922
2026-01-14 16:52:48.171,-9255744,-8802582,-607669,4,-2655967,-12167970,-44804690,-37719730
2026-01-14 16:52:48.181,-8323525,-51035640,-42842450,-1689221,-11328130,-44648440,6939697
2026-01-14 16:52:48.191,-71323530,-8777550,-596445,6,-4635210,-11142580,-44882810,17565920
2026-01-14 16:52:48.201,-59429080,-8762876,-604214,8,7639030,-10517580,-43085940,35058590
2026-01-14 16:52:48.211,-45816930,-8746477,-622342,21648240,-10224610,-40195310,48901370
2026-01-14 16:52:48.221,-33938880,-872836,4,-65081,33,33940610,-9477539,-34414060,7763672
2026-01-14 16:52:48.231,-18635790,-8707635,-688806,8,49709820,-8510742,-28925780,8227539
2026-01-14 16:52:48.241,-31393400,-8684329,-734553,8,37435570,-91308590,-22636720,7558594
2026-01-14 16:52:48.251,-30003700,-51168570,-43296480,39325910,-6933594,-15166020,7993164
2026-01-14 16:52:48.261,-28467260,-8632540,-841587,5,41414780,-43041990,-6621094,8496094
2026-01-14 16:52:48.271,4938181,-8604054,-899421,1,11979900,-24646000,12866210,9873047
2026-01-14 16:52:48.281,-24954170,-85738420,-9589786,46015450,-1303711,8095703,10957030
2026-01-14 16:52:48.291,9198773,-51581160,-44057790,16350980,-4371643,14511720,11455080
2026-01-14 16:52:48.301,11588890,-85134210,-10780960,18794610,6286621,20859380,12255860
2026-01-14 16:52:48.311,13894410,-8483210,-1134203,21150190,11065670,27539060,12792970
2026-01-14 16:52:48.321,-16590080,-51825440,-44555840,56468410,32495120,35410160,14052730
2026-01-14 16:52:48.331,-34535330,-84253780,-12300140,38989270,52783200,42890620,14892580
2026-01-14 16:52:48.341,-1237782,-8399482,-1269719,6157836,85253900,5078125,12480470
2026-01-14 16:52:48.351,23129440,-40213250,30531960,30559580,1850586,5203125,11347660
2026-01-14 16:52:48.361,25617080,-83597770,-13249620,33078300,7089844,56796880,38891600
2026-01-14 16:52:48.371,28194500,-51903980,-44891620,35679890,6508789,5875,-109191900
2026-01-14 16:52:48.381,-2736240,-39860210,30194460,72307540,6044922,59375,-55029300
2026-01-14 16:52:48.391,224420,-83295660,-13137410,75389040,4399414,53359380,-12441410
2026-01-14 16:52:48.401,3280036,-8326980,-1285257,78548240,-11328130,44492190,-18544920
2026-01-14 16:52:48.411,-33266470,-51386950,-44303800,42070780,-27270510,36796880,-20839840
2026-01-14 16:52:48.421,915820,-83269760,-11885820,8458174,-7824707,29980470,-21210940
2026-01-14 16:52:48.431,-32817630,-40739780,31282920,42692260,9849548,24394530,-19179690
2026-01-14 16:52:48.441,47579520,-50608380,-43338780,55137410,15148930,18125,-18173830
2026-01-14 16:52:48.451,-32541410,-8336473,-997820,1,43089320,20666500,12841800,-17666020
2026-01-14 16:52:48.461,15761440,-41666820,32392950,91443960,37939450,96972660,-16748050
2026-01-14 16:52:48.471,50075790,-49828940,-42357360,57647500,47753900,71240230,-16347660
2026-01-14 16:52:48.481,49904030,-83502820,-8165568,57474000,30615230,3413086,-17265620
2026-01-14 16:52:48.491,-32532780,-49406840,-41812700,43149740,5670166,-22924800,-18095700
2026-01-14 16:52:48.501,1439763,-8364956,-712113,1,9004563,-23864750,-77978510,-19628910
2026-01-14 16:52:48.511,13206460,-49025320,-41313790,88819920,-31152340,-11103520,-20234380
2026-01-14 16:52:48.521,-3281762,-8379630,-611122,3,4276131,-15942380,-12880860,-19306640
2026-01-14 16:52:48.531,44560160,-43592550,34644950,52114600,4446411,-13339840,-17558590
2026-01-14 16:52:48.541,904601,-43841140,34931520,8452134,77819820,-18388670,-16923830
2026-01-14 16:52:48.551,744050,3,-8401209,-473878,8,8284681,12432860,-21582030,-14746090
2026-01-14 16:52:48.561,39651320,-8408979,-435037,8,47183320,32202150,-23886720,-13544920
2026-01-14 16:52:48.571,381518,5,-48074980,-40054420,7904885,3017578,-271875,-103125
2026-01-14 16:52:48.581,39236560,-8424516,-360805,5,39311680,31713870,-31542970,-73876950
