Timestamp,Rotation X,Rotation Y,Rotation Z,Rotation W,Acceleration X,Acceleration Y,Acceleration Z
2026-01-14 16:52:35.071,-35424390,7336062,-18386330,-51013190,-41931150,-13977050,67993170
2026-01-14 16:52:35.081,-35433020,12805950,-12916440,-51004560,-8166504,-12463380,37475580
2026-01-14 16:52:35.091,-35441660,12805950,-12916440,-50995930,-28930660,-117004400,-21316530
2026-01-14 16:52:35.101,-35450290,7336062,-18386330,-50987300,-19226070,-847168,-52246100
2026-01-14 16:52:35.111,-35450290,7336062,-18386330,-50987300,-45196530,-64697260,-4849243
2026-01-14 16:52:35.121,3437132,12805950,-12916440,-12082620,-6561279,-7531738,-36956790
2026-01-14 16:52:35.131,3428501,12805950,-12916440,-12073990,-6750488,-7849121,-335083
2026-01-14 16:52:35.141,3437132,12805950,-12916440,-12082620,-10058590,-9124756,-4219055
2026-01-14 16:52:35.151,3436269,12892270,-13002760,-12083480,-8294678,-7702637,-10559080
2026-01-14 16:52:35.161,3436268,7424104,-18470920,-12083480,-5239868,-7067871,72135930
2026-01-14 16:52:35.171,3444900,7424104,-18470920,-12092110,-5593872,-42388920,10681150
2026-01-14 16:52:35.181,3453532,7424104,-18470920,-12100740,-21148680,-41870120,3375244
2026-01-14 16:52:35.191,3463027,7424104,-18470920,-12108510,-2331543,-34423830,53955080
2026-01-14 16:52:35.201,3471659,7424104,-18470920,-12117140,-28320310,-28060910,62927250
2026-01-14 16:52:35.211,3480290,7337786,-18384600,-12125780,-2961731,-30166630,5218506
2026-01-14 16:52:35.221,3480291,12805950,-12916440,-12125780,-19058230,-24108890,46813960
2026-01-14 16:52:35.231,3488922,7337786,-18384600,-12134410,-3488159,-33111570,28900150
2026-01-14 16:52:35.241,-35407130,12805950,-12916440,-51030460,-13076780,-7055664,26870730
2026-01-14 16:52:35.251,-42436760,7337788,-18384600,-44000820,-9529114,-107421900,33741000
2026-01-14 16:52:35.261,-35389860,7424106,-18470920,-51047720,-73547360,-1237793,21514890
2026-01-14 16:52:35.271,-35389860,7424106,-18470920,-51047720,-34618380,-11303710,-12458800
2026-01-14 16:52:35.281,-35389860,7510422,-18557230,-51047720,-24002080,-1315918,-3125
2026-01-14 16:52:35.291,35156810,7596742,-18643560,-121594400,-5897522,-13647460,-38116460
2026-01-14 16:52:35.301,35156810,7683059,-18729870,-121594400,-2999878,-10821530,-5883789
2026-01-14 16:52:35.311,74052860,7855690,-18902510,-82698340,-3768921,-109802200,-52337650
2026-01-14 16:52:35.321,74139180,7942007,-18988820,-82784660,-131073,-10723880,-3491211
2026-01-14 16:52:35.331,74225500,-41673720,-68777180,-82870980,-32684330,-9649658,-2406311
2026-01-14 16:52:35.341,74225500,-53861640,-56589260,-82870980,-58517460,-11383060,-65689090
2026-01-14 16:52:35.351,74311810,-53853010,-56597890,-82957300,27332310,-106933600,-14671330
2026-01-14 16:52:35.361,74398130,-53844380,-56606520,-83043620,10856630,-11883550,17333980
2026-01-14 16:52:35.371,74484440,-53844380,-56606520,-83129930,7255554,-9863281,32287600
2026-01-14 16:52:35.381,74570760,-53835750,-56615160,-83216250,-5832672,-13012700,25314330
2026-01-14 16:52:35.391,74657080,-4131979,-6911385,-83302570,-20492550,-103759800,26519780
2026-01-14 16:52:35.401,74743390,-4123347,-6920017,-83388880,-19165040,-9515381,12123110
2026-01-14 16:52:35.411,3592502,8547948,-19591310,-12237990,-18569950,-9490967,-66,16116
2026-01-14 16:52:35.421,3591639,8634266,-19677630,-12238850,-2229309,-1161499,-2670288
2026-01-14 16:52:35.431,3600271,8721444,-19763080,-12247480,-21957400,-791626,-32836910
2026-01-14 16:52:35.441,3600271,8894078,-19935720,-12247480,1534462,-96069340,-48461910
2026-01-14 16:52:35.451,3608902,8980394,-20022030,-12256110,591,7549,-9906006,-29769900
2026-01-14 16:52:35.461,3608902,9066712,-20108350,-12256110,504303,-9051514,-31555180
2026-01-14 16:52:35.471,3617534,9153028,-20194660,-12264750,51879880,-11010740,-3515625
2026-01-14 16:52:35.481,3626166,9239346,-20280980,-12273380,22411350,-10076900,-14152530
2026-01-14 16:52:35.491,3626166,9411978,-20453620,-12273380,-22842410,-109680200,-30822750
2026-01-14 16:52:35.501,3634795,-40180450,-70218670,-12282010,-39794920,-9729004,-1420021
2026-01-14 16:52:35.511,-3526906,-40094130,-70304990,-5120312,-567,4362,-10089110,-11886600
2026-01-14 16:52:35.521,-3526906,-39921500,-70477620,-5120312,725708,-58288580,19168850
2026-01-14 16:52:35.531,3652922,-39835180,-70563940,-12298410,10473630,-7293701,24154660
2026-01-14 16:52:35.541,3652922,-39835180,-70563940,-12298410,-6126404,-6665039,4800415
2026-01-14 16:52:35.551,3661554,-39835180,-70563940,-12307040,-22903440,-78552250,37384030
2026-01-14 16:52:35.561,3661554,-39662540,-70736580,-12307040,-46813960,-892334,-3286743
2026-01-14 16:52:35.571,3670185,-39576230,-70822900,-12315680,-3566742,-21316530,-16479490
2026-01-14 16:52:35.581,3670185,-39489910,-70909210,-12315680,9588623,-20584110,712204
2026-01-14 16:52:35.591,-35217230,10188830,-21230460,-51220350,881958,-3729248,5496216
2026-01-14 16:52:35.601,-35217230,10275150,-21316780,-51220350,38116460,-18188480,45410160
2026-01-14 16:52:35.611,-35225860,10275150,-21316780,-51211720,-24353030,-11039730,-10536190
2026-01-14 16:52:35.621,-35225860,10275150,-21316780,-51211720,-44441220,-23010250,-5050659
2026-01-14 16:52:35.631,7560828,10360600,-21403960,-8425031,53596500,-4559326,-1979065
2026-01-14 16:52:35.641,7560828,10360600,-21403960,-8425031,21987920,-9399414,3805542
2026-01-14 16:52:35.651,7560828,10360600,-21403960,-8425031,55236820,-124939000,48095700
2026-01-14 16:52:35.661,3672777,10360600,-21403960,-12313080,-22995000,-11993410,4849243
2026-01-14 16:52:35.671,3672777,10274280,-21317650,-12313080,-3427124,-8782959,31829830
2026-01-14 16:52:35.681,3672775,-39343170,-71107740,-12313090,-40618900,-7281494,-14717100
2026-01-14 16:52:35.691,3664143,-39343170,-71107740,-12304450,-19104000,-55267340,-43914800
2026-01-14 16:52:35.701,-35208600,-39343170,-71107740,-51177200,-22659300,-4763794,-4345703
2026-01-14 16:52:35.711,3655512,-39343170,-71107740,-12295820,-8666992,-7159424,-3173828
2026-01-14 16:52:35.721,3655512,-39343170,-71107740,-12295820,-10406490,-8508301,-26245120
2026-01-14 16:52:35.731,-3523453,-39429490,-71021420,-5116859,-10858150,-79956060,14907840
2026-01-14 16:52:35.741,-3523453,-39429490,-71021420,-5116859,-97229010,-10083010,10169980
2026-01-14 16:52:35.751,-3523453,-39429490,-71021420,-5116859,-114990200,-62805180,6816864
2026-01-14 16:52:35.761,-3523453,-39343170,-71107740,-5116859,-116760300,-40039060,762558
2026-01-14 16:52:35.771,-3523453,-39343170,-71107740,-5116859,-10241700,-50231940,62347410
2026-01-14 16:52:35.781,-3523453,-39343170,-71107740,-5116859,-11907960,-42755130,7757568
2026-01-14 16:52:35.791,-3523453,-39429490,-71021420,-5116859,-12384030,-82473750,7043457
2026-01-14 16:52:35.801,-3523453,-39429490,-71021420,-5116859,-9082031,4071045,39733890
2026-01-14 16:52:35.811,-3523453,-39429490,-71021420,-5116859,-44281010,6707764,4031372
2026-01-14 16:52:35.821,-3523453,-39515800,-70935100,-5116859,-6817627,30166630,4888916
2026-01-14 16:52:35.831,3655512,-39515800,-70935100,-12295820,-7672119,44784540,34576420
2026-01-14 16:52:35.841,3655512,-39602120,-70848780,-12295820,-51116940,-13305660,6072998
2026-01-14 16:52:35.851,3655512,-39602120,-70848780,-12295820,-28396610,-16815190,37353520
2026-01-14 16:52:35.861,3664143,-39688440,-70762460,-12304450,-45288090,-43823240,28747560
2026-01-14 16:52:35.871,7552197,10015330,-21058700,-8416400,-64453120,-61676020,16183850
2026-01-14 16:52:35.881,7552197,10101650,-21145010,-8416400,-6585693,-6100464,1535,416
2026-01-14 16:52:35.891,7560828,10015330,-21058700,-8425031,-66711420,-68481450,10253910
2026-01-14 16:52:35.901,7569460,10101650,-21145010,-8433663,-871582,-64941410,2298355
2026-01-14 16:52:35.911,7578092,10102510,-21144150,-8442295,-8190918,-8105469,24429320
2026-01-14 16:52:35.921,7586723,10102510,-21144150,-8450926,-7897949,-10266110,38726810
2026-01-14 16:52:35.931,7603987,10102510,-21144150,-8468190,-89538580,-10394290,5340576
2026-01-14 16:52:35.941,7612618,10102510,-21144150,-8476821,-8416748,-947876,60272220
2026-01-14 16:52:35.951,3741830,10188830,-21230470,-12382140,-6896973,-8874512,8337402
2026-01-14 16:52:35.961,3759093,10188830,-21230470,-12399400,-89660650,-859375,91918940
2026-01-14 16:52:35.971,-35096390,10188830,-21230460,-51289410,-7788086,-8325195,9857178
2026-01-14 16:52:35.981,37944840,10275150,-21316790,-124330600,-9362793,-9051514,72509770
2026-01-14 16:52:35.991,38117470,10361470,-21403100,-124503300,-9710693,-80200190,77819820
2026-01-14 16:52:36.001,38290110,10447780,-21489420,-124675900,-9637451,-103027300,5706787
2026-01-14 16:52:36.011,38462740,10534100,-21575740,-124848500,-101623500,-87524420,19348140
2026-01-14 16:52:36.021,38635370,-39058320,-71340790,-125021200,-97351070,-90026860,40740970
2026-01-14 16:52:36.031,-42372900,-38885700,-71513420,-44012910,-9814453,-82336420,-79956060
2026-01-14 16:52:36.041,-34975550,-3870441,-7167742,-51410260,-66589360,-99243170,-11009220
2026-01-14 16:52:36.051,-34958280,-3853178,-7185005,-51427520,-66589360,-9649658,-7987976
2026-01-14 16:52:36.061,-34941020,11312680,-22350860,-51444780,-33935550,-9637451,12311940
2026-01-14 16:52:36.071,-34923760,11485310,-22523490,-51462040,-390625,-1048584,-21133420
2026-01-14 16:52:36.081,-3489787,11745120,-22781580,-5147067,-28579710,-11328130,-18463140
2026-01-14 16:52:36.091,3985243,11917750,-22954210,-12622100,-33996580,-9460449,-16830440
2026-01-14 16:52:36.101,4003370,12176700,-23213160,-12638500,24032590,-80078130,-472641
2026-01-14 16:52:36.111,4029265,12349340,-23385800,-12664390,106933600,-61828610,-48179620
2026-01-14 16:52:36.121,-34802910,12521110,-23559290,-51531100,7330322,-6604004,4269409
2026-01-14 16:52:36.131,-34777020,12693740,-23731920,-51539730,57678220,-46417240,4849243
2026-01-14 16:52:36.141,40827820,12866380,-23904560,-127144600,41809080,-10235600,4574585
2026-01-14 16:52:36.151,79843850,13039010,-24077200,-88473800,-10643010,-7885742,8705139
2026-01-14 16:52:36.161,80017340,13211640,-24249830,-88645570,7116699,-59143060,8399963
2026-01-14 16:52:36.171,41371610,13384280,-24422460,-127636600,12109380,-4284668,47790530
2026-01-14 16:52:36.181,4155286,-36123560,-74275560,-12780060,904541,-45410160,58898930
2026-01-14 16:52:36.191,4172550,-53274700,-57124420,-12797320,39154050,-28915400,20233150
2026-01-14 16:52:36.201,4182047,-3587324,-7454315,-12805090,-18005370,-6262207,21316530
2026-01-14 16:52:36.211,-34595750,-3570058,-7471576,-51617410,-18798830,-6585693,-19216540
2026-01-14 16:52:36.221,4218298,14159400,-25201040,-12837890,69122310,-11010740,11711120
2026-01-14 16:52:36.231,8114464,14331170,-25374530,-8976250,69999700,-15026860,47210690
2026-01-14 16:52:36.241,4263184,14503800,-25547170,-12879320,-104599,-16577150,5783081
2026-01-14 16:52:36.251,-34492180,-35027340,-75423570,-51651940,31108860,-14160160,18417360
2026-01-14 16:52:36.261,4291666,-34854700,-75596210,-12902630,-1713562,-12841800,22506710
2026-01-14 16:52:36.271,-34431750,15106300,-26153110,-51660570,-15380860,-111694300,-37597660
2026-01-14 16:52:36.281,4319289,15365240,-26412060,-12926800,-72669980,-10748290,-91552740
2026-01-14 16:52:36.291,4337416,15537880,-26584690,-12943200,-43426510,-107421900,-6866455
2026-01-14 16:52:36.301,4354679,21264990,-21375480,-12960460,-41778560,-97473140,-8868408
2026-01-14 16:52:36.311,43641740,21523950,-21634430,-129682300,-7910156,-8605957,-91552740
2026-01-14 16:52:36.321,43814380,2137208,-2247690,-129854900,-7348633,-6842041,-6524658
2026-01-14 16:52:36.331,43995650,2163103,-2273585,-130018900,-7122803,-46295170,-73791500
2026-01-14 16:52:36.341,44168280,2197630,-2308112,-130191500,-6311035,-40100100,-7385254
2026-01-14 16:52:36.351,44340910,17264220,-28311030,-130364200,-7171631,-17974850,-36621100
2026-01-14 16:52:36.361,-3425050,17609480,-28656300,-5175551,-37231440,-31341550,-16235350
2026-01-14 16:52:36.371,4478975,17868430,-28915250,-13077850,-24291990,-45196530,-44670100
2026-01-14 16:52:36.381,4496238,18127380,-29174200,-13095110,-1676941,-23422240,2607727
2026-01-14 16:52:36.391,-34164170,18386330,-29433140,-51807310,1399231,-15670780,13710020
2026-01-14 16:52:36.401,-4297624,18645280,-29692100,-4297799,41900640,-43273930,36743160
2026-01-14 16:52:36.411,8426413,189034,1,-299519,5,-9285783,53771970,-51727300,34240720
2026-01-14 16:52:36.421,-34077850,2413419,-2523900,-51841840,7373047,-82214350,13664250
2026-01-14 16:52:36.431,-34060590,2430682,-2541164,-51859100,101135300,-10809330,4295349
2026-01-14 16:52:36.441,4621398,2456575,-2567060,-13211640,95336910,-99365230,-2909851
2026-01-14 16:52:36.451,4638661,25321880,-25432360,-13228900,66589360,-10058590,-45959470
2026-01-14 16:52:36.461,4648155,25494510,-25605000,-13236670,8026123,-10321050,-59692380
2026-01-14 16:52:36.471,4665419,25753460,-25863950,-13253940,9631348,-85754390,-10760500
2026-01-14 16:52:36.481,-33957010,25926100,-26036580,-51910890,6976318,-6036377,-11090090
2026-01-14 16:52:36.491,-42035390,20630570,-31677380,-43832500,6933594,-43762210,-13623050
2026-01-14 16:52:36.501,-33931110,20889520,-31936330,-51936780,50964360,-38116460,-12646480
2026-01-14 16:52:36.511,-42032800,21062150,-32108960,-43835100,3677368,-29174800,-12200930
2026-01-14 16:52:36.521,-33896590,21234780,-32281600,-51954050,28762820,-3024292,-8703613
2026-01-14 16:52:36.531,-33879330,21407420,-32454230,-51971320,357666,-5670166,-68725580
2026-01-14 16:52:36.541,-33862060,-28121990,-82328910,-51988580,894928,-48187260,-4510498
2026-01-14 16:52:36.551,-42018130,-52506480,-57944430,-43832510,1124382,-6573486,-1512146
2026-01-14 16:52:36.561,-33836170,-52489210,-57961690,-52014480,28396610,-6628418,-3643799
2026-01-14 16:52:36.571,-33818900,-52480580,-57970320,-52031740,2885437,-8532715,9162903
2026-01-14 16:52:36.581,4823380,-2768177,-8275187,-13406720,6500244,-10028080,-15563970
2026-01-14 16:52:36.591,4832012,-5245468,-5797896,-13415350,1586914,-9320068,-13931270
2026-01-14 16:52:36.601,4840643,-5245468,-5797896,-13423980,-861,1679,-11126710,35217280
2026-01-14 16:52:36.611,-33784380,-5245466,-5797894,-52066260,-46875,-11004640,3107071
2026-01-14 16:52:36.621,-33775740,-5244603,-5797031,-52074900,-78063970,-14147950,-22010800
2026-01-14 16:52:36.631,-42018130,-52428790,-57970330,-43849770,-11218260,-14648440,26290890
2026-01-14 16:52:36.641,4881209,-52420160,-57978960,-13469730,-117370600,-1394043,6832123
2026-01-14 16:52:36.651,4889843,-2730198,-8306261,-13478360,-11450200,-122558600,-2217102
2026-01-14 16:52:36.661,4914871,-27034410,-83312920,-13505120,-10760500,-11206060,-27435300
2026-01-14 16:52:36.671,-33732590,-26853140,-83476930,-52187110,-1171875,-8135986,-47454830
2026-01-14 16:52:36.681,494766,1,23141520,-34172800,-1354136,-53771970,-6524658,-5697632
2026-01-14 16:52:36.691,8840732,23400470,-34431750,-9700103,8306885,-4849243,-4296875
2026-01-14 16:52:36.701,-33672160,23573970,-34603520,-52247530,107299800,-72631840,-12832640
2026-01-14 16:52:36.711,-33646270,23746600,-34776150,-52273420,49102780,-52001950,17868040
2026-01-14 16:52:36.721,-33629010,23919240,-34948780,-52290680,43182370,-7867432,-25024410
2026-01-14 16:52:36.731,-33620380,-25446170,-84832100,-52299320,-7850647,-10284420,-1638794
2026-01-14 16:52:36.741,-33603110,-25273540,-85004730,-52316580,1928711,-56518560,-12138370
2026-01-14 16:52:36.751,-33577220,-52126680,-58151590,-52342480,18774410,-61157230,10864260
2026-01-14 16:52:36.761,-3355996,-2491965,-8534136,-5234248,17333980,-7598877,23162840
2026-01-14 16:52:36.771,5104772,-2483332,-8542768,-13695010,10656740,-30670170,15312200
2026-01-14 16:52:36.781,5113404,-2474701,-8551400,-13703650,10736080,-36590580,8130,074
2026-01-14 16:52:36.791,5113404,-2474701,-8551400,-13703650,31555180,-37872310,-2229309
2026-01-14 16:52:36.801,-33542690,-2466067,-8560030,-52377000,28305050,-68603520,-12451170
2026-01-14 16:52:36.811,-33525420,2504397,-3606830,-52394260,7972717,-9326172,19897460
2026-01-14 16:52:36.821,-33516800,-52049000,-58177490,-52402900,-16571050,-12756350,21362300
2026-01-14 16:52:36.831,9030627,-52040370,-58186120,-9890002,-6038666,-904541,13206480
2026-01-14 16:52:36.841,9039260,25390930,-36411860,-9898631,13542180,-8880615,20,2775
2026-01-14 16:52:36.851,9056523,25563570,-36584490,-9915894,6738281,-64697260,-4736328
2026-01-14 16:52:36.861,-33465000,25649890,-36670800,-52454690,8288574,-62072750,-4095459
2026-01-14 16:52:36.871,-33456370,25736200,-36757120,-52463320,105041500,-93811030,-3567505
2026-01-14 16:52:36.881,-33447740,25822520,-36843440,-52471950,8001709,-8428955,-37872310
2026-01-14 16:52:36.891,5225614,25822520,-36843440,-13815860,7409668,-1060791,-24154660
2026-01-14 16:52:36.901,5234245,25908830,-36929760,-13824490,8862305,-8544922,-20065310
2026-01-14 16:52:36.911,-3340462,-23693950,-86532540,-5248059,16186520,13259890,24124150
2026-01-14 16:52:36.921,-33378690,-23693950,-86532540,-52489220,20397950,10437010,7244873
2026-01-14 16:52:36.931,-33335530,-23693950,-86532540,-52515110,23046880,23803710,8544922
2026-01-14 16:52:36.941,-33283740,-23693950,-86532540,-52566900,5429077,26879880,12311940
2026-01-14 16:52:36.951,-41954260,26168650,-37187840,-43896380,-1776123,4446411,-14086910
2026-01-14 16:52:36.961,-33119740,-22882570,-87274860,-52730910,-46240230,17346190,-38305660
2026-01-14 16:52:36.971,5634755,-51764150,-58341490,-14218100,-7939453,36547850,-55126950
2026-01-14 16:52:36.981,-32800360,-21104440,-88949410,-52998480,-10878910,27929690,-3088379
2026-01-14 16:52:36.991,6054253,-19697480,-90304580,-14627240,-1046875,17370600,25024410
2026-01-14 16:52:37.001,-32152990,31446060,-42441080,-53473220,-86328130,2824707,11376950
2026-01-14 16:52:37.011,6794855,-1611534,-9380041,-15336760,-44873050,56884770,21582030
2026-01-14 16:52:37.021,7266142,35245720,-46237290,-15780430,33007810,8120117,32109380
2026-01-14 16:52:37.031,-30366230,37055780,-48052530,-54396810,52978520,10117190,38203120
2026-01-14 16:52:37.041,8282088,-50598880,-59454970,-16715240,14465330,9526367,35742190
2026-01-14 16:52:37.051,8762872,-50452140,-59722550,-17149410,-30566410,7167969,27089840
2026-01-14 16:52:37.061,-28268740,43167870,-54197420,-55095980,-5288086,59716800,18564450
2026-01-14 16:52:37.071,9730485,45923100,-56966460,-18011710,-36547850,4255371,14091800
2026-01-14 16:52:37.081,10235440,-82863,-10976040,-18456250,13342290,3076172,13310550
2026-01-14 16:52:37.091,10726580,227013,5,-11304910,-18880060,8676758,40893560,14677730
2026-01-14 16:52:37.101,11214270,542932,5,-11644990,-19290070,12861330,6640625,15302730
2026-01-14 16:52:37.111,-24272270,847632,-11979040,-55657040,12333980,84472660,12490230
2026-01-14 16:52:37.121,-23348680,61744960,-72909170,-55648400,11044920,7080078,8925781
2026-01-14 16:52:37.131,-22321510,65180360,-76379100,-55622500,12109380,7163086,78564460
2026-01-14 16:52:37.141,13354060,-48751700,-63615440,-21034530,14296880,89746100,82373050
2026-01-14 16:52:37.151,13976410,2148425,-13423120,-21534300,14638670,9277344,6933594
2026-01-14 16:52:37.161,14620330,75912130,-87226530,-22047020,13378910,8798828,4831543
2026-01-14 16:52:37.171,15275470,2869170,-14221550,-22565790,10527340,97558590,27172850
2026-01-14 16:52:37.181,-16253440,3247238,-14637590,-55251350,9458008,8520508,6263733
2026-01-14 16:52:37.191,-33021340,-47810840,-66472520,-37033340,10048830,6665039,-6439209
2026-01-14 16:52:37.201,-13707100,397749,9,-1544379,-54897450,10146480,7167969,-19824220
2026-01-14 16:52:37.211,-31449510,-47465580,-67594640,-35670400,10683590,7680664,-23803710
2026-01-14 16:52:37.221,18307780,-47336100,-68121170,-24867850,9995117,5463867,-8453369
2026-01-14 16:52:37.231,-9969588,-47223890,-68630440,-54077440,8310547,5888672,-21691900
2026-01-14 16:52:37.241,19371200,-47120310,-69148340,-25617090,63427740,29760740,-48266600
2026-01-14 16:52:37.251,-7535452,5500106,-17166680,-53335120,4560547,15930180,-94384770
2026-01-14 16:52:37.261,20317240,5825518,-17531800,-26242020,5161133,33130650,-12041020
2026-01-14 16:52:37.271,-514448,5,6159563,-17905540,-5242879,46850580,46051020,-12451170
2026-01-14 16:52:37.281,-3970572,11805800,-12984370,-51928150,30517580,-3088379,-12070310
2026-01-14 16:52:37.291,-2796668,-46360720,-71893220,-51375730,3618164,-47680660,-13330080
2026-01-14 16:52:37.301,21952070,7223850,-19085500,-27196680,5024414,-61328120,-13076170
2026-01-14 16:52:37.311,-51790,75,7602780,-19500680,-5018456,5703125,-5986328,-12841800
2026-01-14 16:52:37.321,58694,75,7973079,-19907230,-4954581,49731440,-56689450,-11240230
2026-01-14 16:52:37.331,-21089770,8344241,-20312920,-26142750,49682620,-46166990,-9824219
2026-01-14 16:52:37.341,267581,8707632,-20709110,-4819927,5336914,-39794920,-90771490
2026-01-14 16:52:37.351,3642566,-4507459,-7525094,-47508740,47851560,-6665039,-99072260
2026-01-14 16:52:37.361,4574788,9411117,-21473020,-46818200,4038086,-11572270,-11875
2026-01-14 16:52:37.371,5446584,9768468,-21857990,-46119040,30859380,-15654300,-14023440
2026-01-14 16:52:37.381,23903700,10127550,-22241240,-27817300,37768560,-18164060,-16748050
2026-01-14 16:52:37.391,7095236,-5902337,-6233795,-44729340,4104004,-17675780,-18886720
2026-01-14 16:52:37.401,7863456,1090183,-2305521,-44047440,34765620,-19277340,-19765620
2026-01-14 16:52:37.411,8588514,11307500,-23478160,-43356900,39111330,-15742190,-20175780
2026-01-14 16:52:37.421,-14105890,-43106580,-78738130,-19298700,3005371,-1625,-21113280
2026-01-14 16:52:37.431,9891898,12149950,-24344780,-42001730,24682620,-15771480,-22011720
2026-01-14 16:52:37.441,-15174400,-4232973,-7972214,-15692470,25585940,-16103520,-21464840
2026-01-14 16:52:37.451,10996750,13039010,-25251100,-40672450,29638670,-17128910,-20898440
2026-01-14 16:52:37.461,24320600,-41466560,-80688900,-27175970,27270510,-17089840,-21035160
2026-01-14 16:52:37.471,11903080,-4100044,-8118954,-39369070,30566410,-17734380,-2109375
2026-01-14 16:52:37.481,12282870,-4050844,-8168155,-38730320,31713870,-16386720,-20722660
2026-01-14 16:52:37.491,12602240,14986310,-27205310,-38082950,3034668,-14804690,-20800780
2026-01-14 16:52:37.501,-9776238,-39455380,-82700070,-14806780,30297850,-13623050,-20566410
2026-01-14 16:52:37.511,13042460,16060100,-28272190,-36814090,33447270,-11728520,-19941410
2026-01-14 16:52:37.521,13163300,-5876356,-6330557,-36175350,40356440,-8730469,-19638670
2026-01-14 16:52:37.531,13197830,-37754940,-84262410,-35553870,48291020,-7207031,-21738280
2026-01-14 16:52:37.541,13146040,17698390,-29896670,-34915120,5332031,-70654300,-2375
2026-01-14 16:52:37.551,13025200,18253400,-30446510,-34293640,5019531,-44702150,-23085940
2026-01-14 16:52:37.561,12826670,-3605449,-8582474,-33663530,515625,-1850586,-23632810
2026-01-14 16:52:37.571,12533190,-60668240,-61176470,-33042050,4868164,-16125490,-25605470
2026-01-14 16:52:37.581,12162030,-3496690,-8684328,-32429200,40893560,-1665039,-28789060
2026-01-14 16:52:37.591,-7872088,25864470,-27082220,-12222450,3005371,-75805660,-32910160
2026-01-14 16:52:37.601,-7887625,-5816109,-6356279,-12120600,26953120,-19665530,-38144530
2026-01-14 16:52:37.611,-7951502,-58079950,-63592130,-12056730,28710940,-5554199,-446875
2026-01-14 16:52:37.621,-8075797,-60529020,-61091280,-12036010,2980957,33477780,-565625
2026-01-14 16:52:37.631,8830203,-3207529,-8947594,-29166430,14929200,32348630,-70742190
2026-01-14 16:52:37.641,7768504,-31410660,-90036990,-28450000,-1538086,1496582,-81171870
2026-01-14 16:52:37.651,-8887173,29362710,-30575640,-12312220,-60791020,41357420,-8890625
2026-01-14 16:52:37.661,5092686,24605450,-36713960,-26982610,-10625,63134770,-925
2026-01-14 16:52:37.671,3435406,30763550,-31971460,-26240290,-18164060,87353520,-83984380
2026-01-14 16:52:37.681,1579596,26035720,-38080360,-25523860,-28359380,14599610,-53632810
2026-01-14 16:52:37.691,-492006,-2745735,-9269556,-24850590,-34375,17568360,-11875
2026-01-14 16:52:37.701,-2753505,-2706892,-9294586,-24160060,-40273440,19501950,2234375
2026-01-14 16:52:37.711,-5213535,-56753260,-63347860,-23460900,-45117190,22050780,48398440
2026-01-14 16:52:37.721,-7837562,26666700,-38709610,-22701300,-38417970,29394530,73476560
2026-01-14 16:52:37.731,-10642860,-5730396,-6371211,-21812240,-16884770,41875,98203130
2026-01-14 16:52:37.741,-13560360,-2991738,-9196185,-20672860,215625,50976560,111328100
2026-01-14 16:52:37.751,-4980476,-3178181,-9115048,-30875500,63320310,67617180,101328100
2026-01-14 16:52:37.761,-30789180,21895110,-34297100,-6447860,102578100,85078130,72460940
2026-01-14 16:52:37.771,-41883480,-36278930,-88776780,38045830,117421900,106875,296875
2026-01-14 16:52:37.781,-26620090,-38816640,-87102220,-12705830,120625,11046880,-9682617
2026-01-14 16:52:37.791,-12107650,-4155289,-8505652,8107732,1096875,11578130,-54609380
2026-01-14 16:52:37.801,-21472150,-4448764,-8257059,-18803240,93046870,11203130,-63945310
2026-01-14 16:52:37.811,-3582148,-50184560,-78410130,-378069,5,19228520,-4621875,24859380
2026-01-14 16:52:37.821,-38825270,-55329030,-73455550,707796,4,-154625,-759375,-965625
2026-01-14 16:52:37.831,-22904150,6289903,-19018170,-19287480,-889375,-27140620,4640625
2026-01-14 16:52:37.841,-37116200,-4403017,-8100825,-9270418,641875,4396875,25921880
2026-01-14 16:52:37.851,-34690700,-3933453,-8399481,-12576350,769375,10765630,136171900
2026-01-14 16:52:37.861,-32593200,-3685724,-8576430,-13672570,4603125,16367190,260
2026-01-14 16:52:37.871,-31220770,18755760,-31048990,-13922890,875,121640600,15875
2026-01-14 16:52:37.881,-7933978,18537380,-30870320,7482196,163125,120078100,1803125
2026-01-14 16:52:37.891,-29900120,-38790740,-85678000,-15001850,1403125,185625,20875
2026-01-14 16:52:37.901,-29477170,-61194260,-65380620,-14458060,57421880,2053125,132890600
2026-01-14 16:52:37.911,-78262530,-64478590,-64478620,74000210,-3515625,91875,-17939450
2026-01-14 16:52:37.921,-96666120,-50831940,-80041520,55251350,-113359400,35424800,-925
2026-01-14 16:52:37.931,-9285959,-54025650,-78228860,5232519,-153359400,-34375,-98203130
2026-01-14 16:52:37.941,-26585560,-65575690,-67611040,-13430890,-1475,-703125,-98359380
2026-01-14 16:52:37.951,-76692430,-58134330,-75691150,36900400,-12890630,-9015625,-93046870
2026-01-14 16:52:37.961,-6638622,1049612,-14470140,2649061,-10484380,-82578130,-80078130
2026-01-14 16:52:37.971,-37145550,254633,-13694150,33116280,-76640620,-78007810,-68398440
2026-01-14 16:52:37.981,-43676270,-377204,-13065760,2762136,-55625,-840625,-57578120
2026-01-14 16:52:37.991,-3206668,-864894,-12569440,-962431,8,-47460940,-8515625,-52734380
2026-01-14 16:52:38.001,-10936330,-1208433,-12205190,-31652350,-45,-73945310,-50625
2026-01-14 16:52:38.011,-20396650,-61664680,-72178060,-23176050,-39121100,-540625,-49453120
2026-01-14 16:52:38.021,505815,5,-1631387,-11713180,-4966666,-30136720,-31230470,-47070310
2026-01-14 16:52:38.031,38631920,-1885156,-11414530,-43196350,-22324220,-12587890,-39667970
2026-01-14 16:52:38.041,30780550,-61837320,-70658890,-77460650,-18808590,-1685791,-29882810
2026-01-14 16:52:38.051,4276993,33281150,-46475520,-9050309,-17646480,40454100,-27519530
2026-01-14 16:52:38.061,54137860,-30797810,-100541700,-102958600,-13144530,21704100,-29511720
2026-01-14 16:52:38.071,-16037660,-35821440,-94862100,-33939740,-89501950,-5541992,-29199220
2026-01-14 16:52:38.081,7407700,-62510580,-67430640,-12531470,-14902340,-17470700,-28789060
2026-01-14 16:52:38.091,8316614,-43667640,-85444940,-13573310,-23046880,-24726560,-28769530
2026-01-14 16:52:38.101,9213446,-45281770,-82915860,-14609970,-29082030,-24140620,-2796875
2026-01-14 16:52:38.111,-14768800,-45307660,-81905960,-40577500,-28574220,-16074220,-26894530
2026-01-14 16:52:38.121,-14440800,-44004270,-82156280,-42303840,-25390620,-41723630,-26757810
2026-01-14 16:52:38.131,-14061000,14291460,-26795300,-44047430,-18320310,65771480,-2515625
2026-01-14 16:52:38.141,-13629410,-3948989,-8437461,-45791030,-10380860,16083980,-20917970
2026-01-14 16:52:38.151,-13163300,18209380,-30473260,-47534630,-3803711,23417970,-13037110
2026-01-14 16:52:38.161,15177070,-34794280,-86584330,-21369440,-15185550,28359380,-28125
2026-01-14 16:52:38.171,19010830,-33292370,-86808750,-19641810,-41918940,30214840,46289060
2026-01-14 16:52:38.181,-11773610,-32480990,-86342640,-52463320,-75,26210940,9941406
2026-01-14 16:52:38.191,18026390,20881750,-32634630,-24562290,-12304690,24863280,11582030
2026-01-14 16:52:38.201,-10988130,20427720,-32052860,-55441240,-14345700,22675780,11074220
2026-01-14 16:52:38.211,-1058247,-31833610,-83105760,-5686548,-15224610,23261720,12539060
2026-01-14 16:52:38.221,-31814630,-54345020,-59299600,-36617290,-14785160,23574220,15732420
2026-01-14 16:52:38.231,21353040,18034160,-29267420,-28296360,-19140620,24511720,15283200
2026-01-14 16:52:38.241,-9632950,-3324056,-7778002,-60818780,-19775390,26679690,12841800
2026-01-14 16:52:38.251,22718560,-34224580,-75483990,-29865600,-16972660,2546875,11777340
2026-01-14 16:52:38.261,23287390,-35484810,-72946280,-30539730,-12060550,25820310,8276367
2026-01-14 16:52:38.271,23787170,-3709893,-7007195,-31144810,-5800781,2421875,52685550
2026-01-14 16:52:38.281,24190270,-3899790,-6696454,-31656670,-41625980,18886720,1496582
2026-01-14 16:52:38.291,24506190,6068069,-16546920,-32083070,36694340,13994140,-4248047
2026-01-14 16:52:38.301,24744420,3275722,-13642360,-32431790,9536133,10839840,-88183590
2026-01-14 16:52:38.311,24930860,-4567881,-5690002,-32728720,14248050,6298828,-12109380
2026-01-14 16:52:38.321,-10522010,24270540,-34424840,-68544130,16884770,60668940,-15751950
2026-01-14 16:52:38.331,-1090181,-5025706,-5026742,-6923467,17685550,-40942380,-19746090
2026-01-14 16:52:38.341,-11281600,-17924530,7970489,-69873410,18603520,-8095703,-21894530
2026-01-14 16:52:38.351,-1163551,-76053680,-22537300,-7048629,20664060,-11396480,-22890620
2026-01-14 16:52:38.361,-1198075,-39410500,29642900,-7105597,22558590,-14423830,-240625
2026-01-14 16:52:38.371,-1229152,-52023100,-44772500,-7160839,24492190,-171875,-23496090
2026-01-14 16:52:38.381,25545440,-82510180,-13456790,-34013120,28085940,-19482420,-20898440
2026-01-14 16:52:38.391,-12792140,-34107190,24588190,-72592380,31953120,-20,-17773440
2026-01-14 16:52:38.401,-1302521,-69674880,-24790170,-7303263,34179690,-20878910,-146875
2026-01-14 16:52:38.411,-13258250,-1850024,912109,6,-73421020,35839840,-21660160,-11152340
2026-01-14 16:52:38.421,25769860,-4659032,-4657999,-34496480,35742190,-225,-85791020
2026-01-14 16:52:38.431,-1375890,-4630375,-4631411,-7405977,3375,-23867190,-77685540
2026-01-14 16:52:38.441,25723250,14383820,-23595550,-34560360,33378910,-23945310,-62060550
2026-01-14 16:52:38.451,-14328580,-1217926,-7950635,-74543140,346875,-22460940,-30859380
2026-01-14 16:52:38.461,-14647950,43772090,-52902670,-74707140,3640625,-215625,10455320
2026-01-14 16:52:38.471,-15001850,1751371,-10850880,-74819360,36816410,-20703120,4375
2026-01-14 16:52:38.481,-15416170,3143660,-12220720,-74871140,36035160,-19902340,64990230
2026-01-14 16:52:38.491,24967120,-36253030,-54379540,-34039010,34414060,-19443360,7421875
2026-01-14 16:52:38.501,24670190,-34837440,-55726090,-33783510,32578120,-18730470,7807617
2026-01-14 16:52:38.511,24331830,7296356,-16354440,-33483130,31171880,-17822270,765625
2026-01-14 16:52:38.521,-43073780,8673108,-17739820,-48784500,30878910,-16679690,82373050
2026-01-14 16:52:38.531,23556700,13960700,-14869100,-32773600,31503910,-14462890,97021490
2026-01-14 16:52:38.541,-1848907,-29917380,-61164040,-7395620,31660160,-13056640,99365230
2026-01-14 16:52:38.551,-19076000,-2904556,-6236384,-73593660,31269530,-11455080,10029300
2026-01-14 16:52:38.561,22115210,13018290,-22198940,-31401170,303125,-10585940,9614258
2026-01-14 16:52:38.571,-43885160,13858160,-23085410,-49129760,29375,-9916992,8647461
2026-01-14 16:52:38.581,-20905920,-2714659,-6564388,-72212590,29316410,-8598633,7734375
2026-01-14 16:52:38.591,-2151878,15356610,-24694360,-7165152,28652340,-7241211,6611328
2026-01-14 16:52:38.601,-22148880,15928900,-25330510,-71038680,28183590,-6010742,5292969
2026-01-14 16:52:38.611,19139870,-26033130,-68673600,-28455180,27246090,-46801760,39233400
2026-01-14 16:52:38.621,-23409100,-45532080,-49916960,-69657620,27050780,-265625,23522950
2026-01-14 16:52:38.631,17788160,1763021,-2725452,-27079290,25117190,-56671140,6982422
2026-01-14 16:52:38.641,-24626170,18107530,-27812980,-68095280,23925780,7092285,-4953003
2026-01-14 16:52:38.651,-25230390,18582270,-28374040,-67249380,22519530,20410160,-23034670
2026-01-14 16:52:38.661,-2579148,-25411650,-73403760,-6637759,19980470,33569340,-42700200
2026-01-14 16:52:38.671,-2633524,-2517860,-7455178,-6547125,19345700,38623050,-50878900
2026-01-14 16:52:38.681,-26861770,24960130,-25966750,-64530400,16738280,52197260,-6435547
2026-01-14 16:52:38.691,-43651240,21246870,-31406340,-47274820,13447270,6928711,-7685547
2026-01-14 16:52:38.701,12881050,-48535910,-54008390,-21921870,10195310,7919922,-8979492
2026-01-14 16:52:38.711,16253010,-22994780,-80481740,-17151570,6308594,8964844,-10996090
2026-01-14 16:52:38.721,11549180,-2189855,-8249292,-20474330,36010740,11083980,-11787110
2026-01-14 16:52:38.731,14912600,26844510,-37375150,-15798900,3793335,13583980,-11386720
2026-01-14 16:52:38.741,-29252750,-19093260,-87110860,-58704020,-1418457,15859380,-10302730
2026-01-14 16:52:38.751,-42211480,-49942870,-57141680,-45037490,-3869629,15703130,-90283200
2026-01-14 16:52:38.761,9216900,32755480,-43548530,-17869290,-59521480,16474610,-7871094
2026-01-14 16:52:38.771,8701587,-13905630,-94870740,-17279750,-8041992,16904300,-61621100
2026-01-14 16:52:38.781,8205268,37420900,-48377940,-16705740,-10107420,16865230,-4399414
2026-01-14 16:52:38.791,-30159070,39884380,-50920840,-54068810,-12246090,16787110,-24267580
2026-01-14 16:52:38.801,7317066,-7475032,-103631900,-15660450,-14521480,17060550,20019530
2026-01-14 16:52:38.811,-30288550,45162650,-56345840,-52368360,-16689450,16064450,25048830
2026-01-14 16:52:38.821,6532448,47976580,-59228820,-14718730,-18447270,14345700,48120120
2026-01-14 16:52:38.831,-30314440,-138104,-113040400,-50771510,-19072270,12919920,7441406
2026-01-14 16:52:38.841,-39177440,53610470,-64988740,-41148910,-19902340,11523440,90527340
2026-01-14 16:52:38.851,5533763,56429570,-67866540,-13490440,-20234380,92529300,11005860
2026-01-14 16:52:38.861,5233382,59164080,-70656300,-13117550,-20800780,8051758,12529300
2026-01-14 16:52:38.871,4948536,61900330,-73444330,-12763650,-21542970,72021490,13642580
2026-01-14 16:52:38.881,-30184970,64552840,-76143450,-47292940,-20546880,59472660,15019530
2026-01-14 16:52:38.891,-30150440,1458755,-13094250,-46688730,-20175780,37182620,15673830
2026-01-14 16:52:38.901,4180319,1671093,-13348020,-11805540,-20488280,23168940,16445310
2026-01-14 16:52:38.911,-30115910,-50857820,-66291260,-45566610,-20820310,49621580,1609375
2026-01-14 16:52:38.921,-30107290,20318960,-137813300,-45057340,-19726560,-30822750,16142580
2026-01-14 16:52:38.931,3490649,2188130,-13970370,-10958770,-19863280,-15991210,15478520
2026-01-14 16:52:38.941,-30124540,2320196,-14131780,-44107860,-20332030,-17285160,14638670
2026-01-14 16:52:38.951,64066870,-50823300,-67551490,-71450410,-20097660,-29370120,14160160
2026-01-14 16:52:38.961,-30167700,2545484,-14407130,-43305110,-20019530,-31860350,13378910
2026-01-14 16:52:38.971,2730196,-50849190,-67991700,-10044680,-19707030,-3725586,12285160
2026-01-14 16:52:38.981,58419170,2697401,-14600480,-65704300,-20175780,-45874020,11152340
2026-01-14 16:52:38.991,2428084,27500510,-146686700,-9690780,-20351560,-40405270,10097660
2026-01-14 16:52:39.001,23003410,8701492,-8820814,-95423160,-19853520,-40649420,9213867
2026-01-14 16:52:39.011,2187266,2824285,-14767070,-9413704,-19345700,-5258789,8417969
2026-01-14 16:52:39.021,2097497,2846726,-14796420,-9313577,-18945310,-4272461,7446289
2026-01-14 16:52:39.031,2014633,-5977346,-5977523,-9223807,-18632810,-3383789,6586914
2026-01-14 16:52:39.041,-30487080,-59791520,-59791700,-41587410,-17480470,-36132810,6020508
2026-01-14 16:52:39.051,1893789,8232374,-9428033,-9102964,-16308590,-3149414,59033200
2026-01-14 16:52:39.061,5102959,2826874,-14781740,-5824740,-15292970,-18286130,5136719
2026-01-14 16:52:39.071,-35605660,-58864570,-60615070,-36693250,-14072270,-20227050,41259770
2026-01-14 16:52:39.081,50583340,27215680,-146626200,-57830500,-13154300,-19592280,36572260
2026-01-14 16:52:39.091,50485800,-58784290,-60505450,-57755400,-121875,-11773680,2548828
2026-01-14 16:52:39.101,17643140,2544622,-14459780,-90598060,-11171880,-12561040,20239260
2026-01-14 16:52:39.111,50456450,-51116770,-67879490,-57784750,-10195310,-3250122,95336910
2026-01-14 16:52:39.121,-31393400,2302932,-14183570,-42252050,-8984375,-28198240,55389400
2026-01-14 16:52:39.131,1744459,-51220360,-67378850,-9148715,-7734375,-27252200,11878970
2026-01-14 16:52:39.141,1739277,19792430,-138167200,-9188417,-69677740,-11276250,-60180660
2026-01-14 16:52:39.151,-31997620,1776400,-13587980,-42977100,-66796880,17684940,-15600590
2026-01-14 16:52:39.161,-3719389,1566649,-13348880,-3829874,-6044922,-3286743,-24646000
2026-01-14 16:52:39.171,1756545,1322373,-13075260,-9361051,-53564450,-13110350,-29052730
2026-01-14 16:52:39.181,1770356,1070328,-12792140,-9433557,-4560547,-16015630,-40844730
2026-01-14 16:52:39.191,52676520,793253,-12482270,-60398420,-40234380,-20568850,-50146480
2026-01-14 16:52:39.201,-33197420,499775,5,-12154260,-44625760,-3947754,-19445800,-65771480
2026-01-14 16:52:39.211,1853221,198529,-11816760,-9695960,-37231440,-17285160,-77001950
2026-01-14 16:52:39.221,-33689430,50918250,-62501950,-45359440,-44482420,-13183590,-86572260
2026-01-14 16:52:39.231,55058000,-52411520,-63045750,-63023310,-55810550,-7104492,-9658203
2026-01-14 16:52:39.241,-34155540,-790658,5,-10717090,-46119040,-67578130,13084410,-10302730
2026-01-14 16:52:39.251,2014632,-1124707,-10343340,-10104240,-8417969,7739258,-10898440
2026-01-14 16:52:39.261,5746792,-14673850,-99609520,-6561972,-10009770,25390620,-11035160
2026-01-14 16:52:39.271,-34811540,-1809197,-9577704,-47327470,-11572270,3293457,-10410160
2026-01-14 16:52:39.281,2240781,34736360,-35870740,-10516830,-13535160,4855957,-9868164
2026-01-14 16:52:39.291,2365078,26288630,-37585760,-10703280,-15107420,5683594,-8417969
2026-01-14 16:52:39.301,2505772,-27673150,-84814830,-10907850,-15839840,55322260,-65527340
2026-01-14 16:52:39.311,2680133,19777760,-30976490,-11147810,-16611330,79541020,-5048828
2026-01-14 16:52:39.321,-35502080,-53507750,-57944430,-49830660,-16416020,63671880,-18725590
2026-01-14 16:52:39.331,3141066,-3620124,-7469852,-11739940,-16308590,98339840,31051640
2026-01-14 16:52:39.341,-35579760,10798230,-21829500,-51082250,-14580080,83203130,34106440
2026-01-14 16:52:39.351,3729744,-41380250,-68311070,-12463280,-13544920,10166020,5317383
2026-01-14 16:52:39.361,4076738,-43745330,-65324510,-12875870,-11738280,10537110,79541020
2026-01-14 16:52:39.371,8438840,-46093150,-62320690,-9325146,-98291020,11425780,95751950
2026-01-14 16:52:39.381,4832872,48991660,-59767440,-13759750,-82958980,13085940,11298830
2026-01-14 16:52:39.391,5242016,-5078877,-5631305,-14231040,-62597660,13535160,12021480
2026-01-14 16:52:39.401,5660652,-5320564,-5322291,-14710100,-43017580,15380860,11777340
2026-01-14 16:52:39.411,-34889220,-79627190,-26110810,-56192200,-22949220,159375,11298830
2026-01-14 16:52:39.421,6527271,-53084800,-51962680,-15690660,10272220,15185550,109375
2026-01-14 16:52:39.431,-34543960,-13850380,3412965,-57642320,16564940,15839840,8979492
2026-01-14 16:52:39.441,-34388590,-63589540,-40111390,-58332860,3623047,14697270,68652340
2026-01-14 16:52:39.451,7708086,-20085040,9780549,-17030290,58154300,14746090,39160160
2026-01-14 16:52:39.461,-34112380,-18724780,17700890,-59593080,69091800,13486330,75927740
2026-01-14 16:52:39.471,-33991530,-26753010,16577990,-60180030,93408200,11669920,-23303220
2026-01-14 16:52:39.481,-3390524,-53093420,-48052530,-6071522,11240230,94189460,-59472660
2026-01-14 16:52:39.491,-33836160,-33857740,23801840,-61215830,1328125,7270508,-93066410
2026-01-14 16:52:39.501,-33793000,-82449750,-17539560,-61656050,14726560,49243160,-12558590
2026-01-14 16:52:39.511,9355872,-8598011,-1347405,-18938760,14804690,24975590,-16054690
2026-01-14 16:52:39.521,9528506,-89527730,-9425793,-19145920,14667970,-45959470,-1921875
2026-01-14 16:52:39.531,-46800080,-53619960,-44867440,-49702050,14873050,-31347660,-22304690
2026-01-14 16:52:39.541,9817667,-9649348,-154507,6,-19495500,16240230,-56347660,-24472660
2026-01-14 16:52:39.551,9942828,-55980720,46218300,-19646560,17001950,-7451172,-26542970
2026-01-14 16:52:39.561,-33723960,-54103330,-43158370,-63537760,17373050,-9765625,-27890620
2026-01-14 16:52:39.571,-3372395,-10681700,988326,9,-6372766,17451170,-12480470,-28769530
2026-01-14 16:52:39.581,-33723950,-110200600,13577630,-63883030,16660160,-14355470,-30078120
2026-01-14 16:52:39.591,10252700,-113446100,17064820,-20027210,16162110,-16298830,-30507810
2026-01-14 16:52:39.601,-33723950,-54931970,-41224880,-64107450,1546875,-18183590,-30644530
2026-01-14 16:52:39.611,-33723950,-55156400,-40827820,-64176500,14677730,-19443360,-30351560
2026-01-14 16:52:39.621,10346790,-12241440,2656828,-20140280,13847660,-20585940,-29648440
2026-01-14 16:52:39.631,10356280,-8204147,7246550,-20148050,12646480,-215625,-2859375
2026-01-14 16:52:39.641,10358010,-12770560,3198035,-20146330,12041020,-22128910,-26523440
2026-01-14 16:52:39.651,10326940,-13003620,3431090,-20108350,10898440,-22714840,-253125
2026-01-14 16:52:39.661,-33680800,-132228600,36434300,-64029770,9433594,-22558590,-23984380
2026-01-14 16:52:39.671,10235440,-56589260,-39325900,-19992690,7705078,-21660160,-23105470
2026-01-14 16:52:39.681,-33654900,-13599200,3992150,-63727650,6269531,-20820310,-22109380
2026-01-14 16:52:39.691,10082660,-13757160,4127665,-19800200,5527344,-19511720,-21113280
2026-01-14 16:52:39.701,-33620370,-13883180,4226070,-63296070,44311520,-17792970,-20566410
2026-01-14 16:52:39.711,9884992,-57590530,-39308640,-19549020,36010740,-15869140,-20058590
2026-01-14 16:52:39.721,9763286,-14065310,4337416,-19394510,3400879,-12548830,-20859380
2026-01-14 16:52:39.731,-33559960,-58091170,-39619380,-62407010,48876950,-8383789,-21445310
2026-01-14 16:52:39.741,-33525430,-58324220,-39869700,-62044480,5546875,-21264650,-21894530
2026-01-14 16:52:39.751,-33499530,-9686203,8699261,-61656050,48291020,28710940,-20546880
2026-01-14 16:52:39.761,-3347365,-58738540,-40491180,-6126765,34765620,6645508,-18144530
2026-01-14 16:52:39.771,-33439100,-14018700,4038763,-60853300,24780270,86035150,-15058590
2026-01-14 16:52:39.781,8825023,-59083810,-41302560,-18209380,27490230,8823242,-11787110
2026-01-14 16:52:39.791,-33352790,-92402070,82303020,-60007400,36914060,72509770,-7939453
2026-01-14 16:52:39.801,8485798,-59360020,-42252050,-17771760,4309082,54541020,-5161133
2026-01-14 16:52:39.811,8295902,-59480870,-42769950,-17530070,5175781,35107420,-31103520
2026-01-14 16:52:39.821,12229440,-132755100,29865590,-13147690,53271480,14916990,-12414550
2026-01-14 16:52:39.831,7881584,-130752600,27207040,-17012170,54248050,18005370,53619380
2026-01-14 16:52:39.841,-33197420,-12867240,2445355,-57556000,45141600,-3878784,101257300
2026-01-14 16:52:39.851,-33231940,-5986927,-4504006,-56986310,38916020,-50445560,1105957
2026-01-14 16:52:39.861,-33275100,-12445150,1883433,-56373460,27392580,-21835330,17456060
2026-01-14 16:52:39.871,-33352790,-60076450,-46248510,-55708830,21606440,14587400,-119384800
2026-01-14 16:52:39.881,-33465000,-7198900,6128404,-55009660,-44647220,3334961,-2919922
2026-01-14 16:52:39.891,5947222,-60300880,-47474210,-14734270,-41357420,54589840,-40600580
2026-01-14 16:52:39.901,5538946,-6696970,5611796,-14262120,-7553711,76708980,-45288090
2026-01-14 16:52:39.911,5131531,-6441732,5349135,-13789100,-11699220,90283200,-45166020
2026-01-14 16:52:39.921,4725842,-111279500,1277488,-13314360,-14033200,9423828,-33154300
2026-01-14 16:52:39.931,434605,-5896642,4789371,-1286551,-15302730,98291020,-15161130
2026-01-14 16:52:39.941,-3404335,-60775620,-50676560,-5044353,-16269530,9350586,48187260
2026-01-14 16:52:39.951,3641703,-6081877,-5134120,-12016150,-16269530,67529300,29101560
2026-01-14 16:52:39.961,-34034690,-56425690,-56424810,-48984750,-146875,4753418,5439453
2026-01-14 16:52:39.971,3024539,-6086194,-5266186,-11252250,-13242190,32885740,6791992
2026-01-14 16:52:39.981,-33965640,-94896620,-19283160,-47586430,-10751950,16503910,8574219
2026-01-14 16:52:39.991,60955160,-40353080,28872950,-69037860,-8222656,14442440,96435540
2026-01-14 16:52:40.001,57883150,-89208350,-26197130,-65895070,-5727539,-9674072,10361330
2026-01-14 16:52:40.011,-33827540,-86558430,-29416750,-45583880,-40405270,-22680660,11347660
2026-01-14 16:52:40.021,1614124,-31635950,19981460,-9486211,-45361330,-39794920,11552730
2026-01-14 16:52:40.031,1329276,-81672900,-35407130,-9132315,-30541990,-4033203,11611330
2026-01-14 16:52:40.041,1026305,-79350980,-38264210,-8762017,-21765140,-31469730,12275390
2026-01-14 16:52:40.051,41653870,-24032310,12220720,-49323980,-31518560,-2578125,12529300
2026-01-14 16:52:40.061,38147680,-75181890,-43417320,-45752190,-34057620,-22167970,13232420
2026-01-14 16:52:40.071,62145,75,-60905100,-58160220,-7602781,-47216800,26977540,13798830
2026-01-14 16:52:40.081,-2701712,-17800240,5850549,-72100380,-60546880,76171870,14394530
2026-01-14 16:52:40.091,27450450,-69976980,-49951500,-34870240,-7446289,770874,15712890
2026-01-14 16:52:40.101,-927042,-6853550,-5179005,-6434051,-7792969,18444820,16767580
2026-01-14 16:52:40.111,-12533190,-67249370,-53438690,-60525300,-88427740,3095703,18125
2026-01-14 16:52:40.121,16917220,-61086360,-59964240,-24169550,-89941410,17700200,19345700
2026-01-14 16:52:40.131,13576760,-106437200,-14941430,-20777310,-98535150,21105960,20488280
2026-01-14 16:52:40.141,-34362700,-97960870,-23728470,-37142100,-86035150,-10070800,2203125
2026-01-14 16:52:40.151,-24816060,-90330460,-31635080,-46222620,-9501953,-22918700,225
2026-01-14 16:52:40.161,40655190,-30280770,18056600,-111262300,-9243164,-35247800,23066410
2026-01-14 16:52:40.171,9779684,-26839330,14592710,-79989730,-9873047,-16967770,2359375
2026-01-14 16:52:40.181,12045500,-25124210,12855150,-19028530,-11005860,-29833980,23964840
2026-01-14 16:52:40.191,-46835460,-25133710,12845660,-22666780,-11367190,-38305660,24570310
2026-01-14 16:52:40.201,-38488640,-26867810,14564230,-30720130,-11708980,-48486330,24570310
2026-01-14 16:52:40.211,-40862350,-29464220,17146820,-28087470,-11826170,-58984380,24648440
2026-01-14 16:52:40.221,-12154260,-32922930,20593450,5281720,-12988280,-63183590,23964840
2026-01-14 16:52:40.231,-14303550,-37243090,24904970,7448271,-1421875,-6972656,22734380
2026-01-14 16:52:40.241,-46895880,-9711496,-2633522,-21518760,-15058590,-6743164,215625
2026-01-14 16:52:40.251,-17744990,-40323220,39088200,10912160,-15068360,-5854492,20390620
2026-01-14 16:52:40.261,-49683920,-5019663,3784646,-18609890,-15175780,-48754880,19189450
2026-01-14 16:52:40.271,-34321260,-48954880,47719870,-33989810,-14667970,-40698240,17373050
2026-01-14 16:52:40.281,-51444780,-60552920,48206180,-16918090,-14033200,-38305660,15908200
2026-01-14 16:52:40.291,-51755520,-12212090,-127746,7,-16710930,-12832030,-39257810,15556640
2026-01-14 16:52:40.301,-51824580,-68475070,-54837030,-16779980,-10966800,-37817380,14228520
2026-01-14 16:52:40.311,-20703070,-82119160,69798310,13823620,-9536133,-36401370,12841800
2026-01-14 16:52:40.321,-5125488,-14699740,2390975,-1776399,-7949219,-36621100,11494140
2026-01-14 16:52:40.331,-50693820,-71055940,-51893630,-18584000,-6508789,-32348630,9736328
2026-01-14 16:52:40.341,-49899710,-72005420,-50771510,-19688850,-5097656,-30932620,82910160
2026-01-14 16:52:40.351,-36356610,-18041060,5782361,-33559950,-3947754,-29956060,64501950
2026-01-14 16:52:40.361,-47741800,-74396410,-47983480,-22537310,-38867190,-35864260,5058594
2026-01-14 16:52:40.371,-4646433,-75751580,-46403880,-2419462,-35888670,-43115230,34448240
2026-01-14 16:52:40.381,-12962190,-77011800,-44901970,5854862,-3293457,-44433590,19458010
2026-01-14 16:52:40.391,-43175640,-23518720,11353240,-28329160,-2705078,-3725586,3353882
2026-01-14 16:52:40.401,-41242140,-79428660,-41967200,-30711500,-2241211,-296875,-95458980
2026-01-14 16:52:40.411,-39230960,-26167780,14055820,-33188790,-446167,-18249510,-20031740
2026-01-14 16:52:40.421,-36443450,-27534180,15451560,-36442420,24398800,-1463623,-27319340
2026-01-14 16:52:40.431,-16823130,-28986890,16933620,-56528840,89538580,-12432860,-33642580
2026-01-14 16:52:40.441,1055652,-62562380,-57659590,-8439191,16125490,-12792970,-39892580
2026-01-14 16:52:40.451,-29485800,-32148670,20159280,-44850180,21496580,-13085940,-44262700
2026-01-14 16:52:40.461,-26620080,-3377227,2181570,-48199270,32055660,-18334960,-41625980
2026-01-14 16:52:40.471,-2376299,-35395040,23472980,-5155701,42016600,-3083496,-34643560
2026-01-14 16:52:40.481,-20810960,-37017800,25130260,-54992400,48632810,-3330078,-3461914
2026-01-14 16:52:40.491,16469230,-91892810,-26637350,-24099640,53466800,-31201170,-30688480
2026-01-14 16:52:40.501,-14742900,-40089810,28273050,-62044480,5805664,-23413090,-22521970
2026-01-14 16:52:40.511,23153600,-9455135,-2325374,-30880680,59277340,-15539550,-13317870
2026-01-14 16:52:40.521,-839862,8,-95837480,-21605080,-6933828,5830078,-10028080,17745970
2026-01-14 16:52:40.531,30184960,-62398380,-54681660,-38005260,5107422,-11859130,22644040
2026-01-14 16:52:40.541,33959600,-45713350,34043320,-41826510,4765625,-97229010,39282230
2026-01-14 16:52:40.551,-3536400,-62286160,-54051550,-4373672,44360350,-15554430,60546880
2026-01-14 16:52:40.561,632703,8,-48265730,36669940,-8585929,4345703,10595700,8041992
2026-01-14 16:52:40.571,1034937,-101379000,-14199100,-9029599,41967770,87402340,10478520
2026-01-14 16:52:40.581,1463069,-10239760,-1280078,-9499158,33984380,29736330,11591800
2026-01-14 16:52:40.591,18929260,-103329800,-11488760,-99669950,21813960,3815918,14238280
2026-01-14 16:52:40.601,2331415,-10426200,-1017675,-10443460,1652832,3178711,16699220
2026-01-14 16:52:40.611,2770767,-105107900,-8951044,-10919070,40496820,5864258,17324220
2026-01-14 16:52:40.621,69018860,-5497079,4360288,-77201700,-32165530,43896480,19951170
2026-01-14 16:52:40.631,3652059,-61690570,-51608780,-11867690,-22070310,8330078,19501950
2026-01-14 16:52:40.641,-33024790,-61621520,-51280780,-49459500,-20458980,8925781,19794920
2026-01-14 16:52:40.651,82522260,-10934600,-317649,8,-90801760,-31201170,10009770,19873050
2026-01-14 16:52:40.661,4960623,-11070120,-142422,9,-13269470,13305660,9375,20058590
2026-01-14 16:52:40.671,5350775,-112229000,500635,6,-13690700,-3488159,11259770,18896480
2026-01-14 16:52:40.681,5734022,-11393810,258949,6,-14101570,-75927740,99072260,16923830
2026-01-14 16:52:40.691,10255600,-11572490,477331,6,-10339570,-8660889,9248047,13330080
2026-01-14 16:52:40.701,6439232,-67675780,56620330,-14863750,66101070,7583008,10742190
2026-01-14 16:52:40.711,-31263920,-61500680,-48674010,-53257430,24963380,5913086,7890625
2026-01-14 16:52:40.721,7067616,-12092110,1114349,-15547370,27563480,36157230,42016600
2026-01-14 16:52:40.731,7339514,-122466200,13051090,-15845170,3774414,11450200,3677368
2026-01-14 16:52:40.741,-30806450,-61448890,-47603680,-54526290,32788090,-1538086,-39086910
2026-01-14 16:52:40.751,7830656,-124701800,15994490,-16389830,4111328,-40307620,-8017578
2026-01-14 16:52:40.761,-30573400,-61302150,-47059890,-55277250,56884770,-64990230,-11367190
2026-01-14 16:52:40.771,-30461180,-6120718,-4684408,-55631140,5917969,-88427740,-14306640
2026-01-14 16:52:40.781,-30348970,-12595340,1819559,-55985040,88720700,-11582030,-16044920
2026-01-14 16:52:40.791,8706768,-60948250,-46533360,-17360890,10595700,-13300780,-17851560
2026-01-14 16:52:40.801,8903572,-12551320,1829051,-17578410,10771480,-1578125,-18623050
2026-01-14 16:52:40.811,908483,9,-12496080,1797978,-1777694,12021480,-18193360,-19482420
2026-01-14 16:52:40.821,-29926020,-60482140,-46308940,-57150320,153125,-18798830,-19833980
2026-01-14 16:52:40.831,9415433,-75505570,64845450,-18136880,17988280,-19453120,-19521480
2026-01-14 16:52:40.841,9546632,-12254390,1608080,-18281890,1859375,-20488280,-18896480
2026-01-14 16:52:40.851,9645032,-59998770,-46326190,-18390650,19726560,-20546880,-18681640
2026-01-14 16:52:40.861,9726168,-59834770,-46386620,-18482140,20117190,-20253910,-18232420
2026-01-14 16:52:40.871,-29675700,-59688030,-46464300,-57987600,21914060,-19042970,-18046880
2026-01-14 16:52:40.881,9794362,-117960500,11859920,-18569330,24570310,-17304690,-17265620
2026-01-14 16:52:40.891,-29744750,-6378858,6378756,-58091170,25449220,-15214840,-16201170
2026-01-14 16:52:40.901,-29839700,-11577660,972791,4,-58065280,26367190,-12421880,-15048830
2026-01-14 16:52:40.911,9626908,-67105220,56500350,-18426040,26054690,-10117190,-13994140
2026-01-14 16:52:40.921,-30141800,-11398120,789799,4,-57918530,24375,-8173828,-13027340
2026-01-14 16:52:40.931,-42692260,-11323030,709525,4,-45437140,23417970,-5854492,-12451170
2026-01-14 16:52:40.941,-30573390,-112582900,6361548,-57607800,22285160,-27539060,-11923830
2026-01-14 16:52:40.951,8864730,-6409708,5346631,-17686300,21152340,107299800,-11640630
2026-01-14 16:52:40.961,-31134450,-59040650,-47405160,-57115790,19394530,48095700,-11181640
2026-01-14 16:52:40.971,8266554,-11103790,445394,4,-17093300,17041020,7597656,-9716797
2026-01-14 16:52:40.981,7929920,-11069260,393604,-16756670,14306640,86621100,-7158203
2026-01-14 16:52:40.991,-32144360,-11052860,358216,-56088620,11640630,75683590,-46484380
2026-01-14 16:52:41.001,7165155,-62154960,51437870,-15985000,94384770,66064450,-21606440
2026-01-14 16:52:41.011,-32895310,-61820910,51081390,-55234090,75146480,5488281,-25650020
2026-01-14 16:52:41.021,6335647,-54388180,-53266060,-15139960,6230469,4777832,101257300
2026-01-14 16:52:41.031,5909244,-10954460,163138,-14703190,4958496,4296875,25195310
2026-01-14 16:52:41.041,-42932220,-59593080,-48596330,-44903700,3269043,4404297,37158200
2026-01-14 16:52:41.051,5023635,-108448400,-34520,41,-13793420,18408200,4375,51660160
2026-01-14 16:52:41.061,-34811540,-59713920,-49045170,-52730900,7421875,40698240,6020508
2026-01-14 16:52:41.071,4141476,-59757080,-49312760,-12880190,-3945923,40942380,6699219
2026-01-14 16:52:41.081,-35536600,-56481360,45545030,-51660580,-11621090,42919920,703125
2026-01-14 16:52:41.091,71867330,-10446910,-520493,3,-80568050,-25390620,39648440,71435540
2026-01-14 16:52:41.101,-36201240,-53576800,42580050,-50598880,-27612300,4086914,71875
2026-01-14 16:52:41.111,63429860,-59774340,-50503930,-72087420,-30297850,44677740,7104492
2026-01-14 16:52:41.121,2052612,-9992026,-1066875,-10687740,-30859380,453125,7363281
2026-01-14 16:52:41.131,1676273,-48271780,37181800,-10287230,-3544922,40771480,75
2026-01-14 16:52:41.141,-42372890,-46387480,35268160,-43495010,-2619629,34960940,73828130
2026-01-14 16:52:41.151,967610,5,-9458589,-1690082,-9528506,-17834470,32641600,6982422
2026-01-14 16:52:41.161,635293,5,-42359080,31182790,-9170293,-16540530,30664060,66748050
2026-01-14 16:52:41.171,41320690,-40388460,29182830,-49829790,-28381350,23291020,6459961
2026-01-14 16:52:41.181,37967280,-8896665,-2336596,-46450490,19119260,2590332,5834961
2026-01-14 16:52:41.191,-334910,-87205810,-25403020,-8120683,29342650,23657230,54833980
2026-01-14 16:52:41.201,-38566320,-34646680,23358180,-45713350,30166630,19116210,53271480
2026-01-14 16:52:41.211,-9460316,-8384805,-2929589,-74543140,55847170,21154780,4741211
2026-01-14 16:52:41.221,-12420980,-31219900,19879610,-71289000,6817627,19641110,4440918
2026-01-14 16:52:41.231,-15381650,-80827010,-32834890,-68034860,-906,5867,16503910,37548830
2026-01-14 16:52:41.241,-18255990,-2822469,1683264,-64867030,-82336420,7330322,40014650
2026-01-14 16:52:41.251,-21130340,-21632100,20490480,-61699210,-25756840,108947800,34643560
2026-01-14 16:52:41.261,-23918370,-76796010,-37608210,-58617700,-34228520,19641110,32763670
2026-01-14 16:52:41.271,-26533770,-75535780,-39110120,-55708830,-3984375,8929443,34179690
2026-01-14 16:52:41.281,7641619,-74353240,-40517080,-15836540,-49291990,6149292,38256840
2026-01-14 16:52:41.291,4980476,-21378070,9868594,-13146040,-70751950,7019043,40673830
2026-01-14 16:52:41.301,-34215960,-20094540,8562624,-47163470,-82373050,21224980,43823240
2026-01-14 16:52:41.311,25900,-70796990,-44729340,-81111850,-92626950,836792,4885254
2026-01-14 16:52:41.321,13222000,-17611200,6039582,-21304700,-1078125,3012085,5878906
2026-01-14 16:52:41.331,-4030992,-16498580,4907970,-4024088,-11855470,-5682373,62158200
2026-01-14 16:52:41.341,-27320980,-15298780,3690905,19290060,-13212890,-27694700,6425781
2026-01-14 16:52:41.351,-8147438,-6649842,-4975297,138969,5,-13740230,-4951477,7133789
2026-01-14 16:52:41.361,-45721980,-65445360,-50944140,-34155540,-14570310,12214660,7910156
2026-01-14 16:52:41.371,-47008100,-120403200,3892884,-32679520,-14921880,-977,5162,8901367
2026-01-14 16:52:41.381,-4813885,-110105600,-6525544,-3139345,-15820310,-16308590,953125
2026-01-14 16:52:41.391,-49105600,-48131080,36459330,-30288550,-17109380,-2019043,10058590
2026-01-14 16:52:41.401,-49830660,-61673320,-55113240,-29459910,-16953120,-25390620,10429690
2026-01-14 16:52:41.411,-14663490,-30010610,18326770,6743063,-16298830,-36132810,10449220
2026-01-14 16:52:41.421,-3968671,-2224382,1055654,-3946574,-15917970,-53027340,10761720
2026-01-14 16:52:41.431,-40681080,-14476180,2787169,-38436850,-16083980,-6738281,10351560
2026-01-14 16:52:41.441,-40672450,-5845369,-5843643,-38445480,-14550780,-7626953,9892578
2026-01-14 16:52:41.451,-5052982,-580048,4,-588679,9,-2860537,-14462890,-83203130,94628900
2026-01-14 16:52:41.461,-50201820,-48069790,-68785820,-28967900,-14414060,-8305664,9189453
2026-01-14 16:52:41.471,-49796130,8831930,-20515760,-29425380,-1453125,-7089844,8334961
2026-01-14 16:52:41.481,-13544830,-40275400,-76528430,5617493,-14589840,-47705080,71728510
2026-01-14 16:52:41.491,-93735670,14015250,-25690450,85803160,-14902340,-21765140,58447260
2026-01-14 16:52:41.501,-40525710,14016980,-25688730,-38868430,-16494140,10467530,3959961
2026-01-14 16:52:41.511,-11483580,13156400,-24822970,3535534,-17734380,45629880,2668457
2026-01-14 16:52:41.521,-10624730,11433510,-23093180,2668051,-19453120,7548828,18603520
2026-01-14 16:52:41.531,-9680424,9710634,-21363390,1713388,-21308590,10273440,15600590
2026-01-14 16:52:41.541,-85652100,-45273130,-71168160,5843641,-22226560,12558590,17895510
2026-01-14 16:52:41.551,-7277365,3677094,-15312590,-717291,8,-22832030,13378910,24621580
2026-01-14 16:52:41.561,-22132480,-5811017,-5812396,14120560,-22890620,12666020,36791990
2026-01-14 16:52:41.571,-4016321,-58044560,-58051460,-4014594,-22773440,11767580,52246100
2026-01-14 16:52:41.581,-38618110,-5797894,-5797894,-41898150,-21796880,10097660,71435540
2026-01-14 16:52:41.591,-3254144,-57904720,-57897820,-77486540,-21015620,7504883,87109380
2026-01-14 16:52:41.601,-34526700,-65583460,-50046450,-46438410,-20527340,4675293,10136720
2026-01-14 16:52:41.611,-32144360,-69812980,-45644290,-49062440,-19121090,22180180,11748050
2026-01-14 16:52:41.621,-4062238,-23026720,11499980,-4084337,-17548830,-19058230,12988280
2026-01-14 16:52:41.631,-39472650,-28196220,16688480,-42252050,-16904300,-21325680,1390625
2026-01-14 16:52:41.641,-2424639,-85919690,-28950630,-5773730,-15585940,-36914060,14267580
2026-01-14 16:52:41.651,-21363390,-35100010,33953380,-60896460,-15136720,-42529300,13671880
2026-01-14 16:52:41.661,18748000,-48017140,36573270,-26999880,-14316410,-43041990,12695310
2026-01-14 16:52:41.671,21927900,-10717090,-704346,1,-30207410,-13837890,-40795900,11669920
2026-01-14 16:52:41.681,25108680,-11655350,256359,2,-33414080,-13710940,-28710940,9692383
2026-01-14 16:52:41.691,28374900,-63874390,-49891080,-36707920,-13291020,-2175293,80810540
2026-01-14 16:52:41.701,-38229690,-13703640,2351269,-45359450,-134375,-14880370,6015625
2026-01-14 16:52:41.711,-308150,5,-14900000,3571786,-8076659,-14052730,27648930,29785160
2026-01-14 16:52:41.721,-103576,-109233000,97927210,-84003460,-14589840,15063480,7519531
2026-01-14 16:52:41.731,-41723790,-17293560,6011963,-42624940,-14912110,23510740,-16064450
2026-01-14 16:52:41.741,5869536,-18403590,7146163,-90459940,-15205080,32543940,-40063480
2026-01-14 16:52:41.751,47116860,-7006328,-4226933,-55600070,-15634770,4296875,-609375
2026-01-14 16:52:41.761,1193762,-20538210,9327388,-9699414,-15498050,5307617,-74365230
2026-01-14 16:52:41.771,-42064740,-21561920,10375280,-43216200,-16503910,625,-8623047
2026-01-14 16:52:41.781,1810924,-72644180,-38980640,-10359740,-17333980,6586914,-890625
2026-01-14 16:52:41.791,-36425660,-23092320,11952280,-49252340,-17480470,6894531,-9355469
2026-01-14 16:52:41.801,63291750,-23599000,12481400,-71880260,-17949220,6557617,-91748050
2026-01-14 16:52:41.811,2800980,-23932180,12838750,-11406760,-18154300,6010742,-87646480
2026-01-14 16:52:41.821,3163509,-23920960,12849970,-11786550,-18203120,47753900,-7783203
2026-01-14 16:52:41.831,35355340,-18181750,18071270,-121741100,-18515620,4645996,-7416992
2026-01-14 16:52:41.841,3933455,-18246150,17143710,-12587570,-18359380,32666020,-5859375
2026-01-14 16:52:41.851,43408690,-22419040,11417110,-130088000,-18476560,39501950,-52001950
2026-01-14 16:52:41.861,-34293640,-21457480,10479720,-52506480,-18466800,21923830,-40673830
2026-01-14 16:52:41.871,521783,-69528140,-40007810,-1390997,-17958980,13586430,-30908200
2026-01-14 16:52:41.881,-42509270,-67939900,-41354350,-44515280,-16777340,11791990,-2783203
2026-01-14 16:52:41.891,6157834,-66351680,-42700900,-14868930,-15576170,-104904200,-2286377
2026-01-14 16:52:41.901,6655022,-15625920,4744831,-15373010,-14589840,-52948000,-27294920
2026-01-14 16:52:41.911,-32101200,-13886640,3031446,-55147770,-13457030,-14538570,-27392580
2026-01-14 16:52:41.921,7667516,-12061040,1231740,-16397590,-12539060,-2841797,-37963870
2026-01-14 16:52:41.931,8183693,-48877540,47797210,-16917220,-11396480,-3972168,-515625
2026-01-14 16:52:41.941,8700724,-56908630,-50866460,-17435980,-10185550,-46850580,-69677740
2026-01-14 16:52:41.951,9218628,-16596980,5845370,-17953880,-84716800,-5004883,-88916020
2026-01-14 16:52:41.961,9737391,-5363032,-5364414,-18470920,-67578130,-49023440,-11582030
2026-01-14 16:52:41.971,10248380,-27612720,-79402770,-18978460,-4970703,-41357420,-13730470
2026-01-14 16:52:41.981,-28493160,39546020,-50223390,-58755810,-31298830,-38891600,-16894530
2026-01-14 16:52:41.991,-27966630,1061699,-11713180,-59230550,-10083010,-2631836,-20273440
2026-01-14 16:52:42.001,11777050,-52299310,-53973860,-20488140,15893560,-6713867,-23242190
2026-01-14 16:52:42.011,-26879040,50564340,-156595800,-60145510,41796880,14746090,-25800780
2026-01-14 16:52:42.021,-2634388,7140120,-17719100,-6059436,6591797,41186520,-27871090
2026-01-14 16:52:42.031,13266880,9396441,-19951250,-21950350,8461914,6982422,-29082030
2026-01-14 16:52:42.041,-25273550,-35640180,-69648980,-61457530,10615230,89160160,-28925780
2026-01-14 16:52:42.051,-2474702,-3299889,-7201406,-6189774,11396480,9633789,-26464840
2026-01-14 16:52:42.061,14723050,-5233763,-5238184,-23377160,11845700,7470703,-22421880
2026-01-14 16:52:42.071,15201240,-49718440,-54690290,-23848460,12988280,2939453,-17441410
2026-01-14 16:52:42.081,-23201940,2250280,-3291256,-63183860,14160160,-41625980,-11367190
2026-01-14 16:52:42.091,-41114390,-48829380,-54940610,-45202360,15507810,-39453120,-51904300
2026-01-14 16:52:42.101,16559010,-1849767,-8496158,-25183770,16142580,-72021490,103515600
2026-01-14 16:52:42.111,16958650,-1575280,-8739571,-25578240,15986330,-98583980,59277340
2026-01-14 16:52:42.121,-21449710,33009260,-43294750,-64694400,15888670,-12011720,95214850
2026-01-14 16:52:42.131,17626740,35094660,-45352540,-26239420,15097660,-12988280,11582030
2026-01-14 16:52:42.141,17886550,36833080,-47066790,-26497510,13730470,-13554690,12119140
2026-01-14 16:52:42.151,18093710,-7656296,-94490940,-26704670,12001950,-13476560,11572270
2026-01-14 16:52:42.161,-2049162,-46524730,-55449880,-6561801,10126950,-13066410,9658203
2026-01-14 16:52:42.171,18377700,40569740,-50753380,-26990380,84228510,-12324220,74316410
2026-01-14 16:52:42.181,-40795880,-50401210,-51331700,-45348230,71875,-11660160,5053711
2026-01-14 16:52:42.191,-20258540,-353033,-9813350,-65885570,6357422,-984375,33203120
2026-01-14 16:52:42.201,-20224010,-290884,5,-9872045,-65920100,5444336,-89160160,21191410
2026-01-14 16:52:42.211,-40786390,-2382340,-99229730,-45357720,3774414,-8413086,13476560
2026-01-14 16:52:42.221,-2019814,-45911880,-55700200,-6591149,19824220,-89746100,95825190
2026-01-14 16:52:42.231,18544290,4895128,-4996774,-27151800,26626590,-97265620,9710693
2026-01-14 16:52:42.241,-20172220,-78545,5,-10091290,-65851040,-10357670,-10400390,19213870
2026-01-14 16:52:42.251,-2015499,45666740,-55841750,-6579924,-16577150,-11005860,34643560
2026-01-14 16:52:42.261,-20129060,61288,-10244930,-65738830,-16235350,-11171880,47729490
2026-01-14 16:52:42.271,-20094540,151920,5,-10344200,-65652520,-20288090,-10576170,5957031
2026-01-14 16:52:42.281,18462290,48414200,-58618560,-27026630,-1920166,-9213867,6879883
2026-01-14 16:52:42.291,-20051380,355628,-10572070,-65453990,-2055664,-7109375,76660160
2026-01-14 16:52:42.301,-2003412,478194,5,-10708460,-6533314,-19995120,-46606440,76953130
2026-01-14 16:52:42.311,-42380060,-45497550,-56943150,-42831840,-3227539,-18908690,7163086
2026-01-14 16:52:42.321,18267210,-45419870,-57176210,-26772870,-5126953,16113280,62597660
2026-01-14 16:52:42.331,18205930,913232,5,-11188380,-26696040,-71972660,5786133,5463867
2026-01-14 16:52:42.341,1815495,11039910,-113946700,-2662612,-9189453,94433590,49926760
2026-01-14 16:52:42.351,-19921910,13033830,-116096000,-64599450,-10585940,12070310,5517578
2026-01-14 16:52:42.361,-1986149,1529533,-11849560,-6446998,-11572270,13427730,6464844
2026-01-14 16:52:42.371,-19757900,1765181,-12097290,-64349130,-12480470,12763670,77197260
2026-01-14 16:52:42.381,-1964569,-4452218,-5888529,-6425418,-12773440,10371090,96728510
2026-01-14 16:52:42.391,-19490320,2265818,-12615190,-64167860,-12832030,6904297,11269530
2026-01-14 16:52:42.401,-1932632,2521312,-12877600,-6410745,-11230470,36132810,13417970
2026-01-14 16:52:42.411,18299150,7440332,-8476478,-26620080,-85839840,14672850,1546875
2026-01-14 16:52:42.421,1838803,-43615850,-60033300,-2668657,-671875,-6616211,16572270
2026-01-14 16:52:42.431,18476960,79234460,-89601100,-26753010,-53125,-2878418,16708980
2026-01-14 16:52:42.441,-18575370,81477820,-91846190,-63977970,-33935550,-43481440,15966800
2026-01-14 16:52:42.451,-18402730,-42959850,-60741100,-63960710,-1986084,-41796880,13681640
2026-01-14 16:52:42.461,18765260,-42744060,-60956890,-26982620,-45288090,-4663086,11474610
2026-01-14 16:52:42.471,-38686300,4138028,-14506390,-43280080,19763180,-51416020,9638672
2026-01-14 16:52:42.481,18983640,4346049,-14712690,-27161290,47021480,-40234380,77685540
2026-01-14 16:52:42.491,-1761727,-42088040,-61561100,-6396936,66015620,-27856440,5908203
2026-01-14 16:52:42.501,-1741873,9416984,-10453130,-6399523,8676758,-2298584,4296875
2026-01-14 16:52:42.511,19338400,4945950,-15303960,-27462540,10351560,-15673830,2722168
2026-01-14 16:52:42.521,19459240,-41466560,-62079000,-27566120,11728520,-1616211,16418460
2026-01-14 16:52:42.531,19588720,5312797,-15662170,-27678330,13623050,-11779790,8453369
2026-01-14 16:52:42.541,-37994900,-41060870,-62363850,-42745780,15019530,-27514650,59143060
2026-01-14 16:52:42.551,19845940,-50604920,-52768020,-27904480,16044920,-2746582,-63056940
2026-01-14 16:52:42.561,-16227550,-40681080,-62622790,-64219660,16904300,-28564450,14854430
2026-01-14 16:52:42.571,-16046280,5965353,-16287110,-64280080,18447270,-28857420,46905520
2026-01-14 16:52:42.581,20227470,6106911,-16421760,-28248020,19306640,-26049800,8148193
2026-01-14 16:52:42.591,20354350,-40128660,-62933540,-28362820,19335940,-23913570,10644530
2026-01-14 16:52:42.601,20462250,6374494,-16672080,-28462080,18847660,-23400880,89416500
2026-01-14 16:52:42.611,20578770,-39817910,-63071640,-28569980,17832030,-25463870,9222412
2026-01-14 16:52:42.621,20685810,6590284,-16870610,-28670110,16757810,-27441410,53497310
2026-01-14 16:52:42.631,24365320,6681780,-16951750,-25163230,15419920,-29541020,17166140
2026-01-14 16:52:42.641,-1501051,-39403590,-63209750,-6472895,13701170,-30419920,-20706180
2026-01-14 16:52:42.651,-37357890,-3928274,-6324427,-42346990,11826170,-2849121,-11260990
2026-01-14 16:52:42.661,-14820590,-39153280,-63270180,-64867040,9296875,-234375,39154050
2026-01-14 16:52:42.671,21126020,7002016,-17235730,-29093060,70166020,-18383790,1430664
2026-01-14 16:52:42.681,21203710,7067616,-17290970,-29170740,4873047,-14685060,2980957
2026-01-14 16:52:42.691,-1457030,-38833900,-63296070,-6510011,2536621,-647583,35546880
2026-01-14 16:52:42.701,-37308690,7165155,-17366060,-42378930,4309082,-17786030,45703120
2026-01-14 16:52:42.711,21460070,7215219,-17402320,-29432280,-1159668,8404541,60595700
2026-01-14 16:52:42.721,-14337210,-38531790,-63201120,-65419460,-28393560,21875,74121100
2026-01-14 16:52:42.731,-37339760,7281682,-17439430,-42468700,-40844730,35327150,9057617
2026-01-14 16:52:42.741,-37354440,11870800,-12884850,-42505820,-49316410,5517578,10234380
2026-01-14 16:52:42.751,-1409555,-38212420,-63002590,-6585106,-53759770,5722656,11884770
2026-01-14 16:52:42.761,21997820,-38117470,-62907640,-29999390,-64453120,6743164,12607420
2026-01-14 16:52:42.771,22122120,7354188,-17435980,-30134040,-7084961,7363281,13212890
2026-01-14 16:52:42.781,-37485630,7347284,-17408360,-42737140,-73779300,7421875,13085940
2026-01-14 16:52:42.791,-13776150,-37832630,-62553740,-66550220,-80078130,6816406,12685550
2026-01-14 16:52:42.801,-13698470,-37746310,-62415640,-66748740,-7895508,64697260,12773440
2026-01-14 16:52:42.811,22625340,-37660000,-62277530,-30683880,-7324219,6245117,128125
2026-01-14 16:52:42.821,22747910,7271323,-17242630,-30820260,-69189460,61376950,11933590
2026-01-14 16:52:42.831,22860990,7230755,-17179620,-30948870,-65283200,5366211,11289060
2026-01-14 16:52:42.841,-40247000,7172923,-17099340,-40787160,-5722656,5253906,9995117
2026-01-14 16:52:42.851,23052610,-48321840,-50735260,-31171570,-5078125,5078125,8535156
2026-01-14 16:52:42.861,23130300,7046036,-16932760,-31266510,-41577150,51953120,7211914
2026-01-14 16:52:42.871,23190720,6977847,-16845580,-31344200,-38720700,6118164,5629883
2026-01-14 16:52:42.881,23251140,6900162,-16750630,-31421880,-39233400,60498050,46240230
2026-01-14 16:52:42.891,-1354310,6821612,-16656540,-6831970,-43603520,48950200,36645510
2026-01-14 16:52:42.901,23338320,11161710,-12143820,-31541860,-44995120,2680664,32763670
2026-01-14 16:52:42.911,-13603520,-37470100,-60602990,-68587300,-4814453,-7714844,31811520
2026-01-14 16:52:42.921,-1362942,6574747,-16368250,-6869950,-48706060,-47436520,3088379
2026-01-14 16:52:42.931,23455710,-37539150,-60292250,-31700690,-47143560,-7988281,2849121
2026-01-14 16:52:42.941,-41000460,-37573680,-60154140,-41552880,-44628900,-10332030,2548828
2026-01-14 16:52:42.951,23532540,6330471,-16094620,-31796500,-39868160,-11699220,22033690
2026-01-14 16:52:42.961,-13655310,6264009,-16022980,-69053390,-32861330,-12255860,122558600
2026-01-14 16:52:42.971,2359640,6215669,-15967740,-3187073,-2890625,-12070310,-305,4142
2026-01-14 16:52:42.981,-13629420,-37685890,-59800240,-69148350,-20056150,-11181640,-10253910
2026-01-14 16:52:42.991,-13603520,10552570,-11527260,-69174240,-16918940,-97802740,-24609380
2026-01-14 16:52:43.001,23664600,-4861531,-4883630,-31940650,-1739502,-8105469,-4008789
2026-01-14 16:52:43.011,-38580130,6193229,-15938390,-44145840,-1607666,-6191406,-48608400
2026-01-14 16:52:43.021,-1348268,6236385,-15981550,-6919150,-12182620,-4050293,-4958496
2026-01-14 16:52:43.031,-38514530,6296808,-16041960,-44090590,-12561040,-19641110,-43652340
2026-01-14 16:52:43.041,-1334458,6374492,-16119650,-6917424,-12585450,-5316162,-29638670
2026-01-14 16:52:43.051,23828600,6460810,-16205970,-32070120,-123413100,72021490,-14611820
2026-01-14 16:52:43.061,-13163310,6547128,-16292280,-69148340,-11413570,11053470,2374649
2026-01-14 16:52:43.071,-13051090,6650709,-16395870,-69139710,-8111572,14550780,16577150
2026-01-14 16:52:43.081,-38234870,-37090300,-60344030,-43852360,-34576420,16052250,3149414
2026-01-14 16:52:43.091,-12861190,6866500,-16611660,-69105180,42022700,16601560,50097660
2026-01-14 16:52:43.101,-12766250,6970080,-16715240,-69079290,11419680,15197750,63623050
2026-01-14 16:52:43.111,-1269720,11450260,-12424950,-6904476,2211914,15124510,7426758
2026-01-14 16:52:43.121,24099630,7148756,-16899100,-32265200,31396480,1685791,8144531
2026-01-14 16:52:43.131,24086690,-36667350,-60870570,-32243620,3623047,16967770,83447260
2026-01-14 16:52:43.141,-12610880,7282548,-17041520,-68889390,3996582,17468260,79248050
2026-01-14 16:52:43.151,-12619510,-36615570,-61043200,-68828980,4609375,17602540,79003900
2026-01-14 16:52:43.161,23973610,7361092,-17135600,-32115010,5229492,15698240,7597656
2026-01-14 16:52:43.171,-12714460,-36658720,-61172680,-68664980,57470700,14526370,7060547
2026-01-14 16:52:43.181,23829460,-36719140,-61233100,-31965680,5805664,10595700,63916020
2026-01-14 16:52:43.191,23744010,-36788200,-61284890,-31878500,62939450,8831787,5698242
2026-01-14 16:52:43.201,-1296480,-36874510,-61319420,-6838015,61376950,40924070,48413090
2026-01-14 16:52:43.211,-13059720,7261830,-17096760,-68267920,59277340,31021120,3996582
2026-01-14 16:52:43.221,-13171940,7202273,-17052740,-68155700,5878906,25978090,33081060
2026-01-14 16:52:43.231,-13284150,-48123310,-50536730,-68043500,58154300,-2192688,25146480
2026-01-14 16:52:43.241,23193310,-48215670,-50617000,-31324350,5463867,-64208980,1854248
2026-01-14 16:52:43.251,23081100,-37565050,-61440260,-31212140,53564450,-10095220,16186520
2026-01-14 16:52:43.261,22961120,-37720420,-61457520,-31090430,5444336,-13659670,12023930
2026-01-14 16:52:43.271,-13733000,-37875780,-61474780,-67542860,5317383,-16516110,7745361
2026-01-14 16:52:43.281,-13845210,-38022530,-61500680,-67413380,51953120,-16601560,5722046
2026-01-14 16:52:43.291,-1395745,-38177900,-61517940,-6728392,4753418,-13720700,91674810
2026-01-14 16:52:43.301,-37949160,6598055,-16586620,-43257640,4296875,-11444090,13879400
2026-01-14 16:52:43.311,22380200,6519506,-16527070,-30497430,36694340,-10614010,17272950
2026-01-14 16:52:43.321,22270580,6424556,-16449380,-30382630,2944336,-61279300,23181150
2026-01-14 16:52:43.331,22178220,6337376,-16381190,-30285090,19348140,-8105469,26293940
2026-01-14 16:52:43.341,-1436313,-39041060,-61587000,-6663655,8404541,-11328130,26391600
2026-01-14 16:52:43.351,22012500,-39213700,-61587000,-30105560,-5114746,-1282959,22509770
2026-01-14 16:52:43.361,21937400,-39377700,-61595630,-30025280,-16442870,-12097170,18103030
2026-01-14 16:52:43.371,-14492580,5983480,-16096350,-66317150,-2368164,-8648682,15100100
2026-01-14 16:52:43.381,-14527110,-3967978,-6160425,-66213580,-30688480,-5883789,14172360
2026-01-14 16:52:43.391,21749230,-3980928,-6161291,-29816390,-36791990,-574646,9289551
2026-01-14 16:52:43.401,21692260,5753875,-15911630,-29752520,-43676760,-3439331,86242670
2026-01-14 16:52:43.411,25259300,5686549,-15858110,-26064640,-51123050,-39398190,3930664
2026-01-14 16:52:43.421,21578320,-40214970,-61638790,-29624770,-5908203,-69885260,-16952520
2026-01-14 16:52:43.431,21530850,5551895,-15751080,-29568660,-6489258,-6222534,-8099365
2026-01-14 16:52:43.441,-1465659,5485429,-15696700,-6565252,-68652340,-7849121,-7208252
2026-01-14 16:52:43.451,21434170,-40577500,-61673310,-29458180,-7138672,-446167,-881958
2026-01-14 16:52:43.461,-14691110,-50136220,-52235440,-65479890,-7290039,-6323242,-4067993
2026-01-14 16:52:43.471,-37515850,-40793300,-61699210,-42586100,-75927740,-7128906,-20614620
2026-01-14 16:52:43.481,-14708380,-40879610,-61716470,-65324520,-8227539,-6335449,-6137085
2026-01-14 16:52:43.491,21276220,5248923,-15518890,-29270870,-7836914,-93444820,-22506710
2026-01-14 16:52:43.501,-14691110,5217851,-15498170,-65186410,-76171870,-13671880,-2456665
2026-01-14 16:52:43.511,-14673850,-41112660,-61776890,-65134620,-7651367,-117614700,7522583
2026-01-14 16:52:43.521,-1466524,-50446960,-52511660,-6507422,-78271490,-15722660,-26626590
2026-01-14 16:52:43.531,-14647950,5163471,-15466230,-65039660,-79345700,-20300290,-54473880
2026-01-14 16:52:43.541,21206300,-41224880,-61854580,-29168160,-78222660,-28857420,-8703613
2026-01-14 16:52:43.551,25183250,-41233510,-61897740,-25191210,-734375,-37060550,-8673096
2026-01-14 16:52:43.561,-1457028,5182458,-15499030,-6492746,-6738281,-36865230,-78125
2026-01-14 16:52:43.571,-1454438,5206626,-15526660,-6490156,-60253900,-3881836,-9649658
2026-01-14 16:52:43.581,-14509850,-41224880,-62009950,-64884300,-58154300,-38916020,-13757320
2026-01-14 16:52:43.591,-14483950,-41207620,-62044480,-64858410,-49682620,-39111330,-19592280
2026-01-14 16:52:43.601,-14458050,5280861,-15607790,-64832500,-4477539,-36816410,-23132320
2026-01-14 16:52:43.611,21224420,5314523,-15643190,-29150030,-38720700,-3527832,-27001950
2026-01-14 16:52:43.621,-14423530,-41138560,-62165320,-64797980,-328125,-33154300,-32128910
2026-01-14 16:52:43.631,21235640,-41104030,-62199840,-29156070,-2915039,-31689450,-34838870
2026-01-14 16:52:43.641,-37064410,-41060870,-62243000,-42105310,-2208252,-30517580,-30395510
2026-01-14 16:52:43.651,21255500,5469893,-15798560,-29170740,-20385740,-27514650,-3190918
2026-01-14 16:52:43.661,21264990,5522547,-15849480,-29178510,-16772460,-23571780,-2866211
2026-01-14 16:52:43.671,21273620,-50544500,-52690330,-29187150,-13305660,-20275880,-26464840
2026-01-14 16:52:43.681,-1432859,5620946,-15940980,-6480661,-10461430,-1854248,-19689940
2026-01-14 16:52:43.691,21290030,5665833,-15982410,-29205270,-12237550,-16748050,-15246580
2026-01-14 16:52:43.701,-1432859,10351710,-11382850,-6485840,-13342290,-11236570,-7141113
2026-01-14 16:52:43.711,-14337210,-50440920,-52621280,-64884300,-11437990,-11193850,62828060
2026-01-14 16:52:43.721,21319370,-40568870,-62441530,-29244980,-107788100,-50567630,7147217
2026-01-14 16:52:43.731,24885630,-40525710,-62432900,-25678720,-14208980,74501040,9106445
2026-01-14 16:52:43.741,21314190,-40482550,-62424270,-29250160,-16296390,7556152,97473140
2026-01-14 16:52:43.751,21301250,5845372,-16130880,-29245840,-18774410,10601810,15795900
2026-01-14 16:52:43.761,-14483950,5847963,-16128280,-65031040,-18188480,1239624,22070310
2026-01-14 16:52:43.771,21275350,5851414,-16124830,-29237210,-19482420,15161130,23999020
2026-01-14 16:52:43.781,-1462206,5845370,-16113610,-6510009,-20593260,15563970,25146480
2026-01-14 16:52:43.791,21229600,-50210450,-52402900,-29213900,-21557620,18676760,29711910
2026-01-14 16:52:43.801,21198530,-40327180,-62217110,-29193190,-23156740,1772461,31054690
2026-01-14 16:52:43.811,21165730,-40327180,-62165320,-29174200,-24291990,14318850,31835940
2026-01-14 16:52:43.821,-14975950,-40327190,-62096270,-65246830,-26635740,8605957,27514650
2026-01-14 16:52:43.831,21091500,5740927,-15976370,-29127590,-33203120,27938840,19519040
2026-01-14 16:52:43.841,-15174490,5718487,-15947020,-65324510,-3857422,-28167720,10021970
2026-01-14 16:52:43.851,21017260,-4029265,-6192364,-29080970,-41259770,-8306885,30197140
2026-01-14 16:52:43.861,-1534714,-49983440,-52146540,-6541085,-37768560,-10168460,13504030
2026-01-14 16:52:43.871,-37927580,-4021495,-6184593,-42933950,-31958010,-12121580,27191160
2026-01-14 16:52:43.881,-37979370,-49905760,-52068850,-42985740,-22729490,-9222412,63964840
2026-01-14 16:52:43.891,-15459330,10323310,-11342190,-65574830,-16564940,-7635498,11138920
2026-01-14 16:52:43.901,-15459330,-40050970,-61751000,-65626620,-52368160,-50598140,16748050
2026-01-14 16:52:43.911,21070780,-49778860,-51954050,-29182830,37200930,-11489870,22229000
2026-01-14 16:52:43.921,-38051010,-3993011,-6173372,-43086730,14001470,6668091,2854004
2026-01-14 16:52:43.931,-15338490,5847963,-16007440,-65799260,25097660,40100100,32128910
2026-01-14 16:52:43.941,-15295330,5876447,-16030750,-65842420,32861330,43060300,37890620
2026-01-14 16:52:43.951,-1523493,-49649390,-51841840,-6588559,35986330,7232666,40966800
2026-01-14 16:52:43.961,21312470,5898024,-16043690,-29424510,3972168,5505371,41992190
2026-01-14 16:52:43.971,21347860,5899750,-16041970,-29458180,37817380,32318120,42529300
2026-01-14 16:52:43.981,-15114060,5882489,-16024700,-65971880,34350580,3050232,3491211
2026-01-14 16:52:43.991,-15088160,10429310,-11443360,-65997780,24707030,28743740,25976560
2026-01-14 16:52:44.001,-1506228,10403410,-11417460,-6600642,16015630,-25100710,1821289
2026-01-14 16:52:44.011,21427270,-3983517,-6158701,-29534140,12432860,-45562740,11419680
2026-01-14 16:52:44.021,21435900,5770275,-15912490,-29542770,72753900,-47454830,8258057
2026-01-14 16:52:44.031,-1502777,-39921490,-61517940,-6602370,24154660,-37078860,13786320
2026-01-14 16:52:44.041,-1502775,5690863,-15836530,-6602368,-17669680,-41046140,-49743650
2026-01-14 16:52:44.051,-1503639,5646842,-15794240,-6603231,-62194820,-5328369,-95947260
2026-01-14 16:52:44.061,-15053640,-40068230,-61422990,-66032310,-110839800,-6640625,-1003418
2026-01-14 16:52:44.071,21434170,-49681330,-51809900,-29544500,-12359620,-42999270,-15539550
2026-01-14 16:52:44.081,21424680,-40145920,-61345310,-29536730,-1451416,-64331060,-15942380
2026-01-14 16:52:44.091,-15088170,-40180440,-61310780,-66049580,-15576170,-6414795,-1739502
2026-01-14 16:52:44.101,-1511409,-40206340,-61284890,-6605823,-17529300,-8062744,-2006836
2026-01-14 16:52:44.111,21403960,-40232230,-61258990,-29522920,-17944340,-10656740,-21057130
2026-01-14 16:52:44.121,21393610,-4024086,-6123311,-29516010,-20678710,-13574220,-2142334
2026-01-14 16:52:44.131,-15183120,5406021,-15551690,-66092730,-19140620,-13586430,-18005370
2026-01-14 16:52:44.141,21380660,-40249500,-61189940,-29511700,-20898440,-111572300,-15527340
2026-01-14 16:52:44.151,-1523491,9963197,-10977250,-6610999,-20703120,-15405270,-101623500
2026-01-14 16:52:44.161,-1526083,-40232240,-61155410,-6613591,-18823240,-15612790,-66833500
2026-01-14 16:52:44.171,-15295330,5393936,-15529240,-66135890,-19445800,-14941410,-89660650
2026-01-14 16:52:44.181,21346990,-40206340,-61129520,-29493570,-1282959,-12792970,-64697260
2026-01-14 16:52:44.191,-40496020,-40197710,-61120880,-41004260,-50079340,-10736080,20858760
2026-01-14 16:52:44.201,21326280,5396524,-15526660,-29479760,-16448980,-54718020,91674810
2026-01-14 16:52:44.211,-15381640,5397389,-15525790,-66170420,-77590940,-34694670,103149400
2026-01-14 16:52:44.221,-1540755,5388755,-15517160,-6617905,4600525,-17105100,11529540
2026-01-14 16:52:44.231,-15433430,5388758,-15517160,-66170420,-18720630,-30883790,123168900
2026-01-14 16:52:44.241,-1546799,-40180450,-61086360,-6617044,4055786,-53527830,16833500
2026-01-14 16:52:44.251,21251180,5388756,-15517160,-29416750,64086910,-57128900,18920900
2026-01-14 16:52:44.261,21233920,5388756,-15517160,-29399480,101257300,-579834,2208252
2026-01-14 16:52:44.271,-1552839,5379260,-15509390,-6612726,12915040,-40771480,25561520
2026-01-14 16:52:44.281,21199390,-40223600,-61094990,-29364960,17993160,-23071290,26660160
2026-01-14 16:52:44.291,-1556292,5350775,-15486090,-6609273,18798830,-1512146,24768070
2026-01-14 16:52:44.301,21165730,9885513,-10899560,-29329570,16210940,-14732360,27392580
2026-01-14 16:52:44.311,-15588810,-40353080,-61086360,-66032310,12927250,-72517390,25512700
2026-01-14 16:52:44.321,-38281480,-40413500,-61077730,-43322380,99731450,-15701290,21411130
2026-01-14 16:52:44.331,21107900,5220437,-15374740,-29266560,4815674,-4058838,18823240
2026-01-14 16:52:44.341,-15606070,-4053432,-6106046,-65946000,14556890,-36468500,18334960
2026-01-14 16:52:44.351,-1561471,10169080,-10270730,-6592010,-14793400,-58746340,16101070
2026-01-14 16:52:44.361,-15614700,5100460,-15270300,-65885570,-17807010,-29846190,13537600
2026-01-14 16:52:44.371,-1562334,5054709,-15229730,-6585968,-7537842,-3302002,9576416
2026-01-14 16:52:44.381,-15623330,-40793290,-61008680,-65825150,-15979000,-30197140,43823240
2026-01-14 16:52:44.391,-15631960,-40862350,-60991410,-65799260,-18396000,-4348755,6161499
2026-01-14 16:52:44.401,-1564062,-49949770,-51955770,-6577338,-24353030,-52825930,24154660
2026-01-14 16:52:44.411,20979280,4898476,-15092480,-29118950,-30151370,-44555660,-871,1815
2026-01-14 16:52:44.421,-38186530,4861361,-15060540,-43192900,-32983400,-7330322,-37353520
2026-01-14 16:52:44.431,20955110,-41078140,-60948250,-29091330,-34838870,-79833980,-6542969
2026-01-14 16:52:44.441,20947350,4814749,-15020840,-29081840,-3642578,-11138920,-90270990
2026-01-14 16:52:44.451,-38163230,-41129930,-60948260,-43164420,-3791504,-13146970,-9552002
2026-01-14 16:52:44.461,-1564924,4795759,-15005300,-6566115,-3840332,-16088870,-1138916
2026-01-14 16:52:44.471,-1564060,4794896,-15006170,-6565252,-3930664,-17370600,-109436000
2026-01-14 16:52:44.481,-38128700,-41164460,-60965520,-43129890,-35180660,-18737790,-10992430
2026-01-14 16:52:44.491,-1561473,-41164460,-60982780,-6562664,-28588870,-16223150,-7733154
2026-01-14 16:52:44.501,20953390,-41147190,-61000050,-29075800,-24475100,-1595459,-7446289
2026-01-14 16:52:44.511,-15588810,-41138560,-61008680,-65617990,-22216800,-17175290,-6530762
2026-01-14 16:52:44.521,20963750,4844097,-15060550,-29082700,-20458980,-16821290,-6286621
2026-01-14 16:52:44.531,20964610,4861360,-15077810,-29081840,-18640140,-1628418,-40527340
2026-01-14 16:52:44.541,-38074320,4878624,-15095070,-43080690,-1730957,-15429690,-26794430
2026-01-14 16:52:44.551,-38065690,4895888,-15112330,-43072060,-14575200,-15637210,-20370480
2026-01-14 16:52:44.561,-15528380,4904520,-15120970,-65609360,-13049320,-1381836,12611390
2026-01-14 16:52:44.571,20984470,-4105224,-6111227,-29096510,-13269040,-13916020,33447270
2026-01-14 16:52:44.581,20993960,4930413,-15146860,-29104280,-1204834,-12237550,19210820
2026-01-14 16:52:44.591,20993960,4947676,-15164130,-29104280,-14294430,-115356400,3730774
2026-01-14 16:52:44.601,-15485220,-41009090,-61138150,-65600730,-14428710,-99365230,28533940
2026-01-14 16:52:44.611,-38036340,-40991820,-61155420,-43049620,-16040040,-90270990,44799800
2026-01-14 16:52:44.621,21021580,-50055940,-52074030,-29128450,-14855960,-8502197,82458500
2026-01-14 16:52:44.631,-1544210,-40957300,-61172680,-6562664,-16809080,-7299805,97595220
2026-01-14 16:52:44.641,21048340,-4094002,-6117269,-29153480,-14855960,-9710693,11785890
2026-01-14 16:52:44.651,-1540755,5028814,-15238360,-6564388,-15197750,-6311035,12939450
2026-01-14 16:52:44.661,-15381640,5037449,-15246990,-65652520,-13549810,-385437,1149292
2026-01-14 16:52:44.671,-38001810,-40879610,-61198570,-43032350,-14025880,-23025510,15393070
2026-01-14 16:52:44.681,2112774,5065067,-15271160,-2922944,-13391110,-55236820,16894530
2026-01-14 16:52:44.691,2115362,-49995520,-52030870,-2925536,-14099120,9933472,19067380
2026-01-14 16:52:44.701,21171770,5084921,-15285830,-29271730,-13378910,57868960,20495600
2026-01-14 16:52:44.711,21197670,5094416,-15293600,-29297630,-15771480,10978700,20214840
2026-01-14 16:52:44.721,21223560,-40776030,-61181310,-29323530,-16455080,76446540,1640625
2026-01-14 16:52:44.731,-15183110,5114270,-15308270,-65799260,-17260740,22277830,1439209
2026-01-14 16:52:44.741,-15157220,-40732870,-61172680,-65825150,-15026860,726,6998,19396970
2026-01-14 16:52:44.751,-15122690,5134986,-15322080,-65859670,-12023930,27198790,18273930
2026-01-14 16:52:44.761,-15088170,5145344,-15328990,-65894200,-103881800,-17684940,17919920
2026-01-14 16:52:44.771,-37947430,-40655190,-61146780,-43034940,-7421875,-2355957,15429690
2026-01-14 16:52:44.781,-37943980,5157427,-15334170,-43038390,-7208252,-24490360,14404300
2026-01-14 16:52:44.791,-37941390,-40612030,-61120880,-43040980,-52886960,-47088620,10473630
2026-01-14 16:52:44.801,-14958690,5169513,-15339350,-66023680,-7446289,-53131100,6970215
2026-01-14 16:52:44.811,-14915530,-4056885,-6109499,-66066830,-31555180,-3326416,7043457
2026-01-14 16:52:44.821,-14881000,-4055158,-6107772,-66101360,-4650116,-5340576,7678223
2026-01-14 16:52:44.831,-14855110,-4053432,-6106046,-66127260,-24215700,-6365967,58135980
2026-01-14 16:52:44.841,-37915500,-49753840,-51806450,-43049620,4108429,-6854248,18997190
2026-01-14 16:52:44.851,-37920670,5195407,-15347980,-43061700,-20492550,-13464360,-22003170
2026-01-14 16:52:44.861,-37918080,-40456660,-61034570,-43064290,16489030,-8111572,-4525757
2026-01-14 16:52:44.871,-14717000,5224755,-15370420,-66248100,60699460,-5822754,51994320
2026-01-14 16:52:44.881,-14682480,5226481,-15368700,-66282620,11090090,-39916990,60791020
2026-01-14 16:52:44.891,-14656580,-40387600,-61000040,-66308530,91308590,-1776123,49072260
2026-01-14 16:52:44.901,-14639320,5237703,-15374740,-66325780,10144040,19302370,4977417
2026-01-14 16:52:44.911,-14622060,-40370340,-60965520,-66360320,7824707,-13069150,5029297
2026-01-14 16:52:44.921,21836410,-40361710,-60956880,-29936380,57495120,-29449460,52124020
2026-01-14 16:52:44.931,-3790946,5224753,-15353160,-4309018,39733890,-68237300,10247800
2026-01-14 16:52:44.941,25524460,5217848,-15342800,-26334630,15731810,-82214350,14990230
2026-01-14 16:52:44.951,-37923260,5210080,-15333300,-43110900,8926392,-869751,15759280
2026-01-14 16:52:44.961,21902870,-49581200,-51633820,-30008020,44670100,-11767580,11651610
2026-01-14 16:52:44.971,-1457028,5185910,-15305680,-6649842,-23620600,-12261960,70129390
2026-01-14 16:52:44.981,-14570260,5178145,-15296190,-66515680,-12578960,-13098150,42510980
2026-01-14 16:52:44.991,21926180,-40361700,-60801510,-30036500,-13839720,-13635250,22583010
2026-01-14 16:52:45.001,21925310,-40370340,-60775620,-30037370,-2758789,-13671880,-29708860
2026-01-14 16:52:45.011,-37969880,5137575,-15250440,-43167870,-28625490,-13330080,-35247800
2026-01-14 16:52:45.021,-37978510,5129807,-15240950,-43176500,-5532837,-1430664,-6524658
2026-01-14 16:52:45.031,21939990,-49529410,-51564760,-30057220,-34606940,-12939450,-25100710
2026-01-14 16:52:45.041,21947760,-4036170,-6071521,-30066710,-35461420,-10961910,-28121950
2026-01-14 16:52:45.051,21947760,5114269,-15221960,-30066710,-25920870,-11279300,-1272583
2026-01-14 16:52:45.061,-3799233,5115131,-15221100,-4319722,-20233150,-81604000,9536743
2026-01-14 16:52:45.071,21973660,5106500,-15212460,-30092610,535,4881,-9674072,44525140
2026-01-14 16:52:45.081,21982280,-40370340,-60672040,-30101240,3522873,-105896000,7080078
2026-01-14 16:52:45.091,-1454440,-40370340,-60672040,-6664518,-9796143,-12164310,8099365
2026-01-14 16:52:45.101,22000410,-40378970,-60663410,-30117640,-47187800,-78430180,7531738
2026-01-14 16:52:45.111,22009040,-40387600,-60654780,-30126270,12275700,-6756592,8068848
2026-01-14 16:52:45.121,22009040,5071973,-15177940,-30126270,32318120,-59509280,8862305
2026-01-14 16:52:45.131,-14509850,-4041347,-6064613,-66645160,10314940,-7550049,74523930
2026-01-14 16:52:45.141,-14509850,5054712,-15160670,-66645160,12161260,-11633300,68359380
2026-01-14 16:52:45.151,-14509850,5045217,-15152900,-66645160,1828003,-121521000,50842280
2026-01-14 16:52:45.161,-14501220,-49538040,-51556130,-66636530,28335570,-12719730,236969
2026-01-14 16:52:45.171,-14501220,-40465290,-60628880,-66636530,14343260,-14172360,2229309
2026-01-14 16:52:45.181,22011630,5026225,-15137370,-30123680,31555180,-11871340,9475708
2026-01-14 16:52:45.191,22003870,5016730,-15129600,-30114190,40374760,-10333250,-3445,148
2026-01-14 16:52:45.201,22003860,-40499810,-60646140,-30114190,59783940,-11010740,22850040
2026-01-14 16:52:45.211,-37937940,-40517080,-60646140,-43148020,5480957,-1005249,-54130550
2026-01-14 16:52:45.221,-1448396,4996876,-15114920,-6658474,40100100,-13366700,6843567
2026-01-14 16:52:45.231,21989190,4996014,-15115790,-30094330,44677740,-12133790,-9918213
2026-01-14 16:52:45.241,-14483950,-40560240,-60654780,-66550220,38269040,-12695310,-1996994
2026-01-14 16:52:45.251,25628050,4985656,-15108880,-26438220,3390503,-11273190,13626100
2026-01-14 16:52:45.261,-144842,2,-40594770,-60672040,-665331,3,-14350890,-13659670,132370000
2026-01-14 16:52:45.271,21965880,4957172,-15085580,-30065850,-45928960,-1373291,4650116
2026-01-14 16:52:45.281,21957250,4956309,-15086440,-30057220,-45684820,-11993410,-3125
2026-01-14 16:52:45.291,-14492580,-40646550,-60672040,-66489790,-44433590,-10888670,16908650
2026-01-14 16:52:45.301,-14509850,-40672450,-60663410,-66472530,-47698980,-113098100,-12008670
2026-01-14 16:52:45.311,-14518480,4927826,-15063130,-66463890,-7849121,-10534670,-15686040
2026-01-14 16:52:45.321,-37894780,4918330,-15055360,-43087590,-769043,-9552002,-38879400
2026-01-14 16:52:45.331,-14527110,-40715610,-60672040,-66438000,-6695557,-108947800,-20690920
2026-01-14 16:52:45.341,-37888740,9462561,-10476610,-43076370,-7489014,-8319092,-26306150
2026-01-14 16:52:45.351,-14553000,4889846,-15032060,-66412100,-7348633,-85510260,-39489740
2026-01-14 16:52:45.361,-14570270,-40758760,-60680670,-66394840,-93322750,-8428955,-440979
2026-01-14 16:52:45.371,-40223520,4879488,-15025150,-40741590,-1060791,-7470703,-33691410
2026-01-14 16:52:45.381,-14587530,-4974259,-5173135,-66377580,-11419680,-91796870,-26916500
2026-01-14 16:52:45.391,21839000,-50646180,-50845050,-29933790,-1262207,-88134770,-48065180
2026-01-14 16:52:45.401,-1459619,-50654810,-50853680,-6635171,-1295166,-9643555,-4522705
2026-01-14 16:52:45.411,21822600,4858771,-15011350,-29915660,-13842770,-77941900,-26443480
2026-01-14 16:52:45.421,21813970,4858771,-15011350,-29907020,-13977050,-71899420,-12161260
2026-01-14 16:52:45.431,-37871470,-4977712,-5176586,-43041850,-1751709,-55480960,-14732360
2026-01-14 16:52:45.441,-37871480,-50680710,-50879580,-43041850,-15124510,-5831909,-11894230
2026-01-14 16:52:45.451,-1459619,-50680710,-50879580,-6629992,-16369630,-6341553,4886627
2026-01-14 16:52:45.461,-1458753,-4979440,-5178314,-6629126,-16418460,-70739740,-9757996
2026-01-14 16:52:45.471,-1458754,4873444,-15031200,-6629126,-17456060,-64331060,-74653620
2026-01-14 16:52:45.481,-37845580,4882077,-15039830,-43015950,-16589360,-63964840,-26046750
2026-01-14 16:52:45.491,-1457028,4889844,-15049320,-6627400,-16931150,-67993170,-38970950
2026-01-14 16:52:45.501,21819150,4907108,-15066590,-29901850,-12036130,-6774902,-23712160
2026-01-14 16:52:45.511,-14535740,4915742,-15075220,-66274000,-7897949,-6964111,-8178711
2026-01-14 16:52:45.521,-37808460,4924373,-15083850,-42984010,-10058590,-5911255,36376950
2026-01-14 16:52:45.531,25482520,4933003,-15092480,-26290270,-92163090,-61553960,33294680
2026-01-14 16:52:45.541,21857130,4941635,-15101120,-29932920,-15246580,-86120610,-24642940
2026-01-14 16:52:45.551,-40111300,4958899,-15118380,-40629380,-17138670,-5203247,-317688
2026-01-14 16:52:45.561,21876120,4976161,-15135640,-29948460,-93322750,-39215090,4168701
2026-01-14 16:52:45.571,-14414900,4984795,-15144270,-66274000,-10089110,-35827640,70739740
2026-01-14 16:52:45.581,-1439766,-40741500,-60870570,-6627402,-9716797,-24139400,53009030
2026-01-14 16:52:45.591,21914090,-40732870,-60879200,-29979530,-85632320,-25405880,99487300
2026-01-14 16:52:45.601,21923590,-40724240,-60887830,-29987300,-12683110,-7106781,10414120
2026-01-14 16:52:45.611,-1435448,-4070698,-6088783,-6628263,-13293460,-17127990,15144350
2026-01-14 16:52:45.621,-14337210,5019322,-15178800,-66282630,-10461430,4219055,6793213
2026-01-14 16:52:45.631,21951210,-40698340,-60913730,-30011470,-12585450,6629944,715332
2026-01-14 16:52:45.641,-1430271,-40698340,-60913730,-6628265,-15429690,5382538,3353882
2026-01-14 16:52:45.651,-14285420,-49794400,-51817670,-66282630,-12072750,-3545761,14839170
2026-01-14 16:52:45.661,21979690,-49794400,-51817670,-30034780,-11846920,-16021730,-9483337
2026-01-14 16:52:45.671,21988320,-49794400,-51817670,-30043410,-13305660,-22903440,-13793950
2026-01-14 16:52:45.681,-142425,3,-40681080,-60930990,-662914,4,-15283200,-19256590,-16555790
2026-01-14 16:52:45.691,25630460,-40681080,-60930990,-26435800,-16870120,-33996580,30227660
2026-01-14 16:52:45.701,-14216370,5045217,-15204690,-66299890,-15429690,-37109380,37017820
2026-01-14 16:52:45.711,-37644460,5045216,-15204690,-42854540,-16821290,-66467280,34606940
2026-01-14 16:52:45.721,-14181840,5053849,-15213330,-66317160,-2076416,-44311520,15037540
2026-01-14 16:52:45.731,-1416459,5053846,-15213330,-6631716,-19799800,-6567383,8430481
2026-01-14 16:52:45.741,22070330,5063342,-15221100,-30116780,-20507810,-72753900,46539310
2026-01-14 16:52:45.751,-37612520,-40629300,-60930990,-42834690,-23999020,-6222534,5734253
2026-01-14 16:52:45.761,-37609930,5082332,-15236630,-42837280,-23913570,-715332,64819340
2026-01-14 16:52:45.771,22132480,5091827,-15244400,-30175470,-23583980,-10491940,519104
2026-01-14 16:52:45.781,22158370,-49736570,-51771920,-30201370,-25195310,-68115230,6555176
2026-01-14 16:52:45.791,22185130,-40551600,-60939620,-30226400,-25195310,-3289795,6915283
2026-01-14 16:52:45.801,-13966050,5129807,-15275470,-66429370,-2130127,-4385376,7623291
2026-01-14 16:52:45.811,-13931520,5148797,-15291010,-66463900,-20654300,-46203610,44128420
2026-01-14 16:52:45.821,-13905630,-40456660,-60930990,-66489790,-1928711,-8270264,31463620
2026-01-14 16:52:45.831,22307700,5186774,-15322090,-30345510,-2055664,-10583500,19744870
2026-01-14 16:52:45.841,22342220,-40378970,-60939620,-30380040,-20043940,-11468510,24154660
2026-01-14 16:52:45.851,-1377618,-40327180,-60939620,-6658476,-19714360,-95825190,9521484
2026-01-14 16:52:45.861,22429400,-40275390,-60939620,-30465500,-19165040,-80200190,-28152470
2026-01-14 16:52:45.871,-1368986,-40214970,-60948250,-6667108,-1595459,-81970220,-33325200
2026-01-14 16:52:45.881,-37517570,5336967,-15448110,-42826050,-1661377,-9326172,-13397220
2026-01-14 16:52:45.891,-13577620,-40094120,-60948250,-66766010,-13720700,-80566410,-21636960
2026-01-14 16:52:45.901,-13517200,-40025080,-60948250,-66809160,-12323000,-7336426,-1020813
2026-01-14 16:52:45.911,-13456780,545093,1,-1554132,-66869580,-124694800,-6427002,10566710
2026-01-14 16:52:45.921,-13404990,5497516,-15581030,-66921370,-11541750,-62347410,-22155760
2026-01-14 16:52:45.931,22811790,-39800650,-60948250,-30842700,-11907960,-7293701,15319820
2026-01-14 16:52:45.941,22872210,-39722970,-60956890,-30903130,-9075928,-54534910,32440190
2026-01-14 16:52:45.951,-1319784,5630442,-15689790,-6711127,-84472660,-40283200,17349240
2026-01-14 16:52:45.961,26624310,-39550330,-60956880,-27427240,-50872800,-12458800,43792720
2026-01-14 16:52:45.971,2308023,10244330,-11248540,-3110941,-52703860,-4245758,24871830
2026-01-14 16:52:45.981,26762420,5773728,-15805460,-27565340,-24612430,22415160,32562260
2026-01-14 16:52:45.991,-12904360,-39282750,-60948260,-67370220,-10635380,24291990,357666
2026-01-14 16:52:46.001,-37407090,5877309,-15891770,-42867490,70,2858,3829956,30899050
2026-01-14 16:52:46.011,-12757620,-39092850,-60948250,-67516960,73661810,51696780,36712650
2026-01-14 16:52:46.021,-37392420,5973121,-15968600,-42882160,41900640,42633060,5267334
2026-01-14 16:52:46.031,-12619510,6021460,-16006580,-67655060,59783940,52215580,5923462
2026-01-14 16:52:46.041,-12550460,-38816640,-60930990,-67724130,6201172,38116460,4083252
2026-01-14 16:52:46.051,-12472770,-38721690,-60922360,-67801810,56152340,3564453,46722410
2026-01-14 16:52:46.061,2371897,6166468,-16120510,-3174816,109558100,-6591797,491333
2026-01-14 16:52:46.071,27401160,10689470,-11683840,-28204080,97473140,-10688780,61187740
2026-01-14 16:52:46.081,23856220,-3844547,-6088784,-31887130,12335210,-33050540,4547119
2026-01-14 16:52:46.091,-1221385,-38350530,-60879200,-6809530,1385498,-28778080,53588870
2026-01-14 16:52:46.101,-12153400,-38264220,-60861940,-68172970,16479490,-5731201,4360962
2026-01-14 16:52:46.111,24060790,6382262,-16284520,-32096880,171875,-11291500,47210690
2026-01-14 16:52:46.121,24120350,-3809157,-6082742,-32158170,16748050,-16357420,7513428
2026-01-14 16:52:46.131,-37377740,6462537,-16342350,-43017680,13964840,-24316410,9173584
2026-01-14 16:52:46.141,24247240,10952130,-11939070,-32290230,13586430,-34106440,12902830
2026-01-14 16:52:46.151,-11885820,6560076,-16417440,-68561390,1361084,-41552740,17993160
2026-01-14 16:52:46.161,-1182540,11039650,-12024180,-6863907,15930180,-42016600,2626953
2026-01-14 16:52:46.171,24451810,6675738,-16508940,-32499980,1920166,-32739260,39697260
2026-01-14 16:52:46.181,-1168729,11153070,-12135190,-6879445,24633790,-23864750,4729004
2026-01-14 16:52:46.191,-37385510,6800035,-16609070,-43113490,2680664,-15979000,5732422
2026-01-14 16:52:46.201,24693490,11275130,-12254820,-32741670,28857420,-109069800,6347656
2026-01-14 16:52:46.211,24771180,-37098940,-60749730,-32819360,28857420,-9301758,7241211
2026-01-14 16:52:46.221,-11342020,6998566,-16773070,-69105180,21179200,-10601810,7734375
2026-01-14 16:52:46.231,24947260,7064165,-16828310,-32988530,19519040,-64575200,7832031
2026-01-14 16:52:46.241,25035310,-47568300,-49969620,-33073130,20178220,-11846920,87939460
2026-01-14 16:52:46.251,-11014020,-3665869,-6079288,-69312340,21081540,-1463623,9501953
2026-01-14 16:52:46.261,25231250,-36563770,-60801520,-33256980,22802730,-11627200,10214840
2026-01-14 16:52:46.271,25321020,7297220,-17026840,-33339840,22937010,-11529540,10732420
2026-01-14 16:52:46.281,-10634220,7334338,-17058780,-69467710,2052002,-6976318,10449220
2026-01-14 16:52:46.291,-10522020,-36365240,-60827410,-69510880,1439209,-1105957,9980469
2026-01-14 16:52:46.301,25565290,7390441,-17106250,-33561680,501709,-14489750,87841800
2026-01-14 16:52:46.311,-1032349,7409430,-17121790,-6957130,-2116394,-18920900,70654300
2026-01-14 16:52:46.321,25683540,-36270300,-60818780,-33667850,-8294678,-20922850,51660160
2026-01-14 16:52:46.331,2572927,-36253030,-60818780,-3370843,-15136720,-23010250,3515625
2026-01-14 16:52:46.341,-10116320,-3622711,-6082741,-69640350,-17150880,-26538090,21008300
2026-01-14 16:52:46.351,-36871920,-36192610,-60827410,-42832960,-1661377,-27539060,85510260
2026-01-14 16:52:46.361,-10004110,11858370,-12828220,-69683500,-18322750,-31225590,-2128601
2026-01-14 16:52:46.371,25900200,7530275,-17225370,-33865510,-17529300,-37573240,-93933100
2026-01-14 16:52:46.381,25945080,-36019980,-60879200,-33906940,-1517334,-4284668,-14074710
2026-01-14 16:52:46.391,25989110,7648528,-17331540,-33949240,-115356400,-4921875,-99121100
2026-01-14 16:52:46.401,26042620,-3582144,-6093964,-33999300,-71899420,-4909668,-5709839
2026-01-14 16:52:46.411,-9684738,7793544,-17462740,-69830250,206604,-5205078,31982420
2026-01-14 16:52:46.421,26141890,-35588390,-61034570,-34089940,66833500,-40722660,-3164673
2026-01-14 16:52:46.431,-36716550,7991205,-17644870,-42746640,60157780,-27441410,-519104
2026-01-14 16:52:46.441,26212670,-35303550,-61146780,-34157260,-16952520,-18835450,-29876710
2026-01-14 16:52:46.451,-9512104,-3514815,-6119857,-69951090,-10070800,-17529300,-22140500
2026-01-14 16:52:46.461,26271370,12664830,-13627260,-34219410,-17041020,-9637451,-19424440
2026-01-14 16:52:46.471,26287760,8469400,-18081630,-34237540,-18164060,-9353638,-8781433
2026-01-14 16:52:46.481,-9477580,860494,8,-1820506,-70037410,-23083500,57403560,11253360
2026-01-14 16:52:46.491,30284570,8756836,-18346630,-30292520,-27978520,1430664,32226560
2026-01-14 16:52:46.501,-36762300,8900984,-18478690,-42821740,-3269043,2512207,5178833
2026-01-14 16:52:46.511,26324880,9053766,-18619390,-34286740,-41137700,34228520,9863281
2026-01-14 16:52:46.521,26323160,-3379299,-6175965,-34288460,-50683590,39135740,11730960
2026-01-14 16:52:46.531,26322290,-3358583,-6184596,-34289330,-73583980,34814450,4333496
2026-01-14 16:52:46.541,-39540580,9528507,-19059600,-40147040,-91308590,21911620,10147100
2026-01-14 16:52:46.551,-947760,5,-33119730,-62053100,-7019280,-9560547,18539430,4888916
2026-01-14 16:52:46.561,-941716,5,14172860,-15123040,-7023593,-8901367,-17932130,14099120
2026-01-14 16:52:46.571,-933086,8,-32593200,-62268900,-7027048,-7753906,-36035160,3154297
2026-01-14 16:52:46.581,-36701880,-32316990,-62372480,-42813110,-55322260,-4987793,50146480
2026-01-14 16:52:46.591,-907191,8,-32058040,-62476060,-7035679,-37182620,-5966797,66552740
2026-01-14 16:52:46.601,26779770,-45659830,-48736160,-34712280,-17150880,-6459961,7734375
2026-01-14 16:52:46.611,26880760,10824120,-20249910,-34801190,-5382538,-6323242,8432617
2026-01-14 16:52:46.621,26990380,10976900,-20390610,-34898720,107421900,-5751953,81103520
2026-01-14 16:52:46.631,-36367830,11112420,-20514040,-42577460,1685791,-46923830,6923828
2026-01-14 16:52:46.641,-8260510,11247940,-20637470,-70563940,20324710,-32128910,5859375
2026-01-14 16:52:46.651,27329610,15585960,-16523870,-35198240,21716310,-18383790,48461910
2026-01-14 16:52:46.661,-789799,11492210,-20859300,-7065026,18847660,-960083,36279300
2026-01-14 16:52:46.671,-36056230,15820220,-16755720,-42353900,15063480,-3060913,18310550
2026-01-14 16:52:46.681,-35984590,-30288550,-63123440,-42304700,85876460,-34446720,-24368290
2026-01-14 16:52:46.691,-736283,11892720,-21218380,-7080563,-8354187,982666,-20458980
2026-01-14 16:52:46.701,27939870,12039460,-21347860,-35744630,-9375,15124510,-28881840
2026-01-14 16:52:46.711,-7008920,-29606640,-63287440,-70935100,-16809080,16320800,-32226560
2026-01-14 16:52:46.721,-6827654,12351930,-21622350,-71012780,-23901370,10998540,-32250980
2026-01-14 16:52:46.731,28334330,-29114640,-63382380,-36109750,-3557129,8691406,-31762700
2026-01-14 16:52:46.741,-6482390,-2886429,-6340828,-71185420,-42773440,36224360,-28930660
2026-01-14 16:52:46.751,-35551280,12824940,-22029760,-42047480,-4580078,-4272461,-28759770
2026-01-14 16:52:46.761,-35514160,12983770,-22164410,-42032800,-4638672,-11364750,-29174800
2026-01-14 16:52:46.771,-605083,3,-28052940,-63511860,-7146164,-43579100,-15112310,-29882810
2026-01-14 16:52:46.781,-5921330,-2776807,-6353776,-71556580,-39086910,-19714360,-26953120
2026-01-14 16:52:46.791,29048170,13478360,-22584780,-36794240,-3256836,-21972660,-20947270
2026-01-14 16:52:46.801,29143120,-27215670,-63589540,-36889190,-25024410,-22912600,-12213140
2026-01-14 16:52:46.811,29229440,13806360,-22860990,-36975500,-18664550,-22692870,-9277344
2026-01-14 16:52:46.821,-5558802,13956560,-22987010,-71919110,-7110596,-25341800,-38757320
2026-01-14 16:52:46.831,-549838,8,14098110,-23104400,-7201405,5731201,-2944336,-29621120
2026-01-14 16:52:46.841,-546387,8,-26171240,-63649970,-7210039,3793335,-3383789,-8618164
2026-01-14 16:52:46.851,-543796,5,14382100,-23338320,-7219532,-46875,-35595700,-19274900
2026-01-14 16:52:46.861,-35515890,-2566195,-6364132,-42203710,-18103030,-38330080,-24267580
2026-01-14 16:52:46.871,29609230,14667810,-23570510,-37389820,-24865720,-34838870,-26416020
2026-01-14 16:52:46.881,-5386172,-25100910,-63615440,-72506060,-40527340,-37036130,-27661130
2026-01-14 16:52:46.891,29720580,-24824700,-63598180,-37520160,-4946289,-34350580,-27685550
2026-01-14 16:52:46.901,-5368900,15110610,-23921820,-72747760,-66259770,-25585940,-3527832
2026-01-14 16:52:46.911,29838830,-24246370,-63537760,-37660860,-875,-16015630,-42016600
2026-01-14 16:52:46.921,29901850,15419630,-24165240,-37735960,-9975586,-15917970,-4975586
2026-01-14 16:52:46.931,29965720,-2360762,-6350325,-37810180,-11240230,-16442870,-71728510
2026-01-14 16:52:46.941,-5291216,-2325370,-6349460,-73239760,-1234375,-14746090,-87060540
2026-01-14 16:52:46.951,-5230792,-41134240,-45199760,-73369230,-12539060,-3302002,-10830080
2026-01-14 16:52:46.961,-5144476,16266390,-24854910,-73507340,-11982420,22009280,-11660160
2026-01-14 16:52:46.971,-4997744,-21864030,-63520490,-73654080,-11142580,5810547,-12314450
2026-01-14 16:52:46.981,-4825104,16880100,-25363310,-73826710,-95703130,8618164,-12490230
2026-01-14 16:52:46.991,-461794,8,-2069012,-6355502,-7399935,-64501950,10019530,-11123050
2026-01-14 16:52:47.001,3096095,-2006001,-6356365,-3881751,-22338870,11074220,-7470703
2026-01-14 16:52:47.011,-416046,8,1792195,-2622044,-7435325,17822270,10908200,-46142580
2026-01-14 16:52:47.021,-393607,5,-18808420,-63572280,-7452589,47729490,8227539,-22436520
2026-01-14 16:52:47.031,-3564885,-18212830,-63580910,-4274406,6484375,40527340,37872310
2026-01-14 16:52:47.041,-3495828,18916320,-27038720,-74810720,7998047,17044070,21643070
2026-01-14 16:52:47.051,-329730,5,-1709934,-6362407,-7492294,89404300,-27319340,36816410
2026-01-14 16:52:47.061,-35464100,19525710,-27551440,-42652560,97753900,-5205078,3959961
2026-01-14 16:52:47.071,32163350,-3754000,-4230299,-39962930,95166020,-7207031,2512207
2026-01-14 16:52:47.081,-35303550,20108350,-28056390,-42536890,94433590,-9448242,1899414
2026-01-14 16:52:47.091,-35199110,20383700,-28298940,-42451440,9838867,-10175780,17114260
2026-01-14 16:52:47.101,-35078260,-1484646,-6404701,-42347860,98339840,-97509770,34765620
2026-01-14 16:52:47.111,32584570,20907640,-28776280,-40301290,95654300,-9580078,5239258
2026-01-14 16:52:47.121,-192487,8,21130340,-28985160,-7496609,9711914,-11552730,77783200
2026-01-14 16:52:47.131,-34624240,-1398329,-6451312,-41938720,9926758,-12353520,8515625
2026-01-14 16:52:47.141,-1484652,-13819310,-64711660,-74715780,10644530,-13134770,81640620
2026-01-14 16:52:47.151,-1277488,-1372433,-6496198,-74525870,9790039,-13837890,6616211
2026-01-14 16:52:47.161,32847840,21837270,-29728350,-40383290,10371090,-12939450,38134770
2026-01-14 16:52:47.171,32846970,-13672570,-65566200,-40332360,11503910,-10615230,107421900
2026-01-14 16:52:47.181,-604216,22138520,-30100370,-73679980,11728520,-9614258,-17480470
2026-01-14 16:52:47.191,-3714,5,-13750260,-66351680,-732916,1,11259770,-8305664,-33398440
2026-01-14 16:52:47.201,-12949,22439760,-30506930,-7285996,12304690,-31176760,-56103520
2026-01-14 16:52:47.211,-32525880,-1402646,-6728389,-39773030,12265630,109069800,-7319336
2026-01-14 16:52:47.221,29344,75,-14225000,-67793170,-7186733,12167970,39282230,-11542970
2026-01-14 16:52:47.231,-31805130,22839410,-31108550,-38991860,13701170,76660160,-18554690
2026-01-14 16:52:47.241,-31385630,23040530,-31373540,-38548190,13925780,12050780,-19238280
2026-01-14 16:52:47.251,-30947150,-14509840,-69424560,-38088990,13994140,15810550,-19414060
2026-01-14 16:52:47.261,1579596,23491970,-31940650,-69683500,14619140,19277340,-17255860
2026-01-14 16:52:47.271,2002552,23724160,-32226360,-69139710,14501950,20527340,-13994140
2026-01-14 16:52:47.281,2442764,-3994650,-4559337,-68595920,14833980,19384770,-11533200
2026-01-14 16:52:47.291,-29026600,-14544370,-71496160,-36125290,15556640,17802730,-10478520
2026-01-14 16:52:47.301,340087,8,-1456163,-7196227,-6753422,14921880,14541020,-92871100
2026-01-14 16:52:47.311,35143430,-1457025,-7243703,-35774410,1453125,10498050,-9667969
2026-01-14 16:52:47.321,4445314,24784130,-33531470,-66472530,14208980,7441406,-72216800
2026-01-14 16:52:47.331,-26905790,24976610,-33770560,-33999300,13427730,28320310,-826416
2026-01-14 16:52:47.341,5601954,25158740,-34002750,-65367670,12871090,12670900,30639650
2026-01-14 16:52:47.351,-25746560,25305480,-34201280,-32845240,12099610,25683590,7631836
2026-01-14 16:52:47.361,-25141480,-14855110,-74672620,-32241890,10458980,18762210,10224610
2026-01-14 16:52:47.371,-24528630,25513500,-34528420,-31629040,10419920,40283200,12333980
2026-01-14 16:52:47.381,8027454,29653080,-30561480,-62942170,91308590,46972660,11699220
2026-01-14 16:52:47.391,8640302,-15623330,-75941470,-62277540,79003900,4987793,8881836
2026-01-14 16:52:47.401,32807260,-15968600,-76355790,-38041520,8276367,46313480,39672850
2026-01-14 16:52:47.411,9866008,-1633974,-7676149,-60879200,609375,4555664,-690918
2026-01-14 16:52:47.421,10522010,25535080,-34921160,-60171410,2993164,5366211,-5854492
2026-01-14 16:52:47.431,11212540,-1706480,-7753834,-59463600,-22140500,8803711,-6098633
2026-01-14 16:52:47.441,-23400470,25463440,-34992810,-23400470,-4248047,12353520,-37036130
2026-01-14 16:52:47.451,-19127790,29713590,-30673600,-26205760,-7163086,14433590,-36547850
2026-01-14 16:52:47.461,13499940,25298580,-34967770,-57366110,-9082031,12851560,-75390620
2026-01-14 16:52:47.471,33364870,-1860988,-7873816,-37604750,-9267578,12333980,-10966800
2026-01-14 16:52:47.481,15088160,-19015570,-78988450,-56002300,-9116211,11181640,-134375
2026-01-14 16:52:47.491,15899540,24968850,-34831400,-55311770,-10087890,9785156,-16113280
2026-01-14 16:52:47.501,16702290,24853180,-34774430,-54629860,-9741211,87841800,-19462890
2026-01-14 16:52:47.511,17530930,24738380,-34716590,-53956600,-10791020,70703130,-21953120
2026-01-14 16:52:47.521,18368200,-2052610,-7977394,-53291960,-14326170,8105469,-2171875
2026-01-14 16:52:47.531,-13133960,24481160,-34559500,-20322410,-16650390,7949219,-21738280
2026-01-14 16:52:47.541,20060010,-47668420,-53546590,-52066260,-17949220,6298828,-20683590
2026-01-14 16:52:47.551,-11684700,-21544660,-80067410,-18923220,-18847660,5102539,-22871090
2026-01-14 16:52:47.561,21708660,-48074110,-53900500,-50952780,-18701170,30078120,-2515625
2026-01-14 16:52:47.571,2252866,23879530,-34108060,-5044350,-20,1932373,-27011720
2026-01-14 16:52:47.581,-9661433,-2238192,-8012783,-16993180,-20917970,-1138916,-27792970
2026-01-14 16:52:47.591,-9039090,-2258909,-8009330,-16407090,-20136720,-5214844,-26132810
2026-01-14 16:52:47.601,36908350,-2277035,-8005017,-37151420,-19648440,-80078130,-24824220
2026-01-14 16:52:47.611,-7896260,-22899830,-79989730,-15340210,-18535160,-11044920,-25605470
2026-01-14 16:52:47.621,-7367136,23302930,-33597070,-14850800,-19199220,-14492190,-25605470
2026-01-14 16:52:47.631,-6871678,23216620,-33510750,-14396770,-18759770,-16953120,-26113280
2026-01-14 16:52:47.641,27655880,-23167410,-79722140,-48026640,-19199220,-16796880,-25507810
2026-01-14 16:52:47.651,-596536,5,23068150,-33348470,-1357675,-21191410,-17675780,-23632810
2026-01-14 16:52:47.661,28881580,22996510,-33264750,-47681370,-24824220,-15957030,-23789060
2026-01-14 16:52:47.671,-5227343,-2320194,-7932509,-12933700,-28046880,-14248050,-20566410
2026-01-14 16:52:47.681,-4926098,22858400,-33092110,-12682520,-30175780,-12451170,-19072270
2026-01-14 16:52:47.691,3041799,-23201940,-78945300,-4762960,-28496090,-15615230,-2234375
2026-01-14 16:52:47.701,30780550,-23167410,-78738130,-47750420,-23457030,-19033200,-30097660
2026-01-14 16:52:47.711,-44746600,-23063830,-78548230,-123743700,-17509770,-20761720,-33984380
2026-01-14 16:52:47.721,-80100210,-47860040,-53406760,-88044800,-11230470,-21191410,-34375
2026-01-14 16:52:47.731,-80339310,-22701300,-78220220,-88323610,-513916,-22832030,-39492190
2026-01-14 16:52:47.741,31635080,-2244233,-7809941,-48587690,17407230,-24550780,-43945310
2026-01-14 16:52:47.751,-4498830,22954210,-32961780,-12557360,-36224360,-16083980,-49101560
2026-01-14 16:52:47.761,-4510052,23164820,-33113690,-12615190,-6035156,-17138670,-42148440
2026-01-14 16:52:47.771,39941350,23397880,-33277700,-41662500,-11298830,10976560,-28789060
2026-01-14 16:52:47.781,-82896020,-2050019,-7753829,-91118540,-12353520,14755860,-18486330
2026-01-14 16:52:47.791,-4686137,28686830,-28696550,-12974270,-81933590,14160160,-11044920
2026-01-14 16:52:47.801,32774470,24034900,-33676480,-50762880,53771970,9902344,-2541504
2026-01-14 16:52:47.811,32938460,-18748000,-76821900,-51237620,62597660,8833008,71435540
2026-01-14 16:52:47.821,33111100,-18117880,-76588850,-51703730,10664060,11494140,225
2026-01-14 16:52:47.831,33309630,-1749638,-7634717,-52143940,11435550,12460940,42226560
2026-01-14 16:52:47.841,-5197995,-1690081,-7609684,-13808950,10478520,14902340,6359375
2026-01-14 16:52:47.851,-5216988,-16374290,-75829260,-13893550,8984375,16191410,86328130
2026-01-14 16:52:47.861,-5211807,25212260,-34363560,-13950510,8339844,20214840,103125
2026-01-14 16:52:47.871,34388580,-15701020,-75276830,-53568170,8964844,18769530,115703100
2026-01-14 16:52:47.881,3465616,25170830,-34232360,-5378395,11240230,17177730,11859380
2026-01-14 16:52:47.891,34923760,25024950,-34067490,-53947960,14326170,16474610,1165625
2026-01-14 16:52:47.901,-4964940,24800530,-33843070,-13886640,17880860,15185550,1096875
2026-01-14 16:52:47.911,-4813023,-1622755,-7431872,-13762340,21855470,12216800,996875
2026-01-14 16:52:47.921,-4619673,-4510672,-4568124,-13593160,26796880,11992190,909375
2026-01-14 16:52:47.931,-4377987,-42737140,-48413340,-13368740,30566410,11201170,81796870
2026-01-14 16:52:47.941,-4096594,-1777261,-7382671,-13097700,32832030,10703130,69882820
2026-01-14 16:52:47.951,44194180,23059520,-32269520,-45851460,34101560,10302730,59726560
2026-01-14 16:52:47.961,-3429367,-43596000,-49056400,-12435660,34609380,81396480,51054690
2026-01-14 16:52:47.971,-3051298,22278350,-31600560,-12054130,3515625,49975580,44570310
2026-01-14 16:52:47.981,-2649926,21921000,-31301900,-11644130,34824220,-5444336,37871100
2026-01-14 16:52:47.991,44239060,-20914550,-73498700,-45582150,3375,-16271970,31308590
2026-01-14 16:52:48.001,38549060,21255500,-30758970,-51082250,31269530,-3137207,26738280
2026-01-14 16:52:48.011,38894330,-2209706,-7355915,-50512560,28691410,-7451172,21933590
2026-01-14 16:52:48.021,-53070730,20674590,-30304080,-53962030,28320310,-9711914,15576170
2026-01-14 16:52:48.031,-454892,5,-23184680,-73731760,-9333431,24179690,-12412110,11347660
2026-01-14 16:52:48.041,-25034,-46268360,-51286820,-8865595,19101560,-14580080,50097660
2026-01-14 16:52:48.051,-35652270,-24160060,-74016610,-44449670,16484380,-15234380,10437010
2026-01-14 16:52:48.061,785482,5,-4691056,-5187032,-7967036,11992190,-15673830,-8074951
2026-01-14 16:52:48.071,-27671420,-2499731,-7437049,-36375600,7792969,-178125,-13378910
2026-01-14 16:52:48.081,14509840,19593900,-29589380,-71996800,6064453,-20195310,-46655270
2026-01-14 16:52:48.091,-25465340,19495500,-29549670,-26324710,2709961,-23007810,-8095703
2026-01-14 16:52:48.101,-19210660,19432490,-29543630,-27745650,55541990,-26425780,-13398440
2026-01-14 16:52:48.111,-17429080,-2635250,-7531135,-25901930,-1817627,-27890620,-18779300
2026-01-14 16:52:48.121,-16080810,19396240,-29614410,-24488060,-6582031,-26484380,-22910160
2026-01-14 16:52:48.131,22114350,-2677543,-7590696,-61302150,-11777340,-24941410,-28574220
2026-01-14 16:52:48.141,-19266500,-49100420,-54030830,-20093940,-16542970,-24550780,-33808590
2026-01-14 16:52:48.151,-16438160,-26999880,-76528420,-24648610,-21464840,-23476560,-34921880
2026-01-14 16:52:48.161,1829051,19717330,-30104690,-6317522,-23320310,-25214840,-3484375
2026-01-14 16:52:48.171,1530393,-26999870,-77167170,-6554032,-23398440,-28554690,-34726560
2026-01-14 16:52:48.181,-24646880,-2691354,-7751242,-32667440,-21191410,-30585940,-37226560
2026-01-14 16:52:48.191,698302,5,2032846,-3078832,-7258375,-22617190,-29257810,-40546880
2026-01-14 16:52:48.201,2002548,20633160,-31105100,-76925490,-25351560,-22753910,-41523440
2026-01-14 16:52:48.211,-42162540,-26171240,-78582770,-42945780,-278125,-10996090,-37285160
2026-01-14 16:52:48.221,-44450540,21322830,-31796500,-52224220,-3375,-35308840,-27402340
2026-01-14 16:52:48.231,33119730,-2543753,-7923016,-44064700,-33164060,44580080,-18466800
2026-01-14 16:52:48.241,3216159,-25083640,-79497710,-4448767,-2796875,31713870,-10839840
2026-01-14 16:52:48.251,-3090142,-49487980,-54989810,-10703280,-21582030,10635380,-1027832
2026-01-14 16:52:48.261,-38497280,-24393110,-79963820,-114110700,-15507810,-14001470,79248050
2026-01-14 16:52:48.271,-4591188,-2403921,-8016236,-12102470,-10742190,61462400,19091800
2026-01-14 16:52:48.281,36422210,23109580,-33514210,-38224510,-8046875,4790039,34296880
2026-01-14 16:52:48.291,-5923056,-2343499,-8047310,-13342840,-5649414,11601560,465625
2026-01-14 16:52:48.301,26689130,-23227840,-80593940,-47077150,-29125980,19023440,55664060
2026-01-14 16:52:48.311,-7034815,-2310699,-8068026,-14371740,-10913090,2671875,628125
2026-01-14 16:52:48.321,25325330,23637840,-34021740,-47629580,12817380,34082030,6375
2026-01-14 16:52:48.331,-7929058,23605040,-34002760,-15186570,3959961,39941410,61210940
2026-01-14 16:52:48.341,24194580,-23374570,-80792460,-48000740,5854492,41953120,56484380
2026-01-14 16:52:48.351,-8604918,23348680,-33793000,-15788200,8100586,43945310,50273440
2026-01-14 16:52:48.361,23296890,-2400466,-8076659,-48190640,10371090,41289060,46289060
2026-01-14 16:52:48.371,-9086566,-24401750,-80714790,-16204240,12714840,36484380,41796880
2026-01-14 16:52:48.381,2264948,-24850590,-80663000,-4823381,14755860,30820310,36289060
2026-01-14 16:52:48.391,22442350,-5021043,-5573473,-48182010,16669920,25371090,31835940
2026-01-14 16:52:48.401,-9368821,21997820,-32640680,-16405360,17919920,20195310,26015620
2026-01-14 16:52:48.411,22226560,21644790,-32337710,-47914420,18613280,15273440,18554690
2026-01-14 16:52:48.421,22235190,21281390,-32027830,-47681370,17822270,12304690,11044920
2026-01-14 16:52:48.431,-904688,3,-51377450,-56639320,-1601955,16337890,10097660,37329100
