Timestamp,Rotation X,Rotation Y,Rotation Z,Rotation W,Acceleration X,Acceleration Y,Acceleration Z
2026-01-14 16:52:35.011,-4987382,1677998,-7364544,-14019570,4196167,12158200,15792850
2026-01-14 16:52:35.021,-4988246,-23920100,-32962640,-14018700,5206299,11987310,-20889280
2026-01-14 16:52:35.031,35640180,16779970,-73662700,-54647130,793457,14758300,-5328369
2026-01-14 16:52:35.041,35631550,42386700,-48073250,-54638500,85632320,15478520,-7678223
2026-01-14 16:52:35.051,35622920,-23900240,-32947960,-54647140,76171870,13696290,-803833
2026-01-14 16:52:35.061,-4999468,42415180,-48096550,-14024740,524292,101867700,-340271
2026-01-14 16:52:35.071,-4999467,-23871760,-32924660,-14024750,57281500,32226560,-19042970
2026-01-14 16:52:35.081,-5000331,42443670,-48119860,-14023880,68725580,-31013490,-1259613
2026-01-14 16:52:35.091,-5000331,-27910690,-28816670,-14023880,5267334,-36865230,-1473999
2026-01-14 16:52:35.101,35605660,1696127,-7365409,-54612600,72631840,-491333,20019530
2026-01-14 16:52:35.111,35614290,-23796660,-32861650,-54603970,6317139,-7269287,14122010
2026-01-14 16:52:35.121,35622910,17030300,-73654080,-54595340,71777340,-4586792,44898990
2026-01-14 16:52:35.131,-4958899,-23758680,-32830570,-13979000,7141113,-38146970,14968870
2026-01-14 16:52:35.141,-4950267,-23730200,-32807270,-13970370,7397461,-62805180,-5958557
2026-01-14 16:52:35.151,-4933869,17151140,-73654080,-13952240,97961420,-42175290,-15296940
2026-01-14 16:52:35.161,35657450,45146160,-45710840,-54509020,6573486,51208500,-1461792
2026-01-14 16:52:35.171,35674710,-23672360,-32761520,-54491760,54595950,35461420,10055540
2026-01-14 16:52:35.181,-4875172,42643060,-48283000,-13890090,49621580,-14984130,2609253
2026-01-14 16:52:35.191,35717870,-23635250,-32729580,-54448600,881958,-11959080,4953003
2026-01-14 16:52:35.201,35735130,17323770,-73654080,-54431340,-9605408,46661380,6542969
2026-01-14 16:52:35.211,35752400,1734969,-7364546,-54414080,636,5776,45288090,29281620
2026-01-14 16:52:35.221,-4813024,-23580010,-32681250,-13831400,28045650,51727300,29083250
2026-01-14 16:52:35.231,3578690,45233690,-45795950,-5439679,3375244,68115230,21377560
2026-01-14 16:52:35.241,-4787129,-23542890,-32649310,-13805500,6036377,5596924,8773804
2026-01-14 16:52:35.251,-4769867,17461880,-73619550,-13788240,5517578,31234740,8880615
2026-01-14 16:52:35.261,-4760371,42743190,-48355500,-13780470,31982420,27526860,13496400
2026-01-14 16:52:35.271,-4760371,-23479880,-32591480,-13780470,13465880,16311650,11894230
2026-01-14 16:52:35.281,35847340,-23461750,-32575080,-54370920,15625,33081060,2116394
2026-01-14 16:52:35.291,35847340,42775130,-48375360,-54370920,-33168790,53009030,12107850
2026-01-14 16:52:35.301,-4741381,-23416870,-32533640,-13764930,15686040,110321000,-14076230
2026-01-14 16:52:35.311,-4740517,-23398740,-32517240,-13765800,35888670,-29129030,-20656590
2026-01-14 16:52:35.321,44210580,1765180,-7353326,-46059480,3173828,-8598328,1543,76
2026-01-14 16:52:35.331,44210570,17677670,-73524600,-46059480,17227170,-9017944,-26340480
2026-01-14 16:52:35.341,44219200,17694930,-73507340,-46068110,8783,341,-14953610,-44555660
2026-01-14 16:52:35.351,-4720665,17720830,-73498710,-13751120,19805910,-64849860,6980896
2026-01-14 16:52:35.361,-4720664,-23309840,-32433520,-13751120,13931270,20477300,15975950
2026-01-14 16:52:35.371,-4719801,-23301200,-32424880,-13751980,24909970,36590580,12031560
2026-01-14 16:52:35.381,35933660,-23283940,-32407620,-54405440,-16159060,27923580,5908966
2026-01-14 16:52:35.391,-8784109,1779852,-7345555,-9687673,-21331790,8911133,-76522820
2026-01-14 16:52:35.401,-8784112,17833040,-73438290,-9687672,16540530,29220580,-4434204
2026-01-14 16:52:35.411,-472671,9,-23220930,-32349790,-1376235,4421997,19989010,-33843990
2026-01-14 16:52:35.421,3594228,-23194170,-32324760,-5443135,41137700,3358841,-74401860
2026-01-14 16:52:35.431,3594226,17919360,-73403760,-5443133,6738281,-28442380,-7861328
2026-01-14 16:52:35.441,3594228,-23148420,-32284190,-5443135,6781006,-5065918,-8502197
2026-01-14 16:52:35.451,3594226,18005670,-73386500,-5443133,847168,-21072390,-12634280
2026-01-14 16:52:35.461,-4717211,-23094050,-32234990,-13754570,1161499,-50201420,-15014650
2026-01-14 16:52:35.471,35968180,18083360,-73360600,-54422710,13757320,-7080078,-18579100
2026-01-14 16:52:35.481,-4689590,-23030170,-32178020,-13730400,15478520,-9686279,-18920900
2026-01-14 16:52:35.491,-4671464,-23002550,-32153850,-13714010,16064450,-48950200,-2121582
2026-01-14 16:52:35.501,44305520,43020270,-48527280,-46137160,13806150,-29830930,-1862793
2026-01-14 16:52:35.511,36106290,18281890,-73282920,-54353650,17126460,-57922360,-21533200
2026-01-14 16:52:35.521,-4555800,-22877390,-32037320,-13605250,27270510,-34423830,-3005371
2026-01-14 16:52:35.531,-4501419,1840274,-7323112,-13556050,33374020,-15112310,-3540039
2026-01-14 16:52:35.541,-4439270,1848042,-7320522,-13497350,40625,-17565920,-38452150
2026-01-14 16:52:35.551,36425660,43138520,-48598920,-54206910,4243164,-1005249,-4267578
2026-01-14 16:52:35.561,-4260598,18661680,-73127540,-13330760,44140620,-15563970,-41748050
2026-01-14 16:52:35.571,-82296110,43213620,-48644660,-91373180,44140620,-1940918,-38671880
2026-01-14 16:52:35.581,36865880,18877470,-73032590,-53991120,38330080,-14123540,-38110350
2026-01-14 16:52:35.591,-79610800,18989690,-72972180,-88706860,38500980,-1484375,-37573240
2026-01-14 16:52:35.601,37280200,19127790,-72903120,-53801220,3972168,-14208980,-38134770
2026-01-14 16:52:35.611,37513250,19257270,-72825440,-53689010,39868160,-6726074,-39453120
2026-01-14 16:52:35.621,-78609440,19395380,-72739120,-79522840,36376950,20767210,-42358400
2026-01-14 16:52:35.631,38031150,19542120,-72644180,-53464590,296875,60302740,-40893560
2026-01-14 16:52:35.641,38324630,19714750,-72540590,-53343740,27416990,103393600,-3701172
2026-01-14 16:52:35.651,-27189780,19887380,-72419740,-119030800,22387700,1217041,-30249020
2026-01-14 16:52:35.661,38911590,2006867,-7229029,-53119320,17663570,83862300,-20996090
2026-01-14 16:52:35.671,-2277037,-21326280,-30567350,-11499120,1640625,-35949710,-1071167
2026-01-14 16:52:35.681,-2043118,2043981,-7202269,-11284190,18725590,-118896500,-6781006
2026-01-14 16:52:35.691,39861070,-21001730,-30253160,-52739530,18188480,-10687260,-6561279
2026-01-14 16:52:35.701,-57422210,-20834270,-30092600,-66701260,23254400,-15136720,-8117676
2026-01-14 16:52:35.711,-54995850,-20659050,-29922560,-64293890,23779300,-113098100,-9088135
2026-01-14 16:52:35.721,-1064286,2123393,-7147027,-10381320,31054690,-11920170,-14770510
2026-01-14 16:52:35.731,-796705,5,43892060,-48881170,-10130990,4333496,-22192380,-2434082
2026-01-14 16:52:35.741,41570140,21665510,-71176790,-51962680,48046880,-13647460,-3334961
2026-01-14 16:52:35.751,41941310,-19910680,-29203550,-51764160,4501953,-77209470,-31982420
2026-01-14 16:52:35.761,76818,5,22157510,-70857420,-9312712,39672850,-3652954,-25097660
2026-01-14 16:52:35.771,-38366930,2241648,-7068476,-47777180,41088870,-88012700,-21984860
2026-01-14 16:52:35.781,7267864,22684050,-70503520,-87024540,36791990,-97351070,-16894530
2026-01-14 16:52:35.791,10660120,-19012990,-28340380,-83856720,296875,-8416748,-10308840
2026-01-14 16:52:35.801,4703053,-18776480,-28110770,-4769346,21813960,-25375370,-66833500
2026-01-14 16:52:35.811,-24859220,4437718,-4901754,-34354060,12841800,28778080,7678223
2026-01-14 16:52:35.821,-21394470,-18287930,-27632580,-30913480,46295170,74646000,11071780
2026-01-14 16:52:35.831,-17844260,24021950,-69459080,-27385710,-41748050,10424810,18896480
2026-01-14 16:52:35.841,2866579,2428090,-6923466,-6699043,-11224370,11364750,23278810
2026-01-14 16:52:35.851,-11001940,24539850,-68992980,-20590000,-14685060,13378910,23913570
2026-01-14 16:52:35.861,-7710675,-1730736,-2666238,-17321180,-20153810,19018560,24133300
2026-01-14 16:52:35.871,38842530,-17064820,-26421560,-57486950,-27734380,2199707,24987790
2026-01-14 16:52:35.881,-1474293,25290810,-68293810,-11127950,-3161621,19128420,2322998
2026-01-14 16:52:35.891,45005540,25532500,-68052120,-51738250,-3383789,17626950,25708010
2026-01-14 16:52:35.901,4847028,25756920,-67827700,-4848066,-36938480,18371580,2775879
2026-01-14 16:52:35.911,24710760,25981340,-67603270,14994950,-4423828,17443850,27490230
2026-01-14 16:52:35.921,49751240,26197130,-67387490,40018170,-45166020,11010740,25170900
2026-01-14 16:52:35.931,11781370,-15709650,-25066380,2029306,-45532230,6976318,25317380
2026-01-14 16:52:35.941,14034240,-19721740,-20657240,4264910,-49804690,892334,23791500
2026-01-14 16:52:35.951,50046440,26758190,-66774640,-47802210,-4946289,12768560,20861820
2026-01-14 16:52:35.961,62208470,2692221,-6657613,-35795550,-52246100,14465330,1697998
2026-01-14 16:52:35.971,19927080,27077560,-66403470,10111140,-5258789,16235350,16894530
2026-01-14 16:52:35.981,50814660,2722432,-6623949,-47482840,-51904300,11767580,1496582
2026-01-14 16:52:35.991,67335690,44778540,-48650710,-31082660,-53027340,8728027,1394043
2026-01-14 16:52:36.001,51220360,44783720,-48628270,-47318840,-4814453,847168,10211180
2026-01-14 16:52:36.011,70132350,-14424390,-23762140,-28527690,-44873050,7116699,51086420
2026-01-14 16:52:36.021,51574250,27707680,-65652520,-47189360,-42358400,6463623,5053711
2026-01-14 16:52:36.031,27902750,-14193070,-23527360,18017760,-37182620,9442139,11558530
2026-01-14 16:52:36.041,73386500,-14081710,-23414280,-25567020,-33520510,80200190,-39154050
2026-01-14 16:52:36.051,7429279,28009780,-65298620,-2474700,-2932129,58685300,-41778560
2026-01-14 16:52:36.061,75199140,28113360,-65177780,-23927000,-29858400,43182370,-4421997
2026-01-14 16:52:36.071,31287230,2819967,-6507421,21365980,-26538090,31051640,-4309082
2026-01-14 16:52:36.081,76657900,2828601,-6497065,-22623620,-26635740,19638060,-18508910
2026-01-14 16:52:36.091,52446050,28372310,-64867040,-46904510,-20361330,-1600647,-9109497
2026-01-14 16:52:36.101,28895390,-13491310,-22813520,27901020,-15478520,60195920,-12123110
2026-01-14 16:52:36.111,33977720,-13405860,-22726340,24027130,-9881592,-27023320,-26763920
2026-01-14 16:52:36.121,79480460,28614000,-64573560,-20094540,-8215332,-10321050,13587950
2026-01-14 16:52:36.131,52851740,28691690,-64495880,-46792300,-6427002,-27023320,-25024410
2026-01-14 16:52:36.141,80835630,-13157260,-22474290,-18860210,-9118652,21194460,-56854250
2026-01-14 16:52:36.151,81474380,2883843,-6431464,-18290510,-12805180,-32287600,-6099701
2026-01-14 16:52:36.161,82190800,28907480,-64228300,-17625880,-16455080,-17440800,-1376152
2026-01-14 16:52:36.171,53222900,44808750,-48327020,-46645570,-17822270,3375244,5115509
2026-01-14 16:52:36.181,53317850,29045590,-64072920,-46619670,-16101070,21499630,-8804321
2026-01-14 16:52:36.191,84089780,2910601,-6399527,-15899550,-119262700,17532350,-2897644
2026-01-14 16:52:36.201,84633570,-12721360,-22029760,-15407540,-1159668,50323490,-35827640
2026-01-14 16:52:36.211,40135560,29226850,-63839860,30126270,-107055700,6329346,-50842280
2026-01-14 16:52:36.221,8572115,-16772210,-17702700,-1442354,-90148930,10772710,-55755620
2026-01-14 16:52:36.231,8617863,-16703150,-17633650,-1401785,-6964111,94177250,-31234740
2026-01-14 16:52:36.241,41524400,-12447740,-21750960,31499570,-8074951,66223140,-35491940
2026-01-14 16:52:36.251,41958570,-12378690,-21681900,31928570,-9954834,52246100,-12863160
2026-01-14 16:52:36.261,42306420,29546220,-63468700,32271250,-11029050,23834230,110321000
2026-01-14 16:52:36.271,87913600,44818240,-48196680,-12472770,-77819820,-51460260,2178955
2026-01-14 16:52:36.281,43087590,29675690,-63339230,33043780,-52459720,11987690,16220090
2026-01-14 16:52:36.291,8864727,29736120,-63278800,-1182538,-9529114,9117126,-70343020
2026-01-14 16:52:36.301,8900117,29805170,-63209750,-1148875,6038666,30822750,-39031980
2026-01-14 16:52:36.311,8936372,-11990260,-21293480,-1116076,26107790,-17440800,-23239140
2026-01-14 16:52:36.321,44560160,-16116200,-17046700,34505980,3253174,-48828120,-23513790
2026-01-14 16:52:36.331,90166460,-16047150,-16977650,-10409800,32073980,3375244,-51361080
2026-01-14 16:52:36.341,45253280,30081380,-62985330,35193930,18356320,7733154,-6427002
2026-01-14 16:52:36.351,45685720,-11728720,-21037120,35624640,33599860,-6311035,-30639650
2026-01-14 16:52:36.361,9140942,-11667430,-20977560,-923589,6,67993170,-81970220,-1197052
2026-01-14 16:52:36.371,4663777,30297180,-62821330,3657155,60943600,-6774902,-44006350
2026-01-14 16:52:36.381,92462500,30366230,-62769540,-8217354,84228510,-5822754,-12664800
2026-01-14 16:52:36.391,92980400,30426650,-62709120,-7699454,103515600,-52124020,-15007020
2026-01-14 16:52:36.401,93593250,-11423160,-20738470,-7103872,8843994,-38604740,-27359010
2026-01-14 16:52:36.411,9411978,3056476,-6260554,-659459,8,7507324,9162903,-27130130
2026-01-14 16:52:36.421,9473260,30633820,-62553740,-599899,9,9881592,-11892320,-17700200
2026-01-14 16:52:36.431,54871550,-11230670,-20551150,-45877350,10687260,33599860,-28900150
2026-01-14 16:52:36.441,50699870,-11169390,-20491600,40623250,10974120,5987549,-28152470
2026-01-14 16:52:36.451,9665746,30858230,-62381110,-412592,5,8282471,99121100,-1927185
2026-01-14 16:52:36.461,55087350,-11020920,-20346590,-45713350,5960083,1295166,-14831540
2026-01-14 16:52:36.471,9796950,3102224,-6225164,-284844,8,7159424,10229490,3729248
2026-01-14 16:52:36.481,53292820,-10873320,-20200710,43209300,20629880,8868408,45532230
2026-01-14 16:52:36.491,50923420,31186240,-62104900,-49946320,-7194519,72387700,62408450
2026-01-14 16:52:36.501,9990298,45107400,-48183730,-98398,96,-24490360,13354490,50842280
2026-01-14 16:52:36.511,55467140,45124670,-48183740,-45454390,-44128420,17858890,47424320
2026-01-14 16:52:36.521,5553619,-10551360,-19883920,-4541988,-6964111,15905760,7299805
2026-01-14 16:52:36.531,101586200,-10464180,-19798480,612848,2,-16342160,13574220,78125
2026-01-14 16:52:36.541,10203500,31635090,-61725100,102719,2999878,6915283,4864502
2026-01-14 16:52:36.551,55708820,-10289820,-19627570,-45316290,4034424,-16586300,61523440
2026-01-14 16:52:36.561,55769240,31833620,-61578370,-45273130,68603520,-36743160,52734380
2026-01-14 16:52:36.571,5582101,31928560,-61500680,-4523859,41992190,-5545044,1096344
2026-01-14 16:52:36.581,10379590,-10017920,-19364300,271897,2,35705570,21839140,-16357420
2026-01-14 16:52:36.591,104236100,32135720,-61345320,3141930,-3919,601,55908200,-11024480
2026-01-14 16:52:36.601,59004400,-9843564,-19193390,48891530,-58258060,89538580,-15670780
2026-01-14 16:52:36.611,56002300,-9765012,-19116570,-45143650,-5987549,4425049,-8476257
2026-01-14 16:52:36.621,10514240,-9678696,-19030250,396193,7,-8154297,50048830,-18829350
2026-01-14 16:52:36.631,56079980,45338740,-48194100,-45135020,-13781740,6317139,43296820
2026-01-14 16:52:36.641,10552220,32558680,-60974150,427269,5,-10668950,27893070,44136050
2026-01-14 16:52:36.651,10563440,45353410,-48179420,433312,-4916382,1243,353,-15172960
2026-01-14 16:52:36.661,56166300,32705420,-60827410,-45152280,14427190,-3503418,-7873535
2026-01-14 16:52:36.671,5122896,32765840,-60766990,-5012412,8117676,-48614500,-2796936
2026-01-14 16:52:36.681,56226720,32834890,-60697940,-45160920,10696410,-7156372,-29174800
2026-01-14 16:52:36.691,10604010,-13403350,-14338850,461794,3314209,21255490,-5050659
2026-01-14 16:52:36.701,56261250,-913315,5,-1848821,-45178180,9346008,-5480957,-16922000
2026-01-14 16:52:36.711,10623860,-13282510,-14218010,476467,5,-15392300,-59326170,-60806270
2026-01-14 16:52:36.721,56313040,-13230720,-14166220,-45195450,-32684330,4815674,-6500244
2026-01-14 16:52:36.731,10635090,-896054,3,-1831556,482510,5,-4055786,-116119400,-47088620
2026-01-14 16:52:36.741,10635950,-8916520,-18273250,481646,7,-64453120,-17745970,-14015200
2026-01-14 16:52:36.751,10637670,-8864730,-18221460,479920,7,-9295654,43029780,-37963870
2026-01-14 16:52:36.761,10638540,3329237,-6027499,479057,7,-6201172,12840270,-35858150
2026-01-14 16:52:36.771,10631630,-8769782,-18126520,468699,7,-8312988,-1737976,-4626465
2026-01-14 16:52:36.781,5592358,3337868,-6018867,5490712,-83618160,-17211910,-56396480
2026-01-14 16:52:36.791,10616100,-8692096,-18048830,449709,7,-597229,38848880,-81726070
2026-01-14 16:52:36.801,56356200,-8648936,-18005670,-45324920,-50231940,51361080,-8337402
2026-01-14 16:52:36.811,10583290,33499530,-60085090,413458,5,-31143190,9925842,-7519531
2026-01-14 16:52:36.821,10566890,33542690,-60041930,395332,5,-27404780,-29678340,-6536865
2026-01-14 16:52:36.831,56330300,33577220,-60007400,-45402600,-56610110,-53619380,-7366943
2026-01-14 16:52:36.841,10534090,33611740,-59990140,359079,5,-491333,-2734375,-6878662
2026-01-14 16:52:36.851,59295290,33646260,-59955620,49118550,-690918,-23101810,-6854248
2026-01-14 16:52:36.861,104926600,-8447821,-17809740,3141932,-6732178,-18997190,-637207
2026-01-14 16:52:36.871,104667700,3369806,-5992113,2882984,-881958,-21591190,-48431400
2026-01-14 16:52:36.881,104408700,3373259,-5990387,2624028,-12573240,49438480,-45135500
2026-01-14 16:52:36.891,56226730,-8386532,-17750180,-45575240,-16564940,10534670,-54107660
2026-01-14 16:52:36.901,51430100,33767110,-59886560,-50371860,-21142580,61584470,-25543210
2026-01-14 16:52:36.911,56149040,-8367544,-17734640,-45652930,-25073240,1665039,-137786900
2026-01-14 16:52:36.921,56097250,-8358048,-17726870,-45704720,-22924800,2052002,-3878784
2026-01-14 16:52:36.931,102337100,-8347692,-17719970,552424,2,-7720947,103515600,44769290
2026-01-14 16:52:36.941,101707000,33844800,-59929720,-25889,95,15670780,6567383,18054200
2026-01-14 16:52:36.951,55864200,-8358912,-17743270,-45816930,-4046631,10723880,2788086
2026-01-14 16:52:36.961,10036050,-8381356,-17772620,-126885,8,-17907720,-12397770,40673830
2026-01-14 16:52:36.971,9954045,33896590,-60102350,-200253,-35375980,18173220,4892578
2026-01-14 16:52:36.981,9854782,-8450410,-17858930,-290887,8,-5107422,14550780,53515620
2026-01-14 16:52:36.991,9738253,33862060,-60309510,-398781,9,-72753900,17736820,57470700
2026-01-14 16:52:37.001,95949700,-8588517,-18014310,-5317116,-90234380,26757810,61572260
2026-01-14 16:52:37.011,94162930,45831600,-48512600,-6983018,-11230470,35107420,65478520
2026-01-14 16:52:37.021,54673020,-8812937,-18255990,-46369350,-13164060,48535160,6738281
2026-01-14 16:52:37.031,4414667,33559950,-60956880,3405629,-14824220,5654297,7270508
2026-01-14 16:52:37.041,8654979,-9158206,-18618520,-1421637,-15302730,45141600,7890625
2026-01-14 16:52:37.051,8319206,33240580,-61448890,-1741870,-14394530,27246090,78466800
2026-01-14 16:52:37.061,29677170,4596020,-4883285,28672960,-12207030,304,2221,80566410
2026-01-14 16:52:37.071,7521640,-9903120,-19392780,-2498007,-921875,-23669430,78222660
2026-01-14 16:52:37.081,25886390,-10208680,-19708700,15890910,-5727539,-22924800,69091800
2026-01-14 16:52:37.091,6631715,-10529780,-20043610,-3334416,-24841310,-13574220,5258789
2026-01-14 16:52:37.101,16792060,-10858650,-20388020,6858728,10681150,-1307373,39868160
2026-01-14 16:52:37.111,12027370,31773190,-63675860,2128573,3947754,-13439940,23278810
2026-01-14 16:52:37.121,27373620,31531510,-64090180,17511080,6455078,-4397583,21560670
2026-01-14 16:52:37.131,24954170,-11801220,-21378930,-73291550,8066406,140625,-18847660
2026-01-14 16:52:37.141,-2356448,-12077440,-21672410,-12144770,94628900,26489260,-3881836
2026-01-14 16:52:37.151,36770930,30910030,-65177780,-60766980,10341800,2993164,-53515620
2026-01-14 16:52:37.161,-160867,8,-12564270,-22186860,-170590,1,10263670,25097660,-6069336
2026-01-14 16:52:37.171,27396930,30582020,-65747470,-69519500,10800780,24377440,-70458980
2026-01-14 16:52:37.181,2312424,46440140,-49992940,-7353321,10732420,10748290,-7583008
2026-01-14 16:52:37.191,-24354280,30323070,-66179050,-33995850,10322270,-12988280,-73535150
2026-01-14 16:52:37.201,1529532,-13246170,-22903280,-8089606,95458980,-28466800,-73583980
2026-01-14 16:52:37.211,-3136666,46491060,-50131900,-4096677,85009770,-38085940,-7290039
2026-01-14 16:52:37.221,881293,-13493030,-23157060,-8701592,78271490,-38720700,-7495117
2026-01-14 16:52:37.231,605942,8,-13613010,-23278760,-8961405,7089844,-33666990,-7402344
2026-01-14 16:52:37.241,375476,46482430,-50192320,-9179784,69189460,-36621100,-7480469
2026-01-14 16:52:37.251,162272,29684330,-66990420,-9380903,64746100,-36157230,-7441406
2026-01-14 16:52:37.261,-16403,29589380,-67085370,-9547494,5917969,-37426760,-72509770
2026-01-14 16:52:37.271,-168320,5,29503060,-67171690,-9689054,47485350,-32641600,-73583980
2026-01-14 16:52:37.281,47046080,-14086030,-23755230,-48057710,33618160,-2265625,-74658200
2026-01-14 16:52:37.291,-4695287,-14163720,-23832920,-5645462,1829834,-29248050,-7006836
2026-01-14 16:52:37.301,42208890,2927003,-6742203,-52722260,9246826,-29833980,-6328125
2026-01-14 16:52:37.311,-600765,-14319090,-23988290,-10085250,-7055664,-22338870,-5410156
2026-01-14 16:52:37.321,-53646720,-14405400,-24074600,-54594480,-19726560,-21838380,-42456060
2026-01-14 16:52:37.331,41889510,29011060,-67663700,-52817210,-34033200,-26708980,-30859380
2026-01-14 16:52:37.341,-782894,-14597890,-24261910,-10248390,-4086914,-3828125,-22229000
2026-01-14 16:52:37.351,41734140,2875213,-6783635,-52851740,-43798830,-4338379,-1751709
2026-01-14 16:52:37.361,41673720,28614000,-67939910,-52843110,-39453120,-44384770,-17272950
2026-01-14 16:52:37.371,4161330,2845863,-6806075,-5283448,-39331060,-28979490,-24816900
2026-01-14 16:52:37.381,-9106416,-19456740,-20421590,-103450600,-35131840,-8459473,-29638670
2026-01-14 16:52:37.391,-51824580,-15253890,-24900650,-61250360,-4560547,124939000,-32373050
2026-01-14 16:52:37.401,-52002390,46195860,-50237210,-61417810,-5439453,21838380,-33276370
2026-01-14 16:52:37.411,-9935060,-15524060,-25165650,-104003000,-5991211,26367190,-36767580
2026-01-14 16:52:37.421,-1033215,27716310,-68664980,-10429650,-61572260,25268560,-3623047
2026-01-14 16:52:37.431,41164450,-15786470,-25421150,-52713640,-5839844,14575200,-40283200
2026-01-14 16:52:37.441,-5348793,27440090,-68889390,-6286707,-46533200,36376950,-43139650
2026-01-14 16:52:37.451,-1176498,2731063,-6900161,-10545320,-34472660,26153560,-49438480
2026-01-14 16:52:37.461,-12248350,2718119,-6911381,-105833000,-23950200,4019165,-56103520
2026-01-14 16:52:37.471,-12645400,-16255170,-25884670,-106126400,-20935060,-70114140,-5678711
2026-01-14 16:52:37.481,-13051090,-16357880,-25989110,-106411300,-25976560,-12359620,-5654297
2026-01-14 16:52:37.491,-1336185,-16452830,-26084060,-10661850,-27685550,-1619873,-5283203
2026-01-14 16:52:37.501,-1358629,26801350,-69528140,-10673930,-32104490,10369870,-5180664
2026-01-14 16:52:37.511,40491180,-16632370,-26267050,-52575530,-34204100,27294920,-5449219
2026-01-14 16:52:37.521,-1410417,-16718690,-26353370,-10708460,-37890620,9851074,-58154300
2026-01-14 16:52:37.531,40361710,4601289,-5033390,-52532370,-38012700,357666,-5883789
2026-01-14 16:52:37.541,-1461344,-16847300,-26483700,-10743850,-42285160,4437256,-6694336
2026-01-14 16:52:37.551,-1482060,-16907720,-26544120,-10757660,-47607420,9414673,-61621100
2026-01-14 16:52:37.561,-1511408,46012870,-50368410,-10780100,-55029300,-57128900,-5727539
2026-01-14 16:52:37.571,-1540755,-17000950,-26640800,-10802540,-6645508,-9967041,-48583980
2026-01-14 16:52:37.581,-15701010,-17051870,-26693450,-108249800,-8051758,-24597170,-41796880
2026-01-14 16:52:37.591,-57524940,26283450,-70149620,-66771180,-9169922,-37353520,-38793940
2026-01-14 16:52:37.601,-16305230,-17170120,-26816890,-108681400,-9863281,-34472660,-41015620
2026-01-14 16:52:37.611,-1661599,-21580140,-22544980,-10888860,-8828125,-27929690,-46166990
2026-01-14 16:52:37.621,-1710800,-17304780,-26958450,-10925970,-7348633,-20239260,-4663086
2026-01-14 16:52:37.631,39645280,-17371240,-27030090,-52368370,-56689450,2290039,-67041020
2026-01-14 16:52:37.641,-1818695,-17420450,-27084470,-11007980,-45361330,85253900,-88720700
2026-01-14 16:52:37.651,-60321590,-17452380,-27121580,-69498780,-40405270,11708980,-10117190
2026-01-14 16:52:37.661,-2018089,26084920,-70658880,-11188380,-3618164,9785156,-97021490
2026-01-14 16:52:37.671,-2141519,2611082,-7065025,-11306630,-15600590,40356440,-75683590
2026-01-14 16:52:37.681,3895474,-17396280,-27074110,-5267912,13623050,4196167,-42529300
2026-01-14 16:52:37.691,38816640,-17361750,-27039590,-52799950,44360350,-3555298,-32287600
2026-01-14 16:52:37.701,-2538579,26205760,-70538040,-11703690,81884770,-47631840,42211910
2026-01-14 16:52:37.711,-2640431,-17304780,-26975710,-11808990,16464840,-9980469,87353520
2026-01-14 16:52:37.721,-2691357,2622303,-7046898,-11861650,2515625,-5136719,11708980
2026-01-14 16:52:37.731,-68352500,-17271110,-26940310,-77522790,25175780,5756836,17626950
2026-01-14 16:52:37.741,-68265330,4832394,-4836807,-77437340,19580080,10644530,26132810
2026-01-14 16:52:37.751,3860948,4830665,-4835084,-5314522,10908200,14208980,32539060
2026-01-14 16:52:37.761,-6817383,2616261,-7040856,-7735621,19335940,15869140,35742190
2026-01-14 16:52:37.771,-27327890,46009420,-50440920,-119238000,-17590330,66064450,35410160
2026-01-14 16:52:37.781,3857495,2594682,-7036541,-5340417,94921870,-12392580,45585940
2026-01-14 16:52:37.791,-2828601,-21892080,-22854520,-12017880,34941410,10205080,43789060
2026-01-14 16:52:37.801,-2819971,25601550,-70658890,-11991990,36757810,39453120,27285160
2026-01-14 16:52:37.811,38385060,-17764850,-27396070,-53231540,1484375,-41484380,22949220
2026-01-14 16:52:37.821,-2817382,25497970,-70883310,-11960050,10078130,-975,33808590
2026-01-14 16:52:37.831,38281470,25359860,-71194050,-52799950,40698240,-50351560,18095700
2026-01-14 16:52:37.841,38195160,46054300,-50672250,-52541000,5923462,365625,-66845700
2026-01-14 16:52:37.851,-6797617,2537713,-7148753,-7703597,22644040,66484380,-14287110
2026-01-14 16:52:37.861,-2928728,2564471,-7135805,-11986810,4091797,47226560,-13037110
2026-01-14 16:52:37.871,-3211847,-17687160,-27404700,-12273380,9013672,23964840,-9355469
2026-01-14 16:52:37.881,-3503600,26499240,-70883310,-12568580,10302730,34887700,-47973630
2026-01-14 16:52:37.891,-3778948,-16967280,-26726250,-12845660,11289060,-13701170,-14953610
2026-01-14 16:52:37.901,3681408,-16646180,-26425870,-5385303,14707030,-309375,-30700680
2026-01-14 16:52:37.911,36667340,27707670,-70296350,-53965220,17275390,-29140620,-32958980
2026-01-14 16:52:37.921,-41725520,-20604750,-21586870,-132289000,15556640,-70166020,-72314460
2026-01-14 16:52:37.931,-82826100,-15978090,-25816470,-91878990,9038086,14619140,-76660160
2026-01-14 16:52:37.941,-4259732,2856222,-6995972,-13314360,26953120,18720700,-41723630
2026-01-14 16:52:37.951,-4314974,4723685,-5133688,-13379960,-16455080,10,25222780
2026-01-14 16:52:37.961,-4368491,-15417030,-25272680,-13447290,-4013672,79833980,45898440
2026-01-14 16:52:37.971,36520620,-1530998,-2515531,-54457230,-41455080,-5551758,7246094
2026-01-14 16:52:37.981,-4470348,28976530,-69320980,-13587120,-7507324,-85839840,8203125
2026-01-14 16:52:37.991,-4495379,28907480,-69217400,-13631140,3869629,-10107420,78271490
2026-01-14 16:52:38.001,-4504011,28821160,-69131080,-13657040,8041992,-75683590,6699219
2026-01-14 16:52:38.011,-4495379,46871720,-50907890,-13665670,90527340,-36914060,6635742
2026-01-14 16:52:38.021,36865880,2860540,-6901889,-54992400,7373047,1291275,8183594
2026-01-14 16:52:38.031,36960830,-1535918,-2510610,-55052820,4951172,21850590,99121100
2026-01-14 16:52:38.041,-4412516,28406840,-68906660,-13627690,20202640,23132320,11669920
2026-01-14 16:52:38.051,45252420,-15417890,-25133710,-47054710,-9712219,22180180,13408200
2026-01-14 16:52:38.061,-4380577,-15460190,-25160470,-13625100,-11993410,16113280,14609380
2026-01-14 16:52:38.071,-8540010,28078840,-68768550,-9465666,-14831540,-82214350,15332030
2026-01-14 16:52:38.081,37331990,-15552550,-25223480,-55337660,-8459473,-41308590,15605470
2026-01-14 16:52:38.091,-4365040,-15601750,-25260600,-13640640,3817749,-6298828,15166020
2026-01-14 16:52:38.101,-8956436,27759470,-68742660,-9049240,1340332,-55566410,13955080
2026-01-14 16:52:38.111,-8947803,46161340,-50271740,-9040607,23022460,-4975586,12353520
2026-01-14 16:52:38.121,-852154,6,-15783020,-25424600,-944961,9,30200200,-3852539,11132810
2026-01-14 16:52:38.131,-4339143,2756094,-6885486,-13614740,24560550,-8178711,10029300
2026-01-14 16:52:38.141,-4341735,27543680,-68906660,-13612150,23278810,64941410,89404300
2026-01-14 16:52:38.151,-4345185,-1587451,-2552300,-13608700,21105960,11016850,7583008
2026-01-14 16:52:38.161,-8514113,46207080,-50346830,-9439769,22595220,2064209,5917969
2026-01-14 16:52:38.171,37245680,-15858110,-25522140,-55234090,27929690,17236330,4423828
2026-01-14 16:52:38.181,3719386,27699050,-69027500,-5521681,33203120,44921880,32177730
2026-01-14 16:52:38.191,37133460,27802630,-69044770,-55190920,3491211,56991580,24951170
2026-01-14 16:52:38.201,-4434093,46428920,-50539320,-13657900,28979490,670166,21862790
2026-01-14 16:52:38.211,-4454810,28061570,-69027500,-13671710,17077640,11291500,11022950
2026-01-14 16:52:38.221,-4491925,-15527520,-25248510,-13703650,5014038,1685791,26794430
2026-01-14 16:52:38.231,36900400,28380950,-68932550,-55182290,-5206299,28100590,-21209720
2026-01-14 16:52:38.241,-8732407,-15284110,-25025810,-9653061,-12597660,32641600,-10449220
2026-01-14 16:52:38.251,-4650747,-15140820,-24892880,-13855570,-23034670,4638672,-17895510
2026-01-14 16:52:38.261,-8870515,46817340,-50789630,-9791165,-3112793,5751953,-26831060
2026-01-14 16:52:38.271,-4820791,-14805050,-24572650,-14030790,-37329100,64990230,-3413086
2026-01-14 16:52:38.281,3653785,29364960,-68362860,-5561387,-4338379,69384770,-47265620
2026-01-14 16:52:38.291,-5056438,29598010,-68181600,-14278510,-47631840,63916020,-58447260
2026-01-14 16:52:38.301,36347980,29856970,-67974430,-55959140,-4946289,66552740,-69091800
2026-01-14 16:52:38.311,-5349052,30107280,-67741380,-14590120,-5239258,6855469,-80615230
2026-01-14 16:52:38.321,-5515641,3038350,-6748243,-14768800,-53466800,66796880,-9350586
2026-01-14 16:52:38.331,35994080,-13379090,-23167420,-56658310,-59033200,6850586,-10576170
2026-01-14 16:52:38.341,-5891119,3097046,-6691274,-15170170,-66552740,6694336,-11748050
2026-01-14 16:52:38.351,35735130,-12757610,-22545940,-57210740,-7133789,44067380,-12431640
2026-01-14 16:52:38.361,-6298534,-12430470,-22217070,-15608660,-75683590,21020510,-13476560
2026-01-14 16:52:38.371,-6497065,31928570,-65920100,-15824450,-7602539,85876460,-13964840
2026-01-14 16:52:38.381,45577820,32247940,-65583470,-47851410,-7998047,14746090,-13974610
2026-01-14 16:52:38.391,35234500,-11441280,-21220970,-58367380,-76171870,38085940,-13457030
2026-01-14 16:52:38.401,45709900,-11106370,-20882610,-48064620,-70947260,5390625,-125
2026-01-14 16:52:38.411,3500143,-10764560,-20533890,-5896298,-6542969,5361328,-10742190
2026-01-14 16:52:38.421,34897860,-10405480,-20167910,-59273710,-67089840,47485350,-87597660
2026-01-14 16:52:38.431,-7684783,33844800,-63693120,-17122650,-68066410,38623050,-6694336
2026-01-14 16:52:38.441,-7906618,34164160,-63270170,-17366930,-66796880,2998047,-54589840
2026-01-14 16:52:38.451,-8128451,34474910,-62838590,-17611200,-6635742,20349120,-4963379
2026-01-14 16:52:38.461,34423120,3477705,-6239839,-60628880,-6557617,31097410,-48535160
2026-01-14 16:52:38.471,34285010,3508778,-6194954,-60991410,-67578130,-15625,-4897461
2026-01-14 16:52:38.481,-8820710,35389860,-61509310,-18369070,-7080078,-18261720,-42773440
2026-01-14 16:52:38.491,-9061533,-7849643,-17527480,-18628880,-8100586,-35595700,-43481440
2026-01-14 16:52:38.501,-9294588,3599409,-6064614,-18879200,-95751950,-67333980,-46313480
2026-01-14 16:52:38.511,33672160,-7162560,-16816230,-62312060,-10488280,-8779297,-5371094
2026-01-14 16:52:38.521,-9739122,36546510,-59886560,-19349620,-11005860,-82910160,-5649414
2026-01-14 16:52:38.531,-9941962,-6566976,-16203380,-19561100,-11201170,-7109375,-64208980
2026-01-14 16:52:38.541,33180160,37021260,-59256450,-63097540,-10966800,-58251950,-6982422
2026-01-14 16:52:38.551,-10341610,3723705,-5898886,-19972830,-10332030,-41479490,-75390620
2026-01-14 16:52:38.561,-10538410,3744421,-5872991,-20173090,-9604492,-28930660,-78759770
2026-01-14 16:52:38.571,-10727450,-5620083,-15234040,-20363850,-8852539,-26757810,-8125
2026-01-14 16:52:38.581,-10908710,-5414649,-15025160,-20545110,-80908200,-27001950,-79833980
2026-01-14 16:52:38.591,-11090840,3800527,-5806527,-20725510,-7211914,-21411130,-7895508
2026-01-14 16:52:38.601,32075300,-5046075,-14651410,-64254180,-6821289,-21105960,-75097660
2026-01-14 16:52:38.611,3189401,38341900,-57694110,-6440091,-6411133,-17578120,-6816406
2026-01-14 16:52:38.621,46496240,-4719798,-14321680,-49781460,-5683594,-17333980,-6591797
2026-01-14 16:52:38.631,-16100230,38626740,-57357480,-17062660,-5048828,-12524410,-6533203
2026-01-14 16:52:38.641,-11925520,38756220,-57210740,-21548110,-41601560,-9967041,-57421880
2026-01-14 16:52:38.651,3120350,-4301164,-13894410,-6498788,-34033200,-6604004,-52490230
2026-01-14 16:52:38.661,-12238850,-4182908,-13770970,-21856260,-28466800,-13000490,-46435550
2026-01-14 16:52:38.671,30884130,-4072421,-13657040,-65272720,-19335940,-15979000,-44433590
2026-01-14 16:52:38.681,-12526290,39144640,-56666940,-22138520,-3878784,-3475952,-45507810
2026-01-14 16:52:38.691,30564760,-3868713,-13446420,-65523040,592041,-32928470,-4423828
2026-01-14 16:52:38.701,-12813720,39325910,-56416620,-22420770,62927250,-7684326,-3635254
2026-01-14 16:52:38.711,-12944060,-79718690,-89289490,-22549390,33966060,-16952520,-21899410
2026-01-14 16:52:38.721,30141810,-3572647,-13138270,-65894200,3366089,56419370,-6225586
2026-01-14 16:52:38.731,3001233,-3497555,-13058000,-6600642,48858640,-51574710,5432129
2026-01-14 16:52:38.741,-1331782,-3431954,-12985490,-2291796,9655762,-31555180,791626
2026-01-14 16:52:38.751,-1343006,-76795150,-86343500,-2303021,1517334,-14111330,12756350
2026-01-14 16:52:38.761,-1354224,-3334416,-12875870,-2314238,24511720,-15551760,1652832
2026-01-14 16:52:38.771,29537590,39610760,-55734720,-66446630,31225590,-16894530,23718260
2026-01-14 16:52:38.781,29434010,-3262770,-12792140,-66550210,3461914,-15026860,2902832
2026-01-14 16:52:38.791,29330430,39610760,-55613880,-66653790,3852539,-11584470,35791020
2026-01-14 16:52:38.801,46107810,39593490,-55562090,-49859140,3815918,-10272220,44677740
2026-01-14 16:52:38.811,29131900,39576230,-55527570,-66835050,40112300,-7092285,49243160
2026-01-14 16:52:38.821,-14140410,3955035,-5548440,-23735380,4309082,-49591060,5292969
2026-01-14 16:52:38.831,-14235360,39533070,-55449880,-23830320,48046880,-8129883,5449219
2026-01-14 16:52:38.841,-14322540,-3212708,-12704100,-23915780,4987793,-14929200,5654297
2026-01-14 16:52:38.851,28752100,46634350,-48227760,-67163060,5175781,-19311520,6220703
2026-01-14 16:52:38.861,-14488270,39429490,-55380820,-24078050,54541020,-24841310,65234380
2026-01-14 16:52:38.871,2857947,-7519052,-8466809,-6730117,57373050,-27929690,68652340
2026-01-14 16:52:38.881,-14637590,-3282625,-12755020,-24222210,6225586,-27026370,7192383
2026-01-14 16:52:38.891,28406840,39300020,-55389460,-67404740,6225586,-23986820,76464850
2026-01-14 16:52:38.901,2832052,-3345637,-12812860,-6745654,67285150,-21557620,78125
2026-01-14 16:52:38.911,45908420,-33818900,-128456600,-49834110,6821289,-18737790,78808590
2026-01-14 16:52:38.921,-14911220,-76666530,-86126850,-24483750,69628900,-13684080,82470700
2026-01-14 16:52:38.931,28087460,-77099840,-86556700,-67603280,71972660,-9692383,85253900
2026-01-14 16:52:38.941,2800113,39058320,-55475770,-6765505,75146480,-11029050,84765620
2026-01-14 16:52:38.951,27914830,-3518268,-12968230,-67706860,7998047,-52703860,8486328
2026-01-14 16:52:38.961,2781986,38963380,-55501670,-6776726,81347660,-61462400,84814460
2026-01-14 16:52:38.971,-15273750,38902960,-55510300,-24829010,84521490,-41625980,86816410
2026-01-14 16:52:38.981,-15352300,-3602860,-13039010,-24905830,8808594,-23849490,86279300
2026-01-14 16:52:38.991,27543670,38799380,-55493040,-67974440,890625,-132370000,87353520
2026-01-14 16:52:39.001,27448720,38747590,-55475780,-68052120,9116211,-42907720,8774414
2026-01-14 16:52:39.011,27345150,-3674501,-13088210,-68155700,8989258,-1234436,89746100
2026-01-14 16:52:39.021,47545420,-83429700,-84370040,-47955430,8955078,36895750,9169922
2026-01-14 16:52:39.031,45697810,-79289700,-88682690,-49820300,94091800,119262700,93066410
2026-01-14 16:52:39.041,-15965150,-79382050,-88762960,-25518690,9658203,37963870,89501950
2026-01-14 16:52:39.051,-16093760,-79388960,-88756050,-25649030,96728510,8453369,8647461
2026-01-14 16:52:39.061,-16230140,-79310420,-88661970,-25788860,95947260,50354000,8276367
2026-01-14 16:52:39.071,26654610,38298740,-55061460,-68967080,8852539,-62194820,76416020
2026-01-14 16:52:39.081,2651648,38229690,-54957870,-6913970,8261719,-5657959,7241211
2026-01-14 16:52:39.091,47630530,-3688313,-12988080,-48060220,79345700,-28762820,69140620
2026-01-14 16:52:39.101,2620576,-3672778,-12951830,-6951951,73535150,-6616211,63916020
2026-01-14 16:52:39.111,-17057920,3800528,-5457807,-26635620,6586914,-20239260,5126953
2026-01-14 16:52:39.121,-17253850,-3642566,-12878460,-26836740,5986328,-29418940,39379880
2026-01-14 16:52:39.131,25679230,37841260,-54293240,-70184150,60058590,-3239746,2915039
2026-01-14 16:52:39.141,-17664720,-3596818,-12786100,-27254510,6333008,-30297850,20581060
2026-01-14 16:52:39.151,2529075,-35735140,-127403500,-7064164,67626950,-31298830,7055664
2026-01-14 16:52:39.161,2509224,-76650990,-85797120,-7085745,73828130,-24121090,-31402590
2026-01-14 16:52:39.171,-18300880,-3526038,-12649720,-27895850,82177740,-1394043,-10583500
2026-01-14 16:52:39.181,2466069,-3483744,-12588430,-7128900,90283200,-41900640,-15454100
2026-01-14 16:52:39.191,2445351,37444200,-53412800,-7149614,9379883,-2111,197,-23120120
2026-01-14 16:52:39.201,-18923220,37418310,-53266060,-28516460,94091800,-5114746,-29223630
2026-01-14 16:52:39.211,-19113120,-33378680,-123890400,-28706360,99121100,-22766110,-34204100
2026-01-14 16:52:39.221,23866570,37366520,-52972590,-72048580,10273440,51940920,-38061520
2026-01-14 16:52:39.231,23693940,-3233423,-12251800,-72221220,10429690,6964111,-38745120
2026-01-14 16:52:39.241,-19632740,37349260,-52696370,-29222530,10439450,-9346008,-44995120
2026-01-14 16:52:39.251,-19788120,-71635990,-80626740,-29377910,10693360,-3086853,-50146480
2026-01-14 16:52:39.261,-19926220,-3064244,-12041180,-29516010,10761720,-47058100,-5546875
2026-01-14 16:52:39.271,23106990,44065560,-45565750,-72808180,10859380,-13061520,-6303711
2026-01-14 16:52:39.281,2299478,-2973612,-11924660,-7293765,10957030,-13110350,-6699219
2026-01-14 16:52:39.291,-20277530,-2927863,-11866830,-29872500,1125,-30914310,-61621100
2026-01-14 16:52:39.301,22813510,-69078420,-78005300,-73153450,11298830,-49865720,-6044922
2026-01-14 16:52:39.311,-24776270,-68739200,-77654000,-25736290,11425780,-9283447,-6191406
2026-01-14 16:52:39.321,-20541660,-68399980,-77302690,-30143540,11982420,-105407700,-6323242
2026-01-14 16:52:39.331,4548547,-2813063,-11705410,-5056781,12587890,-16625980,-6464844
2026-01-14 16:52:39.341,22563200,-2801838,-11682110,-73524600,1296875,-14562990,-6455078
2026-01-14 16:52:39.351,-20743640,37133460,-51565620,-30355870,13144530,-17443850,-6333008
2026-01-14 16:52:39.361,-20801480,37090300,-51505200,-30418880,13203130,-16870120,-62109380
2026-01-14 16:52:39.371,22442350,37047150,-51427520,-73766290,13369140,-13513180,-59277340
2026-01-14 16:52:39.381,22407830,3700402,-5136710,-73852610,12832030,-86120610,-5727539
2026-01-14 16:52:39.391,-20967200,43398340,-44834640,-30598420,12314450,-101135300,-5258789
2026-01-14 16:52:39.401,22347410,-2785439,-11594930,-74033870,11787110,-9307861,-53125
2026-01-14 16:52:39.411,22312880,-2801839,-11595790,-74137460,11308590,-12683110,-52685550
2026-01-14 16:52:39.421,2226970,36658720,-51108140,-7424964,10488280,-101989700,-51904300
2026-01-14 16:52:39.431,2221793,-2871758,-11629460,-7437051,9916992,-7531738,-52734380
2026-01-14 16:52:39.441,-21329740,-29166430,-116536200,-30995480,89990230,-89904780,-5810547
2026-01-14 16:52:39.451,22105710,-29710220,-116855600,-74638090,8227539,-5218506,-61035160
2026-01-14 16:52:39.461,2203666,-6936845,-7806055,-7477620,76904300,-103302,-6850586
2026-01-14 16:52:39.471,2195033,35916400,-50762880,-7493155,74316410,27618410,-7011719
2026-01-14 16:52:39.481,-21763910,35743760,-50693820,-31459000,67333980,19012450,-8144531
2026-01-14 16:52:39.491,21769080,-3225653,-11845250,-75250940,63623050,-21484380,-9604492
2026-01-14 16:52:39.501,21665500,-75442740,-76302110,-75406310,5854492,-9643555,-11601560
2026-01-14 16:52:39.511,-22143700,42082870,-43612400,-31856050,5776367,-103637700,-13066410
2026-01-14 16:52:39.521,4587476,-3443175,-11990260,-5130064,52246100,-5706787,-140625
2026-01-14 16:52:39.531,-22389700,-3514817,-12039460,-32110690,4580078,-3665161,-14912110
2026-01-14 16:52:39.541,-22508820,-74124500,-82626700,-32233270,41186520,-2357483,-15595700
2026-01-14 16:52:39.551,-22627080,-74826260,-83306020,-32356700,34472660,-21698000,-16074220
2026-01-14 16:52:39.561,2106990,34310910,-50262240,-7626083,25439450,-8441162,-16298830
2026-01-14 16:52:39.571,20992230,3412967,-5023635,-76390320,20141600,-13085940,-1703125
2026-01-14 16:52:39.581,2091452,-77188740,-85604630,-7650257,14807130,-25683590,-1765625
2026-01-14 16:52:39.591,-2300687,-4028403,-12423570,-3275375,14990230,-30029300,-18486330
2026-01-14 16:52:39.601,-23074190,33542690,-50219080,-32824530,16503910,-25683590,-18642580
2026-01-14 16:52:39.611,20767800,-42709520,-126298700,-76787380,17211910,-14648440,-18300780
2026-01-14 16:52:39.621,45997320,33137000,-50279510,-51609640,2109375,-14538570,-18505860
2026-01-14 16:52:39.631,46020630,-82757900,-91084020,-51638140,265625,-7946777,-18623050
2026-01-14 16:52:39.641,48574140,32731310,-50391720,-49136420,27075200,-14762880,-17802730
2026-01-14 16:52:39.651,4606982,32532780,-50469400,-5169250,2121582,-12931820,-17197270
2026-01-14 16:52:39.661,-23214030,-4970980,-13259110,-32995440,34936520,25927730,-15214840
2026-01-14 16:52:39.671,2084549,-5132394,-13408440,-7702044,6196289,8388672,-12080080
2026-01-14 16:52:39.681,2090591,-5293805,-13557770,-7702907,81933590,13515630,-9140625
2026-01-14 16:52:39.691,20966330,-5455216,-13707100,-77054950,7446289,14208980,-87353520
2026-01-14 16:52:39.701,-23113040,31453820,-50909610,-32923790,24328610,6621094,-11347660
2026-01-14 16:52:39.711,-27501460,-5790127,-14010930,-28483570,-20910640,8132935,-12851560
2026-01-14 16:52:39.721,21199390,-5996421,-14201700,-77098110,-35083010,48461910,-11181640
2026-01-14 16:52:39.731,-22986150,30633810,-51263510,-32826260,-41210940,18774410,-8613281
2026-01-14 16:52:39.741,46458260,30305810,-51418890,-52029140,-5888672,12536620,-7480469
2026-01-14 16:52:39.751,2149285,29943280,-51608780,-7708084,-6855469,19042970,-7163086
2026-01-14 16:52:39.761,21605080,-7047759,-15187430,-77054960,-7739258,-12915040,-65478520
2026-01-14 16:52:39.771,21700030,-7374899,-15499040,-77011800,-7714844,-2607422,-68603520
2026-01-14 16:52:39.781,46625720,-7708947,-15821000,-52137900,-6376953,-20751950,-6591797
2026-01-14 16:52:39.791,-22517450,-11705150,-12515320,-32397270,-44506840,-20950320,-6074219
2026-01-14 16:52:39.801,22062560,-8408111,-16502900,-76752850,-28881840,11218260,-5756836
2026-01-14 16:52:39.811,46694770,-8755969,-16845580,-52137900,-16809080,27539060,-4790039
2026-01-14 16:52:39.821,46709440,27293360,-53568180,-52123230,-10559080,3840332,-37329100
2026-01-14 16:52:39.831,2250276,-9424062,-17506760,-7634716,-117248500,42211910,-26586910
2026-01-14 16:52:39.841,22684030,26620090,-54172390,-76200420,-13757320,39672850,-1932373
2026-01-14 16:52:39.851,-21640470,-13674380,-14482140,-31530640,-16955570,48388670,-111206100
2026-01-14 16:52:39.861,23055200,-10342470,-18418270,-75881060,-3059082,44848630,-29632570
2026-01-14 16:52:39.871,-21283120,-10627320,-18703110,-31180200,-46044920,3996582,6878662
2026-01-14 16:52:39.881,23460890,25428910,-55311770,-75544420,-5830078,4453125,19519040
2026-01-14 16:52:39.891,-20908510,25161330,-55579350,-30812490,-6748047,40600580,23669430
2026-01-14 16:52:39.901,-20725520,24911010,-55829670,-30632950,-78808590,25585940,26123050
2026-01-14 16:52:39.911,2404785,2467796,-5607999,-7504378,-82910160,13977050,2993164
2026-01-14 16:52:39.921,24237740,-15538830,-16346580,-74871140,-8652344,-33172610,29907230
2026-01-14 16:52:39.931,24419010,2424641,-5658064,-74689880,-83740230,-17736820,2854004
2026-01-14 16:52:39.941,24600270,-12338980,-20426860,-74508620,-78466800,-28393560,28149410
2026-01-14 16:52:39.951,-19810560,23901110,-57081260,-29717990,-73339840,-42114260,2788086
2026-01-14 16:52:39.961,-19631020,23754370,-57331580,-29535000,-7163086,-5644531,29833980
2026-01-14 16:52:39.971,2510091,2363353,-5759053,-7388714,-61816410,-6015625,37231440
2026-01-14 16:52:39.981,25264910,-13091660,-21227880,-73671340,-49243160,-5,43579100
2026-01-14 16:52:39.991,2542026,23409100,-58091170,-7344691,-41333010,-49780270,5185547
2026-01-14 16:52:40.001,25584280,-13439510,-21605080,-73231130,-39111330,-48242190,56396480
2026-01-14 16:52:40.011,-18696210,-13606110,-21783750,-28570840,-3552246,-42382810,60839840
2026-01-14 16:52:40.021,25903650,23089730,-58807600,-72808180,-36083980,-2944336,6948242
2026-01-14 16:52:40.031,-18337130,-17621560,-18441570,-28204860,-37524420,-25268560,7734375
2026-01-14 16:52:40.041,26223020,22848050,-59239180,-72419750,-43310550,-28222660,7607422
2026-01-14 16:52:40.051,26387030,22709940,-59429080,-72255740,-46166990,-3112793,71533200
2026-01-14 16:52:40.061,-17839080,2256321,-5961034,-27701630,-4663086,-32177730,70214850
2026-01-14 16:52:40.071,26715030,-14568540,-22789350,-71927740,-47021480,-32104490,71484380
2026-01-14 16:52:40.081,47077150,22286980,-59955610,-51565620,-44213870,-1895752,78125
2026-01-14 16:52:40.091,27043030,22148880,-60110980,-71617010,-41137700,-31143190,82958980
2026-01-14 16:52:40.101,27189770,-15005300,-23233020,-71470260,-40161130,54718020,8261719
2026-01-14 16:52:40.111,-17068280,2189857,-6039582,-26936000,-41870120,57556150,84765620
2026-01-14 16:52:40.121,-1692933,21786350,-60525300,-2679875,-46411130,-5419922,8574219
2026-01-14 16:52:40.131,27621360,2168280,-6064616,-71090470,-47021480,-8453369,8198242
2026-01-14 16:52:40.141,27742200,-15467960,-23702580,-70969630,-45336910,-99853520,84228510
2026-01-14 16:52:40.151,49141070,21501500,-60879200,-49570760,-4567871,-114990200,8022461
2026-01-14 16:52:40.161,-20869920,21423820,-61008680,-21856860,-43530270,-28686520,84277340
2026-01-14 16:52:40.171,-16308690,4103465,-4143238,-26176420,-3947754,13537600,91845700
2026-01-14 16:52:40.181,-16196470,-15856390,-24108270,-26064200,-35253900,23950200,9716797
2026-01-14 16:52:40.191,47228210,-15948740,-24205810,-51431830,-34814450,29614260,10078130
2026-01-14 16:52:40.201,2840682,21138970,-61466150,-7021866,-34326170,2824707,10097660
2026-01-14 16:52:40.211,-15880560,21078550,-61578360,-25741380,-25878910,3166504,99902340
2026-01-14 16:52:40.221,28588110,39321600,-43387120,-70002880,-22277830,24377440,91748050
2026-01-14 16:52:40.231,2866578,-16267250,-24543300,-6989068,-20495600,59448240,9121094
2026-01-14 16:52:40.241,2873483,20931810,-61897740,-6978708,-21679690,9635925,92871100
2026-01-14 16:52:40.251,28803890,20888650,-62009950,-69666240,-21411130,-76538090,9501953
2026-01-14 16:52:40.261,28872950,-16481320,-24778090,-69545400,-21875,-14807130,96484380
2026-01-14 16:52:40.271,28933370,-16555550,-24859220,-69433180,-18884280,-11920170,9975586
2026-01-14 16:52:40.281,28985160,20767810,-62355220,-69312340,-15136720,-15197750,98339840
2026-01-14 16:52:40.291,-15165850,-16710920,-25031860,-24988700,-13244630,-14855960,9736328
2026-01-14 16:52:40.301,-15082990,20690130,-62605540,-24898930,-75805660,-17883300,9033203
2026-01-14 16:52:40.311,47045220,-16874920,-25213120,-51027870,-2909851,-121032700,8569336
2026-01-14 16:52:40.321,-14944880,20612440,-62855850,-24743550,28152470,-3894043,82177740
2026-01-14 16:52:40.331,-14870650,39648730,-43888610,-24662420,74157710,3970337,8364258
2026-01-14 16:52:40.341,29218220,-17095890,-25458260,-68613180,45318600,-37902830,87646480
2026-01-14 16:52:40.351,-14749810,20500230,-63209760,-24524310,62408450,-7434082,9057617
2026-01-14 16:52:40.361,2927000,2045707,-6332196,-6840602,8544922,-881958,91308590
2026-01-14 16:52:40.371,2928726,-17317730,-25702540,-6830245,60333250,-13476560,9272461
2026-01-14 16:52:40.381,2930453,-17391960,-25783670,-6819887,8673096,-13208010,8852539
2026-01-14 16:52:40.391,29330430,-17466190,-25864810,-68103900,14453130,-10003660,87060540
2026-01-14 16:52:40.401,2933904,20293070,-63762180,-6800896,14672850,-6384277,85253900
2026-01-14 16:52:40.411,4671201,39881790,-44242510,-5056692,12866210,-7305908,81689460
2026-01-14 16:52:40.421,46674050,-21451610,-22293720,-50518600,13330080,-11993410,82470700
2026-01-14 16:52:40.431,-14314770,20206750,-64072920,-24027130,11114500,-50354000,82421870
2026-01-14 16:52:40.441,-14267300,39975880,-44372850,-23971020,12017820,64453120,79296870
2026-01-14 16:52:40.451,46576520,-17806280,-26249790,-50391720,13305660,16040040,7524414
2026-01-14 16:52:40.461,-14188750,2018087,-6432324,-23876940,1262207,1048584,74072260
2026-01-14 16:52:40.471,-14157680,20189490,-64400920,-23838960,9552002,6890869,734375
2026-01-14 16:52:40.481,29408110,-17897780,-26365450,-67335690,40283200,14289860,7451172
2026-01-14 16:52:40.491,29416750,40165770,-44597280,-67258010,29327390,3250122,7084961
2026-01-14 16:52:40.501,29416740,2024131,-6460810,-67188950,14892580,14823910,71728510
2026-01-14 16:52:40.511,-14033380,20267170,-64668500,-23687040,65193180,-10597230,7050781
2026-01-14 16:52:40.521,-14002310,20301700,-64737560,-23649060,6954193,-21194460,6953125
2026-01-14 16:52:40.531,-13971230,-17970280,-26482840,-23611080,23864750,12626650,69433590
2026-01-14 16:52:40.541,-13949650,20379380,-64849770,-23580870,11177060,41381840,69140620
2026-01-14 16:52:40.551,-18258150,40441990,-44890750,-19220580,15716550,64468380,6772461
2026-01-14 16:52:40.561,-13904770,-21825280,-22679640,-23522180,16021730,-5206299,6621094
2026-01-14 16:52:40.571,29356320,-17975460,-26529450,-66731480,6262207,-76293940,62890620
2026-01-14 16:52:40.581,-13852110,-17978910,-26543260,-23453990,6048584,-8232117,66259770
2026-01-14 16:52:40.591,-13830530,-17972870,-26549300,-23423770,46844480,61828610,67578130
2026-01-14 16:52:40.601,-13808960,20672860,-65195040,-23393560,13664250,9490967,68847660
2026-01-14 16:52:40.611,-1378738,2072465,-6526409,-2336335,11463170,619812,6772461
2026-01-14 16:52:40.621,29287270,40819190,-45273140,-66403470,12306210,-20889280,6591797
2026-01-14 16:52:40.631,-13751980,-17968560,-26588150,-23312430,3262329,2910614,6035156
2026-01-14 16:52:40.641,29252740,20880020,-65436730,-66265370,20889280,11437990,56152340
2026-01-14 16:52:40.651,-13708830,-21854880,-22719090,-23252010,-4751587,11364750,53759770
2026-01-14 16:52:40.661,29218220,-17960790,-26613180,-66127260,-64453120,25802610,47509770
2026-01-14 16:52:40.671,45794490,-17954740,-26619220,-49481940,-1048584,1838684,4338379
2026-01-14 16:52:40.681,-13651860,-17949570,-26624400,-23170870,-15698240,-45562740,43188480
2026-01-14 16:52:40.691,29166430,-17934890,-26621810,-65937360,-21154780,-10192870,42163090
2026-01-14 16:52:40.701,-17893120,21208020,-65764730,-18843290,-27490230,-10418700,4025879
2026-01-14 16:52:40.711,2913190,2127708,-6581652,-6581652,-32495120,-11242680,40307620
2026-01-14 16:52:40.721,45599410,41371620,-45825560,-49262690,-35620120,-16577150,38378900
2026-01-14 16:52:40.731,4556747,-17896050,-26626130,-4922559,-39086910,-17016600,36450200
2026-01-14 16:52:40.741,29088740,-21824060,-22698110,-65617980,-41601560,-22058100,35791020
2026-01-14 16:52:40.751,29080110,-17885690,-26636490,-65557570,-4411621,-2685547,3334961
2026-01-14 16:52:40.761,-13484410,21544660,-66066840,-22941260,-4501953,-25048830,3095703
2026-01-14 16:52:40.771,-13453330,-17865840,-26639070,-22903280,-44262700,-26464840,28149410
2026-01-14 16:52:40.781,29054210,21665500,-66170420,-65359040,-42016600,-27172850,27783200
2026-01-14 16:52:40.791,45360310,-17855480,-26649430,-48983890,-421875,-2927246,28442380
2026-01-14 16:52:40.801,-1336962,41805780,-46254550,-2279710,-4638672,-3395996,3305664
2026-01-14 16:52:40.811,-13330760,-17844260,-26660650,-22749640,-42407230,-32128910,36108400
2026-01-14 16:52:40.821,45260190,-17838220,-26666700,-48859600,-38378900,-25195310,36547850
2026-01-14 16:52:40.831,-17483720,-17840810,-26681370,-18424050,-30517580,-21374510,3671875
2026-01-14 16:52:40.841,-13205600,42044890,-46498830,-22598590,-2388916,21636960,35498050
2026-01-14 16:52:40.851,2907147,2206256,-6660200,-6477209,-24963380,18371580,4189453
2026-01-14 16:52:40.861,-13120150,-17838220,-26718490,-22494140,-26416020,15344240,49926760
2026-01-14 16:52:40.871,-13073540,22183400,-66757370,-22437170,-31445310,19958500,5673828
2026-01-14 16:52:40.881,29054220,-17841670,-26749560,-64478610,-30541990,4326172,60791020
2026-01-14 16:52:40.891,29036960,-17852030,-26773730,-64375030,-18798830,81152340,65283200
2026-01-14 16:52:40.901,29019690,42444530,-46910560,-64288710,-34454340,13642580,6699219
2026-01-14 16:52:40.911,28985160,-17864970,-26812570,-64202400,17837520,18251950,5991211
2026-01-14 16:52:40.921,-12945790,2246826,-6712853,-22254180,-1706543,14013670,49536130
2026-01-14 16:52:40.931,-12958740,22528670,-67171690,-22258500,-34033200,43725580,4116211
2026-01-14 16:52:40.941,28821160,42671540,-47132400,-64072920,-31225590,13842770,3383789
2026-01-14 16:52:40.951,-12994990,22666780,-67258010,-22274030,-18554690,51220700,27172850
2026-01-14 16:52:40.961,28691680,22735830,-67309800,-63977970,-89904780,8676758,26733400
2026-01-14 16:52:40.971,28614000,2282217,-6736160,-63934820,-40740970,9472656,2578125
2026-01-14 16:52:40.981,-13065770,-17737230,-26767690,-22306840,12702940,8222656,25317380
2026-01-14 16:52:40.991,2844134,22994780,-67447900,-6384849,69503780,6977539,18835450
2026-01-14 16:52:41.001,-13112380,2308111,-6749969,-22329280,-6921387,3227539,15124510
2026-01-14 16:52:41.011,44241650,2317607,-6754287,-47789260,-11993410,-15979000,12854000
2026-01-14 16:52:41.021,-13152080,-17631060,-26718480,-22341360,-6878662,-3503418,10211180
2026-01-14 16:52:41.031,44094900,23340050,-67689590,-47642530,7972717,-2932129,3488159
2026-01-14 16:52:41.041,-17262920,23426360,-67775900,-18178740,7824707,-28515620,-33721920
2026-01-14 16:52:41.051,-13124460,23521310,-67870860,-22265400,1394043,-20166020,-5456543
2026-01-14 16:52:41.061,-13106340,23607630,-67957180,-22231740,13464360,-123046900,-32928470
2026-01-14 16:52:41.071,27923470,-17587040,-26762510,-63175230,13842770,-16625980,58135980
2026-01-14 16:52:41.081,-13034690,2378027,-6814706,-22130750,13989260,-11785890,5227661
2026-01-14 16:52:41.091,-1298896,43823010,-48259690,-2207290,10076900,-8355713,10656740
2026-01-14 16:52:41.101,-12943200,2393565,-6830244,-22015080,10333250,-6994629,107910200
2026-01-14 16:52:41.111,-12896590,43969750,-48406430,-21958110,10571290,-7702637,73913580
2026-01-14 16:52:41.121,27880310,-17549060,-26800490,-62631430,13574220,-9692383,3842163
2026-01-14 16:52:41.131,-12811140,24160060,-68492340,-21853670,16247560,-463562,-853,5385
2026-01-14 16:52:41.141,-16828830,24237740,-68535490,-17732390,15515140,15687940,-856781
2026-01-14 16:52:41.151,27906200,44234740,-48659340,-62381100,11407470,382,6618,-16880040
2026-01-14 16:52:41.161,-12691150,46505250,-46509670,-21714700,73791500,-30532840,20492550
2026-01-14 16:52:41.171,-12650580,-17407500,-26717620,-21668950,158844,-6726074,33935550
2026-01-14 16:52:41.181,-12626410,2456576,-6863907,-21641330,11642460,-97473140,12359620
2026-01-14 16:52:41.191,27949360,24643430,-68647710,-62148050,-19159320,-13806150,16159060
2026-01-14 16:52:41.201,-12570310,-17298740,-26636480,-21576600,-39642340,-16003420,-12771610
2026-01-14 16:52:41.211,-12546140,-17259900,-26606270,-21548980,-463562,-23583980,-7885742
2026-01-14 16:52:41.221,27957990,-17220190,-26576930,-62018580,-29937740,-2512207,-11798100
2026-01-14 16:52:41.231,27957990,44640430,-49013240,-61966790,-27557370,-21105960,-14660650
2026-01-14 16:52:41.241,43238640,25049120,-68708130,-46634340,-17807010,-21789550,-18249510
2026-01-14 16:52:41.251,27966620,44758680,-49119400,-61854580,-98724370,-25976560,-20080570
2026-01-14 16:52:41.261,27966630,-17070000,-26468170,-61785530,21133420,-28149410,-24267580
2026-01-14 16:52:41.271,-12382140,25316700,-68803080,-21350450,52612300,-24072270,-26049800
2026-01-14 16:52:41.281,-12343300,25411650,-68828980,-21302970,10559080,-18493650,-24499510
2026-01-14 16:52:41.291,27992520,-16963830,-26401700,-61535210,12988280,-14282230,-2602539
2026-01-14 16:52:41.301,-12238850,45092730,-49424100,-21182990,18151860,-21960450,-29907230
2026-01-14 16:52:41.311,28027040,-16888730,-26355960,-61328040,25097660,-29223630,-31323240
2026-01-14 16:52:41.321,-12126640,-16855070,-26337830,-21053520,3059082,-28930660,-3269043
2026-01-14 16:52:41.331,28070210,-16811910,-26311930,-61112260,33081060,-3010254,-3618164
2026-01-14 16:52:41.341,-11998030,26050390,-69105180,-20905910,33984380,-36865230,-36938480
2026-01-14 16:52:41.351,28104730,47449260,-47878940,-60887830,33862300,-4111328,-37280270
2026-01-14 16:52:41.361,28121990,26300720,-69200140,-60766980,35375980,-4645996,-3449707
2026-01-14 16:52:41.371,-11821940,-16622880,-26190230,-20702210,3540039,-5551758,-3293457
2026-01-14 16:52:41.381,28139260,2654243,-6928647,-60559830,33251950,-6376953,-28173830
2026-01-14 16:52:41.391,2813924,45849730,-50117230,-6047349,3305664,-67041020,-31396480
2026-01-14 16:52:41.401,28139260,26723670,-69364140,-60387190,3569336,-5839844,-3503418
2026-01-14 16:52:41.411,-11676070,26809980,-69398660,-20520080,4326172,-43945310,-42163090
2026-01-14 16:52:41.421,-11653630,-16461470,-26092690,-20490730,52441410,-12658690,-46923830
2026-01-14 16:52:41.431,-11649310,-16439890,-26079740,-20477780,63916020,26293940,-5546875
2026-01-14 16:52:41.441,-11652760,-20751490,-21716340,-20474330,74316410,6503906,-6147461
2026-01-14 16:52:41.451,-15640080,2708620,-6948497,-16521540,75878900,10185550,-6230469
2026-01-14 16:52:41.461,-11709730,27155250,-69467710,-20520940,74072260,10908200,-6508789
2026-01-14 16:52:41.471,42422080,46226930,-50447820,-45655510,6923828,8618164,-6435547
2026-01-14 16:52:41.481,-11816760,-16226690,-25895890,-20621070,6376953,7426758,-6489258
2026-01-14 16:52:41.491,-11877180,-16174900,-25844100,-20681490,54785160,7441406,-6484375
2026-01-14 16:52:41.501,2768175,27362410,-69312340,-6036129,5024414,6738281,-6621094
2026-01-14 16:52:41.511,27621360,-16108430,-25772460,-60456240,48632810,6665039,-6904297
2026-01-14 16:52:41.521,2756956,-16085120,-25743970,-6054258,47827150,69433590,-70703130
2026-01-14 16:52:41.531,275002,1,27362410,-69139710,-606460,3,4519043,57714840,-74316410
2026-01-14 16:52:41.541,2744872,-16050600,-25692180,-6076700,42944340,38452150,-8198242
2026-01-14 16:52:41.551,-12322580,2731063,-6900160,-21151060,43798830,19482420,-86328130
2026-01-14 16:52:41.561,27353770,-16018660,-25637800,-61000040,44311520,9262085,-9003906
2026-01-14 16:52:41.571,27301980,27241570,-68846230,-61120880,44750980,-19250490,-9638672
2026-01-14 16:52:41.581,-12561680,27215670,-68768550,-21412590,4802246,-41259770,-10097660
2026-01-14 16:52:41.591,-12627280,-15955650,-25545440,-21485100,46142580,-57958980,-99365230
2026-01-14 16:52:41.601,27207030,27181140,-68630440,-61440260,48486330,-64404300,-10166020
2026-01-14 16:52:41.611,27189780,2716391,-6856140,-61526580,52197260,-6958008,-98339840
2026-01-14 16:52:41.621,2718114,2715526,-6850097,-6160426,54003900,-72753900,-96777340
2026-01-14 16:52:41.631,-12804230,2715526,-6844918,-21687950,5522461,-7402344,-96972660
2026-01-14 16:52:41.641,2718114,2716389,-6838876,-6172511,5698242,-6669922,-9584961
2026-01-14 16:52:41.651,-12841350,27181140,-68336970,-21737140,5917969,-5488281,-9667969
2026-01-14 16:52:41.661,27198400,27215670,-68285180,-61811420,61621100,-31079100,-9589844
2026-01-14 16:52:41.671,27215670,-15708780,-25257140,-61845940,5957031,-10223390,-9399414
2026-01-14 16:52:41.681,-16878120,-15649230,-25195860,-17769420,57958980,-8331299,-94433590
2026-01-14 16:52:41.691,-12872420,2737968,-6808664,-21792390,5498047,-22018430,-89746100
2026-01-14 16:52:41.701,-12877600,27440090,-68008960,-21804470,55859380,8166504,-9033203
2026-01-14 16:52:41.711,27319250,45703850,-49745200,-62018580,5361328,3088379,-90625
2026-01-14 16:52:41.721,-12878460,2759547,-6783632,-21820870,5234375,30688480,-8769531
2026-01-14 16:52:41.731,2739693,2767315,-6774138,-6211354,48632810,1661377,-90722660
2026-01-14 16:52:41.741,-1287763,27759460,-67637800,-2183899,4272461,27319340,-9277344
2026-01-14 16:52:41.751,2750914,-15084720,-24620990,-6222575,41333010,24951170,-9692383
2026-01-14 16:52:41.761,-12857750,27897570,-67430640,-21841590,41845700,1920166,-10117190
2026-01-14 16:52:41.771,27647250,-14906900,-24436270,-62329320,44335940,23950200,-10859380
2026-01-14 16:52:41.781,27716300,-19108970,-20061570,-62381110,41967770,24694820,-11171880
2026-01-14 16:52:41.791,-12803370,28113360,-67111260,-21826910,4177246,23425290,-11777340
2026-01-14 16:52:41.801,-12770560,-14644500,-24163510,-21807930,40527340,12780760,-12255860
2026-01-14 16:52:41.811,27992520,-14560770,-24074610,-62519220,3635254,-4949,57,-12470700
2026-01-14 16:52:41.821,-12686840,28320530,-66783260,-21753540,34594730,-10168460,-125
2026-01-14 16:52:41.831,28225570,28380940,-66671050,-62579640,32104490,-1303711,-12353520
2026-01-14 16:52:41.841,28372310,-14317360,-23817380,-62605540,3371582,-22009280,-12568360
2026-01-14 16:52:41.851,-12490900,-14250030,-23746600,-21604220,34692380,-22814940,-12636720
2026-01-14 16:52:41.861,-12405440,2852770,-6638621,-21534300,3894043,-24157720,-12841800
2026-01-14 16:52:41.871,-12301870,28579470,-66299900,-21447980,40820310,-3635254,-13193360
2026-01-14 16:52:41.881,29036950,-14057540,-23542030,-62579640,42626950,-41186520,-13027340
2026-01-14 16:52:41.891,-12061900,-13997990,-23480740,-21239100,41455080,-37280270,-12509770
2026-01-14 16:52:41.901,-11924660,-13937570,-23420320,-21117390,4255371,-27026370,-1203125
2026-01-14 16:52:41.911,-15922590,-13877140,-23359900,-16843250,47509770,-116882300,-109375
2026-01-14 16:52:41.921,29865590,-13825350,-23308110,-62337950,5029297,10168460,-10136720
2026-01-14 16:52:41.931,-11463730,-13764070,-23248550,-20697890,44213870,11529540,-94091800
2026-01-14 16:52:41.941,30323070,28976530,-65885580,-62156680,47192380,203125,-7841797
2026-01-14 16:52:41.951,30556130,-13649260,-23138930,-62044470,5019531,5917969,-6904297
2026-01-14 16:52:41.961,30780550,45631350,-49299810,-61940890,51171880,81933590,-56689450
2026-01-14 16:52:41.971,31013600,47308570,-47674380,-61828680,51123050,10078130,-45043940
2026-01-14 16:52:41.981,31229400,-1347920,-2298099,-61733740,4177246,12763670,-35864260
2026-01-14 16:52:41.991,-10442600,4570041,-4933433,-19751000,23352050,11943360,-34472660
2026-01-14 16:52:42.001,-10297590,-13357520,-22860990,-19619800,68359380,62109380,-3486328
2026-01-14 16:52:42.011,45197180,-1330657,-2280836,-48163020,-17700200,46173100,-32202150
2026-01-14 16:52:42.021,-10023960,-13266020,-22762590,-19375520,-28100590,-1940918,-26611330
2026-01-14 16:52:42.031,-9895352,2945992,-6545399,-19262440,-35791020,-26098630,-23852540
2026-01-14 16:52:42.041,32446470,2941677,-6541084,-61379840,-33276370,-29614260,-2421875
2026-01-14 16:52:42.051,-9655392,-13268610,-22742740,-19053560,-30078120,-35058590,-21850590
2026-01-14 16:52:42.061,-9544044,45516550,-49121130,-18957740,-2541504,-39941410,-20983890
2026-01-14 16:52:42.071,32998890,29209590,-65307250,-61293520,-19519040,-5439453,-19555660
2026-01-14 16:52:42.081,3317150,29106010,-65289980,-6125898,-1451416,-6430664,-16271970
2026-01-14 16:52:42.091,-9211726,29011060,-65281350,-18668590,-89782710,-6147461,-12060550
2026-01-14 16:52:42.101,33516790,-13468860,-22887750,-61189940,-38604740,-6323242,-8135986
2026-01-14 16:52:42.111,33672160,2882119,-6528137,-61138150,-33447270,-6455078,-40283200
2026-01-14 16:52:42.121,-8883719,4517905,-4883714,-18375110,-35095220,-60595700,32836910
2026-01-14 16:52:42.131,-13050750,2862265,-6530725,-14000920,-49102780,-6303711,58746340
2026-01-14 16:52:42.141,34129640,2852771,-6533316,-60974150,-1003418,-69384770,9234619
2026-01-14 16:52:42.151,-8559168,-17985560,-18923480,-18078180,-15649410,-7290039,14489750
2026-01-14 16:52:42.161,-12747430,-13820170,-23192450,-13700020,-19641110,-75634770,15734860
2026-01-14 16:52:42.171,34535330,-13874550,-23241650,-60792880,-23791500,-74121100,18066410
2026-01-14 16:52:42.181,34664800,28199680,-65402200,-60732460,-28833010,-79589840,20983890
2026-01-14 16:52:42.191,-8174197,-18185300,-19120800,-17720830,-32788090,-8676758,26098630
2026-01-14 16:52:42.201,-8093061,44870900,-48610140,-17646590,-34960940,-8310547,35742190
2026-01-14 16:52:42.211,-8003291,27966620,-65462620,-17563730,-31835940,-69873050,3930664
2026-01-14 16:52:42.221,3513089,27888940,-65471250,-6054256,-2836914,-6430664,42578120
2026-01-14 16:52:42.231,-7841880,44769910,-48538500,-17414400,-30200200,-6069336,46801760
2026-01-14 16:52:42.241,-7752971,-14223270,-23548930,-17330680,-32373050,-43725580,54052740
2026-01-14 16:52:42.251,-7663201,-14277650,-23598140,-17247810,-37426760,-18481440,5996094
2026-01-14 16:52:42.261,-7582928,2758684,-6556620,-17172720,-41992190,20117190,6381836
2026-01-14 16:52:42.271,-7494021,-14377780,-23687900,-17088990,-5498047,5878906,63623050
2026-01-14 16:52:42.281,-7421515,-14433020,-23736240,-17023390,-7138672,8222656,6328125
2026-01-14 16:52:42.291,47922360,27362410,-65600730,-48165430,-8730469,8823242,5854492
2026-01-14 16:52:42.301,35985450,2727612,-6560074,-60171400,-98876950,11445310,5151367
2026-01-14 16:52:42.311,-11568600,2720704,-6558346,-12531030,-10800780,13496090,36132810
2026-01-14 16:52:42.321,-7197955,-14570270,-23840690,-16832630,-11484380,12597660,22583010
2026-01-14 16:52:42.331,36227140,27094830,-65505780,-60205930,-12265630,11103520,42388920
2026-01-14 16:52:42.341,-7145301,-14571130,-23822560,-16798970,-12636720,9399414,-9112549
2026-01-14 16:52:42.351,-7131490,-14548690,-23793210,-16795510,-12685550,7524414,-14929200
2026-01-14 16:52:42.361,36417040,-14516750,-23756100,-60309520,-12451170,61621100,-1529541
2026-01-14 16:52:42.371,-7088331,-14466690,-23702580,-16769620,-12646480,43920900,-12585450
2026-01-14 16:52:42.381,-7058987,27129350,-65195040,-16747170,-12333980,2578125,-120666500
2026-01-14 16:52:42.391,-7021007,27181140,-65143250,-16716100,-12412110,76293940,-7574463
2026-01-14 16:52:42.401,-11340470,2725020,-6510872,-12310320,-12177730,-14135740,-28671260
2026-01-14 16:52:42.411,36753670,-14266430,-23505780,-60266350,-11884770,-20837400,16326900
2026-01-14 16:52:42.421,-6826792,2737968,-6506556,-16530520,-11425780,-27685550,362854
2026-01-14 16:52:42.431,-6740476,2744874,-6506556,-16444200,-11503910,-27172850,8105469
2026-01-14 16:52:42.441,-6636895,4441343,-4816992,-16340620,-11259770,-23461910,13305660
2026-01-14 16:52:42.451,-6524686,27560940,-65091460,-16228410,-10634770,-103271500,15405270
2026-01-14 16:52:42.461,-6412472,-14111060,-23384930,-16116200,-10,29190060,13500980
2026-01-14 16:52:42.471,37366520,-18684330,-18777140,-59653500,-9243164,7434082,65979000
2026-01-14 16:52:42.481,37487360,27733570,-65160520,-59532660,-7895508,14086910,29296880
2026-01-14 16:52:42.491,37616840,2779402,-6518642,-59403180,-68847660,15820310,-5734253
2026-01-14 16:52:42.501,-5922194,44666320,-48400390,-15622470,-58740230,2668457,-9869385
2026-01-14 16:52:42.511,-10166560,2794074,-6521230,-11136410,-4951172,33544920,-1262207
2026-01-14 16:52:42.521,37953470,-13928930,-23256320,-59014760,-40625,3623047,-16308590
2026-01-14 16:52:42.531,3806568,-13871970,-23209710,-5888529,-3371582,28393560,-15698240
2026-01-14 16:52:42.541,-5442272,-13805500,-23155330,-15135640,-3244629,14404300,-7531738
2026-01-14 16:52:42.551,38290110,-13747670,-23109590,-58626340,-30786130,-635376,13183590
2026-01-14 16:52:42.561,-5194542,2849316,-6524682,-14882730,-26586910,-22253420,49865720
2026-01-14 16:52:42.571,38514530,28605370,-65272720,-58332860,-17956540,-3959961,10040280
2026-01-14 16:52:42.581,47420690,28691690,-65307250,-49374900,-12249760,-54785160,16186520
2026-01-14 16:52:42.591,38756210,28778010,-65341780,-57987580,-99731450,-54541020,2166748
2026-01-14 16:52:42.601,-4625716,-13568990,-22994780,-14294920,-24291990,-47998050,25024410
2026-01-14 16:52:42.611,3901516,-13562950,-23000820,-5762507,28442380,-47216800,27172850
2026-01-14 16:52:42.621,-4311521,4541211,-4907021,-13970370,101257300,-4580078,2866211
2026-01-14 16:52:42.631,-4141480,28985160,-65600720,-13795140,15332030,-40405270,28833010
2026-01-14 16:52:42.641,-8321885,-13591440,-23058660,-9286733,1796875,-3486328,29174800
2026-01-14 16:52:42.651,39593490,29028320,-65730200,-56856840,19995120,-26342770,33374020
2026-01-14 16:52:42.661,39748860,2903698,-6579064,-56684210,19921880,-8734131,37109380
2026-01-14 16:52:42.671,-3491516,29045590,-65833780,-13133090,18920900,10058590,35888670
2026-01-14 16:52:42.681,-76749410,29045590,-65885560,-86389260,15112310,2043457,3798828
2026-01-14 16:52:42.691,-3198037,-13680340,-23176910,-12839620,14050290,2709961,34204100
2026-01-14 16:52:42.701,-74072720,29045590,-65937360,-83714300,94177250,29370120,37109380
2026-01-14 16:52:42.711,40448030,-13695880,-23195900,-55985040,25558470,2902832,38110350
2026-01-14 16:52:42.721,-2841549,-13704510,-23204530,-12488310,-58624270,23937990,40405270
2026-01-14 16:52:42.731,-27448720,-13704500,-23204530,-123950800,-125,17016600,4555664
2026-01-14 16:52:42.741,-2657693,2903696,-6596325,-12309630,-1348877,16882320,4375
2026-01-14 16:52:42.751,40870980,45645160,-49337800,-55682930,-9820557,48553470,40454100
2026-01-14 16:52:42.761,-68454370,29019700,-65963260,-78111480,-6896973,67993170,35913090
2026-01-14 16:52:42.771,4102633,45642570,-49340380,-5556207,-871582,13415530,3671875
2026-01-14 16:52:42.781,-2378029,28993800,-65989150,-12036870,-9881592,15441900,35058590
2026-01-14 16:52:42.791,-2326239,28976530,-66006420,-11985080,-12384030,26538090,36621100
2026-01-14 16:52:42.801,-2283081,28959270,-66023680,-11941920,-1430664,5288086,38452150
2026-01-14 16:52:42.811,-22390570,2893343,-6603230,-118996300,-14489750,7963867,38549800
2026-01-14 16:52:42.821,-22131620,2890753,-6605819,-118737300,-1854248,91064460,32592770
2026-01-14 16:52:42.831,-21950360,28881590,-66049570,-118573300,-23144530,6899414,2746582
2026-01-14 16:52:42.841,-65342640,-13856420,-23346090,-75008380,-26245120,28442380,21655270
2026-01-14 16:52:42.851,-21838140,45570070,-49292040,-118512900,-23718260,-17077640,7574463
2026-01-14 16:52:42.861,-65340050,-13885770,-23368530,-75010980,-2310791,-44384770,16479490
2026-01-14 16:52:42.871,-21812240,-13904760,-23384070,-118538800,-19311520,-47070310,-3479004
2026-01-14 16:52:42.881,-21812240,-18187800,-19135560,-118538800,-11529540,-3474121,-7696533
2026-01-14 16:52:42.891,-21812240,45512230,-49246290,-118538800,-57403560,-3322754,-12683110
2026-01-14 16:52:42.901,-21725930,28691690,-66066840,-118452500,3363037,-41455080,-13842770
2026-01-14 16:52:42.911,-2156192,-1395741,-2343500,-11827120,10321050,-46289060,-14233400
2026-01-14 16:52:42.921,-2131162,-13965190,-23444490,-11800360,17529300,-47265620,-14465330
2026-01-14 16:52:42.931,41397500,28691690,-66118630,-55277240,19030760,-4958496,-10040280
2026-01-14 16:52:42.941,-2063834,2870033,-6614452,-11729580,20483400,-46655270,-34423830
2026-01-14 16:52:42.951,-2021541,28700320,-66161780,-11685560,22924800,-38427740,-4849243
2026-01-14 16:52:42.961,-19706120,28700320,-66179050,-116329100,23632810,-29125980,-11779790
2026-01-14 16:52:42.971,-19101900,-13994530,-23484200,-115724900,28344730,-20983890,-37109380
2026-01-14 16:52:42.981,-1848906,-13994530,-23484200,-11512930,30517580,-52948,-11218260
2026-01-14 16:52:42.991,4826245,2873485,-6617905,-4839504,24047850,25146480,-20544430
2026-01-14 16:52:43.001,-1734105,2875211,-6614452,-11403310,25439450,31079100,-24890140
2026-01-14 16:52:43.011,-16883560,-13916840,-23406510,-113627400,1809082,3786621,-24646000
2026-01-14 16:52:43.021,-59896920,28821160,-66058200,-69578200,120910600,4489746,-27905270
2026-01-14 16:52:43.031,42018990,-13815860,-23300340,-54880180,52520750,4716797,-2919922
2026-01-14 16:52:43.041,-154681,8,45556250,-49254060,-1124533,20492550,4020996,-31054690
2026-01-14 16:52:43.051,42182990,-13671710,-23151020,-54906080,-7385254,28344730,-30639650
2026-01-14 16:52:43.061,-1468251,29045580,-65712940,-11185790,-13903810,18188480,-29492190
2026-01-14 16:52:43.071,42329730,2911466,-6562664,-54931980,-2084961,30334470,-2993164
2026-01-14 16:52:43.081,-1399196,-13442110,-22914510,-11134000,-25756840,-22598270,-31030270
2026-01-14 16:52:43.091,-57536150,29244110,-65462620,-67277860,-34838870,-30319210,-28051760
2026-01-14 16:52:43.101,-13405000,29295910,-65393570,-110891100,-38989260,-15022280,-2565918
2026-01-14 16:52:43.111,-13111520,29356330,-65333150,-110666700,-3947754,-20385740,-26123050
2026-01-14 16:52:43.121,48187180,2939951,-6527275,-49419780,-39501950,-36254880,-25
2026-01-14 16:52:43.131,-1263678,-13159850,-22627070,-11027830,-38671880,-8892822,-22338870
2026-01-14 16:52:43.141,-1244689,-13125320,-22592540,-11012290,-35180660,-16711430,-24731440
2026-01-14 16:52:43.151,-1226562,-13108060,-22575280,-10995890,-30639650,-15930180,-2331543
2026-01-14 16:52:43.161,-1209300,45562300,-49127180,-10978620,-27319340,-10131840,-27539060
2026-01-14 16:52:43.171,4276993,45562300,-49127180,-5492333,-23950200,1182251,-32080080
2026-01-14 16:52:43.181,-1183406,29537590,-65169140,-10952730,-13708500,17150880,-3227539
2026-01-14 16:52:43.191,-1174774,29537590,-65169140,-10944100,-6365967,10424810,-32592770
2026-01-14 16:52:43.201,-1167006,29546220,-65160510,-10934600,-11131290,13269040,-3244629
2026-01-14 16:52:43.211,-1157509,-13070940,-22543340,-10926840,26321410,14794920,-33325200
2026-01-14 16:52:43.221,-1148877,-13070940,-22543340,-10918210,39611820,19238280,-34887700
2026-01-14 16:52:43.231,-1148879,29554850,-65151880,-10918200,5053711,19104000,-24707030
2026-01-14 16:52:43.241,42830370,45574380,-49132360,-54880180,26626590,13757320,-23986820
2026-01-14 16:52:43.251,42847630,29563490,-65125990,-54880180,-27648930,11871340,-24243160
2026-01-14 16:52:43.261,-1128161,-13047640,-22514860,-10904400,-33081060,60699460,-21069340
2026-01-14 16:52:43.271,42882160,-13039870,-22505370,-54897450,-33050540,-4096985,-1706543
2026-01-14 16:52:43.281,-1108308,-13041600,-22503640,-10889720,-46691900,-21896360,-12182620
2026-01-14 16:52:43.291,42916690,-13042460,-22502780,-54914720,-4550171,28266910,-12854000
2026-01-14 16:52:43.301,-1105719,-13052820,-22509680,-10892310,-72021490,6591797,-12414550
2026-01-14 16:52:43.311,-1104855,2948581,-6506556,-10893170,-9454346,7965088,-99975580
2026-01-14 16:52:43.321,42951210,45479430,-49037410,-54949240,-11462400,9490967,-5529785
2026-01-14 16:52:43.331,-1120393,-13073530,-22523490,-10912160,-15466310,115600600,-58685300
2026-01-14 16:52:43.341,-1128163,29416750,-65048300,-10921660,-14379880,11413570,-34423830
2026-01-14 16:52:43.351,-1154056,2939949,-6504830,-10947550,-14465330,71777340,-2079773
2026-01-14 16:52:43.361,48368450,29373590,-65039670,-49583790,-121521000,29891970,-25405880
2026-01-14 16:52:43.371,-1214479,45412970,-48983020,-11007970,-9088135,44830320,-35003660
2026-01-14 16:52:43.381,-1249006,29339060,-65056930,-11042500,-3756714,50628660,-19760130
2026-01-14 16:52:43.391,-56906900,-13157260,-22595130,-66698670,-5340576,-13931270,956,0585
2026-01-14 16:52:43.401,-13284150,-13174520,-22612400,-111184600,3499,985,-7562256,1108551
2026-01-14 16:52:43.411,-1363805,2927865,-6510009,-11152120,26748660,-51513670,-9841919
2026-01-14 16:52:43.421,-1399196,-13209050,-22646920,-11185790,17745970,-12854000,-10971070
2026-01-14 16:52:43.431,42597310,-13234940,-22672820,-55234090,7434082,-10864260,20866390
2026-01-14 16:52:43.441,-1454439,45400880,-48995110,-11234120,113098100,-16137700,-14419560
2026-01-14 16:52:43.451,42528260,45398300,-48997700,-55251340,1459961,-1743164,-6023407
2026-01-14 16:52:43.461,-1482925,29192320,-65220930,-11257430,15686040,-4348755,184021
2026-01-14 16:52:43.471,42485100,29166430,-65246830,-55242710,19018560,-1459961,20462040
2026-01-14 16:52:43.481,42476470,45400880,-49012380,-55234080,18408200,-20214840,49835200
2026-01-14 16:52:43.491,-1485513,45398290,-49014960,-11254840,18286130,-10601810,56396480
2026-01-14 16:52:43.501,-1477746,29097370,-65315880,-11245340,2154541,-12658690,45043940
2026-01-14 16:52:43.511,-1460483,29080110,-65333140,-11228080,22937010,-18908690,3503418
2026-01-14 16:52:43.521,-1434587,45383620,-49012370,-11202190,26220700,-25195310,9880066
2026-01-14 16:52:43.531,-1400061,29036950,-65359040,-11167660,26342770,-16381840,-19256590
2026-01-14 16:52:43.541,-57609520,29019690,-65376300,-67377120,2619629,-11730960,-13885500
2026-01-14 16:52:43.551,-57264260,29011060,-65384930,-67031850,25097660,-108947800,-33172610
2026-01-14 16:52:43.561,-1286986,29002430,-65393570,-11056310,22839360,-770874,-25619510
2026-01-14 16:52:43.571,-1235196,29002430,-65393570,-11004520,19702150,17303470,-34362790
2026-01-14 16:52:43.581,48247610,-13476630,-22914510,-49462950,13476560,23635860,-36716460
2026-01-14 16:52:43.591,42839000,-13476630,-22914510,-54888820,97351070,-15029910,2796936
2026-01-14 16:52:43.601,-54843940,-13477500,-22913640,-64618440,87890620,-37841800,6262207
2026-01-14 16:52:43.611,-10323480,-13477490,-22913640,-108103100,6616211,-50048830,9649658
2026-01-14 16:52:43.621,-979698,28976530,-65367670,-10759380,5038452,-55633540,12634280
2026-01-14 16:52:43.631,-927044,5,28976530,-65367670,-10708450,48187260,-50323490,11621090
2026-01-14 16:52:43.641,43149740,28976530,-65367680,-54681660,50842280,-30471800,16186520
2026-01-14 16:52:43.651,43210160,2895929,-6536769,-54638500,7562256,-2079773,17358400
2026-01-14 16:52:43.661,-7699456,2895932,-6536767,-105548100,7299805,-769043,21044920
2026-01-14 16:52:43.671,-725924,5,2895927,-6536767,-10512520,8068848,-2104187,23425290
2026-01-14 16:52:43.681,-674135,-13496490,-22929180,-10460730,80322260,8856201,23803710
2026-01-14 16:52:43.691,4838051,28950630,-65393570,-4948538,9338379,13885500,27978520
2026-01-14 16:52:43.701,-595587,5,45349090,-48995110,-10383900,10229490,-6072998,29833980
2026-01-14 16:52:43.711,-552430,5,28933370,-65410830,-10340750,6097412,16494750,30664060
2026-01-14 16:52:43.721,-49226440,28924740,-65419460,-59014760,10076900,6262207,30810550
2026-01-14 16:52:43.731,-48882040,28907480,-65436720,-58668630,8947754,10748290,28051760
2026-01-14 16:52:43.741,-48623090,28898850,-65445350,-58409670,9588623,10083010,2607422
2026-01-14 16:52:43.751,-432450,28890210,-65453980,-10219040,10803220,1026001,28271480
2026-01-14 16:52:43.761,-415186,5,28872950,-65471250,-10201770,9313965,13806150,25830080
2026-01-14 16:52:43.771,48395210,28872950,-65471250,-49453450,111816400,18664550,23828120
2026-01-14 16:52:43.781,43641740,28864320,-65479880,-54206910,115112300,21496580,20153810
2026-01-14 16:52:43.791,43641750,-13589710,-23025850,-54206920,12768560,2220459,14172360
2026-01-14 16:52:43.801,43633120,-13581080,-23017230,-54198280,1184082,22485350,11102300
2026-01-14 16:52:43.811,48386580,4536034,-4901844,-49444820,8795166,21850590,80322260
2026-01-14 16:52:43.821,43607220,28924740,-65471250,-54224180,7739258,16271970,54504400
2026-01-14 16:52:43.831,-435038,45381030,-49032230,-10216450,7757568,12817380,-88272100
2026-01-14 16:52:43.841,-48625670,-13499940,-22942990,-58407090,11254880,107299800,-44281010
2026-01-14 16:52:43.851,-48884630,29045590,-65419460,-58666040,12780760,47210690,-70007330
2026-01-14 16:52:43.861,-49229900,-13428290,-22876530,-59011310,13232420,37017820,-10491940
2026-01-14 16:52:43.871,4346911,-13384280,-22834230,-5434504,113586400,6555176,-15820310
2026-01-14 16:52:43.881,43443220,45461300,-49072800,-54388180,13879400,22253420,-24609380
2026-01-14 16:52:43.891,43408690,2927866,-6527274,-54439970,18371580,24938960,-28173830
2026-01-14 16:52:43.901,-656871,5,-13190920,-22647790,-10443460,23132320,1295166,-31030270
2026-01-14 16:52:43.911,43365530,45507920,-49077980,-54534910,23046880,4562378,-32373050
2026-01-14 16:52:43.921,-723335,2953760,-6506556,-10515110,23095700,38024900,-32617190
2026-01-14 16:52:43.931,-7561352,47318830,-47318860,-105513600,22375490,-16586300,-30395510
2026-01-14 16:52:43.941,-51897080,2973615,-6491880,-61695760,16088870,-16967770,-2626953
2026-01-14 16:52:43.951,-7967044,45602860,-49103870,-105971100,8746338,-34765620,-22729490
2026-01-14 16:52:43.961,43296480,-12681650,-22155780,-54724810,19714360,-35473630,-22338870
2026-01-14 16:52:43.971,-820873,5,-16867160,-17814910,-10624730,-18997190,-25317380,-22631840
2026-01-14 16:52:43.981,-829504,5,3014181,-6468577,-10633360,-38757320,-20532230,-21826170
2026-01-14 16:52:43.991,-829506,45718530,-49160840,-10633360,-10925290,-16271970,-25097660
2026-01-14 16:52:44.001,43279210,30305810,-64625350,-54742070,65307620,-13720700,-23376460
2026-01-14 16:52:44.011,43279210,30383500,-64599460,-54724810,19104000,-15441900,-24987790
2026-01-14 16:52:44.021,-814831,-12313080,-21816560,-10613510,4135132,-14123540,-22692870
2026-01-14 16:52:44.031,-5215691,-12275970,-21784620,-6195385,6945801,-9942627,-21276860
2026-01-14 16:52:44.041,-51985990,-12247480,-21761310,-61779480,11779790,-61309820,-18310550
2026-01-14 16:52:44.051,-51814220,3061658,-6457354,-61605980,11968990,-86242670,-15771480
2026-01-14 16:52:44.061,-51643310,45917060,-49307580,-61431620,13244630,-4864502,-1550293
2026-01-14 16:52:44.071,-51471540,-16467680,-17420270,-61258130,17321780,-4532,337,-14038090
2026-01-14 16:52:44.081,43305110,-12162030,-21691400,-54543550,23205570,-28671260,-1270752
2026-01-14 16:52:44.091,43313740,30754660,-64573560,-54517650,21557620,48553470,-9991455
2026-01-14 16:52:44.101,-693987,-12132680,-21668960,-10475400,17504880,8270264,-60546880
2026-01-14 16:52:44.111,-676723,5,3078919,-6457356,-10458140,13317870,-5869,865,-16922000
2026-01-14 16:52:44.121,-668092,-12114550,-21652550,-10449510,11859130,6524658,15487670
2026-01-14 16:52:44.131,-659460,5,-12114550,-21652550,-10440870,1348877,23544310,19134520
2026-01-14 16:52:44.141,-650829,-12114550,-21652550,-10432240,17651370,-3942871,2897644
2026-01-14 16:52:44.151,-650831,30823710,-64573560,-10432240,1998291,16101070,11146550
2026-01-14 16:52:44.161,-650831,30823710,-64573560,-10432240,1328125,13427730,29724120
2026-01-14 16:52:44.171,-650831,30823710,-64573560,-10432240,814209,8380127,43518060
2026-01-14 16:52:44.181,43365530,-12097290,-21635290,-54465870,73127740,14099120,54107660
2026-01-14 16:52:44.191,43356900,-12089520,-21625800,-54491760,-3591919,13146970,29144290
2026-01-14 16:52:44.201,-691400,30815080,-64530400,-10477990,-23773190,107055700,15571590
2026-01-14 16:52:44.211,4333098,30815080,-64513130,-5455217,32691960,6555176,-4638672
2026-01-14 16:52:44.221,-51470680,30823710,-64504500,-61258990,6311035,44891360,-7171631
2026-01-14 16:52:44.231,-51729630,30840970,-64487240,-61517940,8581543,-51002500,-106933600
2026-01-14 16:52:44.241,-51988580,30849600,-64478600,-61776890,11126710,-32318120,-10888670
2026-01-14 16:52:44.251,-820875,5,30875500,-64469980,-10607460,10662840,11539460,-1262207
2026-01-14 16:52:44.261,-838137,-12020470,-21556740,-10624730,59448240,8712769,-14453130
2026-01-14 16:52:44.271,48348600,-12002340,-21540350,-49500060,39367680,-4458618,-16784670
2026-01-14 16:52:44.281,43141100,46024090,-49373180,-54690290,50079340,-1928711,-14208980
2026-01-14 16:52:44.291,-901147,5,-11956600,-21499780,-10682560,87646480,-6744385,-16540530
2026-01-14 16:52:44.301,-910644,5,31013600,-64435440,-10690330,13134770,-9069824,-1508789
2026-01-14 16:52:44.311,43089320,-11919480,-21467840,-54690290,1784668,-50933840,-17797850
2026-01-14 16:52:44.321,-912370,5,31091290,-64426820,-10688600,18798830,-49865720,-15808110
2026-01-14 16:52:44.331,-904600,5,-11864240,-21419500,-10679110,20837400,-4348755,-16442870
2026-01-14 16:52:44.341,43080690,-11836610,-21395330,-54647130,19750980,-53100580,-13330080
2026-01-14 16:52:44.351,43097940,31229400,-64409560,-54629860,23034670,-12512210,-9295654
2026-01-14 16:52:44.361,43115220,-11771880,-21339230,-54595340,18774410,9796143,-847168
2026-01-14 16:52:44.371,-829505,-11735630,-21306420,-10598830,16052250,57739260,-7556152
2026-01-14 16:52:44.381,-51911760,31376140,-64366390,-61681080,15368650,-48431400,-4208374
2026-01-14 16:52:44.391,-51566490,-11671750,-21249450,-61335820,12323000,-2180481,-118637100
2026-01-14 16:52:44.401,48294220,46254560,-49539770,-49416340,93811030,-9117,127,-1499176
2026-01-14 16:52:44.411,43279220,46265780,-49545810,-54431340,8337402,15777590,37719730
2026-01-14 16:52:44.421,43331000,-11582840,-21165730,-54396810,6768799,12680050,60150140
2026-01-14 16:52:44.431,-602492,-11556090,-21140700,-10377000,8105469,33691410,45166020
2026-01-14 16:52:44.441,-567102,-11521560,-21106170,-10343340,6994629,21728520,7208252
2026-01-14 16:52:44.451,-5317120,31643730,-64219660,-103096700,6359863,24124150,58013920
2026-01-14 16:52:44.461,-48884630,31669620,-64193760,-58666040,19851680,3086853,10229490
2026-01-14 16:52:44.471,43572700,-11443870,-21028490,-54258710,-920105,33996580,8148193
2026-01-14 16:52:44.481,-415184,5,-11426610,-21011220,-10201780,-3778076,5709839,10089110
2026-01-14 16:52:44.491,43667640,3172143,-6410747,-54232810,-22079470,8660889,86242670
2026-01-14 16:52:44.501,-351309,5,3174731,-6408155,-10144810,-38337710,4849243,6512451
2026-01-14 16:52:44.511,-4732319,31764560,-64047020,-5712009,3717041,16464230,56854250
2026-01-14 16:52:44.521,-288301,31790460,-64021130,-10086970,55999760,14862060,26519780
2026-01-14 16:52:44.531,43857530,31816350,-63995240,-54163750,1138916,48187260,1361084
2026-01-14 16:52:44.541,-46370220,31850880,-63960700,-56174070,115112300,24917600,969696
2026-01-14 16:52:44.551,-45937770,-11220310,-20803200,-55743360,115478500,51956180,17150880
2026-01-14 16:52:44.561,-145013,-11184920,-20769540,-9954048,869751,-13267520,25634770
2026-01-14 16:52:44.571,-100991,3198900,-6385713,-9911752,9320068,-12123110,3213501
2026-01-14 16:52:44.581,-56109,5,32032150,-63831240,-9870318,6149292,-3845215,3970337
2026-01-14 16:52:44.591,-12087,5,32075310,-63788080,-9828023,69885260,-9437561,60058590
2026-01-14 16:52:44.601,414320,-11019190,-20607260,-97779610,72387700,2218,485,50598140
2026-01-14 16:52:44.611,-47760000,-10966540,-20556330,-48742120,6512451,11184690,41290280
2026-01-14 16:52:44.621,44349540,32247940,-63667230,-53896170,8239746,-12573240,24734500
2026-01-14 16:52:44.631,191622,-10861240,-20454480,-9634676,88378900,-44036860,309906
2026-01-14 16:52:44.641,44479020,-10808580,-20403550,-53818490,80566410,-61569220,17608640
2026-01-14 16:52:44.651,297789,5,32437830,-63529130,-9533683,10211180,39031980,12962340
2026-01-14 16:52:44.661,-40744100,-15005220,-15965230,-50579020,11352540,51330570,18051150
2026-01-14 16:52:44.671,44668920,-10615230,-20217110,-53697650,113586400,3717041,11993410
2026-01-14 16:52:44.681,457476,32670890,-63365120,-9382628,10437010,26931760,-1083374
2026-01-14 16:52:44.691,510994,-10465910,-20072960,-9332566,11383060,-14247890,2313614
2026-01-14 16:52:44.701,5645108,32852160,-63235650,-92825020,11102300,48797610,-16723630
2026-01-14 16:52:44.711,-38060510,-10299310,-19911540,-47910970,9576416,8013916,-23483280
2026-01-14 16:52:44.721,-37540020,-10203500,-19817460,-47395660,7800293,12072750,-39520260
2026-01-14 16:52:44.731,7259236,46586880,-49569980,-91331740,87890620,13781740,-40100100
2026-01-14 16:52:44.741,45178180,-10011880,-19629290,-53481860,423584,120910600,-501709
2026-01-14 16:52:44.751,45247240,-9899664,-19517080,-53464590,30303960,11846920,-57861330
2026-01-14 16:52:44.761,-35629830,3349955,-6269184,-45507920,43029780,11743160,-7922363
2026-01-14 16:52:44.771,-35194790,-9674378,-19293520,-45079780,22369380,6335449,-80200190
2026-01-14 16:52:44.781,9762424,-9562166,-19181310,-89173830,22354130,12672420,-8526611
2026-01-14 16:52:44.791,10314860,-9441321,-19060460,-88690460,16159060,-4764557,-8135986
2026-01-14 16:52:44.801,1078959,3395701,-6221711,-8830203,62179560,-21347050,-6542969
2026-01-14 16:52:44.811,45765140,-9200500,-18817920,-53412800,8140564,44769290,-7019043
2026-01-14 16:52:44.821,-32671750,-9079656,-18697070,-42596450,37017820,-5618286,-6732178
2026-01-14 16:52:44.831,-32063220,-8958814,-18576230,-41996550,7702637,-15722660,-6982422
2026-01-14 16:52:44.841,13275520,-8837968,-18455380,-86126850,3643799,-4006958,-7885742
2026-01-14 16:52:44.851,46153560,-8717126,-18334540,-53317850,3137207,-3164673,-99853520
2026-01-14 16:52:44.861,-30066710,-8587650,-18205060,-40022490,47607420,-12817380,-8258057
2026-01-14 16:52:44.871,-29372730,-8466808,-18084220,-39335400,-11001590,-95581060,-75927740
2026-01-14 16:52:44.881,1627933,-8345967,-17963380,-8343377,-51330570,-8929443,-81726070
2026-01-14 16:52:44.891,1718564,35044600,-61112260,-8261374,-41015620,-625,-7495117
2026-01-14 16:52:44.901,-26856590,35165440,-60991410,-36845160,-6567383,-37261960,-9515381
2026-01-14 16:52:44.911,-26076290,-7976529,-17590490,-36071770,-4586792,62942500,-11273190
2026-01-14 16:52:44.921,46999460,-7855686,-17469650,-53041640,-38238520,55770870,-8782959
2026-01-14 16:52:44.931,20707390,3553664,-6060300,-79402770,11726380,-3338623,-9509277
2026-01-14 16:52:44.941,-27983630,-7596736,-17210690,-28985420,5291748,-21835330,-9741211
2026-01-14 16:52:44.951,4736198,35804190,-60352670,-5288626,37384030,-3201294,-10668950
2026-01-14 16:52:44.961,-21742330,35942300,-60214560,-31774050,19439700,-262146,-86242670
2026-01-14 16:52:44.971,24384480,3608043,-6009372,-76001900,-404,1195,-36010740,-692749
2026-01-14 16:52:44.981,47733160,-7059845,-16677260,-52722270,-26229860,-49743650,-80444340
2026-01-14 16:52:44.991,-18969830,-6921739,-16539150,-29022280,-13923650,-23345950,-74035650
2026-01-14 16:52:45.001,-18016890,-6782769,-16401910,-28076250,-35572050,-10429380,-7800293
2026-01-14 16:52:45.011,501102,5,-6636031,-16255170,-505522,9,4295349,5508423,-7043457
2026-01-14 16:52:45.021,-16111020,-6497924,-16117060,-26184190,22296910,88134770,-1038208
2026-01-14 16:52:45.031,30202230,-6342551,-15961690,-70598460,41046140,-11817930,-6402588
2026-01-14 16:52:45.041,48510000,37098940,-59109710,-52359730,34942630,-10627750,-81848140
2026-01-14 16:52:45.051,-13252210,37254300,-58954340,-23346090,32165530,15454100,-10028080
2026-01-14 16:52:45.061,-12385590,37409680,-58798960,-22486370,3729248,82336420,-10003660
2026-01-14 16:52:45.071,3405193,37565050,-58643590,-6702494,3338623,-8856201,-9686279
2026-01-14 16:52:45.081,35035960,37729050,-58479600,-66109990,4722595,-4638672,-11291500
2026-01-14 16:52:45.091,36019970,37884420,-58324230,-65195040,-17974850,14205930,-7952881
2026-01-14 16:52:45.101,3701260,38048420,-58160220,-6428870,-22644040,-28839110,-8856201
2026-01-14 16:52:45.111,-7620042,-5090961,-14710100,-17757080,-61950680,-29449460,-6524658
2026-01-14 16:52:45.121,39066960,-4935588,-14554730,-62372480,-10852050,-57029720,-76293940
2026-01-14 16:52:45.131,-5626989,-4789717,-14407130,-15779560,-12768560,11260990,-78125
2026-01-14 16:52:45.141,-4674054,38635380,-57521480,-14833530,-115112300,20828250,-64575200
2026-01-14 16:52:45.151,-3807432,-4489335,-14103290,-13973820,-12585450,21759030,-7879639
2026-01-14 16:52:45.161,42925320,-4343457,-13955690,-58807600,-14807130,-7965088,-75683590
2026-01-14 16:52:45.171,43823010,3904109,-5706402,-57978960,-15332030,1638794,-68725580
2026-01-14 16:52:45.181,-57054510,39179170,-56908630,-67241610,-15930180,39215090,-8905029
2026-01-14 16:52:45.191,-48419380,-82462700,-92069760,-58613390,-15515140,390625,-44921880
2026-01-14 16:52:45.201,-39784250,-3785851,-13391180,-49985160,-11230470,6616211,-52703860
2026-01-14 16:52:45.211,-32013160,-79701420,-89306750,-42219250,-8862305,5404663,-60577390
2026-01-14 16:52:45.221,21717290,39697070,-56338940,-80412680,-90270990,12756350,-43548580
2026-01-14 16:52:45.231,-16470100,-77027340,-86629210,-26688280,-49743650,43151860,-4840088
2026-01-14 16:52:45.241,-9562169,-3243783,-12845660,-19785520,-6374359,3137207,-42022700
2026-01-14 16:52:45.251,5113573,-78499820,-79459830,-5114961,36830900,2986145,-57037350
2026-01-14 16:52:45.261,51159930,-2950304,-12552180,-51159930,47729490,33691410,-40405270
2026-01-14 16:52:45.271,12886220,-71244110,-80845980,2650784,7672119,99487300,-40161130
2026-01-14 16:52:45.281,2151960,40560240,-55475770,1128075,7867432,22029880,-13504030
2026-01-14 16:52:45.291,77106750,-68221300,-77826630,-25316710,3768921,3137207,-9429932
2026-01-14 16:52:45.301,39649590,-2344365,-11949690,29403800,18371580,53222660,-32920840
2026-01-14 16:52:45.311,55648410,-2188991,-11794320,-46844100,20812990,54351810,24414060
2026-01-14 16:52:45.321,58642730,-2024130,-11631180,48390030,6335449,8666992,15716550
2026-01-14 16:52:45.331,11429200,41380250,-54707550,1173047,93688970,25650020,1058197
2026-01-14 16:52:45.341,12379540,-60191260,-69801760,2121663,11529540,12550350,21850590
2026-01-14 16:52:45.351,52135310,-1513131,-11123640,-50478030,13513180,8583069,24093630
2026-01-14 16:52:45.361,9835362,-1339636,-10951870,8809056,16015630,-7282257,19577030
2026-01-14 16:52:45.371,154912700,-54837890,-64451860,52247520,15429690,-4031372,552063
2026-01-14 16:52:45.381,16700560,42303840,-53853020,6432326,11315920,-34057620,57678220
2026-01-14 16:52:45.391,17823540,-775988,-10393400,7553578,98083500,-24856570,5923462
2026-01-14 16:52:45.401,52748160,-49224710,-58843860,-49968770,8129883,66719060,6439209
2026-01-14 16:52:45.411,20329320,4289079,-5330060,10054180,87646480,-957489,826416
2026-01-14 16:52:45.421,6778452,43089320,-53119320,-3498416,7366943,68206780,9399414
2026-01-14 16:52:45.431,69087920,-60416,-96269060,-33698050,29800420,-4585266,9698486
2026-01-14 16:52:45.441,24130710,201979,5,-9420610,13848660,10978700,24017330,12963870
2026-01-14 16:52:45.451,71703330,400510,5,-9222084,-31134450,-25100710,39978030,117248500
2026-01-14 16:52:45.461,26721940,-37224960,-46847550,16436430,24124150,50201420,13244630
2026-01-14 16:52:45.471,23301980,-35153360,-44775950,22273260,395813,8795166,12213140
2026-01-14 16:52:45.481,75527140,-37325510,-38287950,-27362410,9222412,7147217,1472168
2026-01-14 16:52:45.491,76830540,-3075033,-4037469,-26076290,23815920,7885742,14416500
2026-01-14 16:52:45.501,78125280,44807020,-51453420,-24781540,29174800,89660650,14855960
2026-01-14 16:52:45.511,7942865,47822060,-48438370,-2349540,34716800,-56495670,18017580
2026-01-14 16:52:45.521,34494760,19904640,-76355790,24200620,36694340,4272461,22460940
2026-01-14 16:52:45.531,5455216,22580460,-73679970,-4838916,4206543,17236330,24291990
2026-01-14 16:52:45.541,83761770,25428910,-70831520,-19196840,4741211,171875,2722168
2026-01-14 16:52:45.551,38984950,-19112690,-20075120,28687370,5371094,24682620,2854004
2026-01-14 16:52:45.561,86895060,-11416250,-21038850,-16115340,5317383,3310547,31445310
2026-01-14 16:52:45.571,42182130,-7879858,-17497270,31877640,50878900,31518560,33984380
2026-01-14 16:52:45.581,51926430,-4084507,-13696740,-51153030,4567871,24267580,3486328
2026-01-14 16:52:45.591,91961860,-43534710,-53140040,-11169390,32250980,24890140,33520510
2026-01-14 16:52:45.601,47282580,47982880,-47984090,36962560,25341800,35302740,33398440
2026-01-14 16:52:45.611,56010940,85911060,-9952326,-47241150,23510740,3955078,3371582
2026-01-14 16:52:45.621,50654980,56330300,-39412220,40322870,19665530,31103520,35791020
2026-01-14 16:52:45.631,9882402,61017300,-34604380,-456613,4,1060791,1899414,34472660
2026-01-14 16:52:45.641,10049860,22900700,13352340,-296064,8,-109939600,6774902,35498050
2026-01-14 16:52:45.651,10216450,70805620,-24539850,-134651,4,-9106445,-9057617,34228520
2026-01-14 16:52:45.661,10374410,32899630,23378890,18127,71,-203125,-1907959,29467770
2026-01-14 16:52:45.671,54120770,47559140,-47492850,53084630,-36767580,-23181150,265625
2026-01-14 16:52:45.681,57340210,42725070,33233670,-46308930,-48168940,-28222660,2130127
2026-01-14 16:52:45.691,61893420,90192360,-4566160,51526780,-50146480,-2915039,18066410
2026-01-14 16:52:45.701,11009700,9478442,16399,27,643059,7,-50097660,-19213870,11584470
2026-01-14 16:52:45.711,64914510,9921244,471286,8,54547870,-5522461,-14575200,9466553
2026-01-14 16:52:45.721,11303180,61170090,51732220,936539,2,-5751953,-21606440,39611820
2026-01-14 16:52:45.731,58082540,10780960,1355170,-45566610,-5229492,-107910200,37353520
2026-01-14 16:52:45.741,6905515,69530730,60117020,5869369,-53515620,-8465576,-11001590
2026-01-14 16:52:45.751,70261830,11580250,2178632,59903820,-57666020,-17797850,-27404780
2026-01-14 16:52:45.761,58393280,5422420,-3968847,-45152290,-59716800,-18640140,-31234740
2026-01-14 16:52:45.771,72501750,123217200,29390860,62152380,-5620117,-120788600,-36743160
2026-01-14 16:52:45.781,12008390,12670430,3298162,1664188,-5078125,-120910600,-39886480
2026-01-14 16:52:45.791,12100740,13002750,3639113,1761725,-4338379,-15063480,-70495610
2026-01-14 16:52:45.801,75428750,9108053,8172553,65094910,-41333010,-113220200,-5380249
2026-01-14 16:52:45.811,12276830,55691560,-37789470,1948172,-39746100,-96069340,-9124756
2026-01-14 16:52:45.821,12359690,5594188,-3745284,2037939,-3581543,-109069800,-7159424
2026-01-14 16:52:45.831,12434790,14195650,4863085,2118214,-33789060,-6726074,-64575200
2026-01-14 16:52:45.841,74057430,14468410,5142750,73026300,-33862300,-26885990,-74279780
2026-01-14 16:52:45.851,5893706,56658310,-36529250,-4410783,-32250980,-45288090,-7623291
2026-01-14 16:52:45.861,12633320,56874100,-36244400,2334007,-2854004,-34057620,-758667
2026-01-14 16:52:45.871,12681650,57098520,-35968190,2389250,-22094730,3463745,-41503900
2026-01-14 16:52:45.881,76386780,15448110,6148339,75358060,-15612790,155181900,-44769290
2026-01-14 16:52:45.891,12779190,57504220,-35441660,2498873,-7702637,-57525640,-5731201
2026-01-14 16:52:45.901,12819760,15899550,6611863,2544619,-43060300,-3265381,-231781
2026-01-14 16:52:45.911,12860330,16112750,6830245,2590366,-28823850,-390625,-119018600
2026-01-14 16:52:45.921,12909530,5806527,-3469070,2644745,-21652220,-803833,-14923100
2026-01-14 16:52:45.931,52080070,16528800,7260099,-50516010,-28915400,-1295166,-15602110
2026-01-14 16:52:45.941,83848950,16723870,7462081,73592790,-43518060,-8648682,-209198
2026-01-14 16:52:45.951,13050230,58557280,-33991540,2797529,-9240723,-52612300,-2355957
2026-01-14 16:52:45.961,52042960,17087260,7841010,-50449550,-15258790,-39367680,-32226560
2026-01-14 16:52:45.971,13133090,17256440,8017100,2887296,-18798830,-3552246,-32073980
2026-01-14 16:52:45.981,52017060,58962970,-33361420,-50406390,-21276860,2507019,-395813
2026-01-14 16:52:45.991,13208190,59083810,-33171520,2967572,-1817627,4180908,-19515990
2026-01-14 16:52:46.001,132496200,59196020,-32990270,30124540,-2006836,-16723630,-39001460
2026-01-14 16:52:46.011,86686180,17855480,8643754,76452470,-1743164,-11917110,-9819031
2026-01-14 16:52:46.021,59351390,13848060,12927400,-42968470,-18591310,11711120,-18432620
2026-01-14 16:52:46.031,13331620,59524030,-32489620,3103090,-14929200,17089840,-2336502
2026-01-14 16:52:46.041,59368660,59627610,-32334260,-42882160,-14465330,13328550,14259340
2026-01-14 16:52:46.051,13388590,59722550,-32187510,3166964,-14440920,-6756592,-77819820
2026-01-14 16:52:46.061,13412760,5983477,-3204078,3194583,-18017580,-6463623,-14543530
2026-01-14 16:52:46.071,59394550,59938350,-31902670,-42735420,-21606440,-17272950,-64331060
2026-01-14 16:52:46.081,13460230,18729010,9548358,3250689,-29174800,-28076170,-13452150
2026-01-14 16:52:46.091,13484400,18838630,9663159,3278310,-35253900,-390625,-20788570
2026-01-14 16:52:46.101,89172960,18940480,9768461,78972050,-4206543,-2944336,-19714360
2026-01-14 16:52:46.111,135318800,19042330,9873766,33344150,-45141600,13137820,-13830570
2026-01-14 16:52:46.121,135569100,19144190,9979073,33611740,-53759770,15808110,-1463623
2026-01-14 16:52:46.131,13563810,60473510,-31143080,3371536,-6298828,18322750,-17541500
2026-01-14 16:52:46.141,59429080,47259280,-44305530,-42476460,-66259770,22045900,-15686040
2026-01-14 16:52:46.151,8994378,19439390,10288090,7975496,-7133789,19580080,-19067380
2026-01-14 16:52:46.161,8985747,19531750,10385630,7966865,-77685540,60546880,-24609380
2026-01-14 16:52:46.171,13569860,19615480,10474540,3382755,-78466800,40740970,-24731440
2026-01-14 16:52:46.181,13561220,19690580,10554810,3374123,-7578125,30166630,-22009280
2026-01-14 16:52:46.191,89683960,60861940,-30461180,79496860,-72802740,-35858150,-23815920
2026-01-14 16:52:46.201,89683960,19842490,10713630,79496860,-73828130,8831787,-2006836
2026-01-14 16:52:46.211,135517300,19908960,10785270,33663530,-8256836,19689940,-19482420
2026-01-14 16:52:46.221,89682230,61025940,-30193600,79498580,-8808594,2524414,-19189450
2026-01-14 16:52:46.231,89595050,20035840,10917340,79413130,-9399414,25463870,-19116210
2026-01-14 16:52:46.241,135405100,20104030,10987250,33603100,-9711914,21521000,-19360350
2026-01-14 16:52:46.251,89592460,20164450,11047680,79415710,-10039060,23425290,-18859860
2026-01-14 16:52:46.261,135284200,20224870,11108100,33551320,-98779300,18640140,-19262700
2026-01-14 16:52:46.271,135258300,20286160,11167660,33577210,-92041020,16674810,-17919920
2026-01-14 16:52:46.281,89499240,47179860,-44022410,79336310,-8613281,15722660,-17871090
2026-01-14 16:52:46.291,135197900,20418220,11294540,33637630,-79296870,13317870,-16516110
2026-01-14 16:52:46.301,89490610,20489860,11361010,79344940,-78271490,120666500,-1706543
2026-01-14 16:52:46.311,89658060,20562370,11426610,79522750,-765625,43121340,-18273930
2026-01-14 16:52:46.321,13537920,61794160,-29649800,3414694,-7758789,-22140500,-20410160
2026-01-14 16:52:46.331,59049290,20717750,11564720,-42044890,-7480469,-116760300,-21813960
2026-01-14 16:52:46.341,13575900,62027210,-29589380,3480294,-69628900,-16894530,-21313480
2026-01-14 16:52:46.351,58971600,20882610,11710590,-41829100,-6142578,-20837400,-20727540
2026-01-14 16:52:46.361,13646680,16824770,15906540,3582146,-5419922,-1932373,-17089840
2026-01-14 16:52:46.371,91771960,21031070,11838340,81724700,-43310550,19726560,18203740
2026-01-14 16:52:46.381,92367540,62536480,-29494440,82337540,-4909668,27392580,-2053833
2026-01-14 16:52:46.391,13802050,21206300,11991120,3789306,-47851560,-117370600,-16577150
2026-01-14 16:52:46.401,13862470,21296930,12073120,3866992,-34326170,-21835330,-7940674
2026-01-14 16:52:46.411,13922890,21379800,12145630,3944676,-3239746,7297516,-8514404
2026-01-14 16:52:46.421,5882487,21462660,12218130,-4080192,-32202150,7305908,-4824829
2026-01-14 16:52:46.431,14061860,21544660,12291500,4116446,-2932129,19604490,2897644
2026-01-14 16:52:46.441,58816230,63296070,-29304540,-40482550,-3557129,30859380,6744385
2026-01-14 16:52:46.451,5882485,63408280,-29261380,-4033579,-3466797,48364260,11798100
2026-01-14 16:52:46.461,14273340,21779440,12505570,4371082,-39672850,5644531,12768560
2026-01-14 16:52:46.471,50381360,17266600,17173780,-48503100,-44580080,4658203,7745361
2026-01-14 16:52:46.481,58833490,21932220,12646260,-39930120,-45532230,24182130,-23010250
2026-01-14 16:52:46.491,58833490,21995240,12704100,-39809280,-44506840,3540039,-8215332
2026-01-14 16:52:46.501,14498620,63891660,-29071480,4646433,-44604490,-55480960,-9881592
2026-01-14 16:52:46.511,14553000,22104850,12801640,4712896,-45751950,-11224370,-9063721
2026-01-14 16:52:46.521,58842120,22151470,12841340,-39455380,-4494629,-1986084,-76416020
2026-01-14 16:52:46.531,14661760,6411608,-2905423,4845822,-42163090,-30029300,-54504400
2026-01-14 16:52:46.541,14716140,22219660,12894000,4912287,-32714840,-38745120,-3189087
2026-01-14 16:52:46.551,58833490,64262820,-29097380,-39066950,-20239260,-48095700,4083252
2026-01-14 16:52:46.561,14856840,22281800,12935430,5082331,-10687260,-58154300,9893799
2026-01-14 16:52:46.571,14935380,64426820,-29157800,5176418,-362854,-56347660,13220220
2026-01-14 16:52:46.581,15029470,64504500,-29200960,5289494,-2748108,-5078125,15734860
2026-01-14 16:52:46.591,10276550,46913170,-46913140,10266830,-6732178,-4230957,18310550
2026-01-14 16:52:46.601,58893920,22410420,13013970,-38126100,-463562,-30981440,20214840
2026-01-14 16:52:46.611,5891119,22450980,13042460,-3791894,-101867700,-22131350,21325680
2026-01-14 16:52:46.621,58919810,48890670,-45332700,-37703150,-109375,-1541748,17150880
2026-01-14 16:52:46.631,58928440,48954540,-45389660,-37504620,-11987310,-6311035,14245610
2026-01-14 16:52:46.641,1562765,22598590,13153810,600333,8,-11669920,7611084,8886719
2026-01-14 16:52:46.651,5892845,22655560,13200420,-3712482,-16894530,17712400,-605011
2026-01-14 16:52:46.661,15773520,22712520,13247030,6185459,-16088870,124694800,-9442139
2026-01-14 16:52:46.671,15842570,65410830,-29347690,6271778,-13500980,12069700,-1270752
2026-01-14 16:52:46.681,15895230,22816970,13332480,6339965,-10437010,-13708500,-1862793
2026-01-14 16:52:46.691,15948740,49277360,-45653790,6407294,-32409670,-19885250,-20935060
2026-01-14 16:52:46.701,16011760,6564388,-2935633,6482388,-3019333,-21923830,-2163086
2026-01-14 16:52:46.711,58902540,22915370,13406720,-36270300,4699707,-23864750,-21704100
2026-01-14 16:52:46.721,58919800,47759490,-47396100,-36132180,68473820,-34985350,-21887210
2026-01-14 16:52:46.731,16227550,4942065,-4578673,6732706,-35491940,-3330078,-22143560
2026-01-14 16:52:46.741,59006130,65790620,-29485800,-35855970,-55755620,-27734380,-18676760
2026-01-14 16:52:46.751,12152530,49475890,-45852320,11204780,-13244630,-23608400,-15808110
2026-01-14 16:52:46.761,59126970,6577338,-2960667,-35562500,-19921880,-18249510,-14538570
2026-01-14 16:52:46.771,16625470,22811790,13268610,7163427,-2602539,-108947800,-11437990
2026-01-14 16:52:46.781,59265070,49550130,-45950720,-35269020,-32128910,-11810300,-109558100
2026-01-14 16:52:46.791,59334130,22722890,13167620,-35130920,-36914060,-16967770,-62805180
2026-01-14 16:52:46.801,59394550,49599330,-46022360,-35001440,-42089840,-27539060,-7727051
2026-01-14 16:52:46.811,17007850,65661150,-30029600,7575160,-41479490,-3564453,-7165527
2026-01-14 16:52:46.821,1710021,2252608,1295010,767269,6,-40698240,-2319336,-46295170
2026-01-14 16:52:46.831,5957583,22443220,12860330,-3463027,-36035160,-99121100,-96588140
2026-01-14 16:52:46.841,5963623,65523040,-30392120,-3451804,-32763670,-12335210,3491211
2026-01-14 16:52:46.851,59670760,17959150,16999130,-34397220,-28027340,-36590580,8685303
2026-01-14 16:52:46.861,59713920,22190310,12578070,-34285010,-3005371,-35888670,8557129
2026-01-14 16:52:46.871,5973982,22100540,12477950,-3415552,-29248050,-15991210,33081060
2026-01-14 16:52:46.881,17551650,22011630,12376960,8170743,-25048830,-18005370,-18707280
2026-01-14 16:52:46.891,5980025,21914100,12267340,-3392247,-20800780,23330690,-63964840
2026-01-14 16:52:46.901,17689750,6527272,-3131573,8326113,-2208252,10852050,-15856930
2026-01-14 16:52:46.911,13536100,65238200,-31488350,12600610,-1262207,-10357670,-31298830
2026-01-14 16:52:46.921,17810600,21597310,11910850,8464222,-1159668,-17651370,-3552246
2026-01-14 16:52:46.931,59877930,21474740,11774460,-33482260,7525635,-61645510,-37231440
2026-01-14 16:52:46.941,4664157,21361670,11645860,-4661504,19372560,-21228030,-42749020
2026-01-14 16:52:46.951,59886560,21249460,11516380,-33249210,27319340,-2902832,-40576170
2026-01-14 16:52:46.961,18036750,6500514,-3249826,8738706,29614260,-13867190,-29345700
2026-01-14 16:52:46.971,18089400,64987880,-32722680,8806902,26831060,70152280,-18322750
2026-01-14 16:52:46.981,59826140,6498789,-3294713,-32826260,24304200,5630493,-91796870
2026-01-14 16:52:46.991,18165360,20824780,11008840,8920836,25097660,16442870,13542180
2026-01-14 16:52:47.001,5969667,20750550,10910440,-3254141,28198240,3486328,117492700
2026-01-14 16:52:47.011,18203340,65074190,-33568580,9003702,29711910,2775879,15075680
2026-01-14 16:52:47.021,18199880,6515187,-3374985,9024415,33691410,11651610,16577150
2026-01-14 16:52:47.031,18187800,20615890,10699820,9036500,43359380,713501,19763180
2026-01-14 16:52:47.041,18157590,51265240,-48137120,9032186,5161133,-8465576,16821290
2026-01-14 16:52:47.051,18118750,20615030,10648900,9019236,6201172,-32470700,1348877
2026-01-14 16:52:47.061,58911180,20627110,10636810,-31842250,7011719,-484375,9326172
2026-01-14 16:52:47.071,5873855,20656460,10641990,-3175592,81396480,-6357422,7910156
2026-01-14 16:52:47.081,17952160,65859680,-34526700,8926880,87109380,-5488281,13476560
2026-01-14 16:52:47.091,17888280,20722920,10661840,8887172,9008789,-29296880,18823240
2026-01-14 16:52:47.101,17807140,20777300,10693780,8830204,93652340,-15246580,18859860
2026-01-14 16:52:47.111,58004850,6631717,-3474252,-31522880,10039060,1210022,2401123
2026-01-14 16:52:47.121,17618110,20930080,10799950,8691234,11396480,11425780,23498540
2026-01-14 16:52:47.131,17508490,21028480,10874180,8610959,12910160,2397461,22851560
2026-01-14 16:52:47.141,17381600,66955900,-34828810,8513424,14570310,35913090,2355957
2026-01-14 16:52:47.151,57012210,6721486,-3482883,-31341610,16054690,4970703,20410160
2026-01-14 16:52:47.161,56727360,6749108,-3481157,-31281190,17734380,6225586,14575200
2026-01-14 16:52:47.171,13040480,21640470,11384320,12164020,19892580,6826172,38085940
2026-01-14 16:52:47.181,16845580,21834680,11552630,8117229,21757810,86279300,-15979000
2026-01-14 16:52:47.191,55803770,53228950,-49850510,-31099920,22890620,11552730,-4572754
2026-01-14 16:52:47.201,16549510,68751280,-34552590,7895396,23730470,13789060,-79589840
2026-01-14 16:52:47.211,16394140,22490690,12139590,7774550,24453120,12177730,-12236330
2026-01-14 16:52:47.221,16240490,69364140,-34336800,7651984,26015620,83691410,-15615230
2026-01-14 16:52:47.231,16090310,22886880,12502980,7525959,28359380,46923830,-18349610
2026-01-14 16:52:47.241,43895520,69812980,-34129640,-41558060,30742190,2512207,-18984380
2026-01-14 16:52:47.251,43826460,69959720,-34051950,-41506270,32714840,2607422,-18427730
2026-01-14 16:52:47.261,54146490,70071940,-33991530,-31082660,33984380,8807373,-17685550
2026-01-14 16:52:47.271,43731510,18612480,17571500,-41428580,34414060,-123046900,-16220700
2026-01-14 16:52:47.281,15779570,18647010,17606030,7267009,33496090,-16430660,-14384770
2026-01-14 16:52:47.291,15829630,18647010,17606030,7320524,31992190,-23010250,-12851560
2026-01-14 16:52:47.301,15906450,2332278,1291298,7399071,29824220,-28710940,-11035160
2026-01-14 16:52:47.311,16017800,23296030,12887950,7512148,27636720,-3046875,-9277344
2026-01-14 16:52:47.321,54405440,7008058,-3396566,-30633810,25507810,-35424800,-78125
2026-01-14 16:52:47.331,54543550,23215750,12812860,-30495700,23847660,-4182129,-61572260
2026-01-14 16:52:47.341,16421760,69959720,-34034690,7919565,22265620,-36938480,-42797850
2026-01-14 16:52:47.351,5483703,23117350,12721360,-3018495,21210940,-26000980,-23779300
2026-01-14 16:52:47.361,5497514,23072470,12679930,-3002959,20507810,-26391600,-13354490
2026-01-14 16:52:47.371,43755690,6980437,-3410377,-41231780,19208980,-34765620,-12382510
2026-01-14 16:52:47.381,13191010,6976119,-3411238,12341480,18330080,-25610350,11682130
2026-01-14 16:52:47.391,55372190,22999100,12615190,-29563480,17275390,-21704100,23168940
2026-01-14 16:52:47.401,17278020,22988740,12608290,8789635,16259770,-20043940,40478520
2026-01-14 16:52:47.411,17405770,69692140,-34077850,8920839,15908200,-66101070,5439453
2026-01-14 16:52:47.421,17523160,6970077,-3405197,9045130,15498050,-8117676,6542969
2026-01-14 16:52:47.431,43687500,23045710,12672160,-41006500,15332030,-22045900,63720700
2026-01-14 16:52:47.441,55812400,53650170,-50068020,-28778000,14560550,-26367190,5932617
2026-01-14 16:52:47.451,17853750,69821610,-33896580,9405076,13603520,-7043457,56396480
2026-01-14 16:52:47.461,5590734,69882040,-33818900,-2845860,12382810,35180660,5595703
2026-01-14 16:52:47.471,5593324,69968350,-33749840,-2831186,11835940,67333980,44873050
2026-01-14 16:52:47.481,18092850,7007193,-3366354,9683874,121875,60498050,25341800
2026-01-14 16:52:47.491,43362940,23486790,13111510,-40571460,121875,7602539,12158200
2026-01-14 16:52:47.501,18198160,53725270,-50044720,9820258,12744140,75390620,-18325810
2026-01-14 16:52:47.511,18250810,23687900,13307450,9888447,13671880,31079100,-15100100
2026-01-14 16:52:47.521,43147150,70494890,-33326900,-40321140,14501950,-17700200,-26171880
2026-01-14 16:52:47.531,43095360,23836370,13452460,-40252090,13847660,-4802246,-3461914
2026-01-14 16:52:47.541,55941880,23870900,13486990,-27301980,12119140,-7109375,-44335940
2026-01-14 16:52:47.551,56019570,23879530,13495620,-27155250,10341800,-8618164,-48901370
2026-01-14 16:52:47.561,18718650,23851910,13471450,10404620,87890620,-87109380,-4790039
2026-01-14 16:52:47.571,18848120,7048625,-3326648,10534100,7084961,-78271490,-42895510
2026-01-14 16:52:47.581,43078960,70391310,-33309640,-40113110,55322260,-82470700,-3503418
2026-01-14 16:52:47.591,19139010,18963960,17927810,10812900,44262700,-7426758,-28149410
2026-01-14 16:52:47.601,56796420,70106460,-33439110,-26568290,30786130,-45922850,-8886719
2026-01-14 16:52:47.611,56994950,23393570,13049370,-26490610,20410160,-39013670,8251953
2026-01-14 16:52:47.621,19570590,69778460,-33577220,11209960,120910600,-47021480,23376460
2026-01-14 16:52:47.631,15947020,69597190,-33637630,15109750,6213379,-59472660,42163090
2026-01-14 16:52:47.641,19868390,18383140,17352000,11481850,4675293,-6660156,60302740
2026-01-14 16:52:47.651,57832220,6926057,-3373261,-26171240,31604770,-6777344,7626953
2026-01-14 16:52:47.661,20201570,22803160,12517650,11787420,-7409668,-6723633,91503900
2026-01-14 16:52:47.671,20388880,22709070,12439110,11962640,-13439940,-6166992,10429690
2026-01-14 16:52:47.681,20584820,22622760,12370050,12146490,-2364502,-42333980,11445310
2026-01-14 16:52:47.691,20788520,22553700,12318260,12339840,-42211910,-14697270,12089840
2026-01-14 16:52:47.701,59066550,22509680,12293230,-25523860,-64208980,16894530,12607420
2026-01-14 16:52:47.711,21220110,68362860,-33611740,12754170,-8828125,3149414,12548830
2026-01-14 16:52:47.721,59575820,22472570,12295820,-25169960,-11191410,27368160,12128910
2026-01-14 16:52:47.731,59826140,22478610,12324300,-24988700,-13066410,29589840,11445310
2026-01-14 16:52:47.741,60067820,68095280,-33223320,-24798800,-15058590,45483400,10800780
2026-01-14 16:52:47.751,44244240,68034860,-33059320,-40674170,-1703125,5410156,93066410
2026-01-14 16:52:47.761,18490860,67974440,-32878050,17641330,-18222660,5205078,78564460
2026-01-14 16:52:47.771,60766990,67939910,-32688150,-24220480,-19501950,4399414,5800781
2026-01-14 16:52:47.781,22722880,67905380,-32480990,14220690,-20078120,24865720,3955078
2026-01-14 16:52:47.791,44386660,67888120,-32273830,-40652590,-21347660,18652340,18688960
2026-01-14 16:52:47.801,23113030,67870860,-32066670,14607390,-23378910,20336910,-101135300
2026-01-14 16:52:47.811,23286530,22991330,13020020,14779150,-26015620,14111330,-44799800
2026-01-14 16:52:47.821,61751000,23067290,13116690,-23357310,-2796875,74157710,-75341800
2026-01-14 16:52:47.831,23582600,23144110,13212500,15070040,-29570310,-8110046,-10253910
2026-01-14 16:52:47.841,62018580,6782771,-3131574,-23141520,-3109375,-10430910,-12314450
2026-01-14 16:52:47.851,62139420,23274450,13375640,-23072460,-31972660,-1439209,-13857420
2026-01-14 16:52:47.861,62225740,6781045,-3105679,-23003410,-32402340,6347656,-14091800
2026-01-14 16:52:47.871,23925280,23359040,13480950,15400630,-32050780,44140620,-13789060
2026-01-14 16:52:47.881,62312060,23390980,13518060,-22917100,-31367190,72802740,-13564450
2026-01-14 16:52:47.891,20132090,23434130,13561220,19280140,-3015625,9003906,-13134770
2026-01-14 16:52:47.901,62251640,23479880,13601790,-22856680,-28515620,7919922,-12558590
2026-01-14 16:52:47.911,44461760,23527360,13640630,-40525710,-26601560,41308590,-12080080
2026-01-14 16:52:47.921,23887300,6812980,-3085825,15404090,-24648440,9197998,-10996090
2026-01-14 16:52:47.931,23844140,68242020,-30884130,15378200,-228125,31814580,-96240230
2026-01-14 16:52:47.941,44191580,51512970,-47768550,-40277980,-21171880,-12756350,-8515625
2026-01-14 16:52:47.951,61673320,6848372,-3097048,-22606360,-19375,-43579100,-7602539
2026-01-14 16:52:47.961,6154384,5169165,-4793515,-2252867,-18759770,-5488281,-7319336
2026-01-14 16:52:47.971,6143163,23780260,13802050,-2246823,-18427730,-515625,-7246094
2026-01-14 16:52:47.981,23643020,68759920,-31177610,15268570,-18701170,-37939450,-71435540
2026-01-14 16:52:47.991,23610220,5192470,-4816821,15249580,-18417970,-28710940,-71777340
2026-01-14 16:52:48.001,41936730,51991170,-48239840,-41548820,-18271480,-33447270,-7265625
2026-01-14 16:52:48.011,61051830,6889803,-3145385,-22364670,-18388670,-27929690,-7270508
2026-01-14 16:52:48.021,23460890,23685310,13638050,15122700,-18330080,-2607422,-7319336
2026-01-14 16:52:48.031,23400470,68872130,-31704140,15062270,-18056640,-29248050,-68066410
2026-01-14 16:52:48.041,60861940,52188830,-48491020,-22554560,-17900390,-3137207,-6274414
2026-01-14 16:52:48.051,43641740,23406510,13329890,-39826540,-18066410,-33984380,-5751953
2026-01-14 16:52:48.061,23176910,52249250,-48603240,14819720,-18193360,-40405270,-48535160
2026-01-14 16:52:48.071,23096630,6852686,-3241195,14727360,-18994140,-26489260,-35791020
2026-01-14 16:52:48.081,60741100,68380130,-32644990,-23089730,-19667970,149383600,-17443850
2026-01-14 16:52:48.091,18772720,22708210,12595340,18688750,-20097660,14440920,-9887695
2026-01-14 16:52:48.101,22825600,22488960,12365740,14411440,-20839840,10498050,-7562256
2026-01-14 16:52:48.111,22722020,67853590,-33482260,14290600,-20703120,14208980,11375430
2026-01-14 16:52:48.121,22609810,67655060,-33784370,14161130,-20019530,29736330,16271970
2026-01-14 16:52:48.131,6058571,67447900,-34112380,-2407371,-20078120,58691410,4025879
2026-01-14 16:52:48.141,22368120,6724937,-3444902,13884910,-19853520,10722660,74609380
2026-01-14 16:52:48.151,22228290,21233060,11049410,13731270,-19423830,15087890,10097660
2026-01-14 16:52:48.161,44336600,20990510,10791320,-40771720,-19179690,12607420,10146480
2026-01-14 16:52:48.171,21922730,66722840,-35424400,13398090,-18515620,5444336,9277344
2026-01-14 16:52:48.181,60188660,20521810,10293270,-25195860,-17207030,-19299320,9941406
2026-01-14 16:52:48.191,21608530,66377580,-36045880,13056270,-15830080,-6484375,11396480
2026-01-14 16:52:48.201,60016030,20034980,9778822,-25661970,-14404300,-88916020,12441410
2026-01-14 16:52:48.211,21321100,19782930,9512967,12739490,-13730470,-87890620,13164060
2026-01-14 16:52:48.221,59869300,19521400,9239342,-26102190,-13330080,-6479492,13818360
2026-01-14 16:52:48.231,5980024,6559210,-3733200,-2630934,-13339840,-2861328,14042970
2026-01-14 16:52:48.241,20901600,65419460,-37642740,12278560,-13232420,74157710,14169920
2026-01-14 16:52:48.251,20752270,52957910,-50225120,12117150,-12529300,22753910,13320310
2026-01-14 16:52:48.261,44844140,18622840,8290722,-41593450,-10478520,22680660,12011720
2026-01-14 16:52:48.271,59316860,65005140,-38471370,-27189770,-7949219,26464840,10810550
2026-01-14 16:52:48.281,59144230,53135720,-50513420,-27414200,-5336914,32788090,9008789
2026-01-14 16:52:48.291,19978010,18165360,7781454,11320440,-22094730,37280270,6982422
2026-01-14 16:52:48.301,19751860,18063500,7658883,11097740,22851560,50390620,52783200
2026-01-14 16:52:48.311,19514490,64927450,-39360440,10869010,7011719,6376953,3010254
2026-01-14 16:52:48.321,58108430,17967690,7513006,-28225570,12001950,71777340,30651090
2026-01-14 16:52:48.331,5778042,65134620,-39688440,-2841545,16494140,6591797,-26367190
2026-01-14 16:52:48.341,18723830,65298620,-39817920,10123230,19394530,5214844,-5390625
2026-01-14 16:52:48.351,18447610,65462620,-39930130,9864282,21855470,33520510,-82958980
2026-01-14 16:52:48.361,18162770,18091990,7526820,9596696,24023440,14465330,-11005860
2026-01-14 16:52:48.371,56356200,65799260,-40111390,-29149160,2625,51483150,-13125
2026-01-14 16:52:48.381,56028200,6593737,-4018047,-29373590,27949220,-1105957,-15400390
2026-01-14 16:52:48.391,17308230,13435890,12372810,8776688,30371090,-52246100,-17226560
2026-01-14 16:52:48.401,55415350,18236140,7589830,-29865590,32304690,-8564453,-18935550
2026-01-14 16:52:48.411,55156400,18225780,7565659,-30124540,33554690,-88964850,-19716800
2026-01-14 16:52:48.421,16540010,66213580,-40473920,8008471,33515620,-6982422,-1984375
2026-01-14 16:52:48.431,54742080,18156730,7479342,-30642440,33242190,-32885740,-19677730
2026-01-14 16:52:48.441,43910190,18107530,7424965,-41543380,31914060,-2763,271,-19306640
2026-01-14 16:52:48.451,54414080,18058330,7370584,-31143080,31640620,18432620,-19130860
