Frame,Time,RightHand_Accel_X,RightHand_Accel_Y,RightHand_Accel_Z,LeftHand_Accel_X,LeftHand_Accel_Y,LeftHand_Accel_Z,Label
1.0,0.002778,132.05732260663032,45.16874699870942,-316.9436536338404,-573.6209406237475,280.6390584032179,307.57219361197906,0
6.0,0.016668,-95.25969545111596,5.235939076678001,-258.0046219877002,211.43069347816697,-72.28071075018738,-164.7961177256769,0
11.0,0.030558,16.224128602518142,-73.38876082330839,-11.868112970622462,-52.40400180541863,196.14814393170323,31.00736268817028,0
16.0,0.044448,-63.74750398962094,-37.86439384747866,-167.7580015238559,-42.596915741906514,162.44997989360428,-133.68920634148284,0
21.0,0.058338,157.31697766241268,-84.10201307310787,-107.7510507567056,99.02350591621249,121.07940333200608,-277.2592404491701,0
26.0,0.072228,15.855416568498242,24.83676326413,-54.88819048418441,42.92559434799365,227.0591568509435,-253.80843577384823,0
31.0,0.086118,-96.63507649036524,-47.475538832573655,-127.61622225623596,124.416240603361,40.132599099649845,-325.29936628028645,0
36.0,0.100008,-116.326074176825,89.38315938462165,-36.82397162208658,59.4677476089992,147.8747606985112,-314.7892350372135,0
41.0,0.113898,12.303707536275256,-102.29324420870265,-155.7398464214849,70.72192860466068,118.37019845407592,-399.076004789317,0
46.0,0.127788,-133.59424045153298,56.68743655624571,26.809130123466275,-49.89423541584983,174.94902033453056,-172.37268057833143,0
51.0,0.141678,-39.39251428594544,-22.662570937993983,-109.09797789389764,289.52926835237736,-38.15718814770992,-836.1996821191285,0
56.0,0.155568,1.307952272769448,-0.9946807461337208,-58.38025730235212,-26.939122199070624,-11.69370282450241,-239.7393955465338,0
61.0,0.169458,-181.72349461519428,132.15130332700048,-3.8038956105241297,63.23580119785844,254.17307271795696,-555.8165839563933,0
66.0,0.183348,-17.57716084107618,236.23217068485624,-73.67330244998936,203.34546291949923,167.02356417927749,-415.9501183239795,0
71.0,0.197238,-12.383845716689628,11.334799292647094,-24.1574805860538,51.48052574897797,82.7172437325564,-506.8857040543909,0
76.0,0.211128,-244.45157465397244,59.31389396717678,6.602500907613248,57.04897007417743,-64.53417006045684,-562.5499960594605,0
81.0,0.225018,-3.057459923185746,-29.806283680347363,-62.75129179850815,157.91813712664842,36.69883547706934,-674.3359675975921,0
86.0,0.238908,-233.5905036688128,67.64860673829011,79.7826881083236,42.39321237177523,-23.40530779398882,-573.6999451234416,0
91.0,0.252798,-80.79832749772514,108.99086619496842,76.53950623075627,8.035558388553717,177.48092263333342,-434.39754893725694,0
96.0,0.266688,-170.69354692755422,129.03209310008936,-81.69169945417329,145.5119973355339,-183.8640989780356,-669.674631504683,0
101.0,0.280578,-147.91090049961787,31.62025496425808,-105.11559577242656,16.769547359881315,21.861097917970568,-553.3448715440984,0
106.0,0.294468,-186.45137739060888,38.95344792239315,39.43341569167494,56.75553189170793,-57.0670590679797,-420.7236669410897,0
111.0,0.308358,-72.18849684094823,131.68567598318373,56.23558100621334,100.1426476388272,-11.334793825705797,-662.143979901659,0
116.0,0.322248,-60.78824775582078,-19.449449879446576,1.1978318512506974,-11.839068606686029,55.91348029570384,-365.823887946257,0
121.0,0.336138,-100.00478057778614,52.5476120940543,-44.57025237546963,69.38937926287859,-81.15257533020133,-471.533358199964,0
126.0,0.350028,-44.099316875199925,-18.97987720558666,-75.53606733189882,48.531079660885176,76.79082090565817,-477.23313130534655,0
131.0,0.363918,47.21263091322322,-24.43740901526628,-109.26675004197271,-54.26581134592402,71.00118771479129,-246.1069545979228,0
136.0,0.377808,-12.863850071914875,29.065056431678943,-28.80954917825678,128.5943865710228,129.19408344903783,-312.904628450528,0
141.0,0.391698,61.427321853117725,-157.51469297455924,-121.2709204562189,-63.77009980183834,-10.325748999275792,-281.8758441686589,0
146.0,0.405588,8.281211049725357,-82.86183156273795,11.97085613099172,39.04386461669404,63.730064044707845,-361.8680329275284,0
151.0,0.419478,117.37012038884644,55.805719976632105,-61.337766617950834,-6.914813092971741,133.83487839008376,-126.0322239030792,0
156.0,0.433368,-24.9589413750042,-21.54275277177124,-115.62387703217222,-4.863913140626856,195.86661562718325,-79.16251532144628,0
161.0,0.447258,89.91926973469607,-123.3263045186128,-94.93039219034992,-81.80546553078472,126.51298740216032,-182.566125287953,0
166.0,0.461148,13.549141096108404,23.66277078140223,-78.64794333422812,9.789446001755293,124.80931325259496,31.005946477454465,0
171.0,0.475038,176.88226305843574,-144.783368967609,-137.00366497290815,-107.0729432060236,112.07631781420456,-70.27963212205793,0
176.0,0.488928,-61.55580712072107,108.75860451456742,-100.70780813505056,9.184397942218546,246.5580439984857,43.093799464126135,0
181.0,0.502818,-17.32069004322453,32.24242680192125,-9.376227007343688,2.4283999231250952,164.73636247772998,142.8275815913729,0
186.0,0.5167080000000001,2.151224695952191,87.39435192753866,38.35493662072536,33.86364522623376,165.63578182475143,124.83457058509047,0
191.0,0.530598,87.99573202542166,36.45183557403488,-48.8975458161021,-78.34249322445575,238.80576642287605,226.4032535836713,0
196.0,0.544488,20.52326542584071,194.061079542082,-45.12547128952295,72.37282957194566,129.33108026623222,138.6025797546614,0
201.0,0.558378,24.262552265581064,66.66425375136072,30.616408571056244,-159.37814453784668,11.841439665795804,374.36168867122274,0
206.0,0.572268,24.2212415571421,177.67256632442655,27.75772665189943,47.54255349394367,172.67503390699505,156.56590520488734,0
211.0,0.5861580000000001,55.467326903657415,93.82250784307134,48.55229268256343,-42.671243358838055,1.0133277383432642,448.9211999758129,0
216.0,0.600048,17.66425309245775,297.8614287517454,0.3101180647657315,-13.521931839060189,94.04805922835224,359.55052252465373,0
221.0,0.613938,0.4706957358337789,-71.02247394773364,64.89515705258083,29.052257540464385,-189.3397277589908,270.6988126269292,0
226.0,0.627828,143.9390477194384,-183.1794815146428,182.72477574871365,-62.74373060836282,-221.9822441066053,345.1384260270458,0
231.0,0.641718,-32.77497182582074,217.7054230184383,18.69877084758521,51.018661416887134,-71.00016236976224,412.31811830778656,0
236.0,0.655608,22.34259034478791,106.01066441362156,192.5868495073862,-72.5235860277719,0.0750202803462496,341.4084480307536,0
241.0,0.669498,-25.618337082208345,-45.48847589585074,164.6983548863966,80.13000235105692,-183.5432771213438,403.4998364942837,0
246.0,0.683388,-34.81926316462216,-53.57365239924276,149.78079119553763,-77.40017758284951,-119.94501841270646,434.3592502954005,0
251.0,0.6972780000000001,115.61029842480892,-121.17137668791824,243.4597720965085,-28.12005166578818,-151.64050635127217,348.5908242846428,0
256.0,0.711168,-16.44751572952246,-120.97064060660745,177.05225038147614,5.387995402025695,-208.9937771739284,453.2120651791748,0
261.0,0.725058,44.772143850147344,-117.73084118001591,180.8432140569724,68.23240974721911,-217.005904685127,416.22517855129536,0
266.0,0.738948,-44.55219789222243,-279.39667927737173,242.31689931988248,-84.88175840620482,-119.5102888929604,254.2061469104614,0
271.0,0.752838,209.1017497154736,-82.10744662206875,166.20385394180846,101.01330576780636,-375.241765886096,508.8123144048873,0
276.0,0.7667280000000001,76.0075579119608,-206.080003940667,219.298526087874,-69.18006731948265,-71.2347054425804,326.0057202657053,0
281.0,0.780618,-89.84848575129321,-307.87141358077065,218.19426217404524,18.973225662842044,-304.84842563493334,409.9257871904672,0
286.0,0.794508,106.8009013321968,-140.43565981324946,119.560876226989,24.202031664542467,-125.94897730764558,383.3314659347726,0
291.0,0.8083980000000001,44.44535500697474,-453.5039804628476,291.4047621986608,5.6102892319202695,-322.1877779633503,333.82492595570966,0
296.0,0.822288,-151.14840543972758,-182.7878773417316,202.01126641426663,175.75904409927793,-288.92242326527287,427.14588288684536,0
301.0,0.836178,174.58219335478597,-184.31187673174185,125.00317393449056,-33.27495454487308,-101.683451508213,231.94367740336625,0
306.0,0.850068,121.25146417990804,-226.5405766551431,191.176661874136,109.97833578792864,-141.88757291647067,384.53793534388353,0
311.0,0.863958,54.40560303691981,-163.93736054871704,232.67479984751407,109.30918237495628,-238.4533847678264,401.2961542904852,0
316.0,0.8778480000000001,-102.5730743196722,-263.40516628699675,249.4659299141892,75.81209227395313,-217.67707019916887,396.1066628669705,0
321.0,0.891738,-2.73204378770442,-207.762830064064,271.94259501100373,132.30917152238112,-57.58871821483713,307.40686906088354,0
326.0,0.905628,145.3665585519397,-171.0899461500825,2.749935248734836,121.01784815552176,-220.8992145652461,262.34061500628815,0
331.0,0.919518,-115.55324368203551,-94.4034046952506,307.0485174523625,6.003337820683001,140.1188980688425,170.19806652643032,0
336.0,0.933408,130.68597516290603,-248.2336375121148,160.2735857904798,173.61409665254573,-163.33293442575427,497.738883956967,0
341.0,0.947298,7.907643382613791,-66.0070907686738,157.77322878358035,153.06824687078375,2.7804695226111136,186.8088362888868,0
346.0,0.961188,82.50097886328047,-140.5879736014429,134.23499206363155,-21.85822492113583,-4.697245439889809,127.635015244325,0
351.0,0.975078,-117.99333178090956,0.0479094380609979,23.36171951793563,195.57876659237428,-34.61465588604142,85.37058098857817,0
356.0,0.988968,31.24567565904473,-104.12738380566068,182.173313905504,143.29340339169724,-168.68301172415718,261.9832881378124,0
361.0,1.002858,230.5855716166053,-60.818520171041285,104.62196885763382,-48.90406300372638,237.6868248238532,87.14539211111585,0
366.0,1.016748,-36.070557912940295,-53.903589248933216,103.43677194061895,164.31664213814807,-51.26550576029797,128.04104474365496,0
371.0,1.030638,-60.07406750310575,-17.039514304027627,109.00315459208618,155.20404292688295,19.59284242447436,100.67638588212507,0
376.0,1.044528,-22.25558593637038,71.63435055048706,24.662783247457984,61.64425441105251,35.976605585199394,77.67592371455936,0
381.0,1.058418,36.33941698214716,59.57478302253268,1.3747368007336431,35.39021356273775,158.6878972703164,59.64633623314154,0
386.0,1.072308,35.10414697674434,12.57448740555131,49.03853698590235,133.78969717371916,90.3619722302063,-33.13878194262048,0
391.0,1.086198,74.61589050157289,275.40774359957175,126.87242886282807,40.33221483906787,259.2401043133055,-42.66177622945591,0
396.0,1.100088,-74.43908869760153,-47.74589533419229,-87.20251632139639,145.85207586494136,142.10857316708592,-81.94070677991895,0
401.0,1.113978,113.47545332129242,208.8025819818401,-153.0553220253136,74.63741429063674,304.2548916896323,-131.20299343815185,0
406.0,1.127868,30.388993806343905,286.51868186840863,-68.94560196508203,67.78137508467194,199.6330499702151,-139.1514533374832,0
411.0,1.141758,32.35785678543889,127.2375283624226,-97.86222872930256,257.2167269865438,186.11004099706048,-109.21400877621431,0
416.0,1.155648,53.72711709889997,249.04645191261048,-161.9432222720555,10.592233156026282,466.7760490655336,-151.06165186945174,0
421.0,1.169538,61.62441413146921,235.6982721521312,-166.06580021602804,132.53079296478984,140.5480287126051,-372.2740367877483,0
426.0,1.183428,83.27257899234303,185.82314482134512,-105.09615075017362,89.78043520603708,326.3855340296193,-251.33095540072537,0
431.0,1.197318,108.7827281377324,286.6030672586695,-243.96965002238449,184.79178101168344,311.8293077996927,-314.4516866970099,0
436.0,1.211208,126.52727668184008,251.4246530482993,-499.4802074119634,144.63178676529105,28.959464548613965,-331.53277945949446,0
441.0,1.225098,126.92738260998205,202.63106693709847,24.49960900789271,41.17687188435842,206.8344730723138,-404.8795016584552,0
446.0,1.238988,-4.4913006461786935,107.43051649795794,-197.3269281908411,59.06595016869176,164.0175327715103,-442.23997540077664,0
451.0,1.252878,103.63790080164088,324.62615559923404,-608.8775148315982,159.44764382053333,142.86514978624464,-231.3628839560871,0
456.0,1.266768,200.76701544914943,-280.20837409757223,-18.162988504980945,-76.75122339484628,-105.341105916473,-470.9270832357197,0
461.0,1.280658,64.32692673553892,232.4159799380872,-491.8986628400486,-16.382450260954272,39.04311536278122,-416.382320254612,0
466.0,1.294548,125.5369941460158,85.36614911389658,-144.3644922264287,-36.80403736575222,-4.484537720541898,-345.07405077366127,0
471.0,1.308438,126.10139972603146,-85.66050775827705,-439.8217483400539,51.38855900365024,-205.24529218204435,-493.6438043545453,0
476.0,1.322328,120.27772528967692,-49.69313206867157,-379.0553286518787,-163.02347229412774,-64.30410287839192,-371.7926531921451,0
481.0,1.336218,19.5842921069202,-26.50651592481993,-290.46940092015404,9.229895159841751,-238.8460066799995,-268.70624565157766,0
486.0,1.350108,140.05590771366272,-34.94659962824521,-317.1839665077307,55.78175968226364,-180.84077221246983,-409.14156042334594,0
491.0,1.363998,95.01064371333088,-83.61578014044062,-181.13600641994395,-138.2095666949886,-77.49643625633715,-269.3150752742744,0
496.0,1.377888,156.85688324377162,-80.21793833514522,-360.4948917226296,-5.150252475885683,-262.3587299894177,-368.6147477841637,0
501.0,1.391778,216.13408734145727,-95.91374935203716,-467.5234550886639,-66.58778490227418,-18.625013971136127,-344.77195490159966,0
506.0,1.405668,-115.81257438086152,-216.238876320652,154.34605017768337,-34.36491567302517,-203.9831214091612,-169.90198685188483,0
511.0,1.419558,243.6278932006024,61.96714233369859,-397.3067160276864,-12.87636871696374,-133.47083763104752,-193.4974353301407,0
516.0,1.433448,-31.89934648693017,39.89872995980127,-296.85407408382963,-52.11088071567171,273.5014540488769,-166.306527059209,0
521.0,1.447338,28.402085556507096,-100.60108770425325,-247.64428733028268,-97.2285273585905,-212.1341808248628,-325.9233740001305,0
526.0,1.461228,2.2021916993410144,49.763411143855926,-115.02909752285412,94.51198653157252,155.95758017006926,-146.66798131465396,0
531.0,1.4751180000000002,-30.926980870324243,39.26192545309105,-175.1743012057136,-182.09148795181045,145.05734114328982,-134.46565479429572,0
536.0,1.489008,-28.55011393431335,131.32819417354818,-188.89542892476965,50.92089645799844,-28.02690247355673,-118.69697103637166,0
541.0,1.502898,-86.38669732803211,97.38485538122508,-148.9021821793882,-145.6056755257412,301.94052557709165,-113.72424485721116,0
546.0,1.516788,0.6831884927395091,110.06346677709668,-147.29280460882524,-9.141165938629698,48.144371816664425,-60.61806933786169,0
551.0,1.530678,-76.47025766425415,48.5933687321711,-16.497040046111195,-68.87286057046306,127.94074133502426,10.743200026022407,0
556.0,1.544568,-126.15703903013863,170.2048837436485,-43.529826380766806,-62.81983751721218,219.75919598629176,-23.118178934548467,0
561.0,1.558458,-81.78703623901794,124.0283704669223,-45.35608807026898,-19.92648701503569,235.9604445239328,18.07652201982869,0
566.0,1.572348,-90.69849136046028,0.4093939038861407,36.41024037020776,-52.30310305446089,1.5367217263918842,153.22489405134888,0
571.0,1.586238,-175.17137422865673,-212.4107088938493,77.93025657516058,-86.8186840453682,-29.755904938654623,86.49957395331239,0
576.0,1.600128,-131.9413894190141,1027.1357343985078,-10.394806434103472,17.368821216685348,1039.0884317641212,275.0333638860195,0
581.0,1.614018,-121.54864767515106,-509.6600699086476,188.007247354912,-55.05308782572492,-593.0154925197841,262.7902230334676,0
586.0,1.627908,-115.21694123641132,136.05751545362892,88.59907564142053,-151.42247486632732,317.51780104080774,316.5413906104445,0
591.0,1.641798,-272.2855292946008,115.21034058625952,88.9571950065207,13.096070945916663,99.0644454769788,307.0052570166389,0
596.0,1.655688,-103.95729523006548,135.48558117374438,195.9657304645488,-55.125080937197225,226.27554190766227,399.5258956581845,0
601.0,1.669578,-130.147537331696,86.51548332320439,340.022082675242,-129.61961047155955,37.70427624185717,318.2576964576112,0
606.0,1.683468,-220.82838640636857,-18.743038601897155,16.176328187715512,-32.030202461275735,31.81903162721616,415.0676636309682,0
611.0,1.697358,-153.75607606703414,108.97495398711398,199.35261972763345,-100.15386228225438,-167.87608207675808,378.6852313813888,0
616.0,1.711248,-161.51485383907783,-6.111134430724761,194.482474694526,-141.46916433653772,-86.427390712116,252.0121575217036,0
621.0,1.725138,-204.22066835771068,71.30496641838536,316.33008916881795,-137.7841801898199,-239.983589408208,449.5938120857616,0
626.0,1.739028,-107.46031190870914,-105.97678357263612,175.7448309925449,-168.6863796702964,-170.2881669212917,254.4733887484828,0
631.0,1.752918,-142.8009084926763,-87.16335006203087,298.1020799223519,-0.2385500686597685,-486.50364992499937,195.5752393471671,0
636.0,1.7668080000000002,-108.65017169584245,-15.378555111365,334.0537253022427,-181.3449559825725,-59.19924086305208,528.0043479023104,0
641.0,1.780698,-123.88153144690908,-133.63710369745743,306.80257083427114,-91.89202971241156,-439.574073711809,23.94590564781658,0
646.0,1.794588,-58.26566159050826,-14.970461013226451,337.133512464529,-52.15134863577819,-293.7197885046269,406.1670843116639,0
651.0,1.808478,-132.09226135050616,-89.68618962440476,213.1347122936542,-116.21427654423688,-172.20668950698746,380.2300701090117,0
656.0,1.822368,-69.62514623937544,-171.17407796757468,449.7853167569408,5.177199318471082,-527.3782701005412,34.905247207325374,0
661.0,1.836258,-106.1610804928537,-229.1484808194212,146.5540978718144,-106.90959770923068,-115.67377334987955,498.6581132387449,0
666.0,1.850148,-67.72591443716033,-65.51989716045745,348.16601586039144,37.84556114867679,-422.86244643988505,144.84699067782176,0
671.0,1.864038,-173.87511782569635,-304.39514854947043,311.34021516943574,-153.50420968519632,-357.88102173092386,146.29665586797498,0
676.0,1.877928,-19.738561408787053,14.21983961373734,341.815979549595,74.06798726077369,-201.46882869219988,465.7883429075566,0
681.0,1.891818,-109.65145349554842,-316.8133625845119,256.490455507294,7.562661199400219,-169.5233294982757,73.5491788349704,0
686.0,1.905708,20.91861946666724,-166.89305829348223,381.4151807721538,40.88717490231316,-361.8270137573455,327.75535316777336,0
691.0,1.919598,-102.9192395182848,-187.16878686606404,267.18182587169326,-171.7492787572878,-269.8646551150217,258.466093436948,0
696.0,1.933488,-2.259946099745342,-128.24475069295823,441.2436326462853,5.037013525811645,-217.1632794301127,379.0208272853248,0
701.0,1.947378,-70.9612686133757,-426.37128478991167,434.4076035360792,21.63689488250872,-161.38515698748242,309.02743167846154,0
706.0,1.961268,31.45707883436661,122.10637636082126,144.87305186608177,11.20600462504816,-246.81752873303373,-14.890764382131604,0
711.0,1.975158,0.8265248950566004,-624.9744785877981,692.4022356420612,76.38095395374833,-61.596170903664486,538.4985960862464,0
716.0,1.989048,-108.34659879290544,231.97247676414256,-6.695526839252807,-11.318823710363226,10.586678606510276,158.32606672341225,0
721.0,2.002938,38.8667322584532,-121.91587526152593,466.6994805125363,143.94740514672077,-13.736337873597437,9.815393169518757,0
726.0,2.016828,3.6164807789406055,-170.8096128365341,426.4153091919469,100.23565350459428,123.31494282865371,277.8189039793862,0
731.0,2.030718,-20.17577390198747,155.90966233437757,278.0913904597068,18.832525339529298,296.80605232093234,122.34984866159408,0
736.0,2.044608,-45.412924763469306,-199.74768441318943,234.20221923789472,-53.03617397689065,115.78555980600284,123.35054068042145,0
741.0,2.058498,73.34605251798382,133.91730673744178,427.81483549949553,95.44626278404183,189.8225205595603,87.33400649117048,0
746.0,2.072388,47.13848553809629,-19.337460261611845,263.9680764966645,144.88125756530326,180.9772748929245,-130.6300999172288,0
751.0,2.086278,63.14729777522464,99.4751094330016,261.76914235168454,119.10454834462443,95.58938417658506,-29.1853844933166,0
756.0,2.100168,75.41483641975164,-150.67228082502385,365.0701201724596,121.46132431859824,227.24774864123296,-57.82990807526643,0
761.0,2.114058,103.83685136688166,73.72477551410373,288.73060507756213,85.17461642658418,12.543500980696097,-34.67571476539703,0
766.0,2.127948,26.168895627622657,165.84153843161727,149.37663781221016,-64.51101574787424,475.7325301775823,-185.3379721430016,0
771.0,2.141838,92.005285614071,-97.11772914307204,239.7881185824387,-58.53752831099389,34.74686609072866,-232.88380016192693,0
776.0,2.155728,73.09139553951846,149.59640299574752,166.44998237759938,38.39079056961907,132.34823017875595,-143.3921797640328,0
781.0,2.1696180000000003,137.1480214025213,-73.31417536197365,176.48822318451673,102.4186157164098,96.3735339852418,-255.9371932535095,0
786.0,2.183508,69.5861669783308,110.9712681137042,147.26150006472903,-39.50720319041344,141.0779545332321,-318.4562030891394,0
791.0,2.197398,122.2811434912482,-46.30978513450116,290.9225399546594,116.31146978510476,67.99525162277087,-193.5208964862203,0
796.0,2.211288,-80.05738393367194,66.97055629697361,-324.0114885142,-11.226176694703664,-23.00305238288943,-302.13023727231257,0
801.0,2.225178,130.41833485834775,7.34700079622513,306.3561547115352,-237.0015733702726,51.3987401881131,-455.6382256523488,0
806.0,2.239068,50.2334528182932,0.4389012947434523,96.34252932458156,32.390382397292825,74.58870162510269,-230.82904046297767,0
811.0,2.252958,80.52577963246651,74.30196118179711,42.36855474587573,50.74012115421791,89.1159127416857,-315.1771942154592,0
816.0,2.266848,28.774445753862715,76.65120766165668,-84.74882191766409,-181.27006976386565,-38.97390221703691,-369.9046120163625,0
821.0,2.280738,139.5734978752082,72.47662431383044,28.80141044478945,-42.67123167682992,40.74538818768795,-297.5780554118341,0
826.0,2.294628,-35.20876515583734,142.82091903279257,-165.23446243955877,-114.9585271347856,86.98234121290984,-374.2924404391296,0
831.0,2.3085180000000003,5.526564512709754,-52.84118756754281,-3.371706145601099,-155.30902485751284,-39.74768959565094,-285.78193806380057,0
836.0,2.322408,121.44454793996806,116.87193741847172,-262.4263562623372,-31.15294184241315,68.17357838164142,-196.44289685198467,0
841.0,2.336298,99.45593483505738,147.58066546514638,-209.70272942230685,-242.98998567299984,-33.48788910548972,-366.9390236415744,0
846.0,2.350188,60.1882796067292,33.00484758801441,-196.16128101368565,-15.425885749318743,-31.613522921920246,-97.42345463495174,0
851.0,2.364078,99.19689462347787,83.1342714146632,-307.6588604616307,-6.532767853369908,8.291979144753075,-329.11628386419784,0
856.0,2.377968,-33.92890439334326,71.80815941277436,-343.55959930136896,-147.54558690116357,-10.080333971256994,-235.2762311731576,0
861.0,2.391858,27.709527442980644,93.68573377193708,-235.4239836370392,-67.82003773159998,173.77428286545884,-221.3349328179565,0
866.0,2.405748,0.9621346906387184,185.76132693835024,-420.64992793167687,-150.27354897597144,32.750824642308366,-269.467037996342,0
871.0,2.419638,40.93426138749321,52.98269532143704,-478.3891268147595,108.63355828783948,-61.35935634996965,-143.8771864153798,0
876.0,2.433528,51.74998967011658,14.135901119677635,-278.25360046531046,-236.10375237014537,262.1714636934066,-201.2137594406703,0
881.0,2.447418,-77.59748532017755,98.07895181940933,-283.9594958653513,-4.8959617685246,-161.9623645799682,-183.0534000258965,0
886.0,2.4613080000000003,-16.377607860124108,52.61866999419964,-591.5148002616977,35.3539086907693,139.9914996189782,-67.37712327094897,0
891.0,2.475198,-78.00566014479186,28.417412255086028,-389.7711426797483,94.0102817051592,103.67839370475886,-154.12505199053584,0
896.0,2.489088,-42.219911028457005,-9.043583565279135,-368.7931631372707,-20.472647588135743,7.487246428012263,-92.47104963619329,0
901.0,2.502978,22.97356935056417,28.34853284911436,-394.2921717019299,-58.764463840499786,105.1297579854246,-55.88832949406658,0
906.0,2.516868,-120.06287828130536,69.54909238970097,-417.3374721544843,142.3961181543468,31.03672294420029,-52.57287288282095,0
911.0,2.530758,-4.154886983873887,-114.6287214140632,-212.52920382482296,-115.03511582553348,23.71399195078007,-100.05892551400422,0
916.0,2.544648,-152.667220887901,71.19295195741742,-559.5527894874879,1.6570049161782023,-47.8980393955252,79.74519178857082,0
921.0,2.558538,-12.30355948895415,-38.7374876066692,-44.11434743860664,75.07281660251873,61.44983307625483,54.60277301000486,0
926.0,2.572428,-67.01240573273864,21.008453669177587,-429.1982475209919,178.4199463981173,-11.20945786240904,-33.47145045725373,0
931.0,2.586318,-118.78205336103174,57.7866281134808,-241.0880127564791,-93.6274537903334,-5.851498679177034,93.4571969760024,0
936.0,2.6002080000000003,-107.00843457726592,56.36779821898864,-190.9882358429377,56.32535418899757,-26.737108644327847,16.84966098224917,0
941.0,2.6140980000000003,-177.81848101275887,5.591261314108426,-210.148208054169,55.598042228864045,-92.0488988423312,142.6122706358321,0
946.0,2.627988,60.834893586616886,98.81405165450808,-189.6938592325095,57.9097012166851,-14.915469801374908,19.467344267704863,0
951.0,2.641878,-63.97520342883173,70.86109162110444,-66.01913463703167,21.90031642690336,-48.81055511750546,152.2724688656258,0
956.0,2.655768,-142.2589674004957,59.34765539608346,23.718322438658262,109.03168898082453,-78.9719160765227,164.4775002966104,0
961.0,2.669658,24.3781100528837,149.81700342948898,-127.7702805952203,75.84087349389175,69.1348465467016,23.34552615072916,0
966.0,2.683548,-97.4397153857944,61.987586111516,77.9174949428037,-62.77669246553511,47.13273691808016,221.79802384581967,0
971.0,2.697438,12.399561526173713,100.57128379210212,-74.15391522147038,184.77699930954665,-79.00558948333443,63.43193698445357,0
976.0,2.711328,-109.7891924151488,13.280950818091448,-5.493020365367123,-14.090600469128823,-121.95943955555924,153.1495899036064,0
981.0,2.725218,-111.88005472158665,127.0972208183757,144.60781695813426,104.28304446824204,-129.33803522549184,313.99101676043546,0
986.0,2.739108,49.33290930054921,82.77999365465595,71.96710431402337,-74.92503699287039,-66.32255391092217,172.75043002716353,0
991.0,2.7529980000000003,-78.37288492178706,28.011380231888484,212.8328321884221,-79.59457218916673,76.8456437762467,61.01564900526383,0
996.0,2.766888,35.149975290929646,77.1654875602216,47.67092326776456,201.02135541817492,-54.895312998590086,338.2972474503034,0
1001.0,2.780778,-38.63119352544092,59.59865888885848,134.7781518014304,-111.185639730387,-68.97236239973412,66.08300194930003,0
1006.0,2.794668,2.189100086859909,-100.11317951260123,297.716295741315,23.24191990978514,-54.74495664057766,214.27491789701432,0
1011.0,2.808558,2.814829241412649,128.083656990708,134.680268631759,18.29686461431352,-47.42035589837128,-15.39769612202842,0
1016.0,2.822448,-110.37789137540668,159.80953105863856,488.133789773553,43.12351038459404,80.70993558255402,434.17051503678863,0
1021.0,2.836338,70.52069672070184,-132.15031871942134,-48.961729375571934,-189.54704114313896,-70.84913883767135,62.25188960173264,0
1026.0,2.850228,11.338895589085617,-10.86891923646234,484.5068506153794,162.08565796655924,-141.08819176423364,207.245891811537,0
1031.0,2.864118,80.26016629127952,58.78561962392652,124.59881245130865,-53.824419948805854,-7.936310696544117,149.04886822912766,0
1036.0,2.878008,-102.93669022684936,-137.4122045694108,203.12697010876647,61.95543034273069,-169.94758523839266,238.1196867724912,0
1041.0,2.8918980000000003,108.76098010469886,-182.3868467077168,318.30112534159514,32.372530876142235,-52.10604498129459,280.7607530701047,0
1046.0,2.9057880000000003,221.8895465626128,-134.3321840462481,201.85934846810915,-72.07612354017292,99.4791525167712,102.65165536462446,0
1051.0,2.919678,-148.90185950572442,-54.10883580824128,400.9941734843603,-71.78459803240548,-100.42639351746688,244.6331440112636,0
1056.0,2.933568,157.6410402263794,-181.36920326543893,-18.41572739162012,49.71828559401751,1.8386848987974,116.1308831355929,0
1061.0,2.947458,80.99392180269585,-158.75748954532776,486.38663228209145,-0.5169501420081808,-138.5760881958572,143.49571939358208,0
1066.0,2.961348,0.5417748917009604,-21.15249977482441,135.08406738161375,-28.55521317679539,-66.63814497907222,178.94769841641272,0
1071.0,2.975238,69.45653979797187,-275.21155734523563,190.25472471619616,95.15615854006086,-82.18541050647153,266.23397351317203,0
1076.0,2.989128,50.45834555418697,-179.4643321926875,374.4146979235508,-114.60828812668036,-75.45940798184209,-39.52545514048451,0
1081.0,3.003018,173.0730908952886,-113.36815845880994,75.43642257286965,-189.5978901874905,4.776117748477745,245.40084789420743,0
1086.0,3.016908,54.95091776319669,-55.7001991402832,312.0648258222731,291.9617716252603,-125.26558372819964,240.38631862980972,0
1091.0,3.030798,4.699214630178545,-281.27567807227746,211.5194307208245,-127.26814597727088,117.89514408231688,-20.24103122245839,0
1096.0,3.0446880000000003,71.65365416324818,-47.33976814461335,155.75138360741542,-135.0251227094235,-36.366806663159416,275.5511546813008,0
1101.0,3.058578,93.44323396437947,-42.76585860347229,84.58007325055684,283.5181733484207,-42.1277304399651,58.94851952212783,0
1106.0,3.072468,-34.134410113694145,-180.24125182623328,379.2381081802208,-281.06868968814103,51.48240458150184,273.73356435736343,0
1111.0,3.086358,186.9050857343944,-217.81047604511505,132.15258393561788,195.7413149884302,-56.597196037912425,11.802072924291856,0
1116.0,3.100248,18.83779476078849,124.48751944398975,219.81109129618304,-109.10188413741572,52.42127258765254,186.1620122602719,0
1121.0,3.114138,79.14234143620787,-169.1592251144853,356.86871634017285,-89.00062589833661,17.45124597990457,-113.0846198214077,0
1126.0,3.128028,-113.27204171100738,-192.68717787980967,-116.07326797933878,-60.0171018371966,66.61781714045013,137.77321535437258,0
1131.0,3.141918,70.16052866997968,164.1420903484641,97.8103471378406,-22.7059737639964,8.114362452768106,-88.66435207308028,0
1136.0,3.155808,30.0218450800591,-209.0458878886071,271.2922065863205,6.083932224790978,-18.940729191349423,-2.8490114017144688,0
1141.0,3.169698,-71.82466155368016,106.539579315549,192.44648664399784,-172.9067636990584,181.41128886509333,36.295396973204056,0
1146.0,3.1835880000000003,2.529752272535772,69.6054774096574,93.9259977452177,-113.93793094288216,23.84811580184285,-66.30467089545522,0
1151.0,3.1974780000000003,-31.36863867038376,21.26407878314257,-25.8403769660095,86.45593014444285,73.61846757533135,-87.22414227319419,0
1156.0,3.211368,-63.6547354633069,25.195085972629496,220.7389322302068,-139.33262446933162,-17.324615307849,139.07781323414827,0
1161.0,3.225258,-124.29089023892708,63.13996500612113,86.64851076965728,-9.724082371733472,203.25948062555705,-213.7738549699876,0
1166.0,3.239148,-71.09649650689525,151.33405266341964,48.28292340625631,61.90819732439973,-32.43104368993112,0.1736654256833816,0
1171.0,3.253038,-125.0601136064748,130.0726209434733,91.12438769153653,-83.78868167385285,152.6426449091216,48.21967851283428,0
1176.0,3.266928,-0.1280027798027205,-55.30018931132816,-53.986730597914125,-80.68374713404836,76.41641897071844,-299.6080945193488,0
1181.0,3.280818,-49.71225301385035,45.00330606177707,-4.400642450707323,3.741835191971738,-1.7606428682567312,-141.5988236136083,0
1186.0,3.294708,27.53333186682565,-175.09170830383465,2.611769070220888,185.8813436304844,-80.28217421126172,-118.31256141598558,0
1191.0,3.308598,-207.45378665706107,371.79111466872,28.558751819345886,-152.98069334040747,195.81934787012185,56.91901100637037,0
1196.0,3.322488,-22.767931189580548,154.13165000136422,-101.9125109639368,60.32888647194176,54.33967671586937,-363.5028364605412,0
1201.0,3.3363780000000003,-15.742874904666015,-82.8331062982259,-92.98088263737216,-76.62803943642842,-13.413329454628954,-43.88779859298835,0
1206.0,3.350268,-119.89607896848244,-82.50349597624111,-96.43507632113165,8.052876492021483,7.544121076747352,-212.3033958671639,0
1211.0,3.364158,32.232841819754164,144.61152840382545,-184.88820510115727,79.05454503291534,117.32429970764667,-171.8704998846957,0
1216.0,3.378048,-48.26399955092659,97.56734880462167,-94.86026960397363,32.00899921891283,-61.83361777000329,-177.18074942989793,0
1221.0,3.391938,-131.41532884393882,114.6496893398424,-127.88184425371756,61.425743224897545,72.02973823357453,-155.13098363347154,0
1226.0,3.405828,63.88209590360721,10.188125851393371,-250.24681355643747,6.523372228840944,-59.938082036196185,-110.50841157695888,0
1231.0,3.419718,-22.79517416495512,-0.1463507191945074,-258.7443578509825,-18.531926905930334,-41.2684836523273,-193.4310770211287,0
1236.0,3.433608,-105.8568197976494,9.469299130223373,-229.25699536822503,-56.00235496211764,36.17033240025216,-224.81517402075417,0
1241.0,3.447498,-0.8763239913272578,121.34842721855397,-192.3142355981631,165.5944987052008,47.66353758712927,-162.7477680032296,0
1246.0,3.461388,-16.814174455048633,80.93798639984777,-210.57444729012468,95.76844050822456,-17.72200753380135,-95.29342967880557,0
1251.0,3.4752780000000003,-80.5757951855703,-88.01621296069176,-230.71626092957013,-66.83979009070484,-71.8703741924404,-128.62287510458967,0
1256.0,3.4891680000000003,101.33367028790636,92.91027902856148,-278.0393070807428,-1.0505294857835423,29.340397987066904,-201.7003606742698,0
1261.0,3.503058,17.109194238703807,24.221039975381323,-366.2529411068166,193.60343035863903,19.840621334136387,-121.3402763325812,0
1266.0,3.516948,-49.00700974674072,54.04134157138415,-173.67823381281949,-72.06472719727803,20.239713274956863,14.933853346392825,0
1271.0,3.530838,69.60279599044466,36.905766335237374,-184.14035502532272,129.50745120618933,-40.54692686928612,-163.7857351222484,0
1276.0,3.544728,-6.021332105408476,-28.35555887166481,-252.12023592130308,41.97565180532001,21.091229331038456,-198.2007805219989,0
1281.0,3.558618,98.603409896636,19.624079084525725,-187.89899427874,110.362333619803,-86.87932645522838,-115.50224080509236,0
1286.0,3.572508,-43.40168001550204,-3.0595719568033104,-187.9270564251536,-242.69321534207256,92.16745927835132,30.05738222860757,0
1291.0,3.586398,131.38462567616952,45.68033907481143,-142.30065273563045,306.10919699109985,33.72098245532623,3.979797611004813,0
1296.0,3.600288,6.549229649985673,21.71718320977504,-221.0308897626352,-145.2229172404072,-36.41088801631443,-197.95998353489304,0
1301.0,3.614178,56.13636898786382,36.86313450587181,-93.60615942565488,189.2673803837505,-30.44374487450504,19.99804296792602,0
1306.0,3.628068,2.2539868907832243,-2.985171406589047,-188.83148788871048,32.934736417649006,57.69967909650422,34.539412158774,0
1311.0,3.641958,63.0405264387414,62.2362427128806,-310.29013111336985,124.88071722473444,-30.858903749026467,-59.37318567271532,0
1316.0,3.655848,17.37207348811571,-11.924124672023456,-31.1609288199212,-47.0489800757475,-9.2801500018929,94.30371786883828,0
1321.0,3.669738,88.67098070688925,-15.455166420174145,-21.13044623726621,27.34812437737553,-27.04703201671138,1.9263143366586704,0
1326.0,3.683628,26.655852921875663,15.735842178233488,-285.8336577837819,201.6206148600149,-46.25122324058951,23.81366228574877,0
1331.0,3.697518,8.054639087541023,19.178949322617584,141.19689660881494,-30.208897072092427,10.157977062532424,43.98319157112742,0
1336.0,3.711408,15.657941771620258,32.92194569773349,-119.6441357047596,2.6691858767020733,83.22891477151393,-19.81402492918476,0
1341.0,3.725298,4.7189774842028935,-120.59173004631084,-112.34097598726638,29.38432300679757,36.30913945896166,-59.6303476999937,0
1346.0,3.739188,80.69223418848398,-25.2928852310258,55.23354243914284,125.3081916347598,-108.4661025105859,168.30744132104226,0
1351.0,3.753078,9.879293971155018,-40.95749112993242,-51.509624196831865,-127.13719630023098,39.762771798633416,39.19534023433313,0
1356.0,3.766968,100.33323736821004,39.63105586634183,-121.45585465100336,185.8362851475196,9.73130374363505,37.086733072165394,0
1361.0,3.780858,34.739976878329934,23.68672009498325,40.82148821826456,-126.39800163172453,-64.69929468054036,-126.17637363511966,0
1366.0,3.794748,-45.73841751829031,-112.96084859054926,81.97218117297406,171.11984769638212,95.26045159187538,139.22888465919482,0
1371.0,3.808638,-24.440444539917383,92.21488497063947,-57.60677818475362,-106.24510953360256,-2.5899285064047106,79.8815056546204,0
1376.0,3.822528,141.48258893939257,-47.95751597359768,118.94977189642869,71.94269841851246,-81.15991903204753,-70.03945936981823,0
1381.0,3.836418,44.17358197580244,-3.5323967382007755,-56.80880963713549,-43.45837658547202,24.05825889501457,138.9161470116748,0
1386.0,3.850308,-72.58347789295955,-2.861028738520794,61.13419678391709,-48.93932110050196,-50.31936880061703,135.64671457583904,0
1391.0,3.864198,43.11183642030527,4.797932387668947,55.871646242350224,-79.34604165480015,69.51065978509656,-25.49825837250142,0
1396.0,3.878088,68.11655854619005,31.071715755435346,117.41785815744107,5.111547096116073,-50.42268225269069,316.9858565170392,0
1401.0,3.891978,-35.635442080218425,-22.603341027009108,91.27229756681707,7.305457682765651,30.506925001784417,-45.2077871519089,0
1406.0,3.905868,29.62707954882981,-0.7652444533006921,19.86896225829997,0.2915410686681108,-15.344883249401938,172.71762213355024,0
1411.0,3.919758,51.751956936215095,-31.55805360453422,82.95933922276107,-126.64078271599848,-40.0446006944216,70.51603874822952,0
1416.0,3.933648,-61.72833408877265,-31.61480552472144,67.81396893055218,-102.59011640229907,-23.452598877689404,158.72216892246058,0
1421.0,3.947538,51.76108549648753,29.39155974623324,147.39828142079392,159.14082921340523,-41.740455374293816,57.31060778727754,0
1426.0,3.961428,12.442460792009127,-43.28458240543852,113.05519099982048,-196.4214496358585,13.747288511748938,125.66634280732852,0
1431.0,3.975318,-44.21970819967195,-52.36329617226379,107.95202808643135,-153.2929802529872,-46.53484505442567,229.96927025572725,0
1436.0,3.989208,-72.49487924704246,56.43424125622097,25.02300553081483,59.10195656489133,-93.04245287782015,72.46140900132441,0
1441.0,4.0030980000000005,126.65025302211376,-52.92605953520419,114.63001745683776,-14.871014110960784,-16.386395832721135,156.37382617114076,0
1446.0,4.016988,-133.43240079626472,-48.94133711179764,123.55362651755452,-119.51565061346764,9.52739405946728,67.00012563284385,0
1451.0,4.030878,81.1099715954278,-9.519761899128955,120.08029870302056,-93.1475535412164,-80.95042054136714,93.70217813266711,0
1456.0,4.044768,-33.503401789084535,6.460759722473625,4.322238868048331,-60.35472250878941,38.3517498187003,149.50826882892932,0
1461.0,4.058658,-63.81993944112988,-50.41258814042247,83.93920802522379,-89.99761979502577,-44.56704242485665,169.45381781001583,0
1466.0,4.072548,11.190769529458535,-15.837717238656689,29.462506258564467,-71.28337541403397,7.524517963866547,72.90493793670362,0
1471.0,4.086438,-43.69333941901303,-33.869770934035664,122.40561664625316,50.74635466353552,-135.86811050870108,170.68371662456542,0
1476.0,4.100328,-42.29456433628185,-37.09800788936846,44.11472781191082,-135.3730856488315,-6.189812432105901,107.72143499145392,0
1481.0,4.114218,58.38513720181478,-61.00915697004057,115.25868071957056,-101.73864698667192,27.3916744214096,-48.62221279093973,0
1486.0,4.128108,-74.75343652908768,-97.474545804634,148.37342949524583,9.933068117271109,-139.61041958880287,233.06080158713627,0
1491.0,4.141998,-141.3602354003358,-13.601813109108338,-96.91677680854568,-64.83723637051327,42.98113481356484,83.34561466651492,0
1496.0,4.155888,37.52251438390365,-64.13347602182594,87.98982798355807,-40.18164185708887,-24.26236473860208,-9.612909002498656,0
1501.0,4.169778,28.36363441336054,23.13814071072029,43.97141867911621,-237.55314349755545,55.94581253150096,253.12578910117648,0
1506.0,4.183668,-15.68896282511682,-11.610670499229911,-14.608305270678642,190.1611772419056,-43.85691456302112,-116.73380246168776,0
1511.0,4.197558,-107.19279103384662,50.22198197945529,115.27423147720248,-118.49710254737664,-160.44238364063978,207.63475398948145,0
1516.0,4.211448,61.98164004092079,-116.00887645135774,-5.85773343360956,76.26322195547715,10.903201614681578,-0.2353479420017521,0
1521.0,4.225338,-74.42270848126232,-15.37318256733538,18.18590345404281,-149.63162061606096,70.98288331838027,194.39764525786623,0
1526.0,4.239228,-75.07825741975832,6.200110916900666,-75.16501716098136,95.26856265989532,-101.44823007757968,46.73887411105069,0
1531.0,4.253118,36.6311879050506,-32.63366195818548,150.28563248225623,-179.1912485098537,32.11384179064693,65.39573370006057,0
1536.0,4.267008000000001,-13.29207470763892,39.75496569314196,-206.4561803899093,-18.269478406571103,-45.455685721926685,14.566528956825898,0
1541.0,4.2808980000000005,-32.00181706055186,-40.46942916259872,62.0044346179446,159.831254144453,28.15005020409108,-23.213762772410547,0
1546.0,4.2947880000000005,1.7249368553419906,31.05199548151517,-96.32941662173982,-155.37501790536427,-2.1322380874415607,87.56174843763618,0
1551.0,4.3086780000000005,-3.019162577189162,35.61283401277903,-59.21596017076944,-22.01871036353799,-11.537168628178176,79.66189770874553,0
1556.0,4.322568,23.616100524605585,58.42234925962961,67.70800848455548,64.83478660862444,66.7429676408173,-157.7868350799945,0
1561.0,4.336458,-22.652325854160523,17.38922683334974,-124.51001704343192,-135.10703664212426,11.57884382294958,91.74122681530856,0
1566.0,4.350348,25.027536612085385,-56.3065803791078,-36.85692224405109,21.622732311179647,-15.554205191166837,37.50040029356037,0
1571.0,4.364238,25.479651920841,97.04021978076604,-97.49813717483126,8.102156874281425,49.81430002453743,-116.4507265021037,0
1576.0,4.378128,-0.8751284181650378,45.3922587112344,-108.38977400112545,37.684641943172906,20.303571847233776,-20.933524236620364,0
1581.0,4.392018,-24.94652679498629,-11.497514682566615,-60.03231345698612,-2.6075784133709945,-48.23917702824931,77.17607182024071,0
1586.0,4.405908,46.23946062239903,46.2280067285146,-102.85728526681294,13.983628335002734,85.39792987275749,-207.8687126281509,0
1591.0,4.419798,42.58131782404461,54.20726088198268,-61.54710432063103,-36.947690606313365,127.5899561804501,-11.371031695158814,0
1596.0,4.433688,47.52408782713248,22.7460523892959,-72.60947946131353,132.38321487659886,-79.02836323549882,5.993033243122817,0
1601.0,4.447578,6.027070564659379,92.2917306871481,-146.73790946033787,-37.00738041552902,89.55770186671882,-82.77698349508617,0
1606.0,4.461468,36.74136677768095,-8.470654533119717,-86.87706418670689,27.85754698666613,-88.41575102824214,-32.13043425317752,0
1611.0,4.475358,32.84817854589825,-48.82221475000437,-79.69959587113927,250.93125577379595,34.547996847363066,-94.59125988922,0
1616.0,4.489248,92.51024749502696,152.9467867474525,-219.6087898813741,-181.9550085059097,181.2809272557244,-78.04100038582668,0
1621.0,4.503138,-50.01048237052405,-50.56142638795763,-13.226689753670255,33.40947625252002,19.747817912944903,-156.90779018461356,0
1626.0,4.517028,17.121034693996634,88.42719348850432,-108.55333382997468,197.3962635273208,-94.8680486825306,107.29918176201932,0
1631.0,4.530918,88.07810119059062,-72.69518057839245,-24.91316635776452,-14.379482740266653,183.4340615112729,-232.541726645596,0
1636.0,4.544808,50.08913534649081,59.87225124024356,-70.69247362840512,1.2692310776736662,-65.83190723923285,-174.21223506585537,0
1641.0,4.558698000000001,-28.42560214957444,16.19053077164944,-107.71384269014165,25.23903866098817,-49.85033700120509,22.32260431058903,0
1646.0,4.5725880000000005,38.650058271849616,47.42922123348493,-64.2671693081165,118.0037161078438,50.00023479270068,-74.55458528777602,0
1651.0,4.5864780000000005,30.083399433516306,-7.896019318270415,-4.562130565495366,27.45729083236589,3.608992487991796,-30.473036084806274,0
1656.0,4.6003680000000005,64.48450958371751,10.32527746566256,-86.2931823531549,-22.87153235908804,-13.84853860888403,-75.67047150656545,0
1661.0,4.614258,-44.62212664251121,0.957515029689759,-47.86068557327373,20.319411479572025,-8.486843734231355,-244.2945232857884,0
1666.0,4.628148,115.52344443169667,133.15924207389793,-40.42611200057128,-18.260527014353784,138.39622864051148,16.972985004818412,0
1671.0,4.642038,22.091439470463,-108.3995051624085,-6.214930540232267,34.816507378186344,-115.17663010465176,-58.201177001914246,0
1676.0,4.655928,-99.35245315590171,-27.37189672183504,-121.87583078923528,155.54862799700513,26.88355961877152,-40.242706889276015,0
1681.0,4.669818,121.16535371101244,33.60371579861808,32.873948012271285,-48.976309938475865,-11.834994400488029,-126.30518095055186,0
1686.0,4.683708,-26.71417289027792,-10.137267418249074,63.724463118013226,-25.883722879475425,-54.58939223397103,-99.04639412162832,0
1691.0,4.697598,47.20636778979458,189.9639682326054,-226.40733564425813,37.479266397737376,113.4317855007609,-79.93012185524447,0
1696.0,4.711488,-44.146251813016825,-107.74167442493928,48.83164058386867,-21.58892775057761,32.89791859452234,-129.13652908314907,0
1701.0,4.725378,48.33816643390715,-116.21251022388428,71.45467014975972,105.58519225942293,-83.20337853625688,10.790205752454522,0
1706.0,4.739268,-88.94305804188176,112.85497801204994,-11.425846820336094,-3.641287959705166,17.107042944783906,-54.66998013354533,0
1711.0,4.753158,53.78685504037847,21.21696256707448,-68.07064753816145,-16.0489803043623,82.1865747842034,-59.00536299204538,0
1716.0,4.767048,-20.111225820952026,131.5755029321164,-23.37530697428423,-2.4274149630765223,133.33693575652558,-16.965734549867435,0
1721.0,4.780938,-116.56777178797036,60.29002263394902,206.15372758515977,53.51481783768847,14.862478528262743,-61.07993986057251,0
1726.0,4.794828,173.18906442245108,-199.1903567819448,-273.0620697320868,-45.94067618407303,-101.94092206992748,-50.98107267070368,0
1731.0,4.808718,-102.12246213885705,37.43964860092112,173.15940631827397,-24.1509107882462,46.63087347348778,-5.758383973144598,0
1736.0,4.822608,-93.57570835456798,47.75567898382699,8.95286195697594,82.90204098703478,-129.83215698405994,-116.31483532207132,0
1741.0,4.836498,56.78903373137297,27.46868000843267,-47.63486129005386,-2.0681987783471847,99.86643705968626,64.18657181183013,0
1746.0,4.850388000000001,2.693268815016524,-104.7643653101066,76.45465737676032,-97.6278830744706,-3.335887037570732,53.9514926829233,0
1751.0,4.8642780000000005,-54.00669068774843,55.44204519498485,112.73557389092252,32.189638992056985,-37.62062027548612,-40.55524086441115,0
1756.0,4.8781680000000005,-91.07843614787282,35.59305814912338,-77.45460054077485,27.19526348064423,-7.336885918737616,-38.53906815452607,0
1761.0,4.8920580000000005,-7.927586523314797,-110.78547662786649,34.30790203590651,12.241270349195808,-64.4285820416044,-78.40759545234005,0
1766.0,4.905948,28.63704314485588,106.81761607827428,38.05473275254872,23.594880530735164,29.85261724737024,29.76324417785168,0
1771.0,4.919838,17.070201998552037,-43.73925165891749,142.99306149507737,-115.80774366935496,61.21525167468563,114.12330158114528,0
1776.0,4.933728,-161.74264676432443,-19.247904890328897,44.31168937395495,36.997509525291136,-25.68670321829308,0.4255277553699923,0
1781.0,4.947618,99.03040675162045,-23.827853819489864,18.89979101317379,-40.80027342013688,99.309546583339,-7.742662356135641,0
1786.0,4.961508,-184.9310564417629,-76.64964940322363,213.70326301531432,16.83978545010435,-160.456833361186,45.78506760488597,0
1791.0,4.975398,102.89024142776113,-28.88198902560645,-30.63540561290744,43.21736093525227,-9.055819521063016,75.28040268882206,0
1796.0,4.989288,-10.3950778903747,25.74816017230814,101.00231207816488,14.36766829970257,-6.373403725917952,-33.39777042373758,0
1801.0,5.003178,-177.54234027737786,94.26653167569832,108.30955281243438,-31.17216809619719,32.367422534040145,118.98993043248436,0
1806.0,5.017068,57.04170231109023,-147.26333601987648,181.03985156172627,-67.65877307922949,-62.8187801451007,93.40312953328667,0
1811.0,5.030958,-40.40903464500292,-11.759899095834792,80.81073781056719,19.288572708357368,14.254932008058606,51.82432657081645,0
1816.0,5.044848,2.161851735991565,-42.94847372314324,57.53459714020421,-42.321879974053886,-27.82893789399906,5.816305003418691,0
1821.0,5.058738,3.567853172009676,-12.447674638188529,73.89012766414413,-17.666587582870974,-39.54775865579754,10.296302713536225,0
1826.0,5.072628,22.53407387324295,-50.85436183917184,83.10656798099421,6.606474261263188,-16.161253947660548,39.597728061655694,0
1831.0,5.086518,-36.6717477549693,-28.690145505019093,105.67591711438251,12.426041280590038,-24.461650402335497,43.699709599147496,0
1836.0,5.100408,-18.72543852388586,-38.20298189107895,95.97287422672817,-14.194835307095849,-58.96565818722144,17.022563132947166,0
1841.0,5.114298,-58.31744949499021,2.9592598350135724,81.80351281872073,27.799227475024267,-31.3147104491815,-6.468416036022586,0
1846.0,5.128188,44.30129917742092,-32.66321334368824,94.38820937088796,-47.421675945503615,7.233970241536824,147.32148973092785,0
1851.0,5.142078000000001,23.89941925686069,-51.105182168596485,94.99592750652808,21.92963136732803,-46.84772382685648,38.42579475966569,0
1856.0,5.1559680000000006,-27.439370159453745,-54.31195963928624,43.36457115717264,-42.82597601723731,17.681752067571626,11.343544993627953,0
1861.0,5.1698580000000005,-25.323881974392734,-38.12998661579448,122.6472012236698,19.661424637114305,-1.0178744298620863,-9.883695889204317,0
1866.0,5.1837480000000005,-16.58344458988669,-74.68292637077582,116.92081881548746,-3.8729984107533175,33.009740841093496,64.20234487699568,0
1871.0,5.197638,3.17748200144419,50.36219419115373,82.86280555821094,11.751157298595226,-33.44133397347198,28.481835530252702,0
1876.0,5.211528,23.807894588162377,-24.704738940619144,60.323474003345474,-20.1878735173598,13.87106932010778,74.33996731425741,0
1881.0,5.225418,0.5287824545610391,10.822435435455002,63.71107366715976,32.73678516090349,25.94604232373218,-119.1914348974978,0
1886.0,5.239308,22.42885381257389,-33.34776882878417,114.0052886034509,-36.39803840110788,-58.240612449596135,112.41339302646396,0
1891.0,5.253198,-5.957173347700248,-50.024860482517525,52.14048836889429,55.05600006082803,8.396738970211912,17.179193182315846,0
1896.0,5.267088,-103.91120391707358,-1.4023742660292309,61.84174003976926,-43.94981755754959,-13.773479462665335,35.11096636602565,0
1901.0,5.280978,167.09753591083543,-1.911953068299017,-1.0168162863314762,-5.570351389189231,9.410374319571506,-38.504856966075145,0
1906.0,5.294868,-10.45616606201384,-7.235283314271097,126.28659549704491,-70.1398221990244,27.012824508189407,-69.988126945163,0
1911.0,5.308758,-51.71975460991781,28.448093283925168,-10.791428456504644,68.53985118080183,-30.972098184799503,153.83535551228036,0
1916.0,5.322648,-15.796416687351396,-69.25160182339341,85.5702624726789,138.68627273696995,-17.29035575974728,29.81184779677298,0
1921.0,5.336538,171.40631203408608,-56.40999914415092,4.094146462886208,-79.98066637275788,-5.0848313137427255,-155.65943091270506,0
1926.0,5.350428,-54.83161263652132,6.589865279351743,54.12421878654914,59.51001627762832,58.07146083639061,-46.36346716560543,0
1931.0,5.364318,49.226830933697,85.42034507152519,45.49181177192381,-21.83529156882988,-34.5993739397117,87.95187874319464,0
1936.0,5.378208,-121.32628735342028,-17.37041700010073,-82.28629968199195,-5.120663297777647,39.13707062663685,-58.51165954488167,0
1941.0,5.392098,183.4757005561652,-69.60909386082909,150.35428445566214,25.86115765535825,9.364645196116332,1.9100310688291808,0
1946.0,5.405988,-132.1742177078454,51.53484649946004,-3.7846841902038726,26.651982362894664,-73.03913795589408,-51.23250890159048,0
1951.0,5.419878,8.840227742933036,18.86865918356707,-17.532362134836752,-93.3665133109762,131.82083991902786,-23.54678968859112,0
1956.0,5.433768000000001,94.3853444707632,-14.344971543066706,-78.66075030699699,38.23733671472711,-7.481739868236284,20.170686933036503,0
1961.0,5.4476580000000006,-28.405140871235048,-6.17452439724843,65.25670220070977,14.368650338259346,0.4014194757034661,-35.35968485422606,0
1966.0,5.4615480000000005,-14.49807636026928,-61.79913014248932,-89.25398132150963,63.39622988256835,-106.07501267973008,-15.193462662173644,0
1971.0,5.4754380000000005,-21.48276565853531,204.75198521921865,104.01995190716792,-38.35118653674881,225.3503494660567,10.048572488413278,0
1976.0,5.489328,21.65867390275273,-142.7014479545316,-111.54910983628096,-37.86949202285218,-162.34867294830224,-105.81165401827134,0
1981.0,5.503218,9.306841162989972,93.34416658504384,37.15544047557624,5.034475132264059,79.16309717279036,-23.066878173045247,0
1986.0,5.517108,-146.69433561831676,-117.797064549317,-111.4377343410848,15.93969878068642,-68.82907181451397,-53.54388264624406,0
1991.0,5.530998,100.6810889105408,43.76008396840571,-70.6285237046605,12.383737442115097,33.441999570843,-73.24702387739117,0
1996.0,5.544888,10.90780525117292,-49.24990713973085,73.83816391686811,-25.035208076799268,-42.90808857931379,-37.43904795235776,0
2001.0,5.558778,-78.99259460573404,178.62404050176897,-183.214372725532,-21.003024376249435,80.27566432860934,6.678753866342442,0
2006.0,5.572668,-41.38429486257724,-84.17944279736611,38.19355606866098,-5.306431153881203,34.099841966868084,-24.796033615382257,0
2011.0,5.586558,-36.29821522925592,-18.143941245115936,35.0202926212156,-33.074916217802524,-12.26605675227552,-21.415634042978287,0
2016.0,5.600448,56.37787419329302,125.15804451985856,-169.03554163510177,-1.5263775167392364,57.69213234641607,-32.66446366706445,0
2021.0,5.614338,-141.17862522006925,58.06268876122563,25.542060597688376,-12.664949625139505,53.00577994151921,-23.46733209057665,0
2026.0,5.628228,24.7122609143317,7.202745957450077,-100.8164440037082,-28.066562382691018,-45.53446666611781,-0.7152458417126226,0
2031.0,5.642118,-71.61868357234044,-27.156055198184983,-32.5601215778655,10.177270196841818,1.4118765820871104,-28.44023719096878,0
2036.0,5.656008,34.43864026797907,5.819874259587654,5.577612737707129,-0.0159253179792706,49.11893485214421,-41.57883085312165,0
2041.0,5.669898,-153.01843013921538,8.924026693234119,-0.6033900789082622,-38.69621575569938,0.940401353030186,-42.29918639344018,0
2046.0,5.683788,108.84795784270972,102.2042576686155,-180.13862428737986,-21.08978279861368,35.9428434417208,-4.335662361339882,0
2051.0,5.697678,-132.6517701253515,-55.09223168349769,39.619375673178126,11.360231926714464,-44.37222005332157,41.863873897133885,0
2056.0,5.711568,109.7172650387526,32.01806517800598,-198.69535260960632,-43.67163943695768,43.67914328295512,-9.65783204418301,0
2061.0,5.725458000000001,-44.76778594679401,-64.51990485908192,34.0334551228162,-20.02949859542366,-38.86003353369704,-59.46948601875264,0
2066.0,5.739348000000001,-63.17504621140216,-13.956639371117134,61.32985376346373,17.28278993563319,38.99194543011615,-75.5038038312274,0
2071.0,5.7532380000000005,43.42443733623556,28.33383120081821,-145.58642471786442,-67.27601080001625,125.88242713304987,47.80348565064078,0
2076.0,5.7671280000000005,-40.910635133105096,71.96105943348859,-18.44650298690516,-41.07253416248305,16.933069199501325,-23.987468314703968,0
2081.0,5.781018,-17.557877239530107,-7.318693802252879,-40.73025552150028,46.81291536103559,-39.56898875638636,9.47929454477798,0
2086.0,5.794908,22.47305346003978,-1.27004619188752,-88.16406736346569,-140.31788137876927,57.2196454890697,-106.02850400145394,0
2091.0,5.808798,-62.623312625117954,0.9632532613392008,16.927525846893346,-15.794227209467326,92.82773716958962,1.1826676672405725,0
2096.0,5.822688,-1.2498394075079249,131.8293635338839,-133.507454136178,-33.7172718018259,77.52666822147692,6.060287343121615,0
2101.0,5.836578,24.40541359196775,-2.526630384941309,132.58916100267209,-13.777618497592684,-35.553553839291226,26.665030461557738,0
2106.0,5.850468,-118.81636746123932,-116.8918683452498,-8.532162831534315,46.16673079006612,26.446613181331468,-38.61779146224424,0
2111.0,5.864358,112.99305198367966,81.40415032903832,-85.19060398263427,-183.9750175576491,96.26555128465765,-96.26485460112802,0
2116.0,5.878248,-90.9996674367416,-4.805079468942688,15.461757491970374,-8.108204093440342,-81.40377679269257,72.77663645555288,0
2121.0,5.892138,-51.877343172940144,-1.618829106688576,13.448148717025877,-17.742812013292152,-54.64554455309532,30.423929368040334,0
2126.0,5.906028,74.79073160293508,16.72741470933102,4.768935721084027,-28.53960355108895,74.89730010831592,-32.26379390818816,0
2131.0,5.919918,-99.86649965323356,97.63987962338555,54.365960525108456,-108.88503730258364,171.88330931158575,-43.12066462784739,0
2136.0,5.933808,8.807353478042456,23.012345304131443,-64.9432653560313,8.68911585667713,-102.18333874883793,-14.854679404856627,0
2141.0,5.947698,-48.13813043085135,-80.50136891697207,57.794881119498974,-32.0115786583658,14.381152818539402,42.74183038462946,0
2146.0,5.961588,21.378828773555007,1.648666635589386,51.08663465946398,-60.02413324775056,115.1616465198959,18.88429068035427,0
2151.0,5.975478,-17.477750534478453,24.27618329047669,-81.9843052160887,64.39419222464272,-118.48426113650882,68.43837066404043,0
2156.0,5.989368,63.50864712528238,-41.5500854991369,13.321931019453324,-195.5476989592781,151.43985064861997,-46.27360738267152,0
2161.0,6.003258,-67.02690918828381,-38.21191034010454,140.48046843923652,-132.61654277790984,-29.311337980293505,35.226059554720905,0
2166.0,6.017148000000001,105.73453630367052,4.741461611096222,-129.77113734467133,122.56835126471132,-107.22134489604323,76.51006115632013,0
2171.0,6.031038000000001,-71.34099313015989,9.221295203432948,-38.05476000393722,21.977914520565125,40.96170477778257,-1.0874872316808553,0
2176.0,6.0449280000000005,57.61362533577977,55.77878697602688,-28.281671421054448,-253.30165013703532,28.59137258575632,97.32007703668452,0
2181.0,6.0588180000000005,-48.59595988758535,29.202562921661656,49.32319783178716,10.60544343226443,123.59238563418022,165.8175635368768,0
2186.0,6.072708,-93.51638170810767,-39.69354436293415,-60.28777538978045,17.191047373325947,-138.01073360448882,-63.57132127943627,0
2191.0,6.086598,114.27154936024064,7.60811732667422,-81.08965898214879,-67.95144915270254,3.479993212925084,203.4623428533196,0
2196.0,6.100488,-85.18435361858279,0.5215269954486621,-50.571245215760825,14.94834942315082,-149.53598419950598,84.31890206653239,0
2201.0,6.114378,-130.48468077644884,23.539165731466603,-12.510331920910565,-184.1924351289039,82.15043577114986,54.55619877722111,0
2206.0,6.128268,192.48884726160412,127.68736683145204,-7.786040630766351,-38.577521317798514,-13.910919916302705,142.0103047161762,0
2211.0,6.142158,-131.61484693017155,-5.678299837866577,-130.3362018968849,1.469049218110161,-72.80873561941631,44.2279541394107,0
2216.0,6.156048,26.089317563447946,86.39482092444828,-124.80472934359388,-140.81219382560897,-22.67943442510571,211.22560036386096,0
2221.0,6.169938,23.22100424067462,-244.6356632742404,-223.8737803830803,-74.87995079766422,-152.47921610063176,-31.08003751446897,0
2226.0,6.183828,-165.5799494292616,56.10050778082578,-17.549051276199798,33.04029445545116,-62.775488257917175,108.70982681127086,0
2231.0,6.197718,92.170107158105,93.17656822154956,-21.59980279201384,-78.39519879838714,121.81970619194854,277.8965590305129,0
2236.0,6.211608,-41.15284039782715,15.835064931843563,-191.6955321385128,-65.68000670238648,-103.66082034197352,86.96028134971851,0
2241.0,6.225498,26.773822450800267,-5.743762679139316,-93.71922799544554,49.36318501135898,59.617961377496826,71.84681108500398,0
2246.0,6.239388,-180.209166704318,50.75968127001974,-191.26310801610532,-79.65126627509827,28.262173988079788,159.42715398033698,0
2251.0,6.253278,162.82273159104128,-111.79474098399102,-39.78075076853722,-39.8851716582153,-184.5584305849616,154.23459918591004,0
2256.0,6.267168,-143.98218943373723,149.99154662968306,-194.4078456329229,-183.68726459701412,194.38112673388224,125.12879836488123,0
2261.0,6.281058,6.463214690580304,-109.05980561442612,-25.26611977178053,34.826226571915704,-99.49170445069927,238.32479450486025,0
2266.0,6.294948,-84.85502936286547,-41.86587593971648,-223.71106927671505,15.486290700546164,-62.322563523521225,183.6053618814124,0
2271.0,6.308838000000001,-142.62689392528722,-94.70438517082664,-127.14226515458272,-127.56924321448344,-141.8123292881443,136.55458457415943,0
2276.0,6.322728000000001,19.454483879451388,64.39759577845518,-47.57096002370277,-127.510206523423,145.68024750866306,191.0313122386117,0
2281.0,6.3366180000000005,-96.34594935050956,135.72541168389125,-142.25373985269624,-157.593244388098,93.951366234624,201.54100162222028,0
2286.0,6.3505080000000005,-34.83032834445912,-16.22662854016454,-123.58213271671907,30.91861941855771,-70.36080137189387,206.4817491589852,0
2291.0,6.364398,-235.04359406022013,-24.57145122887644,-86.2814537218886,101.5919051500806,-85.17336036688127,363.5497037388765,0
2296.0,6.378288,-138.93274528767662,116.76218617859348,-116.82314082690256,-60.3625873853332,61.44340675918994,169.96014209129578,0
2301.0,6.392178,-101.09183057740698,57.35341055693908,-75.44585852205499,-82.35661144054647,-9.994977082566177,163.8831726011029,0
2306.0,6.406068,-157.87325942782547,39.81262267842589,-72.10202944847563,91.0476497736185,-129.13202759759878,298.2810202410073,0
2311.0,6.419958,-174.07545836949578,149.66089975053666,-117.98727675571206,-163.02337992968666,125.96416998596013,239.21764267277777,0
2316.0,6.433848,-123.88442092793863,38.16824534662211,-112.98309659929336,60.92380383444685,49.21714072813718,266.55521079470367,0
2321.0,6.447738,-190.97322160505144,70.4444291475791,-152.1198884197442,-98.1033751752462,-222.5787077444432,62.502443628117504,0
2326.0,6.461628,-145.96667394733947,-65.38263890838685,-137.31822941740086,-22.87075310991809,-113.42430665033083,171.923223113158,0
2331.0,6.475518,-89.48367302261646,-50.09555167421815,-11.852581464847056,61.38786166620267,-255.9079966449212,169.1773411889263,0
2336.0,6.489408,-101.42570901912433,-27.029925107254407,-18.44766606986149,111.62757468755508,-81.57270599373722,29.572668350442285,0
2341.0,6.503298,-102.7361373392772,24.585346728286304,-90.0346066748794,-10.310814842380822,-167.78229654232845,224.3225047344326,0
2346.0,6.517188,-82.7657593058298,19.49657938623772,-29.851929815104747,79.003364124437,-11.620480445840982,88.60315805023924,0
2351.0,6.531078,-105.969403437329,-32.98386380422332,22.025906020034867,121.80971810474756,-224.68099737629683,108.66061070377955,0
2356.0,6.544968,-70.47649599391208,185.25873942912767,253.6161486372144,71.68086744079781,-3.006988613962335,122.88436301036036,0
2361.0,6.558858,29.671236492335897,-116.80118577649247,4.348815041150061,53.71154818087901,-97.8564780258788,119.0774844936113,0
2366.0,6.572748,-374.2532239750842,-130.83928909563514,-528.7238332894174,278.73944830063726,-224.7948392256339,150.17289654228318,0
2371.0,6.586638,88.0141044192628,-136.91143737595155,344.4565066788704,16.628045317963426,-201.53320299094045,108.64630423298374,0
2376.0,6.600528000000001,-127.47844010263528,64.62674093932436,-53.47500834187065,133.23877684018709,-12.316420030736404,61.02672557592162,0
2381.0,6.614418000000001,13.72591737670205,-46.42141306626536,57.90652947158355,229.9625008749643,-94.10371362218244,10.156110877474902,0
2386.0,6.6283080000000005,-192.80394308212905,-58.32663651819747,81.66173027859092,162.0994038253673,-90.76167692901775,49.86210358644925,0
2391.0,6.6421980000000005,-5.524570803409823,-23.327278622417843,98.78978402240088,183.10646621892403,63.90654604753953,-47.58040692918729,0
2396.0,6.656088,21.031982147334112,25.159946616690554,135.62815937294272,191.89785748269816,-77.4256003986518,11.41966016425408,0
2401.0,6.669978,-12.680043701993933,4.2806445386303125,-62.29575913692378,209.35077427178257,190.7969538133442,-37.83555727657556,0
2406.0,6.683868,-147.47836405894532,-182.6603471563353,24.34119214095334,248.0076568048341,-24.11148414656192,-32.43670872616076,0
2411.0,6.697758,2.29247971857712,29.371112912731093,25.71346821353333,255.56600114032048,77.24011509577504,-93.30909099524152,0
2416.0,6.711648,-62.72540017963567,-29.63467330957077,3.989599399505302,155.02701665251033,152.5681073139706,-28.847293558328545,0
2421.0,6.725538,39.79649553059375,38.075684477523566,180.6648625176307,368.4234075143472,151.0717523399369,-68.2784316080315,0
2426.0,6.739428,-26.49109976858981,-144.1069057385364,-6.091421985513534,272.8228030101889,52.5907348140221,-242.35203540904308,0
2431.0,6.753318,-80.4804908181431,-67.73374143805596,214.28201599399588,274.45025184483444,133.67507467222092,-25.378077102007868,0
2436.0,6.767208,33.469416593438254,142.15218132198956,26.278322362877503,258.8838788449506,89.61798910825966,-171.61521420247735,0
2441.0,6.781098,-38.293203140000045,-87.40873349014728,80.85948584462542,228.7387837171608,103.5731705342962,-189.3883843313181,0
2446.0,6.794988,8.338808875672367,4.784970913573082,98.06459002649318,246.6000158446017,25.198373071868872,-161.1462479330474,0
2451.0,6.808878,78.02285429572404,-5.633999567091472,118.45990391800004,176.6332409962944,126.3750321133702,-213.4599147486976,0
2456.0,6.822768,6.261894309737385,69.24348115781466,64.6779650327256,41.1470737561406,96.09735819959312,-105.49263603157824,0
2461.0,6.836658,-72.24314763664482,-37.47580269360135,169.2096527852845,202.0271322880521,117.80161469679146,-324.6052208153849,0
2466.0,6.850548,30.722902565567374,39.98889709876072,72.58876937023567,213.59386195100103,105.27117630612652,-121.5979251584609,0
2471.0,6.864438,75.86186570855779,-53.33199816332025,21.806632041390827,116.57168580234833,-145.4682586301535,-322.45955025744456,0
2476.0,6.878328,-180.4036540969612,-50.49187570503389,131.7228810905811,72.19083089277451,-44.48778164954479,-53.29847811640892,0
2481.0,6.892218000000001,82.47853732002757,-48.7176845800133,182.61773465014835,182.00756131405169,61.569405183470906,-162.90013736002385,0
2486.0,6.906108000000001,67.10739468052445,92.25665329076966,94.83601906028149,92.69971854340342,-92.16241269150544,-161.28422100790203,0
2491.0,6.9199980000000005,82.52408977780671,-121.24452737983736,9.53003410945002,101.75152516762006,1.8373044977961897,-132.6720426415875,0
2496.0,6.9338880000000005,-139.9399123009483,26.354139807834464,62.82561941558222,14.350982597219016,-35.66793464162313,-125.81504934248574,0
2501.0,6.9477780000000005,240.15051863961955,-37.96966048669799,120.9614602074647,215.9828228662441,-25.45561443385519,-123.07478319706053,0
2506.0,6.961668,-14.45814323519896,-25.50175863870627,33.430415019324215,119.0998413517778,-99.03609896420154,-196.58717286582072,0
2511.0,6.975558,-41.84126830493528,-142.1609660562171,-18.41144741525923,134.81734795747587,-84.49382834435819,-109.1387699764946,0
2516.0,6.989448,33.882094665318434,227.51900055107728,11.394135393717484,36.35979816905913,74.32984174712966,-295.6720902101795,0
2521.0,7.003338,50.01450359545207,-129.79089854289555,88.7732559550365,124.6770951206356,26.04479714802441,-60.7621610554655,0
2526.0,7.017228,55.775564718549134,-140.7417170959113,-86.75093156348889,112.67254202722116,57.08430818411347,-108.35169267735915,0
2531.0,7.031118,166.5811715744912,77.03651112549773,11.91070876441526,-286.645673576408,15.628201276560958,-355.79042393219294,0
2536.0,7.045008,-163.59681644024832,104.82770553974566,14.277006794760268,890.556633649909,-189.74674687331395,-35.67613979252063,0
2541.0,7.058898,-85.34227406616239,-147.22212950586248,-8.734107541614176,-218.519592886709,61.43111826632395,-66.36445263445682,0
2546.0,7.072788,243.16745929837344,343.0622935510496,-18.59499222958252,-254.807673365856,211.3179885035596,-339.2113360285251,0
2551.0,7.086678,-177.5258849416121,-253.2600434009731,-12.707313009484714,188.9155044536684,-183.19138742482104,-145.20348826544614,0
2556.0,7.100568,29.33299573202092,127.47248988589448,-10.19712492519329,3.303385264858779,31.90525764421724,-49.24165565598168,0
2561.0,7.114458,36.216877253482615,-1.3562810209223244,-6.607579948387123,21.2346946984632,-5.253983652373918,-169.65322618546296,0
2566.0,7.128348,-75.92445906289717,-31.61624405595069,16.504751849178266,79.67760533178904,-57.15564377888596,-35.71799791785777,0
2571.0,7.142238,-5.72375887959106,23.001647345866527,-53.38813667911589,-111.4684743473775,-36.76851413685165,-147.08591695826135,0
2576.0,7.156128,35.20698541761399,31.88597282267027,35.762527167918364,91.10756000902174,78.74223351602143,-1.857772737778561,0
2581.0,7.170018000000001,-183.79735637932623,17.468313613781746,81.05774397565301,-58.822125423756745,-66.42435766116031,-227.34917972810496,0
2586.0,7.183908000000001,42.06592844792691,-8.879718767749623,-81.77443151395194,162.54179050091005,-105.22883221296686,41.69159449131684,0
2591.0,7.197798000000001,44.24900790273647,84.6347271628361,-20.43947079391559,-141.6925009483017,26.44711028904954,-225.30956990220528,0
2596.0,7.211688,-28.108854188188083,-92.30532304869344,38.28779509294515,79.1550087934571,-113.5194875494297,24.186332171407656,0
2601.0,7.225578,-65.97744620699817,110.90732010926811,26.876704995900468,-32.3292854781898,-22.659125891028765,-162.6064855863794,0
2606.0,7.239468,-74.11611200757281,45.39440707717333,14.936183117975322,-124.15662018840533,53.24234223050706,-40.94487996519821,0
2611.0,7.253358,86.42641069568052,59.64907521792572,49.10001292830315,-125.52290146051116,6.282522372706225,-51.10182372418981,0
2616.0,7.267248,-87.58751241590603,-141.496396372255,35.8671329955249,-207.33223857079605,52.82004260808128,38.36035822115868,0
2621.0,7.281138,57.80075041258554,53.516666380127255,14.507372262509053,-170.27069355005003,-65.11978957578667,-214.2091427851256,0
2626.0,7.295028,129.9915326587419,49.19245615961591,10.94069125013876,-115.30411107382756,145.8299065357914,-82.09905057892655,0
2631.0,7.308918,-127.3614197077792,-27.5767485574983,61.0041659674072,-40.79375840448901,-104.98545494181064,-54.04217073010442,0
2636.0,7.322808,38.33966987357917,-10.184798272446772,9.739943100794116,-360.72257482010855,142.85450969080367,-163.62142384165404,0
2641.0,7.336698,238.6870164952772,-144.2154314268682,96.99659238060686,168.52580967962805,-32.22795107719105,-56.29257896038075,0
2646.0,7.350588,-161.09117701637354,120.42065639384704,-29.27842644439921,-399.75193808144337,27.13662151676888,44.6516740131862,0
2651.0,7.364478,53.028108112938135,-21.19788659968237,10.66595686140776,-79.37788654940147,-51.12437282617299,-122.56877309205125,0
2656.0,7.378368,73.68867909964551,-96.46224479390074,67.20097975451706,-356.7902162436043,68.1484070935279,-35.58948848900926,0
2661.0,7.392258,167.0758231235984,-50.48863114703624,38.552562240882864,-213.2830898641973,154.61309069099315,-109.2496458785608,0
2666.0,7.406148,-35.05372431885654,2.237798589517979,114.07531819546412,-125.11958954734692,-76.1068314052935,8.645136651982481,0
2671.0,7.420038,74.30736931599202,-49.50391772219204,30.858841778443,-436.28196961699166,75.60404824319762,-183.25202860353392,0
2676.0,7.433928,80.97060282881947,-181.4442526008357,69.66783131526125,36.34139471026064,-70.24184462046723,-131.975983538039,0
2681.0,7.447818,16.363070914973196,52.34252252848817,-14.448679489744892,-267.17634456041685,165.9768648004461,51.87622829113645,0
2686.0,7.461708000000001,39.284497097959125,-117.45531958100106,73.84044141828657,-389.2956885653779,-26.400506554319385,-57.39251972377557,0
2691.0,7.475598000000001,22.88343194331162,25.13300233378313,75.05375483810705,-298.9577316428737,1.329988876968608,-87.97344911976629,0
2696.0,7.489488000000001,24.12889597876801,-100.77422704227824,47.14159708876797,23.689954400771214,32.441722601841626,58.498252903080896,0
2701.0,7.503378,92.29549309082104,-101.28216759330712,41.27105733700647,-561.2049741311373,91.80726657126036,27.02551313447345,0
2706.0,7.517268,57.87286045440998,-65.38776313724051,0.3550445446020589,-176.03733630987,-96.0808428892648,-176.82767822620676,0
2711.0,7.531158,36.10388232497533,-21.334713646348824,60.814952704295,-287.34646701566555,40.79182256133811,28.02143827864822,0
2716.0,7.545048,22.77025179949213,-74.32022487481727,114.26930311103828,-324.2290497397021,18.65611506994792,-109.57029583888242,0
2721.0,7.558938,29.578128586845324,-75.97358833377876,-90.06980027229406,-360.7121513501616,-63.670926512241536,224.01865753739304,0
2726.0,7.572828,53.45464701871541,21.264540435160207,91.1399535078265,-46.80200825269925,13.647224029429442,-239.223573846942,0
2731.0,7.586718,-3.2097289785342067,18.430707680333093,-43.74396446596048,-374.0583272398086,61.17740534564918,176.2721887092298,0
2736.0,7.600608,-49.89760644852464,-48.44531553643237,-22.450500275216093,-147.9456960651935,-123.93835322573602,-86.29397381595368,0
2741.0,7.614498,-12.176537978790776,96.40650317707826,-46.33401480631872,-255.1298253684252,13.235333110960973,6.292264023047586,0
2746.0,7.628388,-53.018880066894425,53.27003420933084,-52.7846083502157,-159.26935272213248,71.42391244739193,-2.934322244087781,0
2751.0,7.642278,-3.03593689466895,206.7660085309893,12.733637050472574,-141.95035449905177,164.09441602674755,71.53462824351557,0
2756.0,7.656168,-43.26441815454389,99.3935333867665,-14.999112722881948,-293.77921713533783,272.7168010083849,100.52237048400814,0
2761.0,7.670058,-55.75919728184246,177.0964653117947,4.617880847795509,57.102232732407344,-129.05010851864364,-34.620254919281706,0
2766.0,7.683948,-4.125749247569036,135.59056923714726,-29.24625737025091,-361.59893059061017,112.07071626761228,-92.60013991726905,0
2771.0,7.697838,15.677392059447705,-41.94805662314422,-59.57696813009109,-126.6529142700679,-12.876302256832547,63.901146430434295,0
2776.0,7.711728,-31.581866270534192,212.64364864203685,-14.894902604036934,-292.3054148889043,130.56959999302376,39.118017661517726,0
2781.0,7.725618,31.3596989261682,143.48227247745194,-99.78863908445382,160.78203334219188,85.36409996548329,24.73857550009967,0
2786.0,7.739508,-233.7280590594193,23.00815708713396,64.9769461255849,-250.5849379043109,-65.67211976477329,-53.86775784828183,0
2791.0,7.753398000000001,96.91254275904942,79.92561605809728,-50.20868037225163,-53.02327753594447,74.58454277831885,-8.90221746535454,0
2796.0,7.767288000000001,-71.4005100152974,167.5155377401667,-172.5604507701201,-218.72917203996792,-27.90496901810061,-29.72755523971712,0
2801.0,7.781178000000001,-17.87392133845421,85.95546158263991,-54.88672442383167,88.70303347404817,25.073801030583915,56.4451162270357,0
2806.0,7.795068,-42.55180959994074,64.43488445053772,43.11934990317884,-319.3117881262171,97.25874853238162,174.3185811619087,0
2811.0,7.808958,6.363874286583151,126.80293300033996,-35.500437028524075,-6.436300012939263,-91.18628486024592,49.04388450125573,0
2816.0,7.822848,44.66153032438064,5.130583516219156,-102.29033743988086,-210.8492928136841,-76.87709248693855,77.67215124258922,0
2821.0,7.836738,2.875032826933833,92.27219625737396,-69.10628496460062,-183.90290608358532,29.67369322573213,52.32901313451736,0
2826.0,7.850628,65.34398128128755,55.553888128959535,-132.15721686257217,52.21505026295942,53.930104922456266,115.05186443994523,0
2831.0,7.864518,63.18106030507683,91.14542427022076,-24.612435164484825,-95.09184238105618,-108.18621460021726,82.79176667546085,0
2836.0,7.878408,44.34304525988672,-15.794471386524531,-35.655448584822416,-139.84626819947405,-54.41323655785703,2.667827865608551,0
2841.0,7.892298,106.34284332771362,65.2805336526942,-183.35492199841983,1.052726260804512,38.13997384799059,115.18646294903232,0
2846.0,7.906188,19.42338718095587,14.000991249487685,-58.13750455526095,-73.151108699865,49.067067993338696,64.4100158894277,0
2851.0,7.920078,149.97367140252814,-89.60144219503793,-74.58286692943494,-134.34438392892065,105.5699566655286,-40.85903613763946,0
2856.0,7.933968,119.67572897601713,-63.33348512184269,-160.05948292634702,69.30204555290061,-49.98087232686208,-41.74612424150227,0
2861.0,7.947858,118.84704354658282,-18.463783145442093,-83.77598058726551,-2.8550695284841296,-5.707274227741507,111.62870599548718,0
2866.0,7.961748,162.20000733773944,-33.59150713748919,-133.42310708644874,-114.99938947055088,82.00426089900736,-81.87231865395246,0
2871.0,7.975638,-22.671325183199443,-129.98614500236076,-44.07970259651421,93.92655560352443,52.98988693633407,-1.031936198688915,0
2876.0,7.989528,296.2223419627948,-111.98579514732526,-82.9312002959574,183.96551390232128,-83.09390553476906,-27.3468337842706,0
2881.0,8.003418,107.93053552498831,-133.66309067048752,-126.28388434286605,-4.10311959595351,-9.2604997920872,-74.75863382624226,0
2886.0,8.017308,149.31533107534975,-81.17681729966569,-82.20555287245254,-168.11084538018935,-14.67846064682672,28.23737845896196,0
2891.0,8.031198,89.21224041206607,-141.04302066420567,15.674926252206347,235.37632019565584,94.48196137779856,48.92069120840628,0
2896.0,8.045088,165.5544852733002,37.15744176355545,8.87513227230999,24.09798227919196,-12.240259407264716,-4.025672856572001,0
2901.0,8.058978,135.37523922746436,-146.28369361922375,-88.1943034051547,-37.61119439281339,6.99015044337089,17.62648472064243,0
2906.0,8.072868,173.4077178315734,-88.95485148882693,-112.13922481657164,76.11540576334627,-65.51749771628155,-31.105604109582075,0
2911.0,8.086758,105.5345377293123,-88.86682367354076,51.51013326074792,152.4666758027538,-91.82272545114655,-74.29093374805738,0
2916.0,8.100648,162.8371570172975,62.405946263552565,-153.94506606202066,-15.805647894240709,113.07196761706354,-10.167651561009592,0
2921.0,8.114538,191.3700912329016,-187.20059406614,-12.555387406874091,21.56604901656783,-57.07411043784735,-50.32826484851297,0
2926.0,8.128428,116.15605413093522,-5.124395338890739,28.31713388403212,220.37592282851944,5.253494815560645,39.99194698978469,0
2931.0,8.142318,92.90747962871588,-12.204604493680506,-3.336505249171182,175.0773986198682,-70.26958160986366,73.65175370241553,0
2936.0,8.156208,108.78078267666002,-45.93192490668612,64.16361758118268,59.7793115005213,53.38734264833008,-169.83280605492138,0
2941.0,8.170098,150.38379246449534,-65.99036279258414,-97.54739820216354,314.9794203200431,-173.33856237391728,-45.10379952059611,0
2946.0,8.183988,102.6424102093917,-35.53708859915818,44.08484462884549,-96.72711563493922,49.50397952826941,94.3432313412067,0
2951.0,8.197878000000001,2.3725655435587782,-171.52276643379045,-68.46766514555551,392.41071090733305,-33.20565738341231,0.4448503652633135,0
2956.0,8.211768000000001,14.521146045345986,32.71627625497368,62.48475327905075,-64.60793716036513,76.38116176282738,-4.490715382277713,0
2961.0,8.225658000000001,294.7865743028374,-146.66745216752628,147.82328638818052,236.72990453578768,-121.6315654867314,145.9342690414071,0
2966.0,8.239548000000001,67.43062978988736,-111.96036216882824,42.56091434839749,142.3478658409667,-71.24111746251293,-76.66026713136907,0
2971.0,8.253438000000001,-84.73599562810756,112.40835260977649,-7.006466920535416,255.2441336173941,-102.10948199477384,65.91135497597793,0
2976.0,8.267328000000001,59.39776802491551,25.882083950052746,123.27680153596764,189.50637714375137,83.23898971408494,-68.25125568750367,0
2981.0,8.281218,146.6026324028944,-164.73794805084486,68.31137691502643,240.7157345756557,-152.348402371948,83.7824176077272,0
2986.0,8.295108,17.09576897357019,36.27626373734816,152.08618219159862,-73.84857193937961,202.9972520661836,120.37345641912488,0
2991.0,8.308998,-24.465595728305694,56.546435261341536,131.8836662638176,367.5179588228306,-235.00363130563227,17.348514964959417,0
2996.0,8.322888,-51.071518587729415,18.09197868076033,190.56251948430736,91.623590881546,48.823657957817225,65.81211654699085,0
3001.0,8.336778,135.71803428033706,17.501297411738285,204.83170560050627,233.72591481502056,2.394598836568859,-161.37042407045288,0
3006.0,8.350668,-101.93255399869317,39.0200749514947,1.1921108266086833,69.76778608138338,-1.0250244299274545,49.89454587786335,0
3011.0,8.364558,2.638873750781796,149.38155412620966,258.6621774350539,307.6659261502151,36.228848683082376,188.6614632461311,0
3016.0,8.378448,-28.5695124006163,66.61240336948691,127.3843362370014,301.44642877635056,-81.14084167888393,-86.56158407211629,0
3021.0,8.392338,-102.7944488990307,-6.832438272461481,164.16376150364945,-7.297660321525171,114.98107936392132,94.35344296906928,0
3026.0,8.406228,-34.286656291062286,67.37390421878158,140.54930644773685,232.0331623427316,-131.20100671770166,19.457185186479546,0
3031.0,8.420118,-46.66509058004876,86.51585276406297,58.95012773703491,167.85034058043067,50.84641048607382,-29.32370412024975,0
3036.0,8.434008,-74.00750425411903,69.66753521391244,231.52580922449147,247.90801603811823,-63.06890320659198,56.68308107252372,0
3041.0,8.447898,-147.67989364756252,12.355926947900535,126.97553509960156,286.7490254365045,-64.96030207739588,92.6669068782132,0
3046.0,8.461788,-48.322572414320966,83.85392729484614,137.85845113163043,-6.809976331443608,1.276409325664602,145.80380963350345,0
3051.0,8.475678,-122.52398308312152,-25.666214693183324,172.87182707827168,265.1606950655105,-85.1002798892765,10.105486998293957,0
3056.0,8.489568,-183.1543940865978,54.42243039153183,-15.021482062039173,119.44583521251955,-92.48011404117018,-29.20932731325601,0
3061.0,8.503458,-88.14343282583283,-19.1596094995083,144.75053402516247,140.55316116532805,-34.79177229570956,24.922923253826088,0
3066.0,8.517348,-238.5412613442492,42.4940484447657,101.9436206250413,69.62641524298705,-41.52127202571907,-14.409799421271352,0
3071.0,8.531238,27.084118097897665,-55.268212191225565,106.8676560096204,231.0659024924845,-141.6148662147885,62.365530077063504,0
3076.0,8.545128,-222.8331238215501,54.29067600463929,81.41664555297797,90.79118882337112,-98.39379903789344,94.73852033439184,0
3081.0,8.559018,-62.505918478177925,-69.27639328682679,2.6523009550270302,111.55626956607856,-81.54144473624345,9.404837748816504,0
3086.0,8.572908,-95.74959978825528,-32.59253990622887,53.20741077873875,153.29448369677775,-11.796200326105543,145.38229545155747,0
3091.0,8.586798,-140.2892499296036,7.431412767802521,36.92577152068544,1.096431690681566,-164.16937329346075,-132.7831506058453,0
3096.0,8.600688,-222.7152616147052,11.300932184788792,-61.97962268744519,48.16467199254232,11.248652922495506,101.22822745344968,0
3101.0,8.614578,-24.44806305891946,-83.99033921636072,103.79884987051942,106.81723570351907,-132.85504714909638,-14.596260375325638,0
3106.0,8.628468,-156.22623219039286,32.21385247558528,89.11143916157383,62.78528338420508,8.270583888855942,38.38468117931862,0
3111.0,8.642358,-137.02454747869763,14.96131653586272,-74.40283980663617,43.20844490986906,-39.99727665132718,-30.56164713787106,0
3116.0,8.656248,-38.94537091715036,23.800919519663168,65.84563520110369,-57.42021314617136,68.29992883131258,7.866544247943388,0
3121.0,8.670138,-139.6946616603032,62.70486586663536,-72.9817903093939,-7.078364355379861,-26.862175417883304,75.08479388722174,0
3126.0,8.684028,-82.53405598421213,-20.4162778781748,-29.511048598578785,310.7439556120617,-22.697160993007174,-78.03073513730146,0
3131.0,8.697918,-76.49513688819277,110.85368080767464,53.94714047593027,-113.70184301494312,69.6268532082524,61.69721888556517,0
3136.0,8.711808,-74.25554487315748,-48.79988265684162,-10.155242966491514,-177.18973439847417,73.5148610274962,2.132301329007123,0
3141.0,8.725698,-166.0518706668568,143.8284531596278,-33.144298069770734,-112.73636282859734,-11.729096571554692,67.96328771263015,0
3146.0,8.739588,11.835983213692458,-39.20807857315324,39.09833340433549,32.374782480372545,26.331359152267662,-114.86034160310132,0
3151.0,8.753478,-124.68702096016855,150.54552481786442,17.248807608354035,-162.67563957855754,29.25187450700778,58.84672345741899,0
3156.0,8.767368000000001,-99.24991631396634,24.030053195607195,10.88964968030804,-65.17094129616909,56.84803231159771,-3.946763958381517,0
3161.0,8.781258000000001,-79.0158922274423,-79.42947831529207,26.02296719678838,-27.734471559412725,-20.79229747922075,-23.556922833543013,0
3166.0,8.795148000000001,-8.153597331279766,32.748955524131084,-20.93561661951197,-133.8635778889148,87.49562834488674,112.89247578725436,0
3171.0,8.809038000000001,-99.30766198458107,42.36930904591598,-119.02165629366604,-384.01979842752127,-68.59884748859037,-150.87068934808042,0
3176.0,8.822928000000001,-36.45100023588649,69.35793546657011,20.30726356359193,28.94552899959146,-0.29646689689935,-8.438062810138163,0
3181.0,8.836818000000001,15.046271578159718,-75.02126608765128,11.142302664458072,-52.66698125725811,20.805228039693866,116.973944340196,0
3186.0,8.850708000000001,-88.05359436101938,22.639623447342267,40.2652766085053,-190.34459703352945,32.858776363597414,-6.016055628649241,0
3191.0,8.864598,23.804733341911,-64.44497022460033,38.96018806064348,-180.3148032816195,-36.71920902180926,-9.481262223177351,0
3196.0,8.878488,-50.058075283168485,50.06614563619669,-109.7047796484719,-283.8761513643416,4.146224453961077,-14.78805377273526,0
3201.0,8.892378,-16.48627713643907,-35.489678979269094,-44.963255395321575,-95.81378241873684,26.080478404825143,-10.120979509931386,0
3206.0,8.906268,28.19847934830827,-62.6835186108185,11.5768742321866,-290.1226154908202,-31.55693958780924,209.54929890389693,0
3211.0,8.920158,-58.04062612299058,44.17662829511043,-27.71569486230699,-6.340407191119134,-145.53823487106536,-15.787030281560854,0
3216.0,8.934048,97.6736734629136,-58.63197231274526,7.724753200269944,-83.77940315301987,93.19076872333106,118.21628980966064,0
3221.0,8.947938,-86.27802018410566,-1.3706559666031488,-41.15001420290507,-280.0750059566041,52.09527841793243,-31.483236537561275,0
3226.0,8.961828,37.81140956969813,-81.26462227977285,26.6527492361427,-303.437266008875,-175.77339570887602,71.2623384654148,0
3231.0,8.975718,98.12805920786208,55.5716951872682,3.5180120631829546,269.62289888807004,-163.21283507280842,141.8911784625077,0
3236.0,8.989608,84.44388935462335,-44.828307821456725,-21.596488805488065,-525.6005749166225,71.36209013467905,-44.73023045714444,0
3241.0,9.003498,-29.830543036343336,74.22780531627247,31.864440280896105,-80.32983235761927,-18.111279710769907,214.24439727373,0
3246.0,9.017388,72.00446886061583,-160.9869314249139,33.173536539146795,-312.0383322621094,-29.457034899713555,61.30193510117504,0
3251.0,9.031278,-44.99719990353947,166.63589533909206,3.4686371549968698,28.946761086231533,-139.38135538317226,72.16145049917156,0
3256.0,9.045168,104.5308273248468,94.53603096991549,52.07639729317003,-217.58264647432537,103.3742738654615,42.221062175110745,0
3261.0,9.059058,-44.234470975279,220.52567516454783,67.04416478422752,-71.68020862929882,191.3845620619917,209.6322233130004,0
3266.0,9.072948,203.0302307669675,45.76697499059625,39.6925187457229,-121.96044890533508,26.92212758440277,79.8639916111076,0
3271.0,9.086838,-51.25925228597379,28.859800818130083,180.07602224479342,-148.3699557567441,57.70820032855161,34.28852038821389,0
3276.0,9.100728,-8.50246843687195,80.72979645429822,41.15124458131527,-262.50877953569466,-42.33156058256799,143.78237814088664,0
3281.0,9.114618,26.273152039438056,152.88633220039137,100.07482367377266,-138.38123872709383,106.12149332352602,31.712323654592616,0
3286.0,9.128508,119.8033625977885,-11.571774632710028,131.04368584241976,-81.79046975579266,106.30776608823314,116.2849402359554,0
3291.0,9.142398,-17.20228790336897,209.9905465814124,17.886307021654247,-211.87151013086932,135.20561897155395,77.30824583400789,0
3296.0,9.156288,76.68866032449603,-44.0896601655368,172.72702339406783,-144.37318149260443,42.78275400750835,86.023682754528,0
3301.0,9.170178,-85.09250050404495,63.63371850801933,23.45557438785853,-176.78817532643924,94.68214581361484,43.04005689171346,0
3306.0,9.184068,8.439188247083052,15.846593765337747,116.0243405659394,39.243645251929735,78.73978490904281,160.14066787668094,0
3311.0,9.197958,-34.85907480389309,77.62774702774806,110.68551579666708,-282.4273543761975,195.3500411066593,42.41508399656123,0
3316.0,9.211848,-16.302368030736563,-8.3062053838824,85.87934209239101,-120.19838375172834,-24.633431655891883,40.41247656750313,0
3321.0,9.225738,-48.38075978447189,-81.49808191487486,116.17246674566805,-254.51663950848456,34.551227887019,47.66067989064273,0
3326.0,9.239628,-80.82191918192025,91.65182344875568,3.1940350759444525,208.5357327380228,245.44027057974088,30.402057199301247,0
3331.0,9.253518,5.09892171904032,-147.8183832260423,153.15352889003654,-159.30122072291726,-178.75875940595583,82.20462612786989,0
3336.0,9.267408,-57.9188634956172,-2.896691039344873,34.21337302428303,-429.4714591268848,0.1062961458176516,7.976771931080236,0
3341.0,9.281298,-17.41066200078275,-79.04745119568469,25.51764428164558,203.70978699526395,146.76796839565887,111.71204454504944,0
3346.0,9.295188,-81.63190809775963,-61.36690628874872,21.96993017421464,87.40468009215367,-167.3002640361425,108.85587915815384,0
3351.0,9.309078,-69.83845645083437,-27.04668791589316,39.98447402497904,-153.12209989134254,17.335664871577574,-54.38665975729566,0
3356.0,9.322968,24.16056417492061,-110.26474437535524,50.60033017785027,-0.540893382157448,-19.91192128628883,91.3283370632668,0
3361.0,9.336858,-49.01648123555634,-46.75125558549284,4.138673883449528,101.32876793814134,100.4371648455378,37.22899732490855,0
3366.0,9.350748,-23.63173181841143,-34.19083185130722,34.92530831743403,-5.927986090637525,-66.9665024555398,115.99096396198172,0
3371.0,9.364638,-80.85450141890715,31.83096024488376,136.93182462754686,34.47783838549401,47.30364547698571,17.882397775264106,0
3376.0,9.378528,-138.92171431737353,-59.079586767907685,-50.98283138190253,334.4635054256497,85.63329264621633,35.54870331142873,0
3381.0,9.392418,-8.283187527364632,-28.360963251157703,-30.79675653895349,-244.08108807658417,-196.0195939915508,-88.09230707682752,0
3386.0,9.406308,-1.3356514764382652,-73.75225097525015,45.7743879363199,413.85656478452535,87.85234944369415,32.64836493782998,0
3391.0,9.420198,13.498756870728252,16.126651974954825,46.60304997761361,-102.15089705162656,-140.19102997373773,-74.3891597798784,0
3396.0,9.434088,-3.223581207459156,-15.16001091755373,-6.187039200955027,275.6221351146929,246.9176864355302,68.59023060324772,0
3401.0,9.447978,-110.57402062172238,16.91103952942491,49.65422411223319,248.14617016294352,-246.5065989745041,-30.776452986771886,0
3406.0,9.461868,2.570668884950912,48.737780296040256,-26.234389100803035,83.58382247199765,91.0829817930933,-51.18550255071644,0
3411.0,9.475758,30.237612081370045,-4.200091992111929,26.179653754950174,489.7573047376469,28.65877865703804,-12.783298552539648,0
3416.0,9.489648,229.58530642796265,127.60686529453533,15.88216888867369,-366.84695598348907,97.36166317659286,-372.5480810791445,0
3421.0,9.503538,53.40222153334669,122.08014165688483,-64.15159620886803,678.5223239255079,-104.73667292117143,310.5393893688695,0
3426.0,9.517428,-36.85201032210216,81.46203027836464,65.7928390463332,-269.4573062970885,304.1755932973839,118.65233169797762,0
3431.0,9.531318,134.25110105331044,131.67146362295574,-40.40887482683189,262.20940517864483,-85.75120602415375,-285.4405078681259,0
3436.0,9.545208,-54.22974933530514,-149.46118299993557,29.057257085397044,476.4916858105568,-55.748672059953535,-122.15857773042454,0
3441.0,9.559098,201.8354705397563,100.01811170140758,-158.63956095728386,-31.744068123800417,19.590540511845525,-85.03942936200951,0
3446.0,9.572988,21.53438002218148,-70.00029322726934,-14.19316973303346,215.2873721158828,88.42925972870341,-14.81918886951938,0
3451.0,9.586878,145.87008884041214,-37.618945864193805,-39.920914222322416,220.25991650815848,-163.21983489774345,-248.041600995204,0
3456.0,9.600768,102.85369660258246,-25.70067100473369,-93.93358605713604,155.19782382031738,134.10134907188802,103.92464529300682,0
3461.0,9.614658,-0.4009202886915552,-18.468020452747545,-95.29191542630136,57.24464237770728,-174.88241421860948,-273.4480472465341,0
3466.0,9.628548,24.18231815938565,-66.30708390618062,-77.71294295322672,355.05419973811934,92.4133383907392,103.96378284719944,0
3471.0,9.642438,35.685403203860645,-54.66495712834175,-115.9222366482412,98.53640565119896,95.74978813573516,107.36005410525436,0
3476.0,9.656328,43.54481865096992,-147.28226318740403,-168.53730095168234,196.68301440460624,-223.17866147608203,-253.5612340953329,0
3481.0,9.670218,110.28739792262084,-103.31003224126697,-31.2066494199716,138.5024423682196,-37.75516647930785,-241.74240912372065,0
3486.0,9.684108,-15.99224977790385,-38.19735220342589,-185.4997685769892,205.9165085134584,-17.52047773988101,139.9085707774346,0
3491.0,9.697998,138.39324379961394,-139.40013779754528,-106.07707226951312,115.00413814210629,-121.68349991361843,-274.3363482824423,0
3496.0,9.711888,43.23864902418235,-93.05538058879014,-80.5549623433935,189.52447871303497,-94.38160288280449,-62.93736991124428,0
3501.0,9.725778,185.400158749901,-170.17470353438205,163.91348624837892,425.05764469957086,-92.23815862838568,15.368228302893073,0
3506.0,9.739668,40.26786004524419,-16.424077751951906,-153.55772941629965,-17.003451526829206,-109.4970248858342,-119.63294318231956,0
3511.0,9.753558,178.79131413587666,-109.50117207905716,-158.18744882419455,168.51541647350405,-94.15401475170596,-202.7829390885932,0
3516.0,9.767448,45.32546474225824,116.40161334921902,-47.49939082409578,402.9298997608471,103.6447368253716,46.12902462812404,0
3521.0,9.781338,114.688823517725,-162.90006618914387,-47.86839011495623,-55.62823972956502,-178.3093090260956,-212.9131088210565,0
3526.0,9.795228,52.74835371297929,-97.68853732178675,134.24161554922495,34.32560657332736,38.81274112703959,-49.46351005007018,0
3531.0,9.809118,190.8815858805952,32.437134554252864,-72.7993601750562,197.0498010132368,-110.09230504490932,58.14560110905332,0
3536.0,9.823008,64.33045441852127,-171.2146371260347,-100.3667497378882,544.5958225952611,150.47749509938666,-348.31766104417534,0
3541.0,9.836898,89.25117396713685,-148.94700827586965,-67.74276083875884,-253.7506549546208,-129.2525264877782,-37.86020650781063,0
3546.0,9.850788,80.38311864067576,-31.779532198071024,-193.4958275159518,520.5806404611892,-104.56512052789944,-121.28610546745938,0
3551.0,9.864678,-43.13544249271845,37.24812067685571,64.2755772145514,-262.93893864880545,193.9032660725348,-45.10167483372757,0
3556.0,9.878568,5.921890599123643,-103.75569218420438,-72.57257121778406,482.10788712579085,-42.11525268136977,-197.0511108867435,0
3561.0,9.892458,-80.9371501678652,137.49346429230894,-30.32021205097181,123.08573298771236,243.73503346429817,161.1642807067654,0
3566.0,9.906348,204.54390832735635,-70.61829755972757,-69.8218868492862,-172.8034673024085,-217.33518775257087,-250.1224576764317,0
3571.0,9.920238,-22.682250289773627,42.58018288324576,-208.17252485403867,178.4045650156774,171.26627747802172,8.197480217432982,0
3576.0,9.934128,-21.896355511399044,-88.92866334455505,170.17196302301096,251.18752682388663,-2.733703065415817,-42.51809840049725,0
3581.0,9.948018,-33.811690200740635,21.98245936517092,68.5109674809657,-97.79784206371664,30.93740273537716,65.2253155918965,0
3586.0,9.961908,-38.62316808412309,-54.55389253010771,-24.095366204228444,-275.93623750458465,-115.17092818883076,-169.41304135847895,0
3591.0,9.975798,-109.50484627035874,182.61769366888385,-121.34425573347406,220.66163841087788,162.20179620355867,-133.4523379988474,0
3596.0,9.989688,18.318967536263585,27.13910132121641,-28.645858172176588,-67.14903588787269,12.29267479983735,6.80046468104193,0
3601.0,10.003578,-76.69144473116238,-115.50692913144138,-9.988228989200351,-95.30719900692222,-16.900616883573,31.21780126825336,0
3606.0,10.017468,-114.68357630719306,119.13404266794647,-51.2660585511324,-109.53248688858928,-17.417895448742932,40.49058699333074,0
3611.0,10.031358,-43.97787181730693,86.240326989841,-33.19114476277245,222.63198902483992,43.50978417659383,-256.4621790716918,0
3616.0,10.045248,-72.06127936630627,-26.2993044308632,135.26407102075314,-311.7925057413975,98.83253090635264,40.34408595083657,0
3621.0,10.059138,-72.29069019898255,202.04661745052977,-298.74069889597763,-142.62995094005885,-5.291237153491629,127.66867015492252,0
3626.0,10.073028,-138.1098192395763,-33.58345231205841,129.06999071938367,-109.25367060346866,0.0202704278039416,-79.93870340527357,0
3631.0,10.086918,-63.95902228464007,12.259807901802638,-155.39860445877412,-160.63007335908222,44.87287924281453,-5.991390158761732,0
3636.0,10.100808,-189.148611853316,91.91933405903184,106.42674915323984,-175.3246455335842,19.81366480372043,-38.93895772832587,0
3641.0,10.114698,-139.48046056007084,57.40719616619692,-11.285242136011467,-154.92029199400048,192.48324726669992,205.14898229825823,0
3646.0,10.128588,-218.7048672291424,149.03652399300427,-68.70120028942472,-248.73884108025703,54.90919019603368,-108.4311913644543,0
3651.0,10.142478,-179.37544584960813,78.63405222300568,85.01763623678355,-208.3527443762329,44.57488052324669,-20.38679555555113,0
3656.0,10.156368,-144.440473647389,77.0964996658707,-27.37567006950268,-268.9024321404103,89.7525488062816,129.5324181527173,0
3661.0,10.170258,-72.49973859887449,38.84117202313698,26.17229578661358,-187.01521426752672,112.93406557347411,24.74127330983027,0
3666.0,10.184148,-337.89814521657127,95.41791628318204,49.31247114240304,-307.5302643530233,67.32107814335555,-1.7197788098952742,0
3671.0,10.198038,-89.20481069823481,-5.906702685838269,-29.975183032836654,-253.8060651650592,95.3847595091412,100.80045639502322,0
3676.0,10.211928,-128.16403380056843,-63.04918157322253,47.2448911070628,-336.8845622656321,-71.7948263603106,-38.18604339060952,0
3681.0,10.225818,-240.9859408442047,-0.142938813701555,4.2645073302786045,-314.7214301431837,239.5875269667727,258.0959048955197,0
3686.0,10.239708,-152.8992068756772,98.81380233829958,99.0887823907232,-325.95706699153465,94.2233708233546,-23.23881088585388,0
3691.0,10.253598,-214.9870233325844,-39.72371185241019,58.69851636778456,-321.87345564375033,-2.6328358106928533,-30.647766662052145,0
3696.0,10.267488,-130.93675285030332,6.68151648701302,-6.431786397212939,-105.73756214349932,125.47917195662752,307.9185651266098,0
3701.0,10.281378,-159.39717243753924,65.54485727465496,48.78465356412472,-419.2695997609448,-74.96334589807105,-47.95440198697509,0
3706.0,10.295268,-21.21244230098028,53.994470118398496,107.22674587166568,-285.049219922607,158.45133698634567,342.13988855933513,0
3711.0,10.309158,-244.3613576579193,8.993289648717493,20.100543639120257,-322.6239645885455,-8.938639052441175,47.60277311417239,0
3716.0,10.323048,-89.31784891463937,90.59384396573864,50.34312825961679,-206.69782466488363,-69.60473218299225,214.77036094214944,0
3721.0,10.336938,-86.31324447744817,-11.852432788087626,117.47600735010002,-226.53801732280573,36.52840073032654,231.01556065686964,0
3726.0,10.350828,-44.83473418220434,34.388892346016824,143.39680884582413,-246.82153645756603,-81.47489967899428,196.3942789340916,0
3731.0,10.364718,-171.12082737793668,181.4942605034737,48.0835461738112,-170.11622843284113,0.1486336726120924,36.03989971163976,0
3736.0,10.378608,-37.06622004892135,79.67390300330051,115.538917748939,-254.5049490431336,87.79133424186406,352.2031782239965,0
3741.0,10.392498,9.383908651313924,-33.333819565639004,58.1753250489488,-118.09532278862808,-104.75995221694528,56.44702479555972,0
3746.0,10.406388,5.691107580790728,204.88868599352432,127.2161868809794,-325.25344093282416,8.541014986128324,173.16344376863856,0
3751.0,10.420278,-55.19198487073746,41.47702115513144,47.20773920371764,-89.68537815804854,-82.57297718046203,214.0332399824881,0
3756.0,10.434168,2.559045458337863,-131.68210037326386,132.46848143393805,-104.0547853979233,-51.81233111535333,17.077193506569486,0
3761.0,10.448058,93.93808571402698,221.590641925029,11.918612397483557,-130.31876590663805,106.24846112949083,53.14595776825931,0
3766.0,10.461948,-37.04131532613159,-20.71652191692534,82.05638360273524,-142.83426294492403,-89.56987345662014,241.2231904490065,0
3771.0,10.475838,159.383642852581,11.5998526808871,-110.53983085010157,-1.6091991036957651,177.18549737922154,113.04182458076042,0
3776.0,10.489728,149.14908037160328,-146.0763071699252,-112.34658731506052,-90.95938842965649,-125.69078232516912,-105.4328828602161,0
3781.0,10.503618,-153.98997751345755,338.80768025168265,125.93387747692584,-183.4250095270212,-77.51020867433597,98.84697158530064,0
3786.0,10.517508,237.17377527904216,-120.21351161078027,-32.6537912118499,-36.87466516769476,201.90478668146253,104.19770248834864,0
3791.0,10.531398,67.59004756865998,-19.905064517033672,17.111722086325386,3.7888973227963305,153.435736948454,56.70925496821182,0
3796.0,10.545288,159.42516119320413,62.02176558167395,-31.85278070725192,24.33276671653213,4.000942236924935,54.34105854158794,0
3801.0,10.559178,111.96044787874364,-100.0769186007297,-93.84936957825208,98.8957420959115,65.81042286486792,126.00312418114288,0
3806.0,10.573068,185.2312508181433,-49.268968784809175,-129.21286868018382,127.60559572881009,41.29811327398775,-171.37305764045092,0
3811.0,10.586958,141.52612719330068,75.04001999876493,29.56538266218238,-47.69410839973328,129.25690770914127,179.51094230151656,0
3816.0,10.600848,237.95666738293465,-196.786648177523,-73.25502731115583,211.1988513132792,5.693950624401358,-119.6982105267456,0
3821.0,10.614738,185.73442563783087,-17.584313754528903,-54.26150952868586,135.6236572010984,29.020071072863413,57.1683670414039,0
3826.0,10.628628,62.178020995627904,33.25740485397215,-90.8207225684326,151.39495038717325,104.9323733334832,66.57393121070174,0
3831.0,10.642518,328.37825571121346,-179.335395548819,138.1759768120216,136.85713064677785,-182.26532642247813,-177.2231194932721,0
3836.0,10.656408,302.69156965136654,-73.48157391886487,-222.311715766239,260.61485467248576,252.7264486661768,119.3436369409383,0
3841.0,10.670298,148.68112252604266,-118.0185448916172,-162.39504315716536,243.82273208884072,83.7113608386822,-43.952861706144425,0
3846.0,10.684188,256.61644535926223,-116.38840985435787,123.52027031872412,289.81330061167193,-107.71003921328806,16.30161479421428,0
3851.0,10.698078,169.9298879165773,25.13206777093952,-192.28801934415657,232.2586261724987,28.597365066700227,-167.28465248195738,0
3856.0,10.711968,293.0985632487501,-90.40280535063592,69.80558340573972,357.4663451510846,-22.854583446344627,17.001353020568104,0
3861.0,10.725858,278.6745025241372,-81.1618512612729,-373.4423123059046,189.84077979485744,-65.7503418495352,-151.07750783196784,0
3866.0,10.739748,263.4077820510772,-67.50021409195777,-158.39808086988683,435.0718465722797,12.997568096573758,-135.64473012371838,0
3871.0,10.753638,239.74481990276752,-104.0840018659302,2.352075209583335,323.1887629112987,-104.29617490316384,-107.351680389964,0
3876.0,10.767528,100.56924153510045,63.62683202419715,-210.1446656694176,283.05550626853704,-6.226828714033282,-250.2921762440674,0
3881.0,10.781418,293.651969504599,78.75860020139878,-47.75349766828428,201.62969298247864,-96.13114049149102,17.92713579259359,0
3886.0,10.795308,395.5367421601388,-349.0169388540718,-193.4731001644856,350.94229820216,-44.36590258236452,-62.50561595725829,0
3891.0,10.809198,4.5117688824244055,173.72114370084358,-28.89700849325557,322.95057950053416,-167.1445241157615,-107.09658602894814,0
3896.0,10.823088,368.7668139885829,-281.2946397324597,-202.26164944667823,257.2098248411216,-191.7796344258328,-99.65212611061726,0
3901.0,10.836978,139.93589147187987,149.21155589056303,39.38359356704758,317.7457845978205,-173.73144325179908,-78.18426631016999,0
3906.0,10.850868,-276.36809348090526,116.74034674072404,71.10207908260197,166.09097875658756,-136.72155639131324,6.582213898857358,0
3911.0,10.864758,576.6972799949303,-205.94423220186096,-264.6308714897297,254.0441126785473,-53.33381689921812,-134.01316010883366,0
3916.0,10.878648,185.98146002708984,-239.43361068569124,-42.63104823640548,281.9764627426246,-418.1943688660806,-167.05751119679343,0
3921.0,10.892538,130.58880009430834,17.216404693604247,-61.27357264712485,328.6384206961053,-77.11124512345162,-61.47722929941182,0
3926.0,10.906428,40.75045914530372,-111.88076446149316,-27.64651511685632,208.6250526583199,-258.13319805187314,-48.16085940138521,0
3931.0,10.920318,4.294937403331627,8.70314439084332,-85.90785324341964,117.49215061776994,-151.07720321841492,-268.63032056258066,0
3936.0,10.934208,241.5090078607847,-191.2381179260632,-80.55944613810851,257.0650280652936,-135.28165115925384,-52.23807093949004,0
3941.0,10.948098,23.26135939252425,-2.62848463116117,8.801012174110149,202.59704334821964,-223.95409846150784,-168.52886271100408,0
3946.0,10.961988,137.26389878281316,-107.35067824477646,-86.01891488383279,173.26271830755292,-115.4514119370252,-182.16190786693835,0
3951.0,10.975878,-98.9229120337456,82.15747661120814,72.18009858236448,254.6733547377799,-153.35784957775795,-183.49262435495368,0
3956.0,10.989768,74.71763039004394,-9.847780808906116,29.3134314732442,161.20491128800688,5.784933237099878,-167.32416560312868,0
3961.0,11.003658,92.77178582565284,-27.53217260765549,-231.8435744802618,107.44550123396468,-93.67541127244054,-184.26508423681685,0
3966.0,11.017548,-43.9459034369485,-55.60735976795118,147.99015384192842,29.76182734379511,-220.7717356288884,-76.70689286318114,0
3971.0,11.031438,28.952288005348976,146.34954851230324,40.54891684326555,195.58869283899844,81.90496465142328,-106.26359647385594,0
3976.0,11.045328,-159.63345764375765,88.45441277229395,88.89508289592978,76.89343272162768,96.08066916155848,-215.72268320036017,0
3981.0,11.059218,1.2765563285505586,-10.792833175839082,-82.83224707204502,-117.29015890967511,-288.4093957934264,-189.520637191368,0
3986.0,11.073108,32.20332092527061,129.77616523054033,52.42016075088677,20.3233622917123,51.727172657007,-183.19058791770408,0
3991.0,11.086998,-115.754367915048,35.47147047140688,110.71465802350252,-20.653728839343405,8.262800002088106,-87.89196045366117,0
3996.0,11.100888,-90.57542488887644,205.9871884026268,126.65047718536329,5.396933647809444,20.91095834757793,-211.73155417756016,0
4001.0,11.114778,91.52198698354826,-60.301745928764326,155.14216083435403,-231.88784128208724,51.34752874931322,8.745104157742333,0
4006.0,11.128668,-339.9480752683605,287.72173809949163,216.6030768303027,-84.84825473452074,-77.11191182779265,-292.10435782738523,0
4011.0,11.142558,59.34636107358841,-10.472085016334894,-60.829561360116585,-187.824967415321,174.17416941623202,-139.90143800110314,0
4016.0,11.156448,-217.0954283995281,189.62424176551832,150.85407856925298,-174.86082843709318,-50.98251019010748,-213.983668720706,0
4021.0,11.170338,-122.20663211869392,34.05064907179396,88.8838239005369,-168.19802928921428,83.1778872517781,-87.05883784546012,0
4026.0,11.184228,-118.9613261316329,115.66874045031663,347.1455451861783,-189.5949078813321,15.090568662916793,58.21490529146536,0
4031.0,11.198118,-105.53572452855792,55.77163619538378,72.05394905896394,-191.57268618297965,-57.18518268500935,-155.8521590074326,0
4036.0,11.212008,-215.81771847952967,-4.8537245838053735,264.79186851866655,-34.38601456939159,-22.230856455655783,-149.3482859486308,0
4041.0,11.225898,-195.4954422988816,96.8639814721347,141.72374655909465,-189.9993432694561,61.25441493541254,79.83471103937157,0
4046.0,11.239788,-56.26144269228142,20.94146693205485,39.19013904264044,-163.71600255248302,19.608435508615308,38.20212326201155,0
4051.0,11.253678,-105.36194137676542,31.923164921060938,210.28548513180783,-151.62312625599745,49.06090653944207,22.53820243609592,0
4056.0,11.267568,-383.731890650565,-25.661063752022685,293.1144086742399,-169.6090050192457,-113.70721496334278,78.52729789847314,0
4061.0,11.281458,-72.66332055931585,-148.72681739197418,264.70154575477545,12.662364961013507,21.51966090140148,-97.44355223995991,0
4066.0,11.295348,-112.87569327377776,-8.14761422343392,42.68594404942883,-309.6471789157635,-142.00931369685335,366.7856424497935,0
4071.0,11.309238,-350.0009120848574,-12.07501127037192,245.5448683610425,-127.53377279688767,-5.504737574937487,223.7323651780655,0
4076.0,11.323128,-91.90868881981064,-11.667161224992572,155.57495887745358,-281.65745490139386,-56.01021996236386,286.9755272672319,0
4081.0,11.337018,-156.59747395543377,-119.92640041621615,170.6072446155631,-181.3324283851443,-12.162527199709809,234.58083265141283,0
4086.0,11.350908,-86.61367564833262,-37.746065758172456,123.06236875613652,-166.43544318955077,-88.80734765785353,147.73469283758826,0
4091.0,11.364798,-133.03224121035183,93.53929722356176,239.22823494778183,-145.8499155174606,-6.341276636420909,437.6473750687418,0
4096.0,11.378688,-57.97327692305777,-164.04462784714516,77.28344046940731,-118.80885743596386,-5.406111677408269,418.3572114267055,0
4101.0,11.392578,-316.7545252018941,66.51029289642736,103.65120426762336,-292.5639661636078,-68.31854357121418,362.7664279334866,0
4106.0,11.406468,-109.24985930613396,18.567828276219505,250.45593469404687,-229.2755735226356,-2.7696922989539843,600.785885181274,0
4111.0,11.420358,-69.21790378168657,179.1454473784527,204.70497057540192,-121.57836990680612,232.5629299485356,351.96469449607173,0
4116.0,11.434248,-155.1149533655126,242.2038744878452,163.28031632691895,-194.06420013392423,183.4723040941306,358.8995971793265,0
4121.0,11.448138,-174.40578199576942,195.3859874991608,292.61679242219816,-172.79193495293976,85.36256221426584,572.7471852240182,0
4126.0,11.462028,16.985885293332956,38.11636933275672,226.45450313246533,-107.26206056844114,-93.66702860389312,249.87857720969689,0
4131.0,11.475918,8.448082403704603,68.67612188672555,254.6741481117428,-147.07665457837206,-32.809714953115346,436.6493886440941,0
4136.0,11.489808,-142.24834214823372,204.3294926312368,153.87619318223938,-285.73042552668835,185.3105912980585,397.2423177483672,0
4141.0,11.503698,45.098899526664624,77.94770565798638,280.0958660674869,-156.0370788278493,246.3775499713788,563.7045637518661,0
4146.0,11.517588,-136.74368658859055,349.1478434234789,181.51776629165923,-173.83386885800593,94.87615871067835,287.0152336217573,0
4151.0,11.531478,-49.25918826458515,-29.48348797708411,189.4369894370536,-206.5675167795237,192.7139756731488,363.2975449606012,0
4156.0,11.545368,-60.2527971877081,91.26139825988518,278.8457083095996,-35.05606075040955,46.08925051471997,391.9396825451912,0
4161.0,11.559258,8.70937217312418,117.40154906823084,-5.816688183270472,-298.06661270058004,157.49430796060375,373.50292162502944,0
4166.0,11.573148,-120.35829264527216,161.80444576376294,240.10431558937287,-31.560823995310937,286.6117211255905,323.29128218289634,0
4171.0,11.587038,83.44825550377824,407.0544246217755,-37.46339751247861,-150.30989770411057,216.68674049525865,300.55197404084106,0
4176.0,11.600928,-219.41183442906487,-303.9063945111676,272.46558435348066,-86.0289879595634,46.56853115716527,267.4096568295601,0
4181.0,11.614818,67.97624132694054,-23.158939834427866,6.538691303777719,95.51403861319918,211.11955149474232,165.20094700286475,0
4186.0,11.628708,-93.5814315596444,96.58022615067698,57.88146431474741,-154.5565398776194,190.42143583005264,351.9478779776116,0
4191.0,11.642598,-45.65312350664918,-57.39160494145503,168.52832623401702,-59.80564937636834,88.00405925995983,250.030724377076,0
4196.0,11.656488,-182.187067906593,88.5947903538825,288.70827600422353,120.94384319720976,97.75634119392296,-19.880718644347816,0
4201.0,11.670378,102.66690366233271,-120.79463916956747,-52.29118489520994,177.35314330938746,76.8736137052384,-116.62314999182188,0
4206.0,11.684268,147.6824339727426,91.22983674391132,139.00469450871373,-314.64619511886656,157.88394571070015,786.2829332921365,0
4211.0,11.698158,66.52051102124135,-152.19280507147465,-11.283853574766468,277.23088475728395,123.18612015031484,-251.73081430146527,0
4216.0,11.712048,35.99725938069966,48.22254859152341,70.7099610321675,48.03543349958965,19.930185444833484,37.75285223748215,0
4221.0,11.725938,126.8779785148462,64.7694141156348,7.7788392464425264,151.5075654749672,112.99336879651526,-9.535224058559448,0
4226.0,11.739828,223.7047029104981,-136.17305387661537,28.766078781693032,94.51679248414143,50.33501330719335,14.82455816811526,0
4231.0,11.753718,86.27414408984441,-71.76918366149066,-56.30983768131165,262.7615447339651,30.78857737582992,-169.53151322146567,0
4236.0,11.767608,73.41190383300201,33.69459302014214,78.79953641038713,105.4576042514735,1.6257940948004208,-62.3982508172605,0
4241.0,11.781498,121.90237978356664,126.5597148935507,-80.05781707948876,73.95085182330804,177.97827535917423,-127.10938994955058,0
4246.0,11.795388,171.17055472949647,-85.59255873926013,-115.89310085737657,200.13970095060367,-166.98199679025709,-63.90956583435759,0
4251.0,11.809278,148.92792408734604,-32.66026434437079,73.47070262408249,309.0813499764078,27.87968040059567,-482.9530359678346,0
4256.0,11.823168,208.48148750257823,-127.30626849014008,-194.84116008697168,114.5977506507803,-49.248991675872496,-24.69008042860176,0
4261.0,11.837058,182.56545105145565,53.32582828280466,-99.23104479768853,184.420725492274,81.02820840242427,-250.98888577168168,0
4266.0,11.850948,150.01053438407507,51.64265227829716,84.27107549312234,130.85065940816295,-84.78250388558365,-152.7092426939831,0
4271.0,11.864838,284.7520318796608,-152.65328510899565,-105.36916193663788,330.0953710082425,-142.433676983392,-496.4106346651921,0
4276.0,11.878728,311.376751397047,-1.7172715109023358,-852.0338848147204,223.5585949772484,-42.29055878116898,-92.36040803216272,0
4281.0,11.892618,150.19078143349702,-40.60394329865077,213.5802546274025,168.1739108436062,-39.82885838022896,-429.9672882955988,0
4286.0,11.906508,262.40658018774343,-79.452361161694,-272.7871519465597,133.9489417659462,6.374361645516871,-176.0591607561821,0
4291.0,11.920398,202.36343786582844,-80.9611581506878,-328.24888003859104,249.91426446812432,-41.92977955532116,-372.6542545793613,0
4296.0,11.934288,142.15768610231115,-127.4387680248256,-224.50135315247013,174.2608568454607,-27.84656010902086,-213.8874149859917,0
4301.0,11.948178,134.4831166107493,-92.21254359789162,-307.0777179010896,252.75945829630376,-143.27956903580758,-372.3629328403463,0
4306.0,11.962068,170.88365981374383,-236.51993089156537,-254.47284470557227,101.49239440050349,-161.9837076173574,-394.87562485785566,0
4311.0,11.975958,143.37299656437258,-235.67829776517613,-172.20780846368908,214.5757343868217,-4.065927330647398,-158.3516804042859,0
4316.0,11.989848,-11.742768543837771,-207.6728484352251,-421.6478374434549,261.42192211541493,-46.57183199436454,-330.13135691258924,0
4321.0,12.003738,178.16517505711806,-293.9244009074723,-100.69539963571134,80.70983313748079,-180.9650258579373,-239.70529930585087,0
4326.0,12.017628,-44.95705147136526,-379.8945558464759,-377.9572607536841,283.8679080484083,-122.2659977685292,-496.3850301232467,0
4331.0,12.031518,24.617361144264635,-167.21732732044683,-343.8155438663422,52.29266485334392,-75.44429316489492,-170.66556088343825,0
4336.0,12.045408,60.87217114367677,-301.4523542966237,-228.0074701396014,160.61008738787746,-240.3264915708208,-427.0935633773328,0
4341.0,12.059298,121.68322737380576,-284.7855647341425,-229.1938561655488,87.66104442410366,-202.1100284705664,-366.1519828906239,0
4346.0,12.073188,44.54633929132616,-263.39768770693684,-253.6559319921247,265.21281225190046,-91.13404314889978,-166.5384501817158,0
4351.0,12.087078,-76.19872874221983,-184.37625942220123,-217.98241462517507,34.45290568891444,-168.81255428913911,-421.2305882566624,0
4356.0,12.100968,71.6834717708357,-143.580307344554,-346.4193553544852,195.319517302745,-120.676368365517,-376.1229710618011,0
4361.0,12.114858,86.43830690805453,-286.9980798012341,-325.302320642396,-3.861052312212035,-83.78802091736075,-210.93754777183847,0
4366.0,12.128748,-39.065499140069136,-255.83524934288525,-122.8757231250932,189.1526664527266,-270.966562475329,-436.5712538447005,0
4371.0,12.142638,68.798491397014,-47.69845770635442,-305.6271358524484,35.86980235658049,-50.71080027548085,-181.68572606103425,0
4376.0,12.156528,107.5035967295548,-124.71033967353918,-58.81011874567841,89.55860170390721,-103.96094855912176,-429.9857503997289,0
4381.0,12.170418,14.398792063972152,-208.8917925301192,-392.9222621568933,149.32195909256455,-158.7204530554518,-285.8428648695125,0
4386.0,12.184308,3.7082354638879593,57.16596526285628,-27.168851324388505,-266.45293138316424,-138.0351872709441,-84.25479742093914,0
4391.0,12.198198,194.1436294707505,-187.41715016731365,-145.99702921941252,529.633971425755,33.79864211939528,-762.2786014871803,0
4396.0,12.212088,-136.2752949822264,49.127679199860935,-315.1525273056367,-167.4831752583559,-55.90956117358199,-134.65964490590605,0
4401.0,12.225978,47.78189614883298,-79.84234559522517,179.80538123498417,37.04147694249005,-207.72394004450504,-276.1143570600207,0
4406.0,12.239868,17.079827365961002,-2.40406656040391,-362.0530325299314,4.418391272507947,24.86238619479209,-231.11044892282067,0
4411.0,12.253758,-13.76291354704808,169.49862344942653,-44.98100123387652,-92.70012023910913,72.33353450548566,-184.3075517298633,0
4416.0,12.267648,-67.85706025227648,127.43216314883524,-143.5788772348724,38.32878535708817,0.8758253823686459,-219.745556858898,0
4421.0,12.281538,145.20794457065506,-68.14382308556203,18.42850454897372,-0.5089722713830263,-66.60157508940411,-287.17300876675176,0
4426.0,12.295428,-102.9409850829749,331.21867808669833,180.0982160406652,-256.73945677718166,39.98253105599749,111.86249028020588,0
4431.0,12.309318,-51.65591777213807,100.48282972272746,-125.08145732590216,44.50334820707693,139.9367110054804,-411.0688738147967,0
4436.0,12.323208,62.82645941844093,99.64553508016488,35.86274586374844,-59.56622058033095,56.11990761079207,-77.2037736188239,0
4441.0,12.337098,-209.1189434618306,284.7051093412548,210.09366364846025,-187.74444100615625,171.2151895109252,20.36156479620567,0
4446.0,12.350988,151.08646281070585,49.19572912395397,51.897085700439504,78.65041156500831,167.1989243358692,-99.82142905242353,0
4451.0,12.364878,-163.14879942427024,85.11429962615537,78.46201940793343,-192.37376638653984,57.40788044321843,-39.76336636866048,0
4456.0,12.378768,-85.84975819318791,222.5592100630484,216.43095093061,-153.32353379020364,169.0528752743134,-100.92012371365747,0
4461.0,12.392658,-6.59688066848328,176.22108832711723,122.7492615707316,-122.71821966359012,331.5801348335625,166.45536020255787,0
4466.0,12.406548,-146.47267567805596,124.06260354763812,209.6307775016279,-207.41784868014508,115.36406324050712,36.83727062114282,0
4471.0,12.420438,-137.03089585305332,116.347165958243,177.2740671828731,-239.9999354546333,151.23215341951857,155.8078946406925,0
4476.0,12.434328,-26.619111824672736,16.699792576542563,352.5604964938465,-110.99686748495358,96.37863351282012,145.45397373977474,0
4481.0,12.448218,-124.36858755428564,85.39662745808482,81.18416013747138,-236.6364532204257,198.55523574629223,210.45206703890392,0
4486.0,12.462108,-184.7344932488525,115.9404803305326,348.13977922582785,-147.60143212453065,198.67985214381207,239.8656976652221,0
4491.0,12.475998,-60.88521002945363,-58.50794987751708,188.09980119737867,-286.88607332592034,51.08351619514876,70.60848506623546,0
4496.0,12.489888,-187.7449720997916,9.1903547060336,209.7893450716908,-183.0836870274425,138.4224012332661,286.37890644811966,0
4501.0,12.503778,-47.48017064040913,-81.8173701234627,276.6287806986286,-287.028677791324,57.18807731221358,406.0630075550384,0
4506.0,12.517668,-158.46506570332895,132.7489886194516,202.4215973310864,-214.19653786192043,48.1633470919224,293.9914374032031,0
4511.0,12.531558,-177.86716876834592,-169.41464159216463,159.1546512943195,-302.27459248426885,40.288588090921415,184.4665514121204,0
4516.0,12.545448,-115.79611871570604,82.39139685566425,380.0631654429299,-240.8971512089188,49.44615139728612,396.1731438778317,0
4521.0,12.559338,-250.3106858505212,-112.37502765853256,171.57825429610392,-343.4034616579684,-112.81759143960356,382.32959018228166,0
4526.0,12.573228,10.423088524605348,-39.56226505756142,301.3526181735584,-40.37838331215124,39.15971318555679,372.68854450372953,0
4531.0,12.587118,-316.8278277545827,-97.56363653086926,254.1757910231653,-99.67304283526023,-192.9962033534241,486.6702061579791,0
4536.0,12.601008,-164.1957673372241,-78.09030363511303,237.95557458805496,-277.0963423069258,-61.20371866937012,489.0556538850424,0
4541.0,12.614898,-60.34031638841599,69.61406403156786,307.6405534886223,-192.7681008216005,-89.53311719859654,401.2504661199134,0
4546.0,12.628788,-254.42355802236017,-91.91299371311857,382.5474839605892,-94.3900008639278,-20.600551560119268,514.2170724558395,0
4551.0,12.642678,-150.30959631574507,39.92216693588168,215.93719989193048,-96.06096114703897,-10.475729100685934,473.5625548971177,0
