gyrx(deg/s),gyry(deg/s),gyrz(deg/s),accx(g),accy(g),accz(g)
18.902,1.646,-59.329,0.417,-0.21,0.0
22.012,4.146,-56.28,0.385,-0.215,0.0
24.939,7.012,-53.171,0.353,-0.227,0.0
27.866,10.122,-49.695,0.319,-0.245,0.0
30.732,13.659,-46.037,0.289,-0.271,0.0
33.354,16.341,-42.195,0.26,-0.304,0.0
36.28,18.354,-38.232,0.232,-0.337,0.0
38.537,19.817,-34.512,0.207,-0.375,0.0
40.366,20.732,-30.671,0.177,-0.413,0.0
41.402,21.28,-27.134,0.148,-0.445,0.0
41.707,21.585,-23.537,0.12,-0.481,0.0
41.402,21.768,-20.122,0.088,-0.512,0.0
40.305,22.256,-16.524,0.065,-0.542,0.0
38.171,22.866,-12.988,0.037,-0.572,0.0
35.61,23.476,-9.756,0.022,-0.586,0.0
32.561,24.024,-6.707,0.02,-0.591,0.0
28.902,24.085,-3.841,0.025,-0.58,0.0
24.878,23.72,-1.098,0.047,-0.566,0.0
20.915,23.232,1.585,0.087,-0.544,0.0
16.463,22.5,4.451,0.13,-0.514,0.0
12.073,21.707,7.439,0.176,-0.49,0.0
7.927,20.732,10.366,0.23,-0.456,0.0
3.841,19.695,13.049,0.291,-0.414,0.0
0.427,18.415,15.183,0.353,-0.377,0.0
-1.524,16.89,16.768,0.421,-0.356,0.0
-3.171,14.756,17.683,0.494,-0.334,0.0
-4.512,12.317,18.598,0.566,-0.316,0.0
-5.305,9.024,19.085,0.63,-0.312,0.0
-6.098,4.939,19.39,0.694,-0.304,0.0
-6.402,0.732,19.512,0.764,-0.301,0.0
-6.768,-4.085,19.512,0.833,-0.297,0.0
-7.256,-8.963,19.451,0.888,-0.289,0.0
-8.78,-13.537,19.817,0.941,-0.288,0.0
-10.976,-17.378,20.61,0.992,-0.278,0.0
-13.841,-20.122,21.951,1.039,-0.26,0.0
-17.317,-22.378,23.963,1.081,-0.24,0.0
-21.829,-24.39,26.524,1.122,-0.214,0.0
-27.439,-25.854,29.39,1.167,-0.181,0.0
-33.232,-26.829,32.134,1.203,-0.152,0.0
-38.902,-27.378,34.878,1.24,-0.118,0.0
-44.268,-27.744,37.317,1.276,-0.091,0.0
-48.72,-27.622,39.085,1.302,-0.071,0.0
-52.439,-27.195,40.732,1.32,-0.048,0.0
-54.39,-26.646,41.89,1.333,-0.037,0.0
-54.451,-25.976,42.5,1.332,-0.027,0.0
-53.537,-24.634,42.378,1.331,-0.018,0.0
-51.402,-23.171,41.829,1.328,-0.025,0.0
-47.866,-21.646,40.854,1.317,-0.035,0.0
-43.11,-20.366,39.573,1.302,-0.046,0.0
-37.927,-19.146,38.171,1.281,-0.054,0.0
-32.317,-17.561,36.341,1.254,-0.056,0.0
-26.585,-16.098,34.512,1.227,-0.065,0.0
-21.28,-14.573,32.561,1.193,-0.078,0.0
-17.073,-12.683,30.732,1.157,-0.082,0.0
-13.841,-10.305,28.841,1.116,-0.093,0.0
-11.707,-7.378,26.89,1.075,-0.104,0.0
-10.366,-4.512,24.939,1.033,-0.111,0.0
-9.756,-1.463,22.988,0.988,-0.11,0.0
-9.756,1.402,20.976,0.94,-0.112,0.0
-10.122,4.207,18.841,0.899,-0.112,0.0
-10.488,6.768,16.646,0.862,-0.106,0.0
-10.549,9.146,14.512,0.818,-0.104,0.0
-10.427,10.793,12.378,0.782,-0.101,0.0
-9.939,11.89,10.549,0.746,-0.1,0.0
-8.537,12.805,8.415,0.708,-0.103,0.0
-6.22,12.927,6.22,0.677,-0.115,0.0
-2.988,12.622,4.207,0.645,-0.126,0.0
0.488,11.707,2.378,0.614,-0.138,0.0
4.207,10.427,0.671,0.589,-0.155,0.0
8.171,8.72,-0.915,0.571,-0.167,0.0
12.561,6.768,-2.134,0.555,-0.179,0.0
16.89,4.39,-3.232,0.54,-0.186,0.0
20.793,1.707,-4.085,0.526,-0.196,0.0
24.573,-0.976,-5.0,0.52,-0.206,0.0
27.988,-3.659,-5.61,0.521,-0.208,0.0
30.305,-6.22,-6.28,0.517,-0.212,0.0
31.524,-8.72,-6.768,0.517,-0.213,0.0
32.012,-10.976,-6.951,0.518,-0.213,0.0
31.585,-12.805,-7.012,0.525,-0.205,0.0
30.244,-14.146,-6.829,0.534,-0.195,0.0
28.415,-14.817,-6.585,0.545,-0.188,0.0
26.159,-15.488,-6.037,0.559,-0.176,0.0
24.268,-16.098,-5.793,0.574,-0.166,0.0
22.073,-16.646,-5.488,0.587,-0.163,0.0
20.183,-17.195,-5.183,0.599,-0.159,0.0
18.841,-17.378,-4.939,0.612,-0.16,0.0
17.5,-17.378,-4.573,0.621,-0.162,0.0
15.976,-17.195,-4.085,0.632,-0.164,0.0
14.634,-16.707,-3.232,0.641,-0.165,0.0
13.78,-16.22,-2.134,0.652,-0.158,0.0
12.866,-15.732,-0.732,0.662,-0.158,0.0
11.951,-15.122,0.915,0.672,-0.152,0.0
11.037,-14.695,2.744,0.681,-0.153,0.0
9.817,-14.39,4.451,0.695,-0.146,0.0
8.171,-14.207,6.159,0.714,-0.135,0.0
6.463,-13.659,7.927,0.731,-0.124,0.0
4.329,-12.927,9.695,0.745,-0.111,0.0
1.829,-11.951,11.402,0.765,-0.099,0.0
-0.549,-11.037,12.805,0.785,-0.094,0.0
-2.5,-9.939,13.902,0.806,-0.093,0.0
-4.146,-8.72,15.0,0.825,-0.09,0.0
-5.671,-7.744,15.854,0.841,-0.097,0.0
-6.341,-6.768,16.341,0.851,-0.108,0.0
-6.524,-5.549,16.463,0.861,-0.123,0.0
-6.22,-4.39,16.22,0.863,-0.134,0.0
-5.366,-3.415,15.854,0.865,-0.15,0.0
-4.878,-2.622,15.427,0.861,-0.17,0.0
-4.39,-2.195,15.305,0.854,-0.189,0.0
-4.207,-2.012,15.305,0.847,-0.198,0.0
-4.39,-1.829,15.244,0.837,-0.208,0.0
-4.939,-1.829,15.305,0.83,-0.215,0.0
-5.793,-1.89,15.122,0.83,-0.216,0.0
-7.195,-1.707,14.817,0.834,-0.211,0.0
-8.78,-1.402,14.695,0.838,-0.206,0.0
-10.732,-1.098,14.817,0.85,-0.198,0.0
-12.805,-0.671,14.695,0.858,-0.19,0.0
-14.268,-0.427,14.573,0.86,-0.174,0.0
-15.122,0.061,14.573,0.87,-0.164,0.0
-15.427,0.549,14.573,0.866,-0.152,0.0
-15.061,1.098,14.207,0.868,-0.144,0.0
-13.902,1.768,13.537,0.868,-0.143,0.0
-12.012,2.134,12.744,0.864,-0.146,0.0
-9.573,2.256,12.012,0.852,-0.152,0.0
-5.976,2.134,11.159,0.843,-0.164,0.0
-1.646,1.585,10.244,0.835,-0.174,0.0
2.5,0.671,9.268,0.818,-0.189,0.0
6.159,-0.549,8.415,0.8,-0.201,0.0
9.146,-1.707,7.866,0.787,-0.207,0.0
11.402,-2.805,7.5,0.767,-0.206,0.0
12.866,-3.78,7.317,0.747,-0.203,0.0
13.72,-4.634,7.195,0.736,-0.196,0.0
13.72,-5.305,7.073,0.729,-0.191,0.0
13.171,-5.854,7.012,0.726,-0.186,0.0
12.256,-6.28,6.829,0.728,-0.176,0.0
11.037,-6.707,6.463,0.726,-0.171,0.0
9.817,-6.951,6.159,0.728,-0.163,0.0
8.598,-6.951,5.732,0.729,-0.152,0.0
7.866,-6.707,5.488,0.725,-0.149,0.0
7.683,-6.463,5.061,0.721,-0.148,0.0
7.988,-5.976,4.756,0.718,-0.146,0.0
8.659,-5.366,4.573,0.717,-0.145,0.0
9.451,-4.817,4.268,0.717,-0.15,0.0
10.732,-4.695,3.78,0.715,-0.157,0.0
12.622,-5.061,3.354,0.708,-0.164,0.0
14.573,-5.671,2.622,0.699,-0.171,0.0
15.976,-6.463,1.829,0.694,-0.176,0.0
16.829,-6.89,1.341,0.694,-0.182,0.0
17.134,-7.195,1.098,0.689,-0.184,0.0
16.768,-7.317,1.037,0.688,-0.177,0.0
16.159,-7.378,1.28,0.693,-0.173,0.0
15.183,-6.89,1.768,0.697,-0.171,0.0
13.841,-6.28,2.073,0.701,-0.165,0.0
12.256,-5.732,2.561,0.71,-0.156,0.0
10.976,-5.183,2.866,0.715,-0.146,0.0
10.122,-4.207,3.049,0.718,-0.14,0.0
9.146,-3.293,3.232,0.719,-0.135,0.0
8.293,-2.256,3.415,0.719,-0.128,0.0
7.805,-1.28,3.78,0.713,-0.134,0.0
7.805,-0.61,4.451,0.713,-0.136,0.0
8.476,-0.122,5.061,0.71,-0.142,0.0
9.512,0.061,5.915,0.716,-0.154,0.0
10.549,0.061,6.707,0.713,-0.165,0.0
11.707,-0.183,7.439,0.724,-0.179,0.0
12.805,-0.488,8.171,0.733,-0.188,0.0
13.537,-0.549,8.963,0.741,-0.195,0.0
13.659,-0.732,9.817,0.754,-0.206,0.0
13.232,-0.488,10.549,0.77,-0.214,0.0
12.5,-0.183,11.28,0.788,-0.221,0.0
11.402,0.122,11.707,0.81,-0.226,0.0
9.878,0.549,12.073,0.825,-0.231,0.0
8.293,0.915,12.317,0.831,-0.238,0.0
6.829,1.28,12.317,0.84,-0.238,0.0
5.671,1.707,12.5,0.846,-0.241,0.0
4.695,1.829,12.683,0.847,-0.243,0.0
4.085,1.768,13.171,0.85,-0.245,0.0
3.902,1.341,13.78,0.851,-0.244,0.0
4.085,0.488,14.878,0.846,-0.24,0.0
4.634,-0.549,15.976,0.843,-0.24,0.0
5.305,-1.707,17.317,0.839,-0.243,0.0
5.854,-3.049,18.841,0.825,-0.244,0.0
6.22,-4.817,20.183,0.811,-0.247,0.0
6.341,-6.402,21.524,0.796,-0.247,0.0
6.402,-7.805,22.683,0.782,-0.242,0.0
6.402,-9.085,23.78,0.771,-0.245,0.0
6.341,-10.183,24.512,0.768,-0.248,0.0
5.854,-10.793,25.0,0.763,-0.246,0.0
5.549,-11.159,25.122,0.763,-0.248,0.0
5.61,-11.463,24.817,0.773,-0.242,0.0
5.244,-11.28,24.329,0.786,-0.242,0.0
5.183,-10.915,23.537,0.808,-0.235,0.0
5.549,-10.122,22.622,0.822,-0.226,0.0
6.037,-9.207,21.402,0.854,-0.215,0.0
6.463,-8.171,20.0,0.903,-0.209,0.0
6.89,-6.829,18.659,0.929,-0.18,0.0
7.195,-5.488,17.317,0.983,-0.149,0.0
7.683,-4.146,15.61,1.047,-0.108,0.0
7.988,-3.11,14.024,1.136,-0.082,0.0
8.049,-2.317,12.073,1.207,-0.036,0.0
7.134,-1.707,10.305,1.346,0.007,0.0
6.098,-1.402,8.537,1.413,0.067,0.0
4.634,-1.098,6.402,1.612,0.132,0.0
2.683,-0.793,4.512,1.596,0.202,0.0
0.854,-0.427,2.561,1.558,0.236,0.0
-1.768,-0.061,0.732,2.076,0.516,0.0
-4.512,0.549,-1.585,2.331,0.704,0.0
-7.256,0.61,-6.341,2.164,0.741,0.0
-9.573,1.829,-9.39,2.188,0.854,0.0
-11.037,3.72,-10.183,2.466,0.971,0.0
-11.524,6.463,-13.537,2.769,1.11,0.0
-11.341,9.756,-17.195,2.829,1.104,0.0
-10.0,13.232,-21.768,2.773,1.102,0.0
-7.5,17.012,-25.61,2.857,1.123,0.0
-4.024,21.463,-30.976,2.942,1.138,0.0
1.159,26.646,-33.963,3.166,1.117,0.0
7.744,31.402,-39.756,3.187,1.085,0.0
14.512,37.561,-42.073,3.022,1.058,0.0
24.939,33.415,-46.768,3.075,0.983,0.0
37.317,29.146,-48.902,3.08,0.929,0.0
42.378,45.549,-52.744,2.992,0.87,0.0
45.305,60.671,-58.841,3.125,0.845,0.0
52.988,59.756,-63.841,3.178,0.813,0.0
61.159,56.28,-67.195,3.021,0.737,0.0
67.744,63.293,-74.268,2.736,0.684,0.0
71.524,76.22,-81.098,2.582,0.625,0.0
76.159,82.927,-84.329,2.409,0.55,0.0
82.744,83.963,-86.585,2.21,0.468,0.0
90.0,84.146,-89.695,1.991,0.377,0.0
98.232,88.659,-91.646,1.756,0.284,0.0
106.58,98.72,-90.976,1.506,0.206,0.0
115.61,102.93,-90.0,1.224,0.142,0.0
126.22,100.79,-88.72,0.948,0.076,0.0
136.65,102.01,-81.585,0.781,0.022,0.0
146.46,100.92,-72.317,0.792,0.053,0.0
157.68,101.89,-62.256,0.474,0.325,0.0
167.19,115.12,-46.402,-0.039,0.493,0.0
176.4,133.72,-30.244,-0.578,0.691,0.0
186.22,146.71,-11.098,-1.188,0.809,0.0
193.96,153.29,10.488,-1.839,0.762,0.0
201.1,160.55,33.354,-2.539,0.512,0.0
209.51,168.23,57.317,-2.986,0.239,0.0
215.98,175.79,82.561,-3.182,0.005,0.0
223.23,183.72,107.44,-3.375,-0.317,0.0
231.34,191.4,132.07,-3.676,-0.293,0.0
237.07,199.33,156.46,-3.846,-0.365,0.0
242.5,209.45,179.21,-4.004,-0.478,0.0
245.91,222.99,202.5,-4.151,-0.412,0.0
245.91,248.72,223.05,-4.276,-0.27,0.0
239.51,291.71,237.68,-4.2,0.076,0.0
219.21,341.77,252.13,-3.958,0.188,0.0
184.69,385.92,269.69,-3.675,0.133,0.0
143.54,417.93,282.01,-3.41,-0.219,0.0
101.89,435.49,296.77,-3.051,-0.753,0.764
63.354,436.89,300.98,-2.592,-1.159,1.647
34.573,421.16,309.27,-2.362,-1.017,2.082
17.744,403.42,325.06,-1.957,0.059,0.84
18.78,394.69,341.46,-0.943,1.199,-0.478
30.122,389.57,351.04,0.176,0.719,0.0
36.89,375.61,358.9,0.509,0.105,-0.185
56.22,365.73,365.92,0.803,0.243,0.403
80.488,352.01,372.87,0.958,0.066,0.0
108.35,338.42,368.42,0.616,-0.12,0.0
117.99,312.81,362.19,0.184,-0.259,0.0
104.82,282.74,349.27,-0.101,-0.84,0.0
78.049,253.9,325.18,-0.288,-0.386,0.0
57.561,225.24,297.87,-0.285,-0.025,0.0
59.024,186.71,263.29,-0.119,-0.03,0.0
74.634,129.45,231.83,0.01,0.106,0.0
71.89,73.476,191.04,0.059,0.212,0.0
20.427,7.256,142.07,0.045,0.261,0.0
-46.829,-58.049,93.659,-0.03,0.327,0.0
-93.354,-83.476,47.744,-0.179,0.416,0.0
-130.18,-84.634,9.024,-0.379,0.57,0.0
-166.89,-91.646,-30.793,-0.549,0.752,0.0
-194.09,-72.683,-70.915,-0.648,0.804,0.0
-182.13,-40.488,-105.06,-0.668,0.699,0.0
-171.59,-27.378,-106.52,-0.663,0.54,0.0
-136.71,-18.659,-110.85,-0.7,0.323,0.0
-83.902,-14.024,-102.68,-0.799,0.126,0.0
-49.207,-13.476,-81.524,-0.94,0.021,0.0
-12.378,-8.78,-73.11,-1.064,-0.027,0.0
26.768,0.305,-59.024,-1.148,-0.034,0.0
57.927,11.524,-43.232,-1.203,-0.046,0.0
79.878,20.854,-28.354,-1.276,-0.101,0.0
92.134,27.805,-19.634,-1.413,-0.182,0.0
93.963,32.927,-18.659,-1.598,-0.238,0.0
84.512,34.207,-23.354,-1.798,-0.235,0.0
63.659,29.878,-32.317,-1.999,-0.207,0.0
32.927,20.244,-46.524,-2.244,-0.212,0.0
-1.402,7.317,-64.085,-2.384,-0.229,0.0
-30.488,-6.098,-80.976,-2.435,-0.229,0.0
-52.744,-19.878,-96.768,-2.368,-0.287,0.0
-67.927,-34.146,-113.72,-2.328,-0.329,0.0
-75.793,-49.878,-130.31,-2.318,-0.318,0.0
-79.085,-68.232,-148.29,-2.235,-0.329,0.0
-80.122,-88.049,-167.44,-2.082,-0.308,0.0
-80.915,-107.19,-187.26,-1.866,-0.313,0.0
-80.366,-123.6,-207.26,-1.727,-0.132,0.0
-78.415,-136.46,-226.65,-1.643,-0.147,0.0
-75.976,-147.74,-245.0,-1.443,-0.18,0.0
-75.183,-158.96,-261.4,-1.246,-0.114,0.0
-77.134,-169.45,-276.28,-1.07,-0.108,0.0
-82.256,-176.59,-287.68,-0.886,0.036,0.0
-88.72,-187.07,-297.68,-0.682,-0.025,0.0
-96.768,-198.17,-305.06,-0.493,-0.074,0.0
-101.58,-212.5,-310.98,-0.336,-0.04,0.0
-101.71,-223.96,-317.68,-0.162,0.036,0.0
-102.19,-231.89,-322.19,-0.015,0.186,0.0
-103.48,-241.28,-323.11,0.12,0.333,0.0
-105.85,-251.1,-320.0,0.296,0.562,0.0
-105.24,-261.52,-315.61,0.494,0.717,0.0
-106.95,-267.32,-312.07,0.684,0.656,0.0
-114.02,-270.37,-306.89,0.86,0.468,0.0
-114.39,-280.0,-302.26,0.952,0.301,0.0
-115.43,-286.71,-295.12,1.0,0.238,0.0
-117.19,-291.95,-286.95,1.04,0.266,0.0
-121.1,-297.44,-276.34,1.103,0.335,0.0
-128.05,-300.06,-265.79,1.21,0.381,0.0
-129.51,-300.92,-254.09,1.343,0.466,0.0
-130.67,-301.28,-238.35,1.42,0.538,0.0
-131.89,-300.67,-221.77,1.538,0.519,0.0
-134.45,-296.16,-206.16,1.688,0.531,0.0
-142.01,-290.67,-188.23,1.818,0.595,0.0
-155.61,-285.92,-169.15,1.937,0.719,0.0
-175.67,-280.0,-152.74,2.139,0.763,0.0
-196.65,-271.46,-139.21,2.258,0.699,0.0
-208.84,-258.23,-124.63,2.284,0.637,0.0
-210.49,-241.4,-105.67,2.378,0.733,0.0
-206.16,-224.76,-83.232,2.499,0.965,0.0
-198.78,-210.73,-61.829,2.614,1.041,0.0
-188.78,-199.27,-42.561,2.636,1.005,0.0
-178.11,-192.13,-26.707,2.551,0.941,0.0
-167.32,-185.91,-11.402,2.487,0.939,0.0
-158.54,-176.22,1.524,2.554,1.03,0.0
-150.49,-169.51,11.098,2.591,1.173,0.0
-140.73,-164.15,20.061,2.558,1.189,0.0
-130.79,-157.81,29.085,2.457,1.108,0.0
-123.66,-151.71,36.89,2.319,1.052,0.0
-116.71,-148.66,43.72,2.2,0.954,0.0
-110.55,-139.33,48.049,2.101,0.768,0.0
-103.48,-129.15,50.122,1.983,0.581,0.0
-96.463,-122.32,57.988,1.837,0.431,0.0
-92.317,-115.67,69.268,1.659,0.308,0.0
-92.256,-105.12,76.463,1.511,0.233,0.0
-91.159,-88.537,78.598,1.41,0.141,0.0
-84.817,-70.671,80.122,1.336,-0.198,0.0
-72.561,-58.537,85.122,1.231,-0.214,0.0
-58.72,-50.671,91.768,1.127,-0.218,0.0
-47.927,-39.756,96.22,1.025,-0.309,0.0
-38.598,-25.0,94.024,0.974,-0.368,0.0
-27.744,-9.085,90.549,0.875,-0.384,0.0
-15.061,5.244,87.256,0.835,-0.418,0.0
0.0,16.22,83.11,0.798,-0.391,0.0
16.768,25.854,78.659,0.766,-0.394,0.0
35.0,35.732,75.549,0.74,-0.381,0.0
53.049,44.451,73.841,0.732,-0.34,0.0
69.573,50.915,72.866,0.745,-0.328,0.0
83.354,54.695,72.805,0.777,-0.323,0.0
89.085,57.744,74.207,0.808,-0.309,0.0
98.232,59.329,71.707,0.836,-0.291,0.0
111.52,58.293,71.646,0.869,-0.29,0.0
120.92,57.622,72.683,0.901,-0.287,0.0
123.11,55.976,68.659,0.928,-0.291,0.0
125.24,50.854,65.427,0.951,-0.278,0.0
124.82,45.244,62.927,0.971,-0.279,0.0
123.72,37.927,58.171,0.984,-0.266,0.0
118.78,29.39,55.244,0.996,-0.246,0.0
110.31,20.427,51.707,1.008,-0.227,0.0
101.46,10.61,48.963,1.009,-0.212,0.0
90.366,0.976,46.707,0.996,-0.206,0.0
78.293,-7.622,44.085,0.984,-0.206,0.0
66.951,-14.878,41.341,0.978,-0.202,0.0
55.61,-21.768,39.878,0.971,-0.191,0.0
45.671,-27.866,39.329,0.96,-0.161,0.0
36.524,-32.927,39.146,0.943,-0.144,0.0
28.963,-37.195,39.207,0.934,-0.134,0.0
23.171,-39.939,39.085,0.915,-0.118,0.0
18.354,-41.28,38.476,0.892,-0.119,0.0
15.183,-41.524,37.561,0.875,-0.069,0.0
14.085,-40.488,35.915,0.868,-0.15,0.0
14.451,-37.988,32.866,0.854,-0.192,0.0
15.366,-34.756,29.146,0.857,-0.142,0.0
16.463,-31.22,25.0,0.86,-0.166,0.0
17.561,-27.561,20.366,0.858,-0.19,0.0
17.927,-23.963,15.366,0.849,-0.203,0.0
18.171,-20.244,10.366,0.833,-0.233,0.0
19.024,-16.646,5.732,0.814,-0.252,0.0
19.512,-12.805,0.488,0.821,-0.256,0.0
17.988,-9.756,-3.11,0.797,-0.288,0.0
16.22,-6.707,-6.707,0.799,-0.27,0.0
13.476,-3.963,-9.756,0.78,-0.272,0.0
10.366,-1.28,-13.476,0.766,-0.28,0.0
5.366,0.61,-14.329,0.761,-0.279,0.0
0.061,2.073,-16.22,0.765,-0.273,0.0
-1.585,3.72,-17.622,0.752,-0.275,0.0
-2.256,5.366,-17.195,0.756,-0.258,0.0
-4.207,6.341,-16.037,0.749,-0.244,0.0
-4.939,7.561,-14.512,0.75,-0.234,0.0
-4.817,8.902,-12.683,0.755,-0.224,0.0
-3.963,9.939,-10.915,0.762,-0.215,0.0
-2.927,10.427,-9.024,0.777,-0.208,0.0
-2.744,10.549,-6.646,0.782,-0.204,0.0
-1.585,11.037,-4.39,0.781,-0.208,0.0
0.793,11.037,-3.232,0.781,-0.219,0.0
1.646,11.524,-2.744,0.775,-0.23,0.0
2.988,11.341,-2.134,0.769,-0.235,0.0
4.512,10.488,-1.829,0.766,-0.242,0.0
4.512,9.634,-2.012,0.761,-0.249,0.0
3.963,8.476,-1.951,0.753,-0.253,0.0
3.659,6.463,-1.646,0.75,-0.255,0.0
2.378,4.451,-1.829,0.75,-0.267,0.0
0.732,1.951,-1.646,0.747,-0.269,0.0
-1.28,-0.305,-1.402,0.748,-0.26,0.0
-3.415,-2.256,-1.341,0.752,-0.254,0.0
-5.122,-3.841,-1.22,0.753,-0.252,0.0
-6.22,-4.878,-1.037,0.761,-0.245,0.0
-6.768,-5.244,-0.976,0.768,-0.238,0.0
-5.915,-5.244,-0.915,0.78,-0.237,0.0
-5.061,-4.695,-0.976,0.792,-0.236,0.0
-3.78,-3.902,-1.159,0.808,-0.23,0.0
-1.646,-2.927,-1.402,0.823,-0.225,0.0
0.976,-1.768,-1.89,0.84,-0.224,0.0
3.78,-0.61,-2.378,0.847,-0.224,0.0
5.61,0.366,-2.866,0.856,-0.221,0.0
6.829,1.159,-3.171,0.868,-0.212,0.0
7.805,1.585,-3.415,0.866,-0.211,0.0
8.049,1.28,-3.415,0.927,-0.139,0.0
7.805,0.793,-3.354,0.915,-0.145,0.0
6.646,0.183,-3.232,0.948,-0.096,0.0
4.878,-0.549,-3.232,0.969,-0.054,0.0
2.683,-1.159,-3.354,1.043,-0.013,0.0
0.671,-1.159,-3.415,1.092,0.048,0.0
-1.037,-0.793,-3.659,1.149,0.115,0.0
-2.622,0.0,-4.024,1.167,0.156,0.0
-3.902,1.28,-4.451,1.303,0.237,0.0
-4.756,2.866,-5.0,1.413,0.299,0.0
-4.939,4.878,-5.732,1.472,0.354,0.0
-4.756,7.317,-6.28,1.598,0.421,0.0
-4.146,9.756,-6.829,1.738,0.491,0.0
-3.049,11.037,-7.439,1.893,0.556,0.0
-3.72,12.683,-6.768,1.97,0.618,0.0
-4.817,15.488,-5.976,2.052,0.677,0.0
-3.659,17.561,-5.61,2.189,0.754,0.0
-3.537,18.963,-4.756,2.307,0.826,0.0
-4.329,19.268,-3.476,2.47,0.862,0.0
-4.268,21.768,-2.683,2.548,0.916,0.0
-4.756,24.268,-2.683,2.542,0.956,0.0
-4.085,26.585,-2.927,2.678,0.979,0.0
-2.256,29.207,-4.085,2.861,0.977,0.0
-0.61,35.549,-5.427,3.071,0.973,0.0
1.951,41.037,-6.402,3.08,0.949,0.0
6.768,45.793,-8.598,3.038,0.887,0.0
12.195,52.134,-11.524,3.154,0.808,0.0
17.683,58.659,-14.939,3.344,0.735,0.0
24.146,66.646,-17.683,3.197,0.669,0.0
31.646,70.854,-20.915,3.087,0.587,0.0
39.146,74.878,-24.39,3.042,0.5,0.0
47.134,80.244,-29.451,2.955,0.418,0.0
54.573,87.195,-36.524,2.845,0.351,0.0
62.073,96.22,-42.988,2.713,0.286,0.0
68.72,100.49,-49.024,2.55,0.22,0.0
76.707,98.963,-52.622,2.363,0.15,0.0
87.317,100.12,-58.232,2.149,0.072,0.0
98.049,104.02,-61.585,1.904,-0.008,0.0
106.89,110.73,-63.659,1.653,-0.055,0.0
115.24,110.06,-63.598,1.452,-0.071,0.0
124.45,105.79,-61.829,1.353,-0.065,0.0
135.43,108.66,-57.439,1.276,-0.118,0.0
145.61,114.15,-48.11,1.013,0.057,0.0
156.65,113.17,-38.841,0.604,0.277,0.0
167.93,112.93,-29.207,0.033,0.506,0.0
178.84,113.78,-18.11,-0.515,0.464,0.0
189.39,115.79,-6.463,-1.124,0.479,0.0
199.88,119.63,6.341,-1.807,0.435,0.0
209.45,124.63,20.793,-2.553,0.359,0.0
217.32,130.91,37.256,-3.081,0.09,0.0
223.54,137.99,55.976,-3.355,-0.041,0.0
227.74,145.79,75.854,-3.505,-0.175,0.0
228.9,154.94,96.951,-3.695,-0.226,0.0
227.26,165.24,118.66,-3.982,-0.225,0.0
224.45,181.65,136.04,-4.036,-0.077,0.0
220.91,209.09,152.93,-4.218,-0.452,0.0
215.73,250.98,176.71,-4.606,-0.571,0.0
202.99,296.83,199.51,-4.427,0.08,0.0
179.33,339.21,223.9,-4.093,0.309,0.0
151.4,375.85,243.6,-4.02,0.109,0.0
123.96,403.23,266.1,-3.898,-0.083,0.0
95.915,419.69,284.45,-3.667,-0.565,0.857
71.829,426.16,295.43,-3.256,-1.147,1.694
50.976,414.76,306.22,-2.773,-1.309,2.132
38.171,396.34,322.32,-2.419,0.148,0.571
32.5,385.24,332.81,-1.221,1.542,-0.92
34.695,381.28,341.95,0.116,0.761,0.0
50.183,382.5,345.43,0.695,0.06,-0.247
63.598,373.48,354.63,1.13,0.266,0.398
87.683,372.01,363.96,1.161,0.386,0.818
136.52,370.92,362.5,0.603,-0.171,0.0
164.88,334.82,362.5,0.026,-0.535,0.0
149.15,299.51,356.89,-0.359,-0.448,0.0
126.65,279.82,331.71,-0.534,-0.463,0.0
110.49,248.6,315.12,-0.414,-0.188,0.0
106.16,206.16,286.65,-0.135,0.099,0.0
114.08,142.87,252.99,0.07,0.216,0.0
122.07,58.354,214.45,0.096,0.313,0.0
71.463,-21.22,165.98,-0.04,0.427,0.0
-1.89,-100.12,119.94,-0.281,0.557,0.0
-52.866,-136.95,68.598,-0.593,0.677,0.0
-90.183,-140.31,19.024,-0.833,0.799,0.0
-129.76,-136.65,-28.598,-0.899,0.85,0.0
-158.35,-99.573,-80.488,-0.879,0.826,0.0
-157.56,-54.451,-117.13,-0.851,0.705,0.0
-132.07,-27.317,-128.35,-0.868,0.479,0.0
-104.02,-14.085,-122.68,-0.958,0.264,0.0
-66.524,-8.598,-113.9,-1.113,0.093,0.0
-19.939,-8.963,-101.71,-1.294,-0.005,0.0
20.732,-5.0,-84.817,-1.464,-0.038,0.0
52.378,7.683,-67.683,-1.621,-0.05,0.0
76.22,24.39,-50.732,-1.776,-0.123,0.0
90.183,38.902,-37.805,-1.892,-0.259,0.0
92.988,49.146,-33.476,-2.003,-0.36,0.0
84.146,54.329,-35.183,-2.191,-0.433,0.0
65.488,51.707,-41.22,-2.457,-0.503,0.0
39.207,40.793,-55.305,-2.634,-0.566,0.0
6.89,25.915,-75.61,-2.789,-0.564,0.0
-27.256,8.78,-98.049,-2.821,-0.642,0.0
-58.841,-9.329,-120.0,-2.738,-0.611,0.0
-83.659,-29.085,-141.46,-2.665,-0.538,0.0
-100.31,-50.732,-161.46,-2.491,-0.564,0.0
-110.18,-74.329,-182.26,-2.317,-0.463,0.0
-117.5,-98.598,-204.39,-2.113,-0.486,0.0
-125.06,-121.65,-226.83,-1.913,-0.227,0.0
-132.87,-141.34,-248.78,-1.744,-0.374,0.0
-138.17,-160.61,-270.24,-1.531,-0.199,0.0
-140.49,-177.38,-288.78,-1.306,0.106,0.0
-140.0,-190.12,-306.04,-1.022,0.083,0.0
-138.9,-199.27,-321.4,-0.813,-0.082,0.0
-136.04,-211.89,-333.6,-0.603,-0.069,0.0
-133.6,-222.19,-340.85,-0.417,0.01,0.0
-131.46,-234.57,-344.33,-0.243,0.176,0.0
-125.67,-248.78,-346.52,-0.042,0.339,0.0
-123.11,-258.05,-348.48,0.146,0.354,0.0
-117.93,-270.43,-345.73,0.314,0.386,0.0
-115.31,-279.27,-342.19,0.508,0.443,0.0
-113.48,-287.87,-341.83,0.672,0.455,0.0
-117.68,-293.84,-337.81,0.835,0.417,0.0
-122.81,-298.05,-332.19,0.968,0.39,0.0
-114.88,-304.63,-325.61,1.069,0.388,0.0
-116.71,-309.27,-318.6,1.192,0.385,0.0
-129.88,-311.04,-311.89,1.323,0.379,0.0
-141.77,-308.42,-303.17,1.44,0.396,0.0
-147.74,-305.0,-290.61,1.553,0.45,0.0
-151.4,-300.73,-274.45,1.686,0.55,0.0
-154.69,-296.65,-256.65,1.841,0.645,0.0
-161.89,-293.17,-237.99,1.97,0.668,0.0
-171.1,-289.94,-219.21,2.052,0.762,0.0
-180.0,-285.67,-198.35,2.144,0.981,0.0
-188.78,-279.27,-175.61,2.308,1.192,0.0
-196.16,-271.52,-151.16,2.488,1.247,0.0
-202.62,-261.83,-128.72,2.583,1.226,0.0
-206.4,-249.69,-107.68,2.692,1.289,0.0
-208.84,-238.78,-87.744,2.898,1.482,0.0
-208.84,-229.45,-68.659,3.129,1.67,0.0
-206.28,-219.69,-50.427,3.198,1.847,0.0
-202.13,-208.11,-34.695,3.103,2.067,0.0
-197.01,-196.95,-21.037,3.015,1.917,0.0
-191.16,-185.85,-8.171,2.911,1.687,0.0
-183.54,-174.45,3.902,2.705,1.584,0.0
-174.21,-164.09,11.707,2.458,1.313,0.0
-164.51,-152.81,18.78,2.253,0.965,0.0
-154.94,-145.37,26.463,2.055,0.676,0.0
-146.16,-141.65,34.634,1.869,0.52,0.0
-138.96,-135.12,40.549,1.706,0.465,0.0
-130.55,-123.9,44.817,1.584,0.291,0.0
-117.13,-115.31,51.768,1.484,0.191,0.0
-104.82,-109.27,64.939,1.361,0.014,0.0
-94.695,-98.72,73.902,1.161,-0.313,0.0
-84.634,-79.024,77.927,1.032,-0.336,0.0
-84.512,-56.28,77.439,0.907,-0.282,0.0
-91.585,-37.5,73.78,0.922,-0.337,0.0
-89.268,-17.805,72.195,0.918,-0.297,0.0
-78.415,2.134,73.415,0.885,-0.244,0.0
-60.366,19.207,74.085,0.855,-0.314,0.0
-36.768,32.439,75.854,0.855,-0.341,0.0
-6.646,42.317,78.72,0.921,-0.333,0.0
29.878,49.512,80.183,0.93,-0.465,0.0
65.671,54.39,78.963,0.882,-0.417,0.0
96.89,55.793,77.134,0.847,-0.29,0.0
125.31,55.915,75.122,0.859,-0.274,0.0
147.38,57.073,68.963,0.874,-0.368,0.0
164.69,54.695,68.293,0.876,-0.404,0.0
186.22,47.439,71.585,0.917,-0.398,0.0
198.66,36.341,69.329,0.889,-0.396,0.0
204.82,23.11,67.073,0.859,-0.392,0.0
204.63,13.232,64.878,0.888,-0.401,0.0
196.52,2.622,61.829,0.875,-0.419,0.0
180.43,-7.378,58.659,0.884,-0.391,0.0
162.87,-17.988,55.671,0.899,-0.361,0.0
144.33,-26.22,54.268,0.906,-0.33,0.0
126.22,-32.012,51.829,0.921,-0.295,0.0
110.61,-39.024,51.646,0.925,-0.242,0.0
90.122,-44.146,48.293,0.933,-0.183,0.0
69.451,-46.22,42.927,0.938,-0.18,0.0
51.463,-47.073,38.293,0.93,-0.181,0.0
38.232,-47.988,35.366,0.926,-0.153,0.0
28.902,-45.793,32.805,0.884,-0.193,0.0
22.561,-40.61,29.024,0.887,-0.155,0.0
18.78,-37.439,25.671,0.896,-0.042,0.0
16.646,-34.878,21.829,0.864,-0.089,0.0
15.976,-31.159,17.805,0.841,-0.102,0.0
17.927,-28.049,14.573,0.827,-0.076,0.0
21.646,-25.488,11.159,0.797,-0.085,0.0
24.634,-23.11,7.927,0.792,-0.099,0.0
26.646,-20.366,4.695,0.814,-0.103,0.0
27.256,-17.561,1.402,0.81,-0.106,0.0
26.707,-14.939,-1.768,0.78,-0.14,0.0
23.902,-11.951,-4.878,0.778,-0.168,0.0
20.488,-8.72,-7.073,0.76,-0.224,0.0
18.11,-5.122,-9.573,0.788,-0.197,0.0
16.098,-2.134,-11.159,0.788,-0.213,0.0
16.402,-0.183,-12.378,0.769,-0.25,0.0
13.537,2.988,-12.988,0.777,-0.233,0.0
7.134,6.646,-14.146,0.76,-0.253,0.0
3.963,9.512,-15.732,0.749,-0.268,0.0
1.585,12.683,-16.341,0.734,-0.274,0.0
-1.646,15.244,-16.28,0.737,-0.26,0.0
-4.695,16.463,-16.646,0.735,-0.25,0.0
-7.317,17.439,-16.829,0.738,-0.249,0.0
-9.939,18.78,-17.012,0.728,-0.245,0.0
-12.073,19.451,-16.463,0.725,-0.244,0.0
-14.024,18.78,-15.488,0.727,-0.24,0.0
-14.451,17.5,-14.878,0.731,-0.249,0.0
-13.537,16.22,-13.963,0.737,-0.25,0.0
-13.11,16.341,-12.805,0.739,-0.257,0.0
-12.439,15.915,-11.768,0.742,-0.263,0.0
-10.732,15.732,-10.305,0.739,-0.277,0.0
-8.232,15.732,-9.207,0.734,-0.297,0.0
-5.305,15.0,-7.988,0.732,-0.316,0.0
-2.073,14.146,-6.585,0.733,-0.329,0.0
0.488,13.415,-5.366,0.729,-0.328,0.0
2.195,12.561,-4.451,0.728,-0.331,0.0
3.72,11.28,-3.171,0.719,-0.324,0.0
4.695,9.573,-1.829,0.711,-0.313,0.0
4.817,7.256,-0.366,0.687,-0.33,0.0
4.146,4.695,0.976,0.693,-0.299,0.0
2.927,2.012,2.012,0.692,-0.283,0.0
1.28,-0.488,3.171,0.695,-0.286,0.0
-0.793,-2.622,4.451,0.709,-0.272,0.0
-2.988,-4.817,5.915,0.712,-0.264,0.0
-4.512,-6.402,7.134,0.717,-0.257,0.0
-5.671,-7.134,7.927,0.728,-0.245,0.0
-6.098,-7.256,8.293,0.735,-0.234,0.0
-5.183,-6.585,8.476,0.751,-0.224,0.0
-3.11,-4.39,8.11,0.76,-0.214,0.0
-0.671,-1.28,7.195,0.771,-0.203,0.0
1.89,2.317,6.22,0.78,-0.195,0.0
3.78,5.61,5.427,0.789,-0.184,0.0
5.427,7.927,4.878,0.808,-0.18,0.0
7.256,8.659,4.268,0.818,-0.173,0.0
8.354,9.817,2.683,0.828,-0.16,0.0
8.659,9.939,1.463,0.832,-0.155,0.0
8.598,9.573,0.671,0.812,-0.164,0.0
7.439,8.963,-0.183,0.791,-0.171,0.0
5.549,8.049,-0.549,0.812,-0.146,0.0
3.354,7.012,-0.671,0.763,-0.158,0.0
0.732,5.854,-0.854,0.815,-0.103,0.0
-1.768,5.0,-0.976,0.821,-0.083,0.0
-4.207,4.024,-0.854,0.843,-0.068,0.0
-6.341,3.11,-0.366,0.811,-0.089,0.0
-7.561,2.5,0.183,0.795,-0.099,0.0
-7.683,2.195,0.61,0.861,-0.065,0.0
-6.585,2.378,1.341,0.887,-0.059,0.0
-4.756,2.866,2.317,0.9,-0.063,0.0
-2.439,3.78,3.598,0.953,-0.045,0.0
0.854,4.939,5.0,1.008,-0.021,0.0
5.061,6.159,6.524,1.063,0.008,0.0
8.963,5.854,8.963,1.095,-0.005,0.0
12.317,5.549,10.488,1.169,0.056,0.0
14.39,4.024,10.732,1.22,0.042,0.0
15.0,2.622,12.378,1.347,0.128,0.0
12.866,3.354,12.927,1.518,0.31,0.0
9.39,4.085,11.585,1.631,0.317,0.0
4.512,5.122,10.183,1.843,0.414,0.0
-1.22,3.598,8.963,1.895,0.404,0.0
-8.78,1.159,7.866,2.003,0.463,0.0
-18.171,0.915,7.378,2.22,0.671,0.0
-27.622,0.854,5.915,2.286,0.755,0.0
-36.951,0.427,5.061,2.373,0.825,0.0
-46.098,1.341,4.512,2.604,0.961,0.0
-54.207,4.451,3.415,2.966,1.085,0.0
-60.122,7.439,1.28,2.976,1.118,0.0
-62.927,10.671,-1.159,2.999,1.173,0.0
-63.171,13.171,-3.476,3.052,1.247,0.0
-59.39,16.585,-5.793,3.081,1.27,0.0
-55.366,24.329,-8.293,3.157,1.279,0.0
-52.256,34.634,-14.329,3.301,1.232,0.0
-46.585,44.329,-18.963,3.378,1.238,0.0
-37.683,53.902,-25.427,3.373,1.165,0.0
-23.963,58.659,-28.841,3.343,1.129,0.0
-8.841,63.841,-29.207,3.282,1.093,0.0
6.402,71.463,-36.463,3.217,1.042,0.0
23.902,73.11,-41.341,3.158,0.974,0.0
41.585,72.805,-44.207,3.076,0.885,0.0
58.049,81.585,-49.939,2.952,0.791,0.0
74.207,96.28,-59.817,2.796,0.688,0.0
91.768,103.66,-64.268,2.601,0.588,0.0
110.67,106.16,-65.244,2.365,0.53,0.0
130.24,106.71,-72.805,2.113,0.462,0.0
148.9,104.51,-76.463,1.938,0.421,0.0
167.07,102.44,-76.707,1.644,0.361,0.0
183.84,105.0,-74.634,1.481,0.281,0.0
198.66,107.62,-70.061,1.424,0.39,0.0
213.72,110.55,-62.988,0.932,0.517,0.0
227.56,112.93,-53.11,0.253,0.51,0.0
240.12,114.02,-40.0,-0.465,0.628,0.0
251.4,115.92,-23.659,-1.31,0.78,0.0
261.52,119.33,-5.183,-2.208,0.812,0.0
272.87,124.94,14.878,-3.082,0.637,0.0
282.5,133.17,37.439,-3.747,0.201,0.0
287.87,142.5,63.476,-4.206,-0.078,0.0
288.72,151.46,93.049,-4.481,-0.112,0.0
286.1,159.69,123.84,-4.717,-0.189,0.0
279.08,171.46,152.81,-4.962,-0.335,0.0
267.93,189.69,176.22,-5.298,-0.444,0.0
251.4,212.01,200.91,-5.393,-0.345,0.0
235.31,253.66,231.1,-5.487,-0.506,0.0
212.13,312.81,250.98,-5.423,-0.36,0.0
184.82,367.32,276.1,-5.068,-0.17,0.0
152.87,413.11,311.28,-4.639,-0.237,0.0
115.06,452.19,346.83,-4.35,-1.234,1.498
74.573,477.07,372.26,-4.289,-2.137,2.883
41.707,480.79,386.71,-3.869,-0.567,0.914
14.085,466.65,397.68,-1.405,0.981,-1.229
-2.134,452.68,412.19,-0.698,-0.516,0.0
-9.939,441.95,422.99,-0.315,-0.452,-0.5
-12.805,437.07,425.61,0.447,-0.437,0.0
-5.305,435.12,428.23,1.614,0.076,0.238
19.451,433.05,431.77,2.459,0.51,1.261
52.622,419.15,438.23,1.729,0.479,1.875
94.268,403.48,435.85,0.405,-0.07,0.0
140.67,374.15,415.73,-0.391,-1.192,0.0
162.07,328.23,401.65,-0.758,-0.707,1.113
154.39,281.34,374.39,-0.562,0.328,0.0
151.1,232.38,332.68,-0.118,0.604,0.0
177.81,155.61,271.34,0.0,0.54,0.0
134.21,34.878,218.05,-0.132,0.601,0.0
57.012,-105.49,161.34,-0.206,0.64,0.0
16.585,-138.72,99.085,-0.216,0.643,0.0
19.512,-155.49,45.061,-0.291,0.728,0.0
16.524,-198.35,-15.854,-0.456,0.856,0.0
3.415,-223.9,-48.902,-0.602,0.952,0.0
-16.707,-193.84,-74.329,-0.682,0.966,0.0
-37.317,-99.756,-122.62,-0.665,0.896,0.0
-66.707,-39.39,-140.79,-0.587,0.741,0.0
-38.293,-14.207,-146.4,-0.526,0.514,0.0
37.927,-12.317,-121.1,-0.529,0.264,0.0
83.78,-24.451,-87.256,-0.594,0.083,0.0
97.012,-22.5,-67.622,-0.701,-0.032,0.0
104.76,-0.366,-54.573,-0.818,-0.105,0.0
110.43,21.646,-35.244,-0.928,-0.144,0.0
108.17,31.646,-13.78,-1.031,-0.171,0.0
99.39,34.451,1.829,-1.171,-0.154,0.0
84.085,37.622,10.122,-1.379,-0.072,0.0
59.756,40.488,9.695,-1.57,-0.05,0.0
27.866,38.232,1.829,-1.642,-0.051,0.0
-8.78,30.183,-10.61,-1.743,-0.103,0.0
-45.549,18.902,-26.159,-1.97,-0.063,0.0
-77.927,7.073,-42.439,-2.205,-0.071,0.0
-102.01,-3.841,-58.171,-2.418,-0.053,0.0
-117.26,-13.598,-74.939,-2.536,-0.242,0.0
-121.77,-23.293,-92.073,-2.538,-0.299,0.0
-115.79,-35.0,-107.26,-2.501,-0.239,0.0
-103.48,-48.72,-122.44,-2.472,-0.334,0.0
-88.293,-64.39,-138.05,-2.369,-0.38,0.0
-72.927,-80.732,-155.91,-2.166,-0.404,0.0
-59.024,-96.829,-176.28,-1.922,-0.283,0.0
-50.061,-111.58,-197.19,-1.728,-0.224,0.0
-47.561,-127.38,-217.26,-1.578,-0.354,0.0
-49.146,-148.54,-237.74,-1.44,-0.368,0.0
-53.171,-164.63,-256.46,-1.213,-0.255,0.0
-59.634,-176.1,-270.61,-1.01,-0.294,0.0
-70.061,-187.93,-284.69,-0.811,-0.259,0.0
-86.037,-198.78,-296.77,-0.634,-0.079,0.0
-102.5,-212.87,-304.33,-0.414,-0.082,0.0
-110.06,-231.28,-310.37,-0.224,-0.135,0.0
-119.27,-243.17,-315.98,-0.112,-0.101,0.0
-129.94,-251.95,-321.77,0.027,-0.066,0.0
-138.66,-263.48,-321.58,0.168,-0.021,0.0
-144.57,-275.43,-319.51,0.285,-0.087,0.0
-148.35,-284.88,-315.12,0.382,-0.125,0.0
-158.72,-288.48,-312.01,0.475,-0.041,0.0
-166.34,-290.92,-308.05,0.604,-0.019,0.0
-166.65,-295.31,-302.26,0.749,0.048,0.0
-170.79,-300.55,-295.37,0.889,0.124,0.0
-177.74,-303.96,-288.42,1.051,0.183,0.0
-177.32,-304.63,-282.19,1.248,0.21,0.0
-178.78,-305.0,-272.32,1.405,0.233,0.0
-185.73,-304.33,-262.19,1.504,0.317,0.0
-192.56,-299.76,-250.0,1.588,0.43,0.0
-196.22,-293.48,-237.32,1.688,0.592,0.0
-199.33,-287.5,-222.56,1.774,0.751,0.0
-203.17,-279.82,-207.44,1.858,0.765,0.0
-208.78,-271.65,-192.81,1.94,0.787,0.0
-210.49,-262.87,-175.85,2.054,0.894,0.0
-210.67,-255.31,-159.09,2.187,0.966,0.0
-214.02,-249.33,-141.89,2.301,1.036,0.0
-218.05,-243.11,-121.71,2.34,1.132,0.0
-221.52,-236.65,-105.49,2.34,1.232,0.0
-221.46,-231.71,-92.317,2.399,1.3,0.0
-218.35,-225.67,-78.11,2.506,1.326,0.0
-212.19,-216.16,-64.207,2.606,1.386,0.0
-203.66,-203.96,-52.561,2.702,1.483,0.0
-191.16,-192.93,-40.671,2.762,1.612,0.0
-175.24,-185.37,-25.854,2.772,1.617,0.0
-164.02,-177.87,-15.305,2.747,1.479,0.0
-156.16,-170.06,-7.988,2.658,1.334,0.0
-147.74,-163.05,-0.061,2.499,1.106,0.0
-140.49,-156.65,10.976,2.326,0.811,0.0
-132.38,-149.57,23.537,2.103,0.596,0.0
-122.19,-140.0,35.793,1.932,0.457,0.0
-111.58,-128.66,47.073,1.857,0.302,0.0
-102.99,-119.15,57.317,1.779,0.252,0.0
-94.695,-113.84,66.646,1.628,0.212,0.0
-84.878,-108.35,75.549,1.41,0.129,0.0
-75.244,-99.39,84.146,1.279,-0.066,0.0
-66.098,-87.683,90.976,1.221,-0.146,0.0
-60.61,-72.927,94.512,1.076,-0.115,0.0
-59.573,-54.634,91.829,0.914,-0.177,0.0
-56.341,-35.732,86.585,0.856,-0.197,0.0
-47.378,-14.573,82.744,0.826,-0.195,0.0
-34.451,5.61,78.354,0.832,-0.32,0.0
-15.244,23.171,76.098,0.78,-0.305,0.0
12.012,37.256,76.829,0.694,-0.234,0.0
45.183,46.22,78.659,0.707,-0.291,0.0
79.451,52.622,76.098,0.717,-0.326,0.0
110.37,60.427,72.134,0.706,-0.343,0.0
134.82,68.72,67.073,0.727,-0.376,0.0
150.31,72.073,67.866,0.752,-0.409,0.0
166.34,68.476,69.512,0.794,-0.434,0.0
186.04,64.756,67.134,0.818,-0.479,0.0
199.33,62.622,62.256,0.84,-0.495,0.0
203.05,55.366,56.707,0.871,-0.493,0.0
202.99,44.634,53.841,0.903,-0.489,0.0
197.01,33.354,52.622,0.927,-0.479,0.0
188.29,23.78,51.707,0.946,-0.443,0.0
181.65,15.793,50.976,0.959,-0.399,0.0
167.62,6.463,46.951,0.957,-0.358,0.0
146.59,-4.634,44.817,0.951,-0.302,0.0
125.43,-13.476,41.524,0.96,-0.273,0.0
104.33,-20.976,37.805,0.969,-0.217,0.0
82.317,-28.11,34.756,0.993,-0.142,0.0
61.341,-34.634,32.5,1.006,-0.104,0.0
42.378,-39.207,29.695,1.002,-0.057,0.0
26.463,-42.561,26.402,1.019,-0.062,0.0
15.366,-43.902,22.622,1.017,-0.084,0.0
8.963,-43.963,18.78,0.972,-0.228,0.0
4.817,-42.988,15.305,0.974,-0.082,0.0
3.841,-40.671,11.463,0.964,-0.029,0.0
5.305,-37.744,7.866,0.949,-0.059,0.0
7.927,-34.817,4.817,0.938,-0.065,0.0
11.829,-32.073,1.463,0.933,-0.077,0.0
16.829,-30.122,-1.768,0.927,-0.089,0.0
21.037,-27.866,-5.061,0.929,-0.097,0.0
24.085,-25.854,-7.744,0.938,-0.11,0.0
22.805,-24.695,-7.073,0.944,-0.122,0.0
21.159,-23.293,-9.634,0.946,-0.142,0.0
16.707,-22.195,-12.134,0.933,-0.161,0.0
11.768,-19.573,-15.122,0.919,-0.18,0.0
7.134,-16.28,-16.585,0.91,-0.194,0.0
4.817,-14.512,-17.988,0.901,-0.202,0.0
6.829,-12.988,-17.622,0.897,-0.206,0.0
3.171,-11.28,-17.134,0.868,-0.219,0.0
-2.866,-10.366,-18.049,0.845,-0.224,0.0
-7.195,-9.085,-19.085,0.822,-0.232,0.0
-11.159,-7.622,-19.695,0.803,-0.242,0.0
-14.939,-6.463,-20.122,0.787,-0.249,0.0
-18.171,-5.488,-19.878,0.769,-0.255,0.0
-20.183,-4.085,-19.268,0.753,-0.247,0.0
-20.854,-2.439,-18.537,0.737,-0.241,0.0
-20.488,-0.488,-17.622,0.721,-0.237,0.0
-19.512,1.28,-16.463,0.707,-0.221,0.0
-17.927,2.805,-15.488,0.693,-0.206,0.0
-16.22,4.085,-14.512,0.69,-0.193,0.0
-14.817,5.427,-13.598,0.691,-0.183,0.0
-13.171,6.89,-12.744,0.692,-0.174,0.0
-10.976,8.171,-12.195,0.683,-0.161,0.0
-8.72,9.329,-11.951,0.675,-0.162,0.0
-6.768,10.244,-11.89,0.669,-0.164,0.0
-4.268,10.976,-12.134,0.663,-0.17,0.0
-1.89,11.402,-12.744,0.661,-0.189,0.0
-0.366,12.012,-13.354,0.658,-0.2,0.0
0.976,12.378,-13.537,0.653,-0.201,0.0
1.28,12.317,-13.902,0.651,-0.213,0.0
1.341,12.195,-14.024,0.646,-0.227,0.0
1.28,12.012,-14.39,0.646,-0.229,0.0
1.341,12.073,-15.366,0.646,-0.231,0.0
0.976,11.646,-15.549,0.646,-0.235,0.0
0.183,10.793,-15.183,0.655,-0.228,0.0
-0.671,10.427,-14.756,0.661,-0.22,0.0
-1.22,10.183,-13.476,0.664,-0.215,0.0
-1.402,10.183,-11.89,0.675,-0.211,0.0
-1.89,10.183,-10.732,0.686,-0.205,0.0
-2.073,10.0,-9.512,0.702,-0.192,0.0
-1.22,10.244,-7.988,0.718,-0.181,0.0
0.61,10.671,-6.098,0.732,-0.168,0.0
2.927,11.28,-4.207,0.755,-0.153,0.0
6.159,11.585,-2.195,0.767,-0.145,0.0
9.268,11.524,0.427,0.784,-0.144,0.0
11.707,11.098,3.171,0.797,-0.143,0.0
14.024,10.427,5.61,0.806,-0.138,0.0
16.768,9.573,8.232,0.826,-0.135,0.0
18.293,7.805,10.122,0.847,-0.134,0.0
18.78,5.793,11.829,0.857,-0.128,0.0
18.902,3.659,13.537,0.88,-0.123,0.0
17.866,1.524,15.0,0.9,-0.122,0.0
15.732,-0.244,16.28,0.93,-0.118,0.0
12.927,-1.646,17.683,0.97,-0.1,0.0
9.817,-2.439,18.78,0.997,-0.104,0.0
6.402,-2.744,19.207,1.032,-0.093,0.0
3.232,-2.378,19.207,1.064,-0.067,0.0
1.159,-1.646,18.78,1.087,-0.068,0.0
-0.488,-0.366,18.11,1.128,-0.027,0.0
-1.463,1.22,17.317,1.147,-0.004,0.0
-1.402,2.744,16.524,1.195,0.053,0.0
-1.402,4.451,15.671,1.211,0.053,0.0
-0.976,6.037,15.183,1.266,0.106,0.0
-0.976,7.073,14.939,1.295,0.115,0.0
-0.854,8.537,14.207,1.366,0.16,0.0
-0.549,10.122,13.293,1.541,0.408,0.0
-0.549,11.463,12.378,1.59,0.38,0.0
-1.829,12.927,11.951,1.738,0.469,0.0
-4.268,14.512,11.646,1.886,0.541,0.0
-7.378,15.854,11.098,2.028,0.622,0.0
-11.28,17.378,10.0,2.181,0.782,0.0
-15.976,18.537,8.841,2.375,0.895,0.0
-20.122,19.878,7.378,2.565,0.997,0.0
-24.939,21.585,4.695,2.766,1.113,0.0
-29.451,23.902,1.951,2.91,1.151,0.0
-32.622,27.5,-0.854,3.011,1.189,0.0
-34.634,31.341,-4.939,3.253,1.259,0.0
-35.671,36.951,-8.598,3.307,1.261,0.0
-33.171,40.61,-13.049,3.207,1.252,0.0
-30.122,47.988,-15.793,3.234,1.219,0.0
-27.866,58.72,-19.878,3.312,1.157,0.0
-20.976,66.28,-24.207,3.241,1.095,0.0
-11.402,72.866,-28.232,3.156,1.038,0.0
0.854,74.695,-28.598,3.148,0.966,0.0
14.695,73.963,-26.585,3.146,0.911,0.0
26.402,73.415,-27.073,3.091,0.818,0.0
40.427,73.537,-27.805,3.009,0.689,0.0
54.817,74.878,-30.244,2.917,0.514,0.0
69.39,77.012,-32.988,2.786,0.388,0.0
85.0,75.915,-36.524,2.418,0.287,0.0
102.81,77.866,-40.427,2.083,0.231,0.0
120.06,83.049,-43.476,1.867,0.175,0.0
138.11,83.476,-43.659,1.794,0.025,0.0
156.22,79.024,-44.146,1.571,-0.082,0.0
174.76,78.415,-44.695,1.236,-0.096,0.0
191.04,80.793,-41.829,0.824,-0.086,0.0
204.09,80.0,-36.28,0.483,-0.09,0.0
216.22,78.72,-30.183,0.218,-0.087,0.0
226.65,81.098,-24.024,0.042,0.08,0.0
235.49,88.902,-18.171,-0.139,0.333,0.0
245.12,102.01,-10.427,-0.466,0.531,0.0
256.95,119.69,-1.28,-1.121,0.716,0.0
269.15,143.72,13.415,-1.87,0.601,0.0
280.79,165.85,26.768,-2.514,0.441,0.0
290.73,177.81,45.488,-3.135,0.234,0.0
292.56,185.0,73.415,-3.62,0.015,0.0
289.33,195.98,99.634,-3.917,-0.042,0.0
289.51,215.24,117.68,-4.041,-0.123,0.0
290.0,235.49,133.17,-4.222,-0.196,0.0
285.24,254.45,151.59,-4.426,-0.174,0.0
271.52,272.62,174.09,-4.625,-0.319,0.0
256.52,293.84,194.21,-4.794,-0.213,0.0
240.0,322.68,213.72,-4.612,0.139,0.0
214.63,364.33,227.44,-4.166,0.255,0.0
185.43,420.85,238.6,-3.844,0.2,0.0
150.91,471.58,254.63,-3.71,-0.373,0.0
117.13,499.08,270.98,-3.41,-0.807,1.503
95.427,500.24,290.55,-3.253,-0.781,2.571
79.329,494.08,312.56,-2.708,0.405,1.304
72.439,479.76,327.07,-0.518,1.144,-0.255
77.561,460.24,335.61,-0.077,-0.096,0.0
86.098,442.32,343.9,-0.096,-0.095,0.0
104.33,430.73,352.07,0.148,-0.505,0.0
128.41,419.33,360.67,0.748,-0.629,0.0
159.51,404.82,369.57,1.68,0.444,0.763
195.91,381.16,369.63,1.422,0.459,1.35
206.89,340.31,363.05,0.266,0.433,0.0
193.41,298.48,351.71,-0.565,-0.23,0.0
165.98,265.24,334.45,-0.83,-0.762,1.005
150.61,233.35,305.79,-0.629,-0.538,0.0
155.18,172.07,277.26,-0.142,0.154,0.0
147.56,89.939,251.59,0.168,0.305,0.0
83.11,-10.671,203.41,0.178,0.383,0.0
-6.159,-103.35,134.02,0.091,0.431,0.0
-63.963,-106.34,80.183,-0.009,0.505,0.0
-77.927,-103.11,40.061,-0.123,0.595,0.0
-91.768,-129.09,-10.976,-0.233,0.675,0.0
-90.671,-159.45,-37.012,-0.336,0.722,0.0
-84.695,-153.78,-43.659,-0.418,0.714,0.0
-98.476,-82.012,-71.707,-0.469,0.706,0.0
-116.71,-13.415,-104.57,-0.472,0.704,0.0
-124.02,2.195,-112.56,-0.438,0.642,0.0
-91.463,-1.768,-111.4,-0.397,0.497,0.0
-28.354,-15.671,-91.585,-0.364,0.315,0.0
18.476,-25.061,-66.098,-0.375,0.221,0.0
44.085,-10.976,-53.841,-0.436,0.234,0.0
64.329,11.768,-40.366,-0.484,0.229,0.0
80.366,28.293,-22.805,-0.541,0.141,0.0
90.427,38.11,-10.305,-0.626,0.077,0.0
91.951,43.293,-4.695,-0.729,0.063,0.0
84.39,45.732,-5.427,-0.851,0.103,0.0
68.232,45.488,-10.366,-0.97,0.112,0.0
46.829,42.5,-18.354,-1.126,0.183,0.0
23.72,37.012,-27.622,-1.293,0.151,0.0
-0.061,28.963,-37.5,-1.447,0.007,0.0
-25.488,20.0,-49.939,-1.668,0.065,0.0
-50.671,11.585,-65.305,-1.872,0.109,0.0
-64.207,3.659,-79.085,-2.066,0.151,0.0
-65.183,-3.659,-87.622,-2.277,0.072,0.0
-64.146,-12.073,-97.317,-2.406,-0.025,0.0
-63.049,-22.744,-108.29,-2.49,-0.124,0.0
-59.817,-34.695,-120.18,-2.51,-0.193,0.0
-53.171,-47.988,-131.89,-2.403,-0.287,0.0
-45.793,-63.171,-144.63,-2.253,-0.268,0.0
-40.061,-79.085,-158.66,-2.088,-0.195,0.0
-37.683,-94.329,-172.56,-1.936,-0.333,0.0
-40.732,-108.54,-186.46,-1.77,-0.326,0.0
-50.061,-124.33,-201.46,-1.566,-0.249,0.0
-61.402,-140.91,-218.54,-1.381,-0.248,0.0
-73.841,-154.88,-234.88,-1.275,-0.276,0.0
-91.89,-168.05,-248.66,-1.116,-0.274,0.0
-110.92,-180.37,-265.92,-0.917,-0.252,0.0
-131.4,-191.04,-279.63,-0.785,-0.265,0.0
-146.83,-205.55,-292.32,-0.69,-0.196,0.0
-158.35,-219.88,-302.5,-0.51,-0.157,0.0
-169.27,-233.78,-307.68,-0.288,-0.101,0.0
-178.35,-248.11,-309.69,-0.197,-0.07,0.0
-183.96,-260.0,-310.43,-0.129,-0.037,0.0
-192.44,-269.08,-308.66,-0.079,-0.035,0.0
-201.16,-278.54,-306.89,0.032,-0.048,0.0
-201.71,-291.1,-303.23,0.141,-0.031,0.0
-202.56,-300.37,-298.42,0.232,0.028,0.0
-201.34,-305.31,-294.27,0.38,0.111,0.0
-197.99,-309.39,-289.88,0.493,0.163,0.0
-195.55,-316.65,-282.68,0.634,0.195,0.0
-195.49,-321.58,-274.76,0.813,0.224,0.0
-195.73,-322.56,-268.23,0.985,0.33,0.0
-195.85,-324.02,-260.55,1.144,0.339,0.0
-197.56,-326.83,-250.0,1.267,0.371,0.0
-199.51,-322.81,-238.78,1.402,0.472,0.0
-200.55,-313.05,-228.96,1.519,0.484,0.0
-200.0,-302.62,-217.74,1.587,0.536,0.0
-199.27,-294.51,-204.57,1.644,0.535,0.0
-197.87,-287.5,-190.18,1.704,0.535,0.0
-198.54,-279.39,-176.28,1.744,0.573,0.0
-201.59,-271.95,-162.01,1.806,0.631,0.0
-206.1,-264.88,-145.91,1.877,0.748,0.0
-212.81,-257.13,-130.61,1.923,0.871,0.0
-220.91,-250.49,-115.55,1.972,0.952,0.0
-226.1,-241.95,-100.12,2.042,1.038,0.0
-228.66,-230.37,-86.402,2.144,1.157,0.0
-227.01,-217.68,-73.659,2.233,1.293,0.0
-218.84,-207.44,-60.0,2.439,1.443,0.0
-211.65,-197.68,-45.427,2.645,1.598,0.0
-204.45,-187.01,-30.732,2.665,1.624,0.0
-197.44,-175.0,-17.134,2.723,1.658,0.0
-187.68,-163.48,-4.756,2.715,1.477,0.0
-176.59,-152.56,7.378,2.533,1.014,0.0
-165.49,-142.32,19.817,2.345,0.861,0.0
-155.0,-133.48,32.866,2.237,0.506,0.0
-143.54,-124.69,45.732,2.084,0.289,0.0
-130.91,-114.76,57.744,1.87,0.102,0.0
-121.28,-105.37,67.439,1.708,0.005,0.0
-114.21,-97.561,75.0,1.594,-0.148,0.0
-108.66,-89.878,81.037,1.429,-0.152,0.0
-105.55,-80.915,86.951,1.358,-0.137,0.0
-103.23,-75.305,94.207,1.273,-0.392,0.0
-101.58,-62.378,100.85,1.156,-0.528,0.0
-97.561,-40.061,101.22,1.064,-0.514,0.0
-95.549,-23.963,99.878,0.959,-0.515,0.0
-94.939,-8.476,94.695,0.944,-0.458,0.0
-84.329,10.671,90.793,0.885,-0.416,0.0
-64.207,22.866,92.073,0.887,-0.343,0.0
-38.476,29.878,96.768,0.924,-0.296,0.0
-5.854,38.293,102.44,0.936,-0.242,0.0
30.854,44.024,105.98,0.958,-0.214,0.0
67.012,45.549,106.89,0.926,-0.339,0.0
100.12,47.012,104.82,0.916,-0.213,0.0
130.43,46.585,101.95,0.923,-0.232,0.0
151.71,43.841,94.878,0.935,-0.264,0.0
164.69,41.22,85.488,0.956,-0.282,0.0
179.02,38.293,83.232,0.962,-0.327,0.0
191.83,33.659,82.927,0.966,-0.361,0.0
201.04,25.915,78.293,0.987,-0.393,0.0
203.96,15.61,74.329,1.006,-0.414,0.0
198.84,5.915,69.878,0.978,-0.417,0.0
188.29,-4.451,65.671,0.985,-0.43,0.0
172.13,-13.049,60.488,0.998,-0.396,0.0
151.77,-19.085,54.573,1.014,-0.345,0.0
127.56,-23.476,49.268,1.006,-0.309,0.0
104.69,-27.439,47.256,0.989,-0.273,0.0
82.5,-32.988,46.22,0.991,-0.237,0.0
59.39,-37.5,42.683,0.999,-0.186,0.0
38.232,-42.134,40.732,1.012,-0.152,0.0
19.878,-45.671,39.817,1.034,-0.139,0.0
5.732,-47.744,37.866,1.019,-0.122,0.0
-2.683,-48.841,35.671,1.017,-0.113,0.0
-5.732,-48.415,34.146,1.011,-0.118,0.0
-3.963,-46.037,33.049,1.0,-0.116,0.0
0.976,-43.72,31.159,0.984,-0.122,0.0
9.024,-41.768,29.634,0.972,-0.151,0.0
18.659,-38.659,28.415,0.956,-0.184,0.0
27.317,-34.451,26.341,0.947,-0.213,0.0
33.659,-30.244,23.049,0.933,-0.24,0.0
37.744,-26.951,19.634,0.92,-0.263,0.0
40.366,-24.024,16.28,0.902,-0.29,0.0
40.61,-21.22,12.988,0.887,-0.315,0.0
37.744,-18.72,10.366,0.879,-0.324,0.0
32.988,-16.159,7.561,0.87,-0.32,0.0
26.402,-13.232,4.146,0.862,-0.313,0.0
18.72,-10.793,1.22,0.844,-0.305,0.0
10.244,-8.537,-2.012,0.831,-0.285,0.0
1.646,-6.341,-5.488,0.806,-0.274,0.0
-6.159,-4.451,-7.622,0.781,-0.276,0.0
-12.561,-2.866,-9.39,0.765,-0.268,0.0
-17.439,-1.463,-10.976,0.748,-0.256,0.0
-20.122,0.488,-11.89,0.734,-0.25,0.0
-20.549,2.256,-12.439,0.729,-0.243,0.0
-18.415,4.268,-12.744,0.711,-0.244,0.0
-14.39,6.28,-13.11,0.703,-0.24,0.0
-8.293,8.171,-13.232,0.7,-0.238,0.0
-1.524,9.939,-13.049,0.7,-0.237,0.0
4.329,11.646,-12.683,0.704,-0.238,0.0
9.878,12.866,-12.378,0.714,-0.246,0.0
14.146,13.659,-12.683,0.726,-0.253,0.0
16.707,13.841,-12.866,0.733,-0.251,0.0
17.744,13.598,-12.805,0.745,-0.259,0.0
17.439,12.744,-13.049,0.75,-0.256,0.0
16.159,11.28,-13.415,0.755,-0.241,0.0
13.72,9.817,-13.841,0.759,-0.236,0.0
9.939,8.11,-14.39,0.765,-0.233,0.0
5.549,6.341,-15.061,0.77,-0.226,0.0
0.976,4.756,-15.915,0.796,-0.192,0.0
-2.927,3.049,-16.341,0.807,-0.165,0.0
-6.585,1.646,-16.402,0.797,-0.154,0.0
-9.634,0.122,-16.341,0.814,-0.146,0.0
-11.768,-1.524,-16.159,0.807,-0.154,0.0
-12.744,-2.805,-15.671,0.813,-0.148,0.0
-12.683,-3.963,-14.939,0.822,-0.136,0.0
-12.012,-4.695,-13.659,0.832,-0.124,0.0
-10.0,-5.305,-12.073,0.836,-0.121,0.0
-7.622,-5.549,-10.732,0.852,-0.114,0.0
-4.695,-5.488,-9.39,0.863,-0.113,0.0
-1.829,-5.244,-8.171,0.886,-0.101,0.0
1.768,-5.122,-6.951,0.907,-0.089,0.0
5.244,-4.512,-5.732,0.936,-0.091,0.0
7.683,-3.293,-4.207,0.988,-0.068,0.0
8.537,-1.159,-3.354,1.02,-0.065,0.0
8.78,0.793,-2.378,1.086,-0.037,0.0
8.293,2.561,-1.707,1.121,-0.027,0.0
7.5,4.268,-1.707,1.146,-0.022,0.0
6.585,5.671,-1.28,1.249,0.039,0.0
5.061,7.622,-1.159,1.32,0.075,0.0
3.11,9.695,-1.646,1.357,0.11,0.0
0.671,11.585,-2.317,1.455,0.18,0.0
-2.012,13.537,-2.988,1.53,0.262,0.0
-4.695,15.61,-3.841,1.58,0.333,0.0
-7.378,17.439,-4.634,1.64,0.425,0.0
-9.817,19.085,-5.183,1.727,0.516,0.0
-12.317,20.488,-5.671,1.796,0.621,0.0
-13.963,21.707,-6.159,1.924,0.718,0.0
-15.122,23.171,-6.341,2.239,0.811,0.0
-14.878,23.78,-5.488,2.439,0.915,0.0
-14.939,26.951,-5.671,2.471,0.982,0.0
-11.159,29.573,-6.585,2.643,1.043,0.0
-7.561,31.22,-7.073,2.613,1.133,0.0
-3.537,36.402,-8.171,2.772,1.168,0.0
3.415,41.098,-9.329,2.915,1.223,0.0
12.622,46.22,-10.671,3.0,1.201,0.0
22.622,54.573,-12.5,3.042,1.2,0.0
33.415,63.171,-13.72,3.247,1.154,0.0
46.585,69.817,-15.0,3.166,1.116,0.0
60.732,74.146,-15.244,3.153,1.051,0.0
75.122,75.61,-15.122,3.187,0.974,0.0
89.512,74.146,-16.89,3.205,0.883,0.0
102.93,75.183,-13.354,3.189,0.782,0.0
116.46,85.61,-12.195,3.146,0.678,0.0
129.09,95.183,-15.061,3.056,0.581,0.0
142.81,102.5,-15.244,2.922,0.479,0.0
158.17,108.17,-17.683,2.772,0.383,0.0
173.05,108.05,-19.512,2.587,0.316,0.0
190.49,109.94,-22.805,2.376,0.235,0.0
206.59,112.01,-27.561,2.183,0.194,0.0
221.65,112.56,-26.159,1.937,0.144,0.0
236.52,115.67,-26.768,1.616,0.059,0.0
251.04,120.49,-27.256,1.254,-0.062,0.0
263.84,120.0,-24.207,0.856,-0.149,0.0
275.0,120.79,-20.061,0.511,-0.148,0.0
285.92,122.74,-14.268,0.301,-0.017,0.0
296.04,126.04,-6.585,-0.09,0.183,0.0
305.49,130.79,3.537,-0.438,0.252,0.0
314.51,137.26,15.61,-0.933,0.467,0.0
321.4,145.49,30.0,-1.507,0.518,0.0
326.52,155.49,46.951,-2.49,0.565,0.0
329.45,165.91,66.037,-3.721,0.399,0.0
329.69,176.71,87.012,-4.678,-0.081,0.0
325.79,189.09,107.56,-5.304,-0.438,0.0
320.43,203.72,126.28,-5.69,-0.464,0.0
313.96,219.45,144.57,-5.914,-0.405,0.0
303.9,236.71,164.76,-5.94,-0.38,0.0
292.19,258.29,184.09,-5.612,-0.465,0.0
277.44,283.9,202.68,-5.114,-0.104,0.0
260.73,317.07,224.33,-4.663,0.16,0.0
239.15,360.98,237.01,-4.15,0.279,0.0
213.23,414.15,249.45,-3.832,0.017,0.0
184.45,469.39,267.93,-3.502,-0.269,0.0
152.99,519.63,287.26,-2.462,-0.186,0.0
129.33,557.93,303.84,-1.411,-0.044,0.034
101.71,570.98,307.19,-0.946,0.003,-0.557
76.768,557.87,312.44,0.001,0.314,0.0
76.28,529.82,325.31,0.485,0.521,0.0
99.573,499.76,331.46,0.643,0.328,0.069
131.77,471.65,335.55,1.421,1.156,0.862
163.29,440.06,338.96,1.718,1.312,1.567
206.89,399.76,325.06,0.885,0.775,0.0
250.55,355.55,309.08,-0.226,0.222,0.0
274.51,316.16,286.58,-0.576,0.131,0.0
267.62,264.08,275.55,-0.443,0.118,0.0
238.48,208.17,253.17,-0.208,0.376,0.0
199.09,135.18,214.51,0.011,1.079,0.0
151.83,31.037,190.55,0.092,1.175,0.0
97.5,-60.549,154.33,-0.035,0.79,0.0
70.854,-106.83,104.88,-0.177,0.686,0.0
56.037,-122.13,54.695,-0.198,0.764,0.0
26.402,-124.76,8.232,-0.19,0.808,0.0
-5.0,-137.13,-31.829,-0.234,0.765,0.0
-30.061,-146.89,-43.537,-0.315,0.732,0.0
-80.305,-104.88,-68.659,-0.377,0.741,0.0
-114.21,-27.744,-113.54,-0.401,0.785,0.0
-116.28,8.11,-136.28,-0.392,0.641,0.0
-107.74,2.256,-120.12,-0.361,0.417,0.0
-92.378,-5.183,-96.037,-0.344,0.24,0.0
-55.061,-2.073,-80.549,-0.376,0.147,0.0
-29.268,1.768,-52.561,-0.468,0.112,0.0
-35.488,10.793,-26.22,-0.582,0.115,0.0
-36.524,24.024,-12.988,-0.695,0.146,0.0
-20.488,26.341,5.305,-0.776,0.193,0.0
-3.963,19.756,23.841,-0.836,0.194,0.0
3.659,12.866,32.988,-0.907,0.266,0.0
1.951,8.72,32.134,-0.986,0.365,0.0
-3.354,5.183,25.366,-1.078,0.408,0.0
-9.085,-0.427,18.537,-1.207,0.41,0.0
-17.073,-7.256,8.902,-1.379,0.387,0.0
-27.622,-13.902,-8.841,-1.575,0.323,0.0
-34.573,-19.512,-28.171,-1.772,0.278,0.0
-34.451,-24.207,-43.78,-1.975,0.269,0.0
-28.902,-27.805,-57.5,-2.157,0.187,0.0
-20.427,-32.073,-70.0,-2.281,0.111,0.0
-10.915,-38.963,-81.646,-2.402,0.083,0.0
-1.341,-49.146,-92.195,-2.449,-0.042,0.0
5.915,-61.89,-103.66,-2.403,-0.211,0.0
9.024,-76.28,-116.65,-2.303,-0.305,0.0
7.012,-91.22,-129.57,-2.28,-0.294,0.0
-2.012,-107.13,-142.99,-2.115,-0.258,0.0
-17.866,-123.11,-157.32,-1.914,-0.46,0.0
-39.268,-138.29,-171.77,-1.728,-0.409,0.0
-65.061,-152.81,-185.98,-1.586,-0.296,0.0
-93.841,-167.44,-199.51,-1.458,-0.36,0.0
-125.06,-181.95,-212.93,-1.235,-0.379,0.0
-158.66,-195.73,-225.06,-1.001,-0.213,0.0
-192.56,-209.57,-236.22,-0.817,-0.209,0.0
-223.23,-224.69,-248.29,-0.625,-0.319,0.0
-251.71,-237.74,-261.77,-0.437,-0.396,0.0
-277.81,-250.06,-273.23,-0.276,-0.42,0.0
-298.29,-263.48,-279.27,-0.166,-0.265,0.0
-307.32,-276.71,-285.31,-0.077,-0.176,0.0
-312.87,-284.02,-291.71,0.046,-0.166,0.0
-320.0,-293.05,-296.04,0.16,-0.109,0.0
-325.61,-301.58,-298.42,0.262,0.0,0.0
-317.93,-308.6,-300.67,0.402,0.081,0.0
-313.72,-311.89,-300.79,0.556,0.043,0.0
-310.55,-317.07,-297.07,0.671,0.06,0.0
-301.1,-323.29,-290.61,0.79,0.106,0.0
-294.39,-326.22,-285.0,0.936,0.071,0.0
-299.21,-326.52,-282.19,1.069,0.069,0.0
-303.17,-325.24,-276.95,1.202,0.18,0.0
-298.84,-322.07,-266.28,1.358,0.314,0.0
-287.32,-315.79,-251.95,1.506,0.373,0.0
-277.99,-308.11,-238.05,1.597,0.415,0.0
-274.69,-301.52,-224.27,1.667,0.471,0.0
-270.18,-294.88,-208.41,1.781,0.513,0.0
-266.52,-286.89,-192.68,1.874,0.538,0.0
-265.0,-279.15,-178.66,1.953,0.605,0.0
-262.19,-270.85,-165.24,2.064,0.68,0.0
-257.62,-260.73,-152.26,2.197,0.787,0.0
-251.1,-249.69,-138.96,2.288,0.96,0.0
-242.13,-239.76,-124.21,2.387,1.147,0.0
-230.61,-229.45,-109.15,2.526,1.231,0.0
-215.67,-219.51,-96.098,2.678,1.365,0.0
-200.06,-211.65,-83.171,2.896,1.695,0.0
-185.31,-205.24,-71.28,3.048,2.1,0.0
-170.98,-197.62,-61.159,3.025,2.221,0.0
-158.35,-188.66,-52.012,2.896,2.16,0.0
-147.87,-180.43,-43.049,2.707,1.896,0.0
-139.02,-173.6,-32.256,2.516,1.417,0.0
-132.56,-166.46,-22.744,2.369,0.938,0.0
-128.48,-159.57,-13.537,2.209,0.686,0.0
-124.94,-153.78,-2.683,2.01,0.547,0.0
-122.81,-147.07,8.049,1.802,0.477,0.0
-122.19,-138.78,18.598,1.604,0.412,0.0
-124.69,-130.24,29.207,1.417,0.261,0.0
-125.61,-121.52,38.354,1.245,0.032,0.0
-123.6,-110.18,46.159,1.097,-0.11,0.0
-120.06,-97.622,55.122,1.001,-0.173,0.0
-121.65,-78.293,59.878,0.913,-0.274,0.0
-125.24,-48.598,56.707,0.762,-0.332,0.0
-123.29,-18.78,47.927,0.725,-0.415,0.0
-117.44,5.0,36.829,0.734,-0.43,0.0
-105.0,22.866,30.183,0.7,-0.418,0.0
-78.354,36.037,33.72,0.685,-0.469,0.0
-38.72,48.78,46.098,0.702,-0.587,0.0
6.524,60.793,59.085,0.701,-0.59,0.0
49.39,70.305,68.841,0.663,-0.484,0.0
85.427,76.341,73.963,0.654,-0.418,0.0
114.63,79.634,74.878,0.652,-0.458,0.0
139.21,80.305,73.78,0.658,-0.461,0.0
159.27,78.293,70.854,0.683,-0.445,0.0
171.83,74.451,66.402,0.726,-0.442,0.0
177.99,70.488,61.28,0.757,-0.458,0.0
178.17,63.841,55.427,0.784,-0.461,0.0
171.59,50.854,54.085,0.819,-0.455,0.0
165.79,43.232,53.415,0.855,-0.423,0.0
155.31,37.5,47.988,0.896,-0.379,0.0
140.73,31.951,41.159,0.917,-0.345,0.0
127.01,27.073,37.195,0.94,-0.296,0.0
114.94,22.683,34.756,0.973,-0.235,0.0
100.24,17.378,33.171,1.009,-0.175,0.0
81.22,10.854,31.22,1.03,-0.114,0.0
61.951,4.024,27.439,1.043,-0.099,0.0
45.061,-2.988,24.756,1.06,-0.072,0.0
30.793,-10.427,23.841,1.082,-0.016,0.0
18.902,-17.378,23.598,1.095,0.035,0.0
10.305,-23.841,23.232,1.091,0.034,0.0
5.854,-29.695,23.902,1.082,0.014,0.0
4.146,-35.427,25.122,1.08,0.066,0.0
5.061,-40.976,26.707,1.071,0.078,0.0
7.622,-45.244,27.988,1.056,0.071,0.0
10.854,-47.988,28.293,1.039,0.052,0.0
14.939,-49.817,28.293,1.033,-0.017,0.0
19.146,-50.671,27.866,1.021,-0.073,0.0
22.439,-49.939,26.646,1.014,-0.106,0.0
24.207,-47.988,24.573,0.996,-0.159,0.0
25.549,-45.488,22.134,0.981,-0.2,0.0
26.646,-42.195,20.061,0.977,-0.232,0.0
26.646,-38.232,18.232,0.957,-0.275,0.0
24.573,-32.927,14.695,0.936,-0.323,0.0
21.341,-26.829,10.915,0.927,-0.328,0.0
18.171,-20.793,8.354,0.917,-0.325,0.0
14.756,-15.061,5.793,0.9,-0.341,0.0
9.939,-9.024,2.744,0.893,-0.312,0.0
4.329,-3.293,-0.122,0.872,-0.315,0.0
-1.22,1.646,-2.744,0.849,-0.293,0.0
-5.915,6.037,-5.061,0.832,-0.27,0.0
-8.598,9.878,-6.28,0.813,-0.247,0.0
-10.122,13.049,-6.89,0.79,-0.215,0.0
-11.098,15.549,-7.561,0.777,-0.19,0.0
-10.549,17.073,-7.073,0.763,-0.165,0.0
-9.207,17.927,-5.976,0.745,-0.159,0.0
-7.195,18.293,-5.488,0.735,-0.155,0.0
-3.963,17.988,-4.878,0.743,-0.166,0.0
0.427,17.256,-3.963,0.741,-0.179,0.0
4.756,16.646,-3.598,0.739,-0.197,0.0
8.902,16.159,-3.171,0.743,-0.224,0.0
12.683,15.488,-2.561,0.753,-0.244,0.0
15.915,15.366,-2.378,0.759,-0.264,0.0
19.085,15.183,-1.829,0.757,-0.29,0.0
21.585,15.061,-1.22,0.755,-0.284,0.0
23.11,15.305,-0.671,0.771,-0.267,0.0
23.354,15.854,-0.244,0.771,-0.285,0.0
21.951,16.159,0.183,0.771,-0.289,0.0
19.207,16.341,0.427,0.781,-0.267,0.0
14.512,16.341,0.183,0.782,-0.261,0.0
9.329,15.427,0.061,0.783,-0.261,0.0
3.476,14.512,-0.183,0.788,-0.25,0.0
-2.561,14.024,-0.854,0.784,-0.23,0.0
-8.232,12.988,-0.976,0.787,-0.208,0.0
-13.659,11.402,-0.854,0.794,-0.185,0.0
-17.988,9.512,-0.732,0.798,-0.161,0.0
-21.22,8.049,-0.549,0.812,-0.152,0.0
-22.927,6.829,-0.366,0.824,-0.147,0.0
-22.988,5.305,0.122,0.831,-0.144,0.0
-22.012,4.451,0.366,0.834,-0.14,0.0
-20.61,4.39,-0.305,0.837,-0.142,0.0
-17.805,4.085,-0.305,0.848,-0.147,0.0
-14.268,4.085,-0.122,0.848,-0.161,0.0
-10.732,4.512,-0.183,0.852,-0.176,0.0
-6.951,4.939,-0.305,0.85,-0.209,0.0
-3.78,5.488,-0.305,0.842,-0.231,0.0
-1.22,5.854,-0.122,0.876,-0.188,0.0
0.488,6.28,-0.183,0.928,-0.18,0.0
1.28,6.768,-0.427,0.918,-0.19,0.0
0.793,6.951,-0.427,0.916,-0.21,0.0
-0.854,7.134,-0.488,0.912,-0.219,0.0
-3.11,7.134,-0.854,0.941,-0.195,0.0
-6.037,7.256,-1.22,0.969,-0.18,0.0
-8.963,7.683,-1.402,0.984,-0.152,0.0
-11.768,8.232,-1.707,1.028,-0.12,0.0
-14.085,8.78,-2.256,1.019,-0.127,0.0
-15.793,9.329,-2.988,1.119,-0.065,0.0
-16.829,9.939,-3.476,1.123,-0.032,0.0
-16.341,10.122,-4.024,1.185,0.026,0.0
-14.817,9.268,-4.024,1.296,0.081,0.0
-13.537,7.988,-3.049,1.301,0.117,0.0
-12.561,8.902,-3.232,1.363,0.175,0.0
-11.037,11.341,-4.268,1.439,0.268,0.0
-10.549,13.171,-4.939,1.485,0.333,0.0
-8.841,13.537,-5.183,1.539,0.403,0.0
-7.5,13.049,-5.244,1.625,0.482,0.0
-7.256,14.207,-5.671,1.705,0.55,0.0
-5.976,14.512,-7.012,1.771,0.639,0.0
-6.707,14.573,-7.134,1.864,0.734,0.0
-7.378,13.902,-6.829,1.962,0.835,0.0
-8.11,13.476,-6.89,2.216,0.948,0.0
-7.866,17.195,-10.0,2.416,1.059,0.0
-9.878,17.744,-12.195,2.5,1.117,0.0
-10.976,21.951,-13.537,2.714,1.139,0.0
-11.768,26.037,-16.89,2.919,1.157,0.0
-11.098,29.268,-18.476,2.908,1.239,0.0
-8.354,35.671,-21.89,3.011,1.236,0.0
-5.488,43.902,-25.793,3.228,1.203,0.0
0.061,51.951,-30.122,3.237,1.181,0.0
8.293,60.427,-34.207,3.281,1.083,0.0
17.927,68.841,-38.293,3.254,1.031,0.0
30.549,74.39,-41.098,3.142,0.967,0.0
47.5,75.427,-43.171,3.062,0.879,0.0
66.829,73.78,-43.537,3.008,0.788,0.0
85.671,72.805,-42.866,2.934,0.695,0.0
104.76,77.988,-45.793,2.833,0.601,0.0
121.22,83.11,-50.61,2.726,0.502,0.0
137.07,85.366,-52.805,2.568,0.41,0.0
154.69,90.671,-52.927,2.369,0.321,0.0
171.71,94.451,-53.537,2.211,0.25,0.0
183.78,90.976,-53.293,2.039,0.174,0.0
196.89,91.707,-48.537,1.9,0.119,0.0
207.62,94.878,-48.598,1.624,0.141,0.0
216.4,96.22,-45.305,1.303,0.16,0.0
226.16,98.72,-38.232,1.023,0.222,0.0
235.24,99.573,-30.61,0.636,0.353,0.0
243.78,98.537,-21.463,0.342,0.531,0.0
251.22,97.378,-11.22,-0.243,0.625,0.0
257.87,97.988,0.61,-1.031,0.648,0.0
265.0,100.37,14.756,-1.773,0.731,0.0
273.23,105.61,30.122,-2.533,0.727,0.0
282.32,114.94,46.098,-3.165,0.463,0.0
291.28,126.22,64.817,-3.583,0.273,0.0
295.85,140.06,85.915,-3.945,0.073,0.0
299.69,157.26,105.85,-4.416,-0.07,0.0
302.93,179.57,129.15,-4.94,-0.229,0.0
303.17,209.39,151.83,-5.33,-0.179,0.0
295.92,240.98,171.95,-5.584,-0.08,0.0
282.68,277.93,195.61,-5.744,-0.047,0.0
264.27,315.24,221.1,-5.74,0.012,0.0
238.35,357.01,250.98,-5.327,0.345,0.287
212.81,406.83,277.62,-4.75,0.274,0.0
186.4,447.93,301.34,-4.498,-0.45,1.445
156.4,472.56,326.34,-4.479,-0.604,2.421
123.42,489.88,339.45,-3.313,0.587,0.518
96.159,492.74,350.12,-1.874,0.164,-0.753
74.695,487.99,365.0,-1.083,-0.689,0.0
62.073,489.27,378.35,0.343,-0.168,-0.454
61.524,496.58,390.24,0.742,-0.585,-0.049
76.707,500.43,398.23,1.147,-1.387,0.375
102.87,494.15,403.05,2.116,-0.369,1.082
140.06,483.05,410.79,1.939,1.304,1.74
178.9,459.08,415.0,0.8,1.043,0.0
202.87,419.39,406.95,-0.382,-0.914,0.0
194.02,364.63,381.34,-0.968,-1.478,1.483
161.04,310.43,347.32,-0.855,-0.563,0.929
135.18,254.94,307.26,-0.203,0.604,0.0
105.12,160.0,264.88,0.217,0.903,0.0
27.805,5.915,211.28,0.108,0.663,0.0
-59.146,-106.4,127.5,-0.145,0.668,0.0
-88.78,-136.65,71.098,-0.261,0.806,0.0
-68.963,-167.5,17.5,-0.302,0.976,0.0
-84.756,-164.82,-25.976,-0.328,1.077,0.0
-83.11,-170.43,-43.598,-0.344,1.098,0.0
-41.037,-169.21,-42.134,-0.348,1.1,0.0
-31.768,-98.415,-80.427,-0.338,1.161,0.0
-82.012,-24.878,-133.17,-0.321,1.17,0.0
-88.659,9.878,-162.99,-0.293,1.046,0.0
-16.037,10.671,-147.56,-0.313,0.805,0.0
79.146,-8.354,-116.28,-0.312,0.535,0.0
130.43,-24.817,-92.744,-0.275,0.378,0.0
130.37,-13.415,-68.598,-0.267,0.285,0.0
128.54,16.22,-55.366,-0.318,0.209,0.0
135.18,35.61,-38.354,-0.416,0.168,0.0
137.68,38.659,-14.39,-0.525,0.157,0.0
130.98,35.732,0.854,-0.598,0.161,0.0
112.62,32.073,5.305,-0.633,0.16,0.0
86.098,27.744,3.049,-0.707,0.192,0.0
55.0,21.89,-2.805,-0.842,0.228,0.0
20.183,14.512,-9.024,-0.992,0.262,0.0
-18.963,7.073,-17.683,-1.136,0.305,0.0
-55.915,1.463,-29.573,-1.288,0.304,0.0
-80.366,-2.805,-41.585,-1.444,0.324,0.0
-93.659,-9.085,-51.707,-1.608,0.228,0.0
-98.049,-16.463,-59.329,-1.822,0.255,0.0
-94.634,-22.683,-64.39,-1.968,0.275,0.0
-84.268,-27.805,-69.573,-2.096,0.228,0.0
-69.207,-33.902,-75.122,-2.191,0.054,0.0
-51.646,-42.256,-81.768,-2.211,-0.035,0.0
-34.817,-53.598,-90.244,-2.239,-0.109,0.0
-20.488,-66.402,-99.512,-2.198,-0.277,0.0
-9.39,-78.72,-110.61,-2.074,-0.279,0.0
-2.927,-90.976,-123.78,-1.948,-0.286,0.0
-3.293,-105.67,-137.56,-1.75,-0.33,0.0
-10.183,-122.38,-151.46,-1.539,-0.313,0.0
-24.329,-138.11,-167.5,-1.442,-0.39,0.0
-46.341,-152.5,-181.95,-1.336,-0.401,0.0
-71.89,-166.71,-198.17,-1.151,-0.34,0.0
-96.646,-181.22,-212.93,-1.005,-0.417,0.0
-125.18,-195.37,-225.73,-0.901,-0.391,0.0
-153.29,-207.93,-240.18,-0.752,-0.339,0.0
-174.02,-221.52,-252.62,-0.604,-0.314,0.0
-186.22,-234.76,-260.73,-0.455,-0.281,0.0
-200.85,-244.76,-266.77,-0.367,-0.177,0.0
-211.77,-256.1,-270.18,-0.235,-0.129,0.0
-216.16,-267.99,-270.61,-0.087,-0.196,0.0
-220.43,-277.99,-270.12,0.039,-0.197,0.0
-223.11,-288.17,-266.95,0.157,-0.148,0.0
-223.23,-294.33,-263.84,0.321,-0.188,0.0
-221.59,-297.74,-260.61,0.422,-0.114,0.0
-215.0,-301.04,-255.24,0.533,-0.043,0.0
-208.78,-304.45,-249.27,0.698,0.0,0.0
-205.85,-305.85,-243.72,0.861,0.042,0.0
-202.56,-306.89,-239.94,1.01,0.061,0.0
-201.4,-307.74,-233.54,1.153,0.087,0.0
-204.88,-306.34,-225.91,1.294,0.117,0.0
-208.41,-302.07,-219.76,1.429,0.102,0.0
-212.44,-296.28,-213.66,1.514,0.142,0.0
-221.1,-291.52,-205.91,1.555,0.29,0.0
-228.05,-284.45,-197.87,1.588,0.38,0.0
-230.18,-274.82,-186.65,1.678,0.397,0.0
-228.41,-264.82,-172.74,1.811,0.393,0.0
-228.9,-254.51,-158.29,1.884,0.489,0.0
-231.77,-244.88,-145.67,1.897,0.638,0.0
-233.11,-237.56,-130.91,1.94,0.728,0.0
-234.82,-232.32,-114.94,2.064,0.783,0.0
-237.93,-225.79,-100.67,2.26,0.805,0.0
-237.19,-218.66,-87.256,2.4,0.876,0.0
-232.68,-210.12,-75.366,2.454,0.981,0.0
-226.4,-200.55,-65.122,2.492,1.106,0.0
-217.68,-188.78,-54.512,2.582,1.182,0.0
-205.43,-175.85,-43.841,2.728,1.243,0.0
-190.73,-163.23,-33.293,2.79,1.352,0.0
-177.07,-152.68,-22.256,2.701,1.376,0.0
-163.6,-145.24,-10.732,2.532,1.346,0.0
-149.21,-137.93,1.098,2.459,1.228,0.0
-135.0,-127.32,11.951,2.377,0.914,0.0
-123.17,-116.4,22.5,2.248,0.599,0.0
-114.76,-109.88,33.293,2.103,0.398,0.0
-108.23,-107.62,43.78,1.967,0.359,0.0
-100.73,-105.43,54.146,1.818,0.282,0.0
-94.512,-99.146,63.232,1.674,0.161,0.0
-90.671,-89.695,69.329,1.543,0.152,0.0
-89.573,-81.22,73.963,1.415,0.021,0.0
-91.341,-74.085,76.585,1.282,-0.134,0.0
-94.939,-64.756,77.805,1.222,-0.172,0.0
-99.024,-49.634,77.012,1.147,-0.265,0.0
-99.817,-28.659,73.476,1.08,-0.279,0.0
-96.402,-10.061,71.463,1.011,-0.316,0.0
-95.915,0.488,66.22,0.965,-0.287,0.0
-90.915,10.915,57.866,0.942,-0.299,0.0
-74.695,21.341,53.598,0.883,-0.338,0.0
-47.012,30.061,55.366,0.877,-0.345,0.0
-14.024,36.28,58.11,0.852,-0.369,0.0
18.293,39.817,58.354,0.832,-0.349,0.0
47.744,40.305,57.561,0.812,-0.375,0.0
74.756,39.085,55.61,0.775,-0.393,0.0
98.293,36.707,52.012,0.762,-0.38,0.0
120.85,32.012,50.793,0.753,-0.374,0.0
140.85,26.768,49.878,0.729,-0.4,0.0
157.07,22.439,47.927,0.71,-0.422,0.0
169.02,17.195,47.073,0.708,-0.44,0.0
174.76,12.134,44.695,0.727,-0.454,0.0
175.85,6.037,42.134,0.764,-0.456,0.0
170.43,0.793,39.573,0.797,-0.447,0.0
162.26,-3.963,36.707,0.835,-0.46,0.0
149.09,-8.171,33.902,0.862,-0.462,0.0
133.17,-10.427,30.61,0.911,-0.38,0.0
114.45,-11.463,27.561,0.945,-0.353,0.0
94.085,-11.098,23.841,0.967,-0.314,0.0
75.488,-10.122,21.22,0.997,-0.249,0.0
56.22,-8.598,18.72,1.023,-0.179,0.0
37.134,-6.768,15.61,1.056,-0.176,0.0
20.061,-5.427,12.256,1.073,-0.124,0.0
5.854,-4.695,8.902,1.093,-0.08,0.0
-3.902,-4.756,6.707,1.097,-0.049,0.0
-10.427,-6.098,5.183,1.103,-0.007,0.0
-14.817,-7.256,3.841,1.112,0.019,0.0
-16.28,-8.78,3.049,1.124,0.021,0.0
-15.183,-10.915,3.11,1.132,0.009,0.0
-12.134,-13.476,3.963,1.129,-0.004,0.0
-8.841,-16.22,5.854,1.111,-0.019,0.0
-6.28,-18.354,6.829,1.084,-0.019,0.0
-3.78,-20.793,8.049,1.054,-0.037,0.0
-1.829,-23.232,9.39,1.02,-0.075,0.0
-1.585,-25.488,9.634,0.982,-0.104,0.0
-2.561,-26.585,9.085,0.944,-0.124,0.0
-3.902,-27.012,8.659,0.909,-0.138,0.0
-5.915,-26.646,7.195,0.875,-0.159,0.0
-9.207,-25.305,5.0,0.839,-0.172,0.0
-13.354,-23.78,2.622,0.81,-0.176,0.0
-17.378,-21.951,0.244,0.781,-0.19,0.0
-20.61,-19.207,-2.5,0.766,-0.211,0.0
-23.11,-15.793,-5.244,0.75,-0.22,0.0
-24.329,-11.707,-8.232,0.745,-0.214,0.0
-23.659,-7.439,-10.976,0.736,-0.218,0.0
-22.195,-3.171,-13.11,0.72,-0.227,0.0
-19.756,0.61,-14.756,0.712,-0.224,0.0
-15.854,4.207,-16.524,0.699,-0.237,0.0
-10.427,7.683,-18.049,0.681,-0.244,0.0
-4.512,10.854,-19.207,0.678,-0.26,0.0
1.707,13.902,-20.061,0.673,-0.268,0.0
7.988,16.402,-20.793,0.657,-0.265,0.0
13.963,18.415,-21.341,0.644,-0.261,0.0
19.268,20.061,-21.646,0.634,-0.271,0.0
22.927,21.341,-21.768,0.629,-0.289,0.0
25.671,21.89,-22.317,0.638,-0.302,0.0
27.195,22.317,-22.378,0.655,-0.317,0.0
27.134,22.195,-21.585,0.67,-0.309,0.0
26.159,21.89,-20.854,0.69,-0.296,0.0
24.817,21.341,-19.817,0.713,-0.285,0.0
22.561,20.488,-18.659,0.724,-0.275,0.0
20.244,19.329,-17.073,0.743,-0.256,0.0
18.171,17.5,-15.122,0.766,-0.236,0.0
16.159,15.732,-13.11,0.785,-0.218,0.0
14.512,14.268,-10.915,0.81,-0.202,0.0
12.561,12.988,-8.78,0.83,-0.193,0.0
10.488,11.037,-6.22,0.853,-0.18,0.0
8.659,9.024,-4.085,0.866,-0.163,0.0
6.951,6.829,-2.256,0.882,-0.127,0.0
5.366,4.085,-0.488,0.89,-0.108,0.0
3.293,1.829,1.037,0.904,-0.095,0.0
1.159,0.244,2.622,0.914,-0.071,0.0
-1.037,-1.037,4.146,0.916,-0.042,0.0
-3.659,-1.951,5.122,0.927,-0.025,0.0
-6.159,-2.805,5.488,0.918,-0.018,0.0
-8.72,-3.232,5.549,0.93,-0.004,0.0
-11.159,-3.537,5.183,0.942,0.015,0.0
-12.744,-3.659,4.634,0.923,0.001,0.0
-13.476,-3.232,4.329,0.943,0.014,0.0
-13.232,-2.805,3.963,0.984,0.029,0.0
-12.561,-2.195,3.841,1.034,0.037,0.0
-10.915,-1.463,3.72,1.071,0.048,0.0
-8.659,-0.427,3.902,1.057,0.004,0.0
-5.671,0.854,4.024,1.081,0.071,0.0
-1.829,2.317,4.024,1.141,0.1,0.0
1.22,4.39,3.476,1.19,0.149,0.0
3.11,6.159,3.476,1.246,0.216,0.0
4.329,7.744,3.476,1.346,0.275,0.0
4.634,9.878,2.805,1.458,0.333,0.0
4.512,11.402,2.744,1.48,0.39,0.0
5.183,13.659,2.012,1.655,0.454,0.0
4.695,15.366,0.183,1.93,0.521,0.0
3.171,15.061,-1.646,2.136,0.59,0.0
1.829,15.305,-2.5,2.22,0.7,0.0
0.732,15.915,-2.988,2.349,0.757,0.0
-0.61,17.683,-3.415,2.513,0.813,0.0
-0.305,20.671,-5.0,2.557,0.888,0.0
-0.366,21.22,-5.671,2.652,0.928,0.0
-0.854,22.5,-6.098,2.767,0.972,0.0
1.341,26.341,-6.707,2.861,0.989,0.0
3.659,30.427,-8.232,2.938,1.006,0.0
6.89,34.756,-10.0,3.009,0.995,0.0
11.768,40.427,-11.951,3.009,0.96,0.0
17.866,43.293,-12.012,3.04,0.944,0.0
24.085,39.329,-7.744,3.11,0.899,0.0
30.793,37.317,-4.756,3.134,0.856,0.0
38.476,40.854,-5.61,3.112,0.813,0.0
45.244,45.305,-8.11,3.04,0.729,0.0
51.524,47.622,-8.11,2.95,0.669,0.0
61.098,51.28,-6.768,2.856,0.578,0.0
71.707,55.793,-7.5,2.707,0.489,0.0
83.537,57.439,-9.085,2.555,0.485,0.0
96.89,59.573,-10.854,2.411,0.513,0.0
113.84,62.683,-13.78,2.208,0.491,0.0
132.74,65.793,-17.378,1.995,0.475,0.0
150.0,69.268,-21.463,1.831,0.441,0.0
168.05,71.524,-25.427,1.632,0.384,0.0
188.35,71.951,-28.72,1.485,0.265,0.0
208.54,73.476,-31.463,1.204,0.166,0.0
228.72,78.902,-30.366,0.78,0.095,0.0
248.41,87.256,-29.085,0.357,0.139,0.0
267.81,98.049,-26.951,0.035,0.252,0.0
285.12,109.69,-21.951,-0.224,0.426,0.0
300.43,121.46,-14.695,-0.587,0.464,0.0
315.73,133.84,-3.293,-1.145,0.486,0.0
328.17,144.51,11.768,-1.728,0.508,0.0
334.63,155.73,28.598,-2.266,0.442,0.0
334.33,167.32,47.439,-2.767,0.132,0.0
327.62,179.39,68.11,-3.265,-0.286,0.0
317.87,192.07,87.744,-3.682,-0.271,0.0
308.96,206.1,103.78,-3.915,-0.191,0.0
299.45,226.1,122.32,-4.125,-0.241,0.0
287.81,253.78,140.43,-4.36,-0.222,0.0
273.05,282.56,156.83,-4.393,-0.174,0.0
253.23,309.21,177.38,-4.379,-0.249,0.0
224.27,334.39,200.06,-4.239,0.004,0.0
191.28,363.23,221.34,-4.109,0.062,0.0
158.84,396.77,237.5,-3.909,0.107,0.0
129.15,424.21,251.83,-3.631,-0.039,0.0
100.73,438.17,268.42,-3.388,-0.373,0.0
73.841,444.51,278.9,-3.11,-0.705,1.227
54.085,444.88,289.02,-2.794,-0.806,2.194
51.402,443.05,307.62,-2.394,0.014,1.492
63.293,437.62,331.65,-1.272,1.221,-0.179
75.793,426.34,343.72,-0.116,0.536,0.0
91.707,417.87,346.22,0.375,-0.056,-0.155
110.37,408.72,345.67,0.726,-0.092,0.0
127.62,390.37,348.9,1.293,0.359,0.64
154.09,372.19,350.0,1.439,0.316,1.172
174.39,344.27,353.66,0.712,-0.045,0.0
181.1,315.67,348.9,-0.272,-0.703,0.0
173.54,282.99,334.69,-0.764,-0.831,0.0
158.41,249.63,317.68,-0.709,-0.457,0.0
150.24,215.98,293.23,-0.383,0.053,0.0
152.19,169.82,260.67,-0.102,0.295,0.0
157.62,100.79,218.96,-0.129,0.302,0.0
113.48,17.683,173.17,-0.289,0.449,0.0
31.463,-62.683,119.63,-0.402,0.524,0.0
-32.561,-95.183,67.622,-0.5,0.649,0.0
-75.122,-92.5,34.268,-0.601,0.803,0.0
-97.866,-105.61,-4.817,-0.677,0.89,0.0
-126.83,-108.72,-44.329,-0.705,0.905,0.0
-155.91,-72.256,-75.183,-0.688,0.898,0.0
-161.71,-17.012,-109.02,-0.649,0.849,0.0
-140.98,13.293,-131.16,-0.635,0.743,0.0
-93.841,9.39,-129.88,-0.672,0.54,0.0
-42.378,-9.512,-112.32,-0.791,0.323,0.0
-4.085,-20.183,-91.098,-0.943,0.215,0.0
19.085,-15.0,-78.476,-1.066,0.17,0.0
42.012,1.159,-68.598,-1.166,0.092,0.0
62.622,12.439,-57.012,-1.264,0.043,0.0
74.573,15.549,-47.622,-1.371,-0.031,0.0
77.195,15.671,-42.195,-1.507,-0.078,0.0
68.78,14.024,-42.866,-1.695,-0.103,0.0
50.122,9.695,-50.061,-1.897,-0.157,0.0
23.78,2.5,-62.012,-2.087,-0.223,0.0
-7.927,-6.89,-77.683,-2.196,-0.287,0.0
-42.683,-18.11,-93.72,-2.274,-0.328,0.0
-76.463,-28.354,-111.04,-2.346,-0.341,0.0
-100.24,-37.988,-126.4,-2.276,-0.424,0.0
-111.52,-48.11,-138.11,-2.176,-0.477,0.0
-120.24,-60.976,-151.71,-2.035,-0.498,0.0
-126.04,-77.744,-165.67,-1.901,-0.421,0.0
-129.57,-95.854,-180.0,-1.792,-0.3,0.0
-133.05,-113.78,-196.83,-1.663,-0.271,0.0
-135.73,-131.95,-214.33,-1.5,-0.267,0.0
-137.5,-148.29,-231.71,-1.337,-0.253,0.0
-139.33,-162.74,-248.54,-1.165,-0.268,0.0
-142.32,-175.73,-265.0,-1.042,-0.131,0.0
-146.71,-188.9,-276.22,-0.942,-0.153,0.0
-150.43,-203.48,-284.88,-0.759,-0.253,0.0
-154.27,-216.22,-293.35,-0.593,-0.136,0.0
-161.16,-225.91,-299.76,-0.492,-0.064,0.0
-168.48,-236.16,-304.15,-0.367,-0.034,0.0
-171.83,-246.65,-304.94,-0.168,-0.081,0.0
-171.46,-256.89,-303.9,-0.033,-0.054,0.0
-170.61,-264.45,-302.62,0.061,-0.016,0.0
-173.05,-269.39,-301.04,0.198,-0.051,0.0
-177.13,-275.12,-297.93,0.339,-0.049,0.0
-180.0,-281.77,-291.95,0.466,0.008,0.0
-179.09,-287.81,-284.33,0.573,0.054,0.0
-172.81,-291.34,-277.13,0.708,0.077,0.0
-171.28,-292.87,-268.11,0.841,0.119,0.0
-178.23,-296.1,-259.33,0.937,0.199,0.0
-180.67,-299.02,-251.22,1.043,0.292,0.0
-179.27,-298.66,-241.77,1.191,0.295,0.0
-182.99,-296.71,-231.04,1.332,0.291,0.0
-191.46,-296.22,-219.88,1.478,0.305,0.0
-199.27,-293.72,-207.38,1.6,0.351,0.0
-204.02,-286.83,-194.69,1.663,0.465,0.0
-209.09,-279.63,-181.89,1.735,0.531,0.0
-214.94,-272.87,-167.26,1.811,0.527,0.0
-218.48,-264.15,-150.79,1.913,0.525,0.0
-220.91,-253.35,-134.09,2.041,0.513,0.0
-222.99,-241.95,-116.95,2.147,0.524,0.0
-227.93,-231.83,-101.22,2.215,0.61,0.0
-231.34,-220.91,-88.354,2.219,0.703,0.0
-229.88,-209.39,-76.951,2.295,0.827,0.0
-224.33,-200.06,-64.573,2.459,0.92,0.0
-216.89,-192.81,-52.134,2.663,0.985,0.0
-206.28,-186.04,-42.134,2.858,1.236,0.0
-192.99,-179.15,-33.963,2.882,1.551,0.0
-178.05,-170.91,-22.744,2.778,1.634,0.0
-164.45,-161.83,-10.366,2.648,1.541,0.0
-154.57,-153.66,0.061,2.528,1.264,0.0
-147.87,-146.59,10.061,2.404,0.875,0.0
-143.17,-140.55,20.183,2.233,0.575,0.0
-138.54,-133.35,30.915,2.024,0.396,0.0
-135.85,-124.02,42.012,1.83,0.324,0.0
-134.88,-112.56,51.585,1.686,0.238,0.0
-133.29,-100.37,58.72,1.547,0.105,0.0
-129.45,-91.463,67.5,1.409,0.021,0.0
-125.55,-84.207,76.159,1.318,-0.042,0.0
-122.56,-75.305,81.341,1.197,-0.181,0.0
-118.78,-61.89,84.329,1.079,-0.307,0.0
-117.74,-39.024,81.28,0.99,-0.45,0.0
-116.83,-13.78,72.195,0.941,-0.463,0.0
-112.99,6.585,63.598,0.893,-0.44,0.0
-104.15,23.049,56.28,0.827,-0.426,0.0
-86.951,36.89,51.707,0.782,-0.424,0.0
-59.085,49.024,53.659,0.825,-0.439,0.0
-24.024,58.415,59.573,0.839,-0.414,0.0
11.585,63.11,66.22,0.828,-0.389,0.0
43.78,64.085,71.037,0.829,-0.354,0.0
72.195,63.537,72.683,0.834,-0.362,0.0
97.073,61.768,71.524,0.841,-0.295,0.0
117.07,59.024,68.476,0.863,-0.278,0.0
132.68,56.585,64.512,0.873,-0.335,0.0
143.72,52.378,59.451,0.879,-0.297,0.0
154.09,46.768,55.122,0.898,-0.303,0.0
161.89,39.939,52.256,0.904,-0.314,0.0
166.83,32.866,51.098,0.942,-0.281,0.0
167.01,25.854,47.988,0.983,-0.261,0.0
162.62,16.037,43.537,0.985,-0.263,0.0
153.72,6.524,39.634,0.98,-0.264,0.0
143.54,-0.671,35.854,1.013,-0.234,0.0
130.73,-7.744,32.195,1.042,-0.218,0.0
116.4,-15.427,30.0,1.063,-0.218,0.0
101.4,-22.744,27.561,1.092,-0.203,0.0
85.427,-29.39,24.634,1.123,-0.165,0.0
67.927,-35.976,22.073,1.147,-0.093,0.0
52.256,-41.646,20.854,1.151,-0.043,0.0
39.939,-47.317,20.793,1.138,-0.048,0.0
29.573,-52.195,20.793,1.115,-0.056,0.0
22.378,-57.195,21.28,1.131,-0.051,0.0
17.561,-61.585,22.439,1.128,-0.034,0.0
14.207,-63.598,22.5,1.097,-0.046,0.0
12.622,-63.476,21.768,1.09,-0.091,0.0
12.866,-63.72,21.159,1.047,-0.125,0.0
14.573,-63.537,20.61,1.026,-0.108,0.0
17.256,-61.341,19.268,1.004,-0.142,0.0
21.22,-57.988,17.317,0.973,-0.149,0.0
26.28,-53.659,15.61,0.931,-0.166,0.0
30.427,-48.171,14.085,0.927,-0.179,0.0
32.195,-41.829,12.134,0.918,-0.188,0.0
31.28,-35.427,9.512,0.911,-0.202,0.0
29.024,-29.878,6.463,0.902,-0.212,0.0
26.402,-25.427,3.11,0.89,-0.218,0.0
22.744,-21.098,0.061,0.876,-0.225,0.0
17.744,-15.976,-2.744,0.868,-0.232,0.0
12.744,-11.402,-5.488,0.858,-0.257,0.0
7.683,-7.378,-7.866,0.838,-0.256,0.0
4.207,-3.415,-9.756,0.828,-0.213,0.0
1.22,-0.305,-11.159,0.806,-0.215,0.0
-1.585,2.622,-12.927,0.781,-0.24,0.0
-3.049,5.122,-14.207,0.76,-0.251,0.0
-3.537,6.829,-15.366,0.744,-0.252,0.0
-3.354,7.805,-15.671,0.726,-0.251,0.0
-2.561,9.146,-16.22,0.705,-0.25,0.0
-1.22,10.671,-16.524,0.695,-0.249,0.0
0.488,12.195,-16.402,0.694,-0.25,0.0
2.439,13.841,-15.793,0.69,-0.257,0.0
4.39,15.61,-15.122,0.692,-0.255,0.0
6.22,17.073,-14.451,0.697,-0.254,0.0
8.415,18.78,-13.659,0.706,-0.26,0.0
10.732,20.305,-12.683,0.707,-0.255,0.0
10.854,21.585,-12.012,0.703,-0.272,0.0
9.39,22.378,-12.012,0.703,-0.293,0.0
7.195,22.439,-12.012,0.707,-0.276,0.0
5.061,22.195,-12.378,0.713,-0.272,0.0
2.561,21.646,-12.683,0.718,-0.25,0.0
-0.793,20.671,-13.11,0.709,-0.235,0.0
-4.39,19.634,-13.476,0.717,-0.222,0.0
-8.232,18.537,-13.72,0.707,-0.227,0.0
-12.378,17.256,-14.146,0.7,-0.226,0.0
-16.28,15.976,-15.0,0.706,-0.222,0.0
-19.878,14.817,-15.122,0.715,-0.215,0.0
-22.683,13.963,-14.817,0.727,-0.205,0.0
-24.939,13.11,-14.207,0.743,-0.2,0.0
-26.524,12.439,-13.293,0.759,-0.196,0.0
-26.89,11.951,-12.073,0.773,-0.188,0.0
-25.549,11.707,-10.61,0.787,-0.178,0.0
-23.232,11.646,-8.841,0.794,-0.169,0.0
-20.793,11.707,-7.256,0.808,-0.159,0.0
-18.476,12.073,-6.159,0.822,-0.165,0.0
-16.463,12.927,-5.244,0.824,-0.183,0.0
-14.085,13.78,-4.329,0.823,-0.201,0.0
-11.951,13.78,-3.902,0.793,-0.232,0.0
-9.939,13.293,-3.171,0.845,-0.19,0.0
-7.927,12.866,-2.744,0.87,-0.186,0.0
-6.037,12.744,-2.256,0.865,-0.248,0.0
-4.695,12.317,-1.463,0.852,-0.196,0.0
-4.085,11.707,-0.549,0.837,-0.221,0.0
-3.841,11.341,0.427,0.838,-0.237,0.0
-4.085,10.976,1.159,0.894,-0.229,0.0
-4.939,10.793,2.073,0.899,-0.249,0.0
-6.28,10.854,2.988,0.893,-0.252,0.0
-7.561,11.098,3.78,0.948,-0.227,0.0
-8.659,11.768,4.39,1.005,-0.199,0.0
-8.963,12.805,4.817,1.021,-0.18,0.0
-8.232,13.963,5.366,1.036,-0.169,0.0
-6.524,14.085,6.098,1.078,-0.132,0.0
-4.573,13.049,7.927,1.135,-0.095,0.0
-6.341,14.39,8.049,1.171,-0.032,0.0
-4.329,17.256,8.537,1.17,-0.023,0.0
-0.122,20.244,8.963,1.202,0.04,0.0
1.951,21.159,9.878,1.364,0.171,0.0
5.183,20.915,10.427,1.433,0.219,0.0
6.341,20.732,10.732,1.469,0.261,0.0
6.341,22.073,9.756,1.51,0.314,0.0
6.341,21.341,9.573,1.618,0.372,0.0
5.305,19.329,10.0,1.816,0.504,0.0
2.927,19.024,9.817,1.952,0.589,0.0
0.122,19.756,8.598,2.129,0.71,0.0
-2.5,19.634,7.256,2.28,0.829,0.0
-4.695,19.695,6.159,2.456,0.865,0.0
-6.707,20.732,4.939,2.506,0.964,0.0
-10.122,24.024,1.768,2.631,1.073,0.0
-11.524,27.744,-3.659,2.793,1.179,0.0
-11.037,29.024,-8.049,2.917,1.244,0.0
-10.854,33.659,-10.61,2.952,1.281,0.0
-9.451,43.598,-16.402,3.05,1.266,0.0
-4.573,52.378,-21.402,3.183,1.195,0.0
4.451,58.171,-23.293,3.214,1.125,0.0
15.854,59.451,-24.39,3.242,1.01,0.0
28.049,62.195,-24.329,3.146,0.938,0.0
42.195,65.732,-25.549,3.073,0.896,0.0
58.293,68.293,-26.646,3.013,0.791,0.0
73.293,72.134,-28.902,2.923,0.676,0.0
89.756,77.317,-31.768,2.787,0.559,0.0
108.23,82.561,-33.171,2.622,0.458,0.0
124.39,83.598,-33.232,2.455,0.379,0.0
141.77,85.549,-32.622,2.291,0.28,0.0
160.91,88.659,-34.024,2.115,0.215,0.0
180.49,91.585,-35.732,1.854,0.175,0.0
198.78,90.61,-35.305,1.554,0.102,0.0
214.69,92.622,-32.683,1.341,0.091,0.0
230.49,97.5,-30.549,1.119,0.17,0.0
245.73,102.81,-26.768,0.786,0.133,0.0
261.71,109.39,-18.354,0.35,0.091,0.0
273.78,112.68,-7.561,-0.181,0.04,0.0
282.81,116.89,1.22,-0.73,0.145,0.0
291.04,123.29,10.427,-1.072,0.396,0.0
297.56,132.44,21.28,-1.416,0.553,0.0
302.62,142.74,35.305,-1.874,0.391,0.0
306.89,153.9,50.793,-2.376,0.198,0.0
310.24,167.01,66.28,-2.82,0.054,0.0
311.22,184.94,82.866,-3.108,-0.031,0.0
305.92,204.94,99.329,-3.409,-0.157,0.0
296.89,223.96,117.5,-3.84,-0.209,0.0
284.76,244.09,137.81,-4.201,-0.251,0.0
267.5,270.49,157.32,-4.342,-0.263,0.0
249.21,299.69,179.09,-4.344,-0.055,0.0
232.38,328.72,202.68,-4.461,-0.083,0.0
214.39,353.6,223.96,-4.516,-0.059,0.0
194.02,372.32,247.99,-4.193,0.118,0.0
167.74,385.55,273.84,-3.793,0.033,0.0
139.09,397.62,293.48,-3.58,-0.28,0.0
112.68,409.57,302.44,-3.368,-0.624,1.001
89.512,415.61,312.56,-3.002,-1.097,1.791
75.671,416.46,325.18,-2.571,-0.941,0.0
68.598,410.49,344.69,-1.886,0.393,0.335
69.573,407.93,355.49,-0.721,1.342,-0.568
75.976,408.6,360.67,0.251,0.871,0.0
85.122,401.65,365.92,0.883,0.353,0.295
101.83,387.01,369.63,1.271,0.167,0.0
117.32,367.99,373.78,1.117,-0.368,0.0
129.21,349.45,371.1,0.418,-0.893,0.0
138.11,321.1,361.71,-0.205,-0.912,0.0
131.83,278.23,349.15,-0.511,-0.482,0.0
111.89,240.0,331.65,-0.493,-0.229,0.0
99.878,208.29,308.23,-0.32,-0.222,0.0
98.659,166.46,275.67,-0.265,-0.03,0.0
105.67,104.88,236.65,-0.285,0.155,0.0
97.561,29.085,183.11,-0.284,0.292,0.0
39.268,-49.268,139.02,-0.274,0.456,0.0
-36.463,-108.96,102.13,-0.333,0.663,0.0
-103.11,-120.92,56.646,-0.403,0.811,0.0
-159.63,-123.05,9.573,-0.42,0.888,0.0
-200.91,-111.4,-45.915,-0.402,0.906,0.0
-204.21,-70.671,-97.927,-0.368,0.906,0.0
-166.22,-27.744,-119.27,-0.303,0.87,0.0
-111.04,-6.037,-128.6,-0.266,0.762,0.0
-61.829,-5.671,-122.74,-0.3,0.565,0.0
-26.037,-11.037,-111.58,-0.372,0.383,0.0
17.317,-11.341,-96.951,-0.439,0.258,0.0
65.366,-4.39,-79.573,-0.47,0.186,0.0
103.84,2.195,-61.89,-0.482,0.13,0.0
130.85,5.183,-45.549,-0.499,0.092,0.0
146.77,6.28,-28.902,-0.529,0.079,0.0
148.66,8.354,-17.317,-0.581,0.092,0.0
135.98,8.902,-13.841,-0.661,0.087,0.0
111.28,5.732,-14.695,-0.745,0.102,0.0
78.537,1.463,-18.902,-0.814,0.129,0.0
40.61,-2.683,-24.939,-0.854,0.132,0.0
0.427,-6.646,-33.11,-0.917,0.105,0.0
-37.378,-8.963,-42.073,-1.025,0.102,0.0
-68.11,-9.512,-51.89,-1.163,0.146,0.0
-87.988,-10.488,-60.854,-1.292,0.132,0.0
-97.744,-13.232,-68.841,-1.386,0.063,0.0
-99.39,-18.293,-76.707,-1.451,0.063,0.0
-94.39,-24.085,-84.695,-1.534,0.049,0.0
-84.573,-30.244,-93.232,-1.621,0.027,0.0
-72.927,-37.744,-102.13,-1.698,0.036,0.0
-61.341,-45.366,-111.34,-1.729,-0.024,0.0
-49.573,-52.927,-121.34,-1.753,-0.155,0.0
-37.927,-61.585,-131.77,-1.719,-0.203,0.0
-28.659,-72.439,-141.89,-1.646,-0.297,0.0
-23.78,-84.695,-152.38,-1.565,-0.274,0.0
-22.134,-96.28,-163.48,-1.496,-0.22,0.0
-23.354,-107.07,-175.49,-1.424,-0.257,0.0
-26.524,-118.35,-187.56,-1.316,-0.283,0.0
-32.805,-130.31,-200.12,-1.193,-0.195,0.0
-41.22,-144.02,-212.87,-1.087,-0.235,0.0
-50.976,-158.23,-224.57,-0.979,-0.149,0.0
-61.89,-170.91,-238.23,-0.83,-0.172,0.0
-71.402,-182.93,-249.27,-0.709,-0.208,0.0
-80.244,-194.82,-257.74,-0.593,-0.181,0.0
-89.634,-207.32,-263.9,-0.445,-0.114,0.0
-96.646,-218.66,-264.76,-0.349,-0.104,0.0
-101.58,-231.28,-265.06,-0.234,-0.139,0.0
-104.51,-243.05,-264.45,-0.091,-0.251,0.0
-105.12,-254.21,-261.83,0.089,-0.36,0.0
-109.51,-262.19,-257.5,0.159,-0.329,0.0
-117.68,-270.18,-250.91,0.16,-0.299,0.0
-121.28,-281.04,-244.33,0.218,-0.269,0.0
-126.1,-290.61,-236.65,0.339,-0.181,0.0
-132.07,-297.87,-228.78,0.451,-0.083,0.0
-140.67,-304.02,-220.85,0.457,-0.113,0.0
-149.51,-308.9,-214.21,0.52,-0.102,0.0
-154.57,-310.18,-206.52,0.603,-0.086,0.0
-158.05,-310.85,-199.39,0.646,-0.025,0.0
-165.49,-310.24,-192.19,0.715,0.066,0.0
-177.44,-307.81,-186.4,0.832,0.144,0.0
-191.34,-304.94,-180.55,0.883,0.17,0.0
-206.22,-300.92,-176.1,0.953,0.258,0.0
-216.28,-293.72,-173.11,1.068,0.431,0.0
-219.63,-282.07,-169.88,1.164,0.446,0.0
-218.54,-272.99,-164.88,1.241,0.588,0.0
-214.27,-267.81,-157.74,1.331,0.733,0.0
-208.29,-263.11,-149.21,1.4,0.733,0.0
-203.66,-254.63,-140.43,1.497,0.798,0.0
-198.9,-246.46,-132.26,1.61,0.836,0.0
-194.02,-241.65,-121.58,1.745,0.816,0.0
-189.02,-236.46,-110.0,1.928,0.787,0.0
-184.15,-230.49,-97.5,2.139,0.799,0.0
-181.04,-225.12,-84.39,2.327,0.93,0.0
-180.18,-219.09,-70.732,2.459,1.135,0.0
-178.48,-211.04,-57.866,2.523,1.299,0.0
-172.38,-204.45,-44.39,2.624,1.422,0.0
-165.55,-198.17,-31.341,2.72,1.523,0.0
-159.82,-192.01,-22.5,2.751,1.706,0.0
-155.06,-186.4,-11.829,2.776,1.675,0.0
-155.37,-180.06,1.707,2.711,1.476,0.0
-156.95,-172.81,10.61,2.566,1.162,0.0
-157.74,-166.65,20.488,2.421,0.756,0.0
-159.51,-161.16,30.427,2.273,0.442,0.0
-162.07,-157.5,40.305,2.118,0.247,0.0
-162.62,-154.76,51.829,1.959,0.114,0.0
-159.63,-150.37,63.963,1.813,0.042,0.0
-154.45,-142.38,76.829,1.667,-0.112,0.0
-146.04,-130.91,88.354,1.533,-0.197,0.0
-138.96,-116.77,93.78,1.424,-0.222,0.0
-134.51,-105.06,95.366,1.302,-0.286,0.0
-128.72,-89.878,93.841,1.173,-0.449,0.0
-124.57,-68.598,88.78,1.048,-0.583,0.0
-125.0,-49.207,78.049,0.975,-0.437,0.0
-120.85,-27.805,66.341,0.877,-0.421,0.0
-108.96,-7.195,57.134,0.828,-0.505,0.0
-86.89,8.476,52.5,0.782,-0.416,0.0
-55.0,21.402,53.354,0.735,-0.357,0.0
-17.622,31.768,56.829,0.751,-0.387,0.0
22.012,39.695,60.0,0.734,-0.313,0.0
60.183,45.427,60.732,0.738,-0.296,0.0
95.061,49.329,58.902,0.711,-0.313,0.0
125.49,50.549,56.22,0.685,-0.288,0.0
150.73,51.28,52.561,0.698,-0.207,0.0
168.11,51.341,46.28,0.673,-0.325,0.0
174.94,48.902,45.671,0.667,-0.272,0.0
186.83,44.207,49.146,0.696,-0.264,0.0
197.87,37.256,47.256,0.71,-0.298,0.0
194.33,31.646,42.988,0.742,-0.313,0.0
189.76,25.732,38.293,0.79,-0.336,0.0
183.54,19.817,35.0,0.833,-0.343,0.0
169.57,14.329,28.78,0.877,-0.341,0.0
151.46,10.061,24.512,0.914,-0.331,0.0
132.19,7.317,21.89,0.943,-0.317,0.0
109.76,5.488,18.049,0.966,-0.281,0.0
87.683,5.0,15.0,0.989,-0.239,0.0
67.439,4.39,13.476,1.0,-0.198,0.0
47.012,3.537,12.805,1.013,-0.151,0.0
27.927,2.439,12.317,1.029,-0.093,0.0
13.78,-0.61,13.293,1.036,-0.05,0.0
2.012,-3.171,14.573,1.032,-0.007,0.0
-5.854,-5.671,14.817,1.024,0.049,0.0
-10.427,-8.841,16.037,1.022,0.064,0.0
-11.402,-11.585,16.951,1.021,0.098,0.0
-10.366,-14.024,17.439,1.038,0.014,0.0
-7.256,-16.28,18.841,1.014,0.031,0.0
-1.646,-17.744,20.183,0.998,0.044,0.0
5.122,-18.598,21.098,1.0,0.013,0.0
11.829,-18.963,21.524,0.993,-0.015,0.0
17.988,-18.841,21.829,0.993,-0.054,0.0
23.537,-18.415,21.341,0.987,-0.101,0.0
28.354,-17.561,20.305,0.975,-0.136,0.0
31.098,-16.402,19.329,0.964,-0.161,0.0
32.195,-14.451,17.622,0.953,-0.186,0.0
32.073,-11.829,15.427,0.939,-0.243,0.0
29.573,-9.39,13.232,0.929,-0.242,0.0
25.671,-6.951,10.549,0.912,-0.271,0.0
21.098,-4.268,8.171,0.892,-0.288,0.0
15.793,-0.671,5.122,0.876,-0.265,0.0
12.927,3.354,2.866,0.859,-0.254,0.0
9.817,6.341,1.341,0.833,-0.271,0.0
5.976,9.085,0.122,0.813,-0.262,0.0
2.561,11.585,-0.854,0.797,-0.241,0.0
-0.427,13.537,-1.22,0.785,-0.217,0.0
-2.805,14.939,-1.463,0.768,-0.199,0.0
-4.024,15.976,-1.28,0.753,-0.189,0.0
-4.39,16.341,-0.976,0.747,-0.177,0.0
-4.329,16.768,-0.732,0.748,-0.169,0.0
-2.744,16.829,-0.671,0.752,-0.161,0.0
0.793,16.89,0.0,0.758,-0.157,0.0
4.451,17.012,0.427,0.766,-0.152,0.0
7.927,17.256,0.976,0.773,-0.145,0.0
11.89,17.134,1.585,0.781,-0.146,0.0
15.122,17.5,1.159,0.792,-0.143,0.0
17.744,17.988,0.854,0.804,-0.147,0.0
20.061,18.11,0.854,0.817,-0.153,0.0
21.89,18.293,0.915,0.828,-0.158,0.0
22.866,18.232,1.22,0.832,-0.168,0.0
22.073,17.866,1.341,0.826,-0.178,0.0
20.305,17.256,1.22,0.826,-0.177,0.0
17.439,16.341,1.098,0.836,-0.14,0.0
13.78,15.488,0.915,0.847,-0.144,0.0
9.024,14.39,1.098,0.848,-0.138,0.0
4.085,12.927,1.402,0.823,-0.164,0.0
-0.854,11.768,1.951,0.846,-0.104,0.0
-6.037,10.488,2.683,0.835,-0.115,0.0
-10.549,9.512,3.354,0.859,-0.089,0.0
-13.841,8.841,3.841,0.89,-0.079,0.0
-15.976,8.598,4.451,0.926,-0.064,0.0
-16.829,8.78,5.0,0.937,-0.067,0.0
-16.524,9.329,5.488,0.998,-0.041,0.0
-14.268,10.488,6.22,1.049,0.0,0.0
-10.488,12.012,7.439,1.092,0.005,0.0
-6.28,13.415,8.293,1.177,0.066,0.0
-3.415,14.939,8.841,1.234,0.095,0.0
-1.098,17.195,9.146,1.295,0.129,0.0
1.098,19.329,9.451,1.376,0.163,0.0
3.354,20.854,9.695,1.466,0.22,0.0
5.732,21.707,9.817,1.549,0.25,0.0
6.159,22.927,9.085,1.614,0.303,0.0
5.793,22.988,7.927,1.658,0.38,0.0
3.598,22.744,7.256,1.744,0.451,0.0
0.549,22.744,6.585,1.917,0.532,0.0
-3.049,22.378,5.732,2.079,0.599,0.0
-6.341,21.707,4.756,2.242,0.684,0.0
-8.841,22.561,3.659,2.311,0.763,0.0
-12.439,23.78,2.866,2.363,0.838,0.0
-13.963,25.549,0.854,2.521,0.882,0.0
-15.122,29.329,-0.793,2.594,0.954,0.0
-13.598,33.232,-3.902,2.64,0.989,0.0
-9.756,38.841,-8.11,2.698,1.003,0.0
-4.756,46.159,-12.073,2.738,1.018,0.0
1.707,54.268,-16.037,2.765,1.003,0.0
11.341,61.22,-20.122,2.801,0.96,0.0
24.695,64.451,-22.561,2.848,0.9,0.0
39.939,64.207,-24.268,2.897,0.84,0.0
54.024,64.878,-25.122,2.911,0.749,0.0
68.293,67.561,-26.524,2.89,0.642,0.0
82.805,72.073,-27.561,2.84,0.542,0.0
96.524,76.951,-27.5,2.772,0.463,0.0
109.45,78.11,-25.061,2.68,0.404,0.0
122.56,79.085,-21.89,2.546,0.351,0.0
135.43,83.171,-20.183,2.383,0.289,0.0
148.05,86.28,-19.939,2.201,0.248,0.0
161.04,89.817,-19.573,2.013,0.231,0.0
173.84,93.11,-18.963,1.827,0.227,0.0
185.73,95.427,-19.085,1.647,0.213,0.0
195.91,97.805,-18.963,1.509,0.161,0.0
207.26,100.92,-17.866,1.532,0.111,0.0
218.84,106.34,-16.22,1.241,0.145,0.0
229.63,113.6,-15.61,0.843,0.129,0.0
240.12,122.62,-14.39,0.559,0.203,0.0
250.91,132.62,-9.817,0.101,0.329,0.0
260.98,142.5,-2.439,-0.36,0.281,0.0
268.72,152.32,6.951,-0.862,0.415,0.0
272.62,160.61,19.085,-1.396,0.422,0.0
272.62,167.99,33.72,-1.845,0.246,0.0
271.52,175.61,49.39,-2.305,0.187,0.0
269.02,182.93,65.732,-2.696,-0.052,0.0
264.39,190.06,81.22,-3.026,-0.174,0.0
257.07,198.41,96.402,-3.252,-0.073,0.0
248.84,209.21,110.85,-3.517,-0.13,0.0
239.09,229.94,129.69,-3.874,-0.362,0.0
228.29,263.9,146.04,-4.125,-0.197,0.0
216.34,292.56,165.55,-4.348,-0.252,0.0
202.19,320.73,191.95,-4.652,-0.179,0.0
185.79,352.44,211.71,-4.543,0.234,0.0
166.89,379.82,228.84,-4.168,0.448,0.0
146.22,401.46,253.66,-3.9,0.132,0.0
120.67,420.79,262.87,-3.712,-0.312,0.0
100.49,431.65,272.13,-3.342,-0.71,1.357
83.78,435.55,282.19,-3.035,-0.563,1.978
71.402,434.82,290.06,-2.504,0.553,0.854
73.171,434.63,303.05,-1.043,1.033,-0.344
76.22,428.54,315.79,-0.242,0.084,0.0
79.39,425.0,323.11,-0.145,-0.359,0.0
98.902,424.21,330.24,0.536,-0.189,0.0
126.83,414.57,340.92,1.106,0.279,0.453
161.1,402.01,344.27,1.146,0.566,0.918
200.0,383.29,335.61,0.445,0.35,0.0
220.67,341.34,328.6,-0.361,-0.121,0.0
203.54,296.71,328.42,-0.692,-0.57,0.0
176.46,264.15,307.07,-0.709,-0.617,0.78
169.51,226.83,277.5,-0.487,-0.121,0.0
175.79,163.96,247.19,-0.177,0.359,0.0
174.39,80.366,222.26,-0.037,0.561,0.0
115.98,-11.646,183.66,-0.108,0.552,0.0
36.707,-93.598,132.81,-0.182,0.633,0.0
-11.463,-115.67,81.28,-0.219,0.757,0.0
-33.963,-118.9,41.037,-0.294,0.886,0.0
-44.695,-139.82,13.415,-0.397,1.003,0.0
-53.841,-138.35,-21.463,-0.485,1.079,0.0
-72.256,-98.049,-62.744,-0.549,1.07,0.0
-84.39,-44.817,-106.52,-0.605,1.007,0.0
-86.22,-23.476,-133.17,-0.638,0.921,0.0
-67.195,-27.256,-129.27,-0.66,0.796,0.0
-16.28,-31.524,-115.55,-0.679,0.662,0.0
39.695,-35.488,-94.573,-0.717,0.502,0.0
80.244,-31.524,-78.902,-0.788,0.324,0.0
99.207,-16.829,-65.976,-0.865,0.182,0.0
110.18,2.439,-51.89,-0.938,0.078,0.0
117.99,13.902,-35.061,-1.01,-0.027,0.0
116.46,20.244,-21.646,-1.095,-0.091,0.0
103.17,26.037,-14.695,-1.222,-0.091,0.0
79.451,29.756,-14.634,-1.364,-0.062,0.0
47.073,29.512,-19.695,-1.547,-0.082,0.0
8.537,25.427,-28.78,-1.758,-0.035,0.0
-30.976,18.598,-41.037,-1.97,0.023,0.0
-66.159,9.268,-54.695,-2.11,-0.074,0.0
-97.256,-1.463,-69.268,-2.225,-0.165,0.0
-123.35,-12.744,-84.512,-2.374,-0.138,0.0
-139.15,-24.817,-100.0,-2.415,-0.219,0.0
-143.48,-38.232,-113.84,-2.298,-0.347,0.0
-140.91,-53.841,-126.71,-2.186,-0.33,0.0
-133.41,-71.585,-138.66,-2.089,-0.21,0.0
-122.99,-90.671,-150.43,-1.904,-0.34,0.0
-111.22,-109.76,-163.35,-1.731,-0.409,0.0
-101.46,-128.96,-176.46,-1.607,-0.258,0.0
-96.037,-147.81,-192.74,-1.414,-0.198,0.0
-93.902,-165.06,-211.22,-1.257,-0.315,0.0
-95.671,-180.91,-228.78,-1.131,-0.301,0.0
-104.57,-195.31,-244.15,-0.993,-0.244,0.0
-116.65,-210.61,-258.42,-0.885,-0.251,0.0
-127.32,-225.31,-271.46,-0.751,-0.245,0.0
-143.84,-234.82,-279.76,-0.593,-0.221,0.0
-164.51,-244.39,-285.06,-0.456,-0.19,0.0
-179.15,-256.28,-288.05,-0.351,-0.168,0.0
-185.24,-266.4,-291.28,-0.225,-0.101,0.0
-195.85,-272.38,-291.83,-0.09,-0.09,0.0
-207.87,-278.6,-291.52,0.042,-0.094,0.0
-210.12,-284.51,-290.24,0.146,-0.038,0.0
-210.67,-289.33,-285.61,0.273,0.015,0.0
-216.04,-292.81,-281.34,0.427,0.05,0.0
-215.37,-294.82,-278.66,0.582,0.092,0.0
-209.51,-296.34,-271.65,0.694,0.103,0.0
-207.74,-297.62,-263.17,0.807,0.2,0.0
-206.71,-299.15,-254.39,0.915,0.309,0.0
-204.69,-300.55,-245.49,1.025,0.359,0.0
-204.02,-300.85,-237.99,1.179,0.344,0.0
-206.59,-299.27,-228.41,1.27,0.305,0.0
-210.31,-295.98,-217.81,1.331,0.301,0.0
-214.39,-292.07,-206.04,1.4,0.362,0.0
-220.55,-287.07,-194.21,1.462,0.394,0.0
-226.52,-280.73,-182.68,1.543,0.404,0.0
-232.74,-273.84,-170.37,1.653,0.404,0.0
-239.69,-267.13,-157.93,1.753,0.466,0.0
-244.27,-259.02,-143.6,1.848,0.623,0.0
-245.24,-249.21,-128.6,1.93,0.753,0.0
-243.9,-238.35,-114.39,2.042,0.855,0.0
-242.5,-228.78,-101.34,2.178,0.917,0.0
-240.67,-220.24,-89.329,2.295,0.98,0.0
-238.17,-212.99,-79.268,2.447,1.08,0.0
-232.5,-205.18,-70.915,2.643,1.259,0.0
-222.19,-194.76,-62.439,2.791,1.44,0.0
-208.9,-184.82,-52.927,2.846,1.584,0.0
-195.61,-175.98,-42.073,2.809,1.662,0.0
-182.62,-168.29,-30.854,2.72,1.613,0.0
-169.45,-162.38,-18.78,2.56,1.357,0.0
-154.33,-156.83,-5.122,2.361,0.946,0.0
-137.93,-150.49,9.268,2.209,0.534,0.0
-123.6,-144.45,22.439,2.041,0.352,0.0
-112.01,-139.09,33.598,1.857,0.323,0.0
-105.0,-135.0,43.537,1.7,0.19,0.0
-99.573,-129.09,51.585,1.561,0.04,0.0
-94.085,-121.46,59.268,1.444,-0.013,0.0
-89.207,-114.27,67.317,1.33,-0.12,0.0
-85.915,-107.87,74.573,1.265,-0.214,0.0
-85.122,-95.976,74.878,1.214,-0.203,0.0
-85.488,-79.146,71.524,1.146,-0.381,0.0
-86.22,-58.415,66.28,1.045,-0.468,0.0
-85.732,-38.049,59.695,0.924,-0.396,0.0
-81.707,-19.695,51.89,0.913,-0.468,0.0
-71.22,-4.756,46.646,0.921,-0.544,0.0
-48.841,7.317,48.232,0.866,-0.47,0.0
-17.317,18.293,55.61,0.851,-0.45,0.0
15.671,27.073,62.439,0.852,-0.428,0.0
46.402,32.927,66.768,0.862,-0.419,0.0
74.695,37.073,68.841,0.856,-0.392,0.0
99.39,39.512,68.293,0.845,-0.394,0.0
120.37,40.549,65.61,0.855,-0.385,0.0
137.19,39.695,63.049,0.855,-0.363,0.0
148.05,38.415,59.451,0.871,-0.321,0.0
152.38,37.5,53.049,0.894,-0.283,0.0
154.63,33.841,48.902,0.921,-0.26,0.0
152.07,25.793,47.134,0.937,-0.26,0.0
144.76,14.451,45.915,0.961,-0.22,0.0
142.19,7.073,44.207,0.977,-0.157,0.0
137.32,1.829,40.061,0.987,-0.108,0.0
126.16,-5.0,36.037,0.996,-0.065,0.0
113.29,-11.646,33.293,1.009,-0.042,0.0
99.329,-17.439,30.671,1.021,-0.038,0.0
84.085,-21.951,27.927,1.032,-0.036,0.0
69.634,-26.098,26.098,1.043,-0.027,0.0
57.256,-30.305,25.488,1.059,-0.01,0.0
46.402,-33.963,25.488,1.067,0.001,0.0
36.829,-37.744,26.22,1.067,0.007,0.0
28.902,-40.61,27.012,1.067,-0.013,0.0
22.5,-42.439,27.622,1.057,-0.042,0.0
18.171,-43.11,28.171,1.042,-0.05,0.0
15.549,-43.293,29.207,1.033,-0.052,0.0
13.963,-42.012,30.0,1.02,-0.076,0.0
12.622,-40.244,29.756,0.996,-0.107,0.0
11.341,-38.293,29.329,0.978,-0.135,0.0
10.122,-36.402,28.415,0.968,-0.157,0.0
8.902,-34.268,26.646,0.965,-0.173,0.0
8.049,-31.646,24.085,0.96,-0.196,0.0
7.317,-28.415,21.707,0.949,-0.215,0.0
6.707,-24.817,19.634,0.943,-0.208,0.0
6.098,-20.976,17.5,0.925,-0.232,0.0
5.305,-16.829,15.549,0.91,-0.249,0.0
4.756,-12.866,12.927,0.901,-0.256,0.0
4.268,-8.841,10.061,0.874,-0.257,0.0
3.78,-4.878,7.683,0.856,-0.248,0.0
3.049,-1.341,5.366,0.836,-0.247,0.0
2.012,2.256,2.988,0.807,-0.262,0.0
1.037,5.366,0.488,0.793,-0.26,0.0
0.61,7.988,-1.707,0.782,-0.256,0.0
0.183,10.366,-3.598,0.767,-0.246,0.0
0.122,12.439,-5.244,0.751,-0.24,0.0
0.0,14.573,-6.951,0.744,-0.23,0.0
0.305,16.463,-8.415,0.747,-0.221,0.0
0.915,17.561,-9.024,0.75,-0.207,0.0
1.646,18.537,-9.878,0.752,-0.198,0.0
2.683,19.146,-10.61,0.753,-0.188,0.0
4.329,19.268,-11.22,0.761,-0.175,0.0
5.915,19.451,-11.89,0.772,-0.165,0.0
6.524,19.024,-12.073,0.779,-0.161,0.0
7.5,18.354,-12.317,0.792,-0.167,0.0
8.537,17.378,-13.049,0.799,-0.162,0.0
8.902,15.976,-13.415,0.805,-0.16,0.0
8.902,14.512,-13.78,0.808,-0.157,0.0
8.232,12.927,-14.146,0.803,-0.148,0.0
7.073,11.159,-14.573,0.833,-0.094,0.0
5.366,9.634,-14.817,0.847,-0.093,0.0
2.988,8.049,-15.061,0.883,-0.071,0.0
-0.427,6.89,-15.305,0.882,-0.091,0.0
-4.817,5.915,-15.183,0.869,-0.113,0.0
-9.39,5.61,-14.634,0.894,-0.078,0.0
-13.963,5.366,-14.207,0.925,-0.081,0.0
-18.171,5.183,-13.963,0.954,-0.081,0.0
-21.22,5.305,-13.659,0.979,-0.062,0.0
-22.683,5.732,-12.988,1.0,-0.04,0.0
-23.171,6.402,-12.073,0.994,-0.042,0.0
-22.561,7.5,-11.159,1.051,-0.026,0.0
-20.244,8.78,-9.878,1.095,0.01,0.0
-16.768,9.573,-7.622,1.134,0.024,0.0
-13.659,10.305,-5.183,1.182,0.054,0.0
-10.549,11.768,-3.841,1.226,0.091,0.0
-7.378,14.207,-2.622,1.256,0.125,0.0
-3.72,17.805,-2.439,1.307,0.167,0.0
-0.671,19.939,-1.768,1.378,0.22,0.0
1.037,21.037,0.427,1.42,0.231,0.0
0.366,22.805,2.378,1.568,0.295,0.0
1.768,23.902,2.683,1.73,0.343,0.0
2.744,25.305,2.622,1.838,0.392,0.0
1.89,27.256,3.049,1.971,0.46,0.0
1.037,28.963,3.049,2.055,0.543,0.0
0.915,28.841,3.11,2.119,0.607,0.0
0.427,30.793,2.622,2.244,0.631,0.0
0.0,33.11,1.829,2.317,0.666,0.0
0.61,35.915,1.22,2.302,0.702,0.0
1.646,39.634,0.061,2.361,0.748,0.0
3.72,44.085,-1.707,2.385,0.792,0.0
7.683,48.232,-3.415,2.39,0.792,0.0
12.439,51.768,-4.573,2.45,0.787,0.0
18.537,53.476,-6.098,2.502,0.769,0.0
25.671,51.402,-5.732,2.538,0.727,0.0
32.622,52.622,-4.573,2.608,0.648,0.0
39.939,55.183,-4.695,2.69,0.568,0.0
46.768,58.354,-4.085,2.759,0.477,0.0
53.476,62.195,-3.537,2.782,0.378,0.0
61.159,65.0,-1.524,2.706,0.331,0.0
72.805,67.683,-0.366,2.65,0.259,0.0
87.012,72.195,0.549,2.555,0.2,0.0
103.9,76.402,-0.488,2.427,0.133,0.0
121.58,77.622,0.061,2.299,0.076,0.0
137.07,79.939,0.0,2.154,0.013,0.0
152.44,80.488,-2.378,1.987,-0.04,0.0
168.48,80.732,-4.695,1.805,-0.072,0.0
184.69,81.646,-7.073,1.604,-0.1,0.0
200.12,82.012,-9.085,1.519,-0.159,0.0
213.66,81.585,-9.085,1.417,-0.106,0.0
225.73,82.866,-7.622,1.184,-0.083,0.0
235.24,86.159,-4.878,0.933,-0.095,0.0
243.54,91.829,-1.402,0.636,-0.089,0.0
250.79,97.622,4.451,0.295,-0.212,0.0
254.09,102.32,12.317,-0.187,-0.326,0.0
253.72,106.89,20.671,-0.747,-0.361,0.0
250.43,110.92,30.671,-1.174,-0.226,0.0
245.85,115.55,41.707,-1.41,0.053,0.0
238.78,120.79,52.744,-1.569,0.127,0.0
231.1,127.32,63.963,-1.854,0.09,0.0
221.71,135.06,75.305,-2.139,-0.056,0.0
211.52,143.9,87.256,-2.392,-0.083,0.0
201.46,155.73,101.28,-2.625,-0.246,0.0
192.26,176.77,114.94,-2.839,-0.34,0.0
182.19,202.07,123.42,-2.944,-0.344,0.0
174.76,227.5,136.59,-2.963,-0.28,0.0
165.79,252.56,153.9,-3.059,-0.317,0.0
158.05,277.99,173.84,-3.188,-0.149,0.0
154.51,301.52,192.38,-3.282,-0.224,0.0
150.91,318.9,202.74,-3.281,-0.033,0.0
140.91,328.72,217.68,-3.021,0.185,0.0
123.6,329.02,230.67,-2.828,0.105,0.0
101.16,331.4,233.9,-2.709,0.162,0.0
78.78,336.46,229.82,-2.479,0.212,0.0
61.463,338.9,230.67,-2.202,0.183,0.0
50.671,337.32,238.84,-1.986,0.122,0.0
47.073,334.21,246.52,-1.73,-0.006,0.0
52.988,332.26,256.16,-1.411,-0.021,0.0
63.537,327.38,264.82,-1.043,0.066,0.0
73.963,320.55,269.82,-0.737,0.299,0.0
93.049,318.29,273.9,-0.328,0.686,0.0
113.78,310.98,279.82,0.062,0.902,0.0
136.95,298.66,283.42,0.34,0.761,0.0
159.57,279.57,279.76,0.333,0.366,0.0
164.09,253.41,274.63,0.103,0.04,0.0
164.76,235.0,264.08,-0.153,-0.301,0.0
167.74,216.77,249.88,-0.298,-0.55,0.0
166.83,191.46,233.41,-0.395,-0.399,0.0
161.1,163.54,216.4,-0.354,-0.113,0.0
145.85,136.28,202.74,-0.275,0.227,0.0
127.74,104.94,179.33,-0.214,0.195,0.0
108.84,67.134,150.37,-0.224,0.169,0.0
82.012,27.5,112.81,-0.257,0.396,0.0
44.939,-2.378,80.305,-0.28,0.549,0.0
-1.22,-29.451,49.146,-0.341,0.619,0.0
-53.902,-43.354,21.951,-0.397,0.701,0.0
-106.22,-49.329,-13.476,-0.439,0.742,0.0
-137.19,-42.744,-53.902,-0.473,0.738,0.0
-139.51,-30.61,-78.659,-0.494,0.698,0.0
-116.16,-23.232,-86.402,-0.527,0.598,0.0
-74.207,-21.707,-87.683,-0.597,0.476,0.0
-25.0,-22.378,-86.646,-0.675,0.376,0.0
16.463,-25.061,-78.598,-0.76,0.271,0.0
44.329,-23.841,-66.28,-0.856,0.19,0.0
62.683,-17.805,-58.902,-0.938,0.127,0.0
86.341,-10.854,-49.024,-1.004,0.071,0.0
106.71,-6.098,-37.866,-1.08,0.045,0.0
114.51,-2.439,-32.683,-1.188,0.007,0.0
110.67,1.463,-34.024,-1.335,-0.08,0.0
97.744,2.866,-36.707,-1.522,-0.185,0.0
76.951,1.951,-42.012,-1.702,-0.168,0.0
50.976,-0.793,-50.0,-1.851,-0.093,0.0
21.951,-5.61,-60.366,-2.004,-0.109,0.0
-6.89,-11.524,-72.012,-2.137,-0.202,0.0
-33.049,-19.207,-84.085,-2.248,-0.265,0.0
-56.159,-29.329,-96.341,-2.315,-0.277,0.0
-74.207,-41.341,-109.15,-2.352,-0.276,0.0
-86.524,-54.512,-122.56,-2.298,-0.408,0.0
-92.622,-69.634,-136.16,-2.188,-0.433,0.0
-93.78,-86.341,-150.31,-2.042,-0.508,0.0
-95.183,-103.11,-166.28,-1.903,-0.307,0.0
-96.89,-119.21,-183.23,-1.738,-0.594,0.0
-97.866,-134.02,-202.19,-1.609,-0.481,0.0
-96.829,-148.41,-221.22,-1.431,-0.401,0.0
-98.171,-163.96,-238.17,-1.275,-0.425,0.0
-105.61,-179.82,-255.61,-1.119,-0.333,0.0
-117.38,-194.09,-273.29,-0.938,-0.342,0.0
-131.28,-207.01,-289.94,-0.777,-0.354,0.0
-146.77,-218.66,-303.9,-0.583,-0.382,0.0
-164.82,-229.27,-315.0,-0.371,-0.363,0.0
-187.19,-237.87,-322.99,-0.237,-0.289,0.0
-207.56,-246.4,-328.54,-0.121,-0.165,0.0
-224.09,-254.45,-334.88,0.036,-0.04,0.0
-235.67,-260.98,-341.46,0.22,-0.028,0.0
-249.63,-265.92,-346.65,0.381,0.003,0.0
-264.02,-267.99,-351.71,0.544,0.037,0.0
-264.88,-269.33,-354.39,0.678,0.087,0.0
-268.84,-269.76,-354.15,0.808,0.13,0.0
-268.72,-267.44,-353.84,0.903,0.229,0.0
-268.54,-264.94,-350.49,1.017,0.316,0.0
-270.61,-263.84,-347.81,1.092,0.426,0.0
-273.23,-262.5,-344.63,1.118,0.617,0.0
-277.5,-262.68,-340.85,1.187,0.658,0.0
-278.23,-260.55,-335.06,1.301,0.657,0.0
-274.15,-253.23,-325.24,1.402,0.726,0.0
-268.42,-247.26,-311.52,1.534,0.827,0.0
-265.24,-242.93,-295.61,1.703,0.871,0.0
-258.96,-238.23,-279.02,1.876,0.898,0.0
-251.46,-232.07,-261.04,2.014,1.005,0.0
-246.16,-227.26,-246.1,2.116,1.156,0.0
-239.09,-221.77,-231.16,2.22,1.257,0.0
-228.72,-213.78,-214.09,2.32,1.313,0.0
-216.77,-204.15,-195.12,2.351,1.422,0.0
-206.59,-197.26,-180.67,2.321,1.519,0.0
-195.91,-189.02,-168.29,2.341,1.588,0.0
-185.49,-180.79,-154.94,2.422,1.709,0.0
-178.11,-177.5,-143.23,2.443,1.813,0.0
-172.99,-176.59,-133.6,2.393,1.986,0.0
-166.46,-175.0,-120.49,2.332,2.072,0.0
-161.16,-174.39,-102.87,2.268,1.872,0.0
-157.01,-174.88,-84.634,2.2,1.574,0.0
-153.54,-174.09,-68.171,2.113,1.217,0.0
-151.4,-171.95,-51.22,1.964,0.928,0.0
-151.71,-168.72,-35.305,1.82,0.741,0.0
-154.88,-164.76,-20.915,1.699,0.527,0.0
-158.05,-159.39,-6.098,1.564,0.338,0.0
-159.69,-150.31,8.841,1.432,0.145,0.0
-161.71,-139.76,22.073,1.307,-0.058,0.0
-165.91,-132.26,32.988,1.208,-0.242,0.0
-168.9,-124.27,42.988,1.121,-0.363,0.0
-164.94,-109.63,53.841,1.038,-0.471,0.0
-158.84,-90.976,62.5,0.961,-0.576,0.0
-155.06,-72.866,65.244,0.916,-0.614,0.0
-151.59,-55.915,62.622,0.887,-0.664,0.0
-144.21,-42.378,59.695,0.837,-0.689,0.0
-130.24,-29.756,59.268,0.808,-0.72,0.0
-106.71,-15.793,63.354,0.814,-0.702,0.0
-77.561,-4.329,71.098,0.807,-0.687,0.0
-45.305,5.122,78.841,0.78,-0.639,0.0
-13.232,14.268,83.537,0.774,-0.598,0.0
17.378,21.585,85.061,0.772,-0.528,0.0
45.427,27.317,84.085,0.74,-0.483,0.0
69.939,31.402,80.488,0.723,-0.443,0.0
90.61,33.963,75.488,0.701,-0.371,0.0
107.44,35.549,69.878,0.696,-0.329,0.0
119.51,35.976,62.744,0.705,-0.293,0.0
126.89,34.512,54.756,0.701,-0.233,0.0
130.79,32.805,45.976,0.691,-0.18,0.0
130.18,30.915,36.646,0.688,-0.15,0.0
127.19,26.829,28.598,0.686,-0.114,0.0
121.77,22.744,22.012,0.688,-0.084,0.0
113.72,19.451,14.512,0.686,-0.068,0.0
104.33,16.463,7.378,0.696,-0.034,0.0
93.476,13.171,0.854,0.704,0.007,0.0
80.976,9.146,-4.451,0.718,0.027,0.0
67.866,5.61,-10.183,0.739,0.04,0.0
55.61,2.195,-14.939,0.758,0.055,0.0
44.268,-1.037,-18.598,0.775,0.096,0.0
33.171,-4.573,-21.402,0.795,0.127,0.0
22.561,-7.561,-23.415,0.806,0.105,0.0
13.659,-9.634,-24.634,0.813,0.103,0.0
5.854,-11.402,-24.939,0.822,0.11,0.0
-0.122,-12.927,-24.329,0.829,0.084,0.0
-4.573,-13.902,-22.683,0.831,0.059,0.0
-7.561,-14.695,-20.366,0.814,0.061,0.0
-9.329,-15.305,-17.561,0.823,0.06,0.0
-10.183,-15.549,-14.146,0.838,0.057,0.0
-10.61,-15.183,-10.427,0.842,0.032,0.0
-10.427,-14.878,-6.463,0.854,0.018,0.0
-9.695,-14.268,-2.134,0.846,0.037,0.0
-8.659,-12.988,2.5,0.853,0.032,0.0
-8.232,-11.524,7.317,0.855,-0.012,0.0
-9.146,-9.939,11.707,0.847,-0.058,0.0
-10.305,-7.866,15.854,0.842,-0.077,0.0
-11.402,-5.427,20.061,0.861,-0.083,0.0
-13.354,-2.988,24.39,0.891,-0.091,0.0
-15.366,-0.488,28.171,0.895,-0.09,0.0
-16.768,2.378,31.768,0.904,-0.115,0.0
-18.232,5.244,35.427,0.92,-0.107,0.0
-19.451,7.012,39.512,0.941,-0.102,0.0
-20.793,8.72,43.537,0.945,-0.12,0.0
-21.646,10.488,46.951,0.943,-0.155,0.0
-21.402,12.256,50.61,0.949,-0.157,0.0
-21.707,14.695,53.78,0.939,-0.172,0.0
-23.049,16.707,56.098,0.957,-0.169,0.0
-23.963,18.171,57.622,0.979,-0.208,0.0
-25.122,19.451,58.659,0.979,-0.224,0.0
-25.183,20.427,59.451,0.973,-0.208,0.0
-25.549,19.756,60.976,0.952,-0.196,0.0
-26.89,20.427,62.073,0.922,-0.208,0.0
-27.622,21.402,62.5,0.946,-0.203,0.0
-29.207,22.195,61.829,0.949,-0.194,0.0
-31.098,23.293,61.585,0.944,-0.209,0.0
-34.39,24.512,61.098,0.952,-0.208,0.0
-38.293,26.585,59.573,0.968,-0.228,0.0
-42.378,28.232,57.439,0.967,-0.239,0.0
-46.585,29.817,55.793,0.962,-0.228,0.0
-49.939,31.22,53.415,0.952,-0.209,0.0
-53.049,32.012,51.463,0.938,-0.191,0.0
-55.488,33.537,49.085,0.933,-0.174,0.0
-56.159,36.037,46.341,0.941,-0.172,0.0
-57.256,38.963,44.329,0.941,-0.169,0.0
-58.537,41.646,42.012,0.936,-0.167,0.0
-60.122,43.049,38.598,0.933,-0.197,0.0
-61.707,43.415,35.61,0.934,-0.234,0.0
-63.476,45.0,31.585,0.91,-0.274,0.0
-65.61,46.159,27.134,0.891,-0.268,0.0
-68.293,46.524,23.232,0.871,-0.235,0.0
-70.427,47.012,19.268,0.865,-0.221,0.0
-71.646,48.232,15.183,0.846,-0.228,0.0
-72.622,49.695,11.463,0.821,-0.226,0.0
-73.902,50.732,8.049,0.809,-0.23,0.0
-75.61,51.341,4.878,0.796,-0.229,0.0
-77.561,51.341,1.829,0.779,-0.228,0.0
-79.756,51.829,-1.829,0.767,-0.223,0.0
-82.012,53.293,-5.732,0.757,-0.213,0.0
-84.146,54.817,-9.512,0.751,-0.188,0.0
-86.159,56.463,-12.927,0.737,-0.205,0.0
-87.256,58.659,-16.037,0.725,-0.209,0.0
-86.768,60.671,-18.354,0.728,-0.194,0.0
-85.244,62.012,-20.0,0.712,-0.193,0.0
-83.963,63.537,-21.463,0.7,-0.184,0.0
-82.439,65.0,-22.561,0.689,-0.198,0.0
-80.915,66.341,-23.963,0.683,-0.192,0.0
-79.146,67.683,-25.61,0.681,-0.185,0.0
-77.012,68.78,-27.134,0.677,-0.185,0.0
-74.512,69.756,-28.415,0.677,-0.179,0.0
-71.89,70.976,-29.573,0.686,-0.19,0.0
-69.878,72.256,-30.488,0.681,-0.227,0.0
-68.171,73.598,-31.28,0.687,-0.23,0.0
-66.951,75.0,-31.951,0.695,-0.224,0.0
-65.915,76.707,-32.439,0.693,-0.247,0.0
-65.244,77.866,-32.5,0.711,-0.291,0.0
-65.244,78.841,-32.317,0.725,-0.331,0.0
-65.793,80.122,-32.134,0.735,-0.375,0.0
-67.134,81.585,-32.439,0.751,-0.387,0.0
-68.659,82.866,-32.134,0.77,-0.452,0.0
-70.915,83.841,-31.951,0.798,-0.544,0.0
-73.537,85.122,-31.89,0.803,-0.556,0.0
-77.195,86.524,-32.073,0.793,-0.592,0.0
-81.89,88.049,-32.5,0.808,-0.678,0.0
-86.585,89.695,-32.866,0.794,-0.698,0.0
-90.976,91.585,-33.049,0.789,-0.735,0.0
-95.549,93.049,-32.744,0.77,-0.784,0.0
-100.24,95.061,-32.378,0.761,-0.81,0.0
-104.88,97.073,-32.134,0.752,-0.877,0.0
-109.69,98.841,-32.012,0.75,-0.913,0.0
-114.45,101.28,-32.012,0.734,-0.92,0.0
-118.48,103.6,-31.768,0.729,-0.998,0.0
-122.44,105.43,-31.28,0.727,-1.057,0.0
-127.19,107.38,-31.524,0.731,-1.064,0.0
-131.83,109.27,-31.829,0.745,-1.099,0.0
-134.33,111.4,-32.256,0.751,-1.159,0.0
-135.06,113.17,-32.134,0.77,-1.203,0.0
-134.15,114.76,-31.037,0.794,-1.201,0.0
-131.52,116.46,-30.488,0.802,-1.258,0.0
-127.81,117.44,-30.671,0.809,-1.267,0.0
-122.44,118.11,-31.098,0.813,-1.284,0.0
-117.19,118.11,-31.89,0.818,-1.314,0.0
-111.1,118.17,-33.354,0.832,-1.325,0.0
-104.57,118.11,-35.061,0.844,-1.339,0.0
-97.683,118.17,-38.049,0.854,-1.335,0.0
-90.549,117.87,-41.707,0.861,-1.355,0.0
-82.622,116.34,-44.817,0.862,-1.354,0.0
-74.329,114.15,-48.11,0.859,-1.349,0.0
-66.22,111.77,-51.646,0.845,-1.35,0.0
-58.049,109.39,-55.305,0.839,-1.328,0.0
-49.634,106.58,-59.024,0.813,-1.315,0.0
-41.402,103.96,-62.378,0.807,-1.292,0.0
-34.634,101.28,-66.28,0.782,-1.27,0.0
-29.024,97.439,-70.0,0.769,-1.244,0.0
-23.537,93.415,-73.049,0.755,-1.212,0.0
-18.537,88.659,-75.488,0.729,-1.177,0.0
-14.207,83.659,-77.622,0.738,-1.141,0.0
-11.341,78.537,-80.0,0.75,-1.104,0.0
-9.573,73.11,-82.012,0.729,-1.062,0.0
-8.415,67.927,-83.963,0.706,-1.028,0.0
-8.232,62.622,-85.671,0.7,-0.988,0.0
-8.902,57.805,-87.622,0.701,-0.952,0.0
-10.305,52.866,-89.695,0.713,-0.923,0.0
-12.5,47.744,-91.707,0.699,-0.886,0.0
-15.061,42.866,-94.146,0.702,-0.861,0.0
-17.5,38.232,-96.829,0.697,-0.833,0.0
-20.366,34.085,-99.634,0.684,-0.799,0.0
-23.598,29.634,-101.89,0.667,-0.781,0.0
-26.707,25.244,-104.08,0.659,-0.754,0.0
-30.183,20.793,-106.34,0.649,-0.723,0.0
-33.537,16.159,-108.11,0.648,-0.686,0.0
-36.463,13.232,-110.0,0.635,-0.652,0.0
-39.573,10.854,-112.01,0.629,-0.604,0.0
-42.5,8.232,-113.66,0.624,-0.562,0.0
-44.878,5.61,-114.15,0.583,-0.534,0.0
-47.134,3.171,-114.39,0.593,-0.493,0.0
-48.841,1.524,-115.06,0.591,-0.464,0.0
-49.39,0.61,-115.67,0.576,-0.421,0.0
-48.72,0.305,-115.92,0.561,-0.383,0.0
-47.378,0.488,-115.92,0.54,-0.348,0.0
-45.488,0.549,-115.98,0.561,-0.329,0.0
-43.232,0.366,-116.34,0.551,-0.31,0.0
-40.122,0.488,-116.16,0.521,-0.294,0.0
-36.829,0.854,-116.04,0.513,-0.292,0.0
-33.354,1.28,-115.79,0.511,-0.283,0.0
-30.366,2.012,-116.16,0.491,-0.27,0.0
-27.683,2.866,-116.34,0.508,-0.275,0.0
-26.098,4.39,-116.65,0.5,-0.275,0.0
-24.207,5.366,-116.4,0.493,-0.274,0.0
-23.049,5.61,-116.04,0.48,-0.285,0.0
-22.012,6.768,-117.44,0.478,-0.289,0.0
-21.22,8.476,-118.54,0.48,-0.297,0.0
-21.28,9.817,-119.21,0.461,-0.304,0.0
-21.707,10.671,-119.33,0.462,-0.316,0.0
-22.866,11.463,-119.33,0.46,-0.338,0.0
-23.902,13.963,-120.55,0.449,-0.348,0.0
-25.183,15.976,-121.89,0.462,-0.36,0.0
-27.195,17.317,-122.38,0.457,-0.379,0.0
-29.268,18.659,-122.81,0.452,-0.39,0.0
-31.341,19.451,-122.74,0.453,-0.399,0.0
-34.024,20.244,-122.62,0.445,-0.409,0.0
-36.463,21.829,-122.68,0.448,-0.424,0.0
-38.171,23.049,-122.13,0.447,-0.438,0.0
-39.329,24.146,-121.28,0.436,-0.446,0.0
-41.22,24.817,-119.57,0.432,-0.447,0.0
-43.171,25.61,-118.6,0.431,-0.443,0.0
-44.817,26.341,-117.56,0.425,-0.439,0.0
-46.341,26.829,-116.28,0.405,-0.45,0.0
-47.134,27.5,-115.49,0.391,-0.454,0.0
-47.683,27.561,-113.84,0.383,-0.446,0.0
-48.11,27.622,-111.83,0.389,-0.442,0.0
-48.476,28.11,-109.88,0.379,-0.441,0.0
-48.78,28.293,-107.38,0.37,-0.434,0.0
-48.963,28.841,-104.21,0.386,-0.432,0.0
-49.512,28.963,-100.67,0.394,-0.431,0.0
-50.183,29.024,-97.195,0.388,-0.42,0.0
-50.793,29.268,-94.024,0.393,-0.413,0.0
-51.463,29.024,-90.305,0.396,-0.415,0.0
-51.707,28.598,-85.366,0.399,-0.419,0.0
-52.195,28.11,-79.817,0.397,-0.424,0.0
-53.415,28.049,-74.512,0.4,-0.432,0.0
-55.122,27.561,-69.085,0.398,-0.438,0.0
-57.5,26.768,-62.805,0.399,-0.44,0.0
-59.695,25.976,-55.732,0.409,-0.435,0.0
-61.951,25.244,-48.963,0.418,-0.427,0.0
-64.878,24.512,-42.927,0.427,-0.421,0.0
-67.866,23.598,-36.402,0.435,-0.407,0.0
-70.915,21.951,-29.451,0.444,-0.391,0.0
-73.537,21.463,-24.939,0.45,-0.377,0.0
-75.549,21.159,-19.939,0.459,-0.362,0.0
-76.463,20.732,-14.634,0.472,-0.34,0.0
-77.317,20.366,-9.451,0.492,-0.318,0.0
-77.439,20.244,-4.756,0.504,-0.297,0.0
-75.854,20.183,0.122,0.525,-0.275,0.0
-74.634,20.0,4.39,0.544,-0.253,0.0
-74.39,19.268,8.232,0.568,-0.239,0.0
-72.5,18.598,11.89,0.582,-0.215,0.0
-69.939,17.561,15.671,0.596,-0.188,0.0
-66.89,16.463,19.268,0.573,-0.125,0.0
-63.963,15.183,22.927,0.64,-0.092,0.0
-61.341,13.841,26.646,0.769,-0.223,0.0
-57.683,12.5,29.878,0.811,-0.213,0.0
-53.72,11.28,32.5,0.775,-0.148,0.0
-50.122,10.244,35.122,0.766,-0.12,0.0
-46.768,8.902,37.805,0.782,-0.119,0.0
-44.024,7.561,40.183,0.795,-0.118,0.0
-41.037,6.524,42.561,0.826,-0.112,0.0
-37.561,5.366,44.451,0.858,-0.111,0.0
-35.183,4.451,45.61,0.908,-0.123,0.0
-33.659,3.841,46.585,1.002,-0.151,0.0
-32.256,3.415,47.561,1.068,-0.159,0.0
-31.22,3.171,47.256,1.113,-0.182,0.0
-31.646,1.707,47.805,1.202,-0.222,0.0
-35.122,-2.439,49.024,1.288,-0.263,0.0
-37.134,-2.988,46.768,1.393,-0.332,0.0
-34.695,1.402,44.573,1.428,-0.367,0.0
-31.524,5.671,43.415,1.39,-0.395,0.0
-30.488,7.256,42.5,1.372,-0.454,0.0
-30.488,7.744,41.037,1.405,-0.497,0.0
-29.878,7.744,39.146,1.375,-0.535,0.0
-29.024,7.683,36.829,1.312,-0.562,0.0
-28.171,7.5,33.72,1.278,-0.562,0.0
-27.5,6.89,30.549,1.247,-0.557,0.0
-26.341,6.89,27.5,1.202,-0.549,0.0
-24.573,8.963,24.024,1.151,-0.529,0.0
-22.378,10.976,20.732,1.103,-0.497,0.0
-19.512,13.293,19.146,1.056,-0.465,0.0
-15.671,16.89,17.256,1.008,-0.424,0.0
-10.915,22.988,15.732,0.965,-0.381,0.0
-4.939,31.829,11.829,0.948,-0.344,0.0
1.341,38.902,8.476,0.923,-0.308,0.0
6.646,42.866,6.646,0.899,-0.271,0.0
11.768,45.732,5.915,0.895,-0.241,0.0
18.963,50.671,3.963,0.868,-0.206,0.0
26.341,54.634,0.793,0.855,-0.176,0.0
34.024,55.671,-2.927,0.838,-0.147,0.0
40.061,55.488,-7.805,0.819,-0.132,0.0
44.817,55.122,-12.805,0.801,-0.118,0.0
50.549,53.72,-18.171,0.776,-0.116,0.0
55.549,50.305,-23.232,0.753,-0.118,0.0
58.476,46.28,-27.927,0.733,-0.114,0.0
59.512,41.22,-33.354,0.715,-0.108,0.0
58.476,34.939,-38.11,0.697,-0.102,0.0
56.28,27.683,-42.439,0.678,-0.092,0.0
52.927,20.305,-46.524,0.662,-0.081,0.0
48.171,13.476,-50.366,0.64,-0.069,0.0
42.256,6.341,-53.11,0.617,-0.062,0.0
36.037,-0.732,-55.732,0.594,-0.045,0.0
29.756,-7.683,-57.439,0.578,-0.025,0.0
23.841,-14.146,-59.024,0.557,-0.01,0.0
18.476,-20.244,-60.061,0.536,0.014,0.0
13.659,-25.915,-60.61,0.51,0.04,0.0
10.244,-31.037,-60.305,0.489,0.055,0.0
8.171,-35.549,-59.39,0.466,0.076,0.0
6.707,-39.268,-58.171,0.441,0.103,0.0
6.098,-42.622,-56.524,0.425,0.123,0.0
6.951,-45.244,-54.939,0.411,0.144,0.0
8.598,-47.134,-53.171,0.403,0.153,0.0
11.341,-48.78,-51.402,0.403,0.159,0.0
15.061,-49.817,-49.695,0.39,0.169,0.0
18.902,-49.817,-48.11,0.379,0.173,0.0
23.11,-49.329,-46.159,0.383,0.17,0.0
27.439,-48.841,-44.024,0.391,0.173,0.0
31.768,-47.805,-41.707,0.385,0.177,0.0
35.732,-46.037,-39.817,0.388,0.172,0.0
38.963,-44.451,-37.988,0.393,0.164,0.0
42.012,-42.622,-35.915,0.397,0.155,0.0
44.085,-40.549,-33.841,0.403,0.142,0.0
45.793,-38.902,-31.829,0.412,0.129,0.0
46.951,-36.341,-30.305,0.423,0.113,0.0
47.195,-33.963,-28.598,0.437,0.09,0.0
47.317,-30.976,-27.561,0.448,0.07,0.0
45.915,-28.171,-26.22,0.461,0.051,0.0
42.988,-25.732,-24.512,0.48,0.03,0.0
39.268,-23.354,-22.439,0.498,0.011,0.0
34.512,-21.402,-18.72,0.511,-0.004,0.0
29.756,-18.963,-17.683,0.523,-0.016,0.0
24.756,-16.707,-16.89,0.536,-0.039,0.0
18.963,-14.39,-15.122,0.538,-0.053,0.0
12.927,-11.951,-13.415,0.54,-0.065,0.0
6.89,-9.756,-11.524,0.542,-0.08,0.0
1.402,-7.744,-9.573,0.548,-0.088,0.0
-3.537,-5.671,-7.622,0.553,-0.094,0.0
-8.171,-3.415,-5.488,0.57,-0.09,0.0
-12.561,-1.037,-2.927,0.583,-0.085,0.0
-16.524,1.402,-0.244,0.596,-0.079,0.0
-19.939,3.537,2.866,0.616,-0.075,0.0
-22.805,5.61,6.098,0.637,-0.065,0.0
-25.244,7.927,9.329,0.659,-0.063,0.0
-26.829,10.244,12.622,0.671,-0.06,0.0
-27.317,12.5,16.341,0.692,-0.053,0.0
-27.073,14.634,20.244,0.709,-0.055,0.0
-26.159,16.524,24.268,0.721,-0.062,0.0
-24.512,18.537,28.049,0.738,-0.063,0.0
-22.439,20.366,31.463,0.76,-0.076,0.0
-20.427,21.768,34.573,0.776,-0.097,0.0
-18.841,23.049,37.683,0.801,-0.118,0.0
-17.256,24.512,40.305,0.817,-0.14,0.0
-15.976,26.22,42.622,0.83,-0.178,0.0
-15.305,27.988,44.695,0.832,-0.21,0.0
-15.244,29.573,47.012,0.827,-0.245,0.0
-16.037,31.22,49.207,0.819,-0.271,0.0
-17.5,33.11,51.037,0.811,-0.296,0.0
-19.451,35.0,52.744,0.803,-0.321,0.0
-21.768,36.89,54.39,0.792,-0.349,0.0
-24.634,38.598,55.915,0.792,-0.366,0.0
-27.744,39.878,57.195,0.795,-0.391,0.0
-31.585,40.976,58.354,0.806,-0.405,0.0
-35.305,41.585,59.512,0.821,-0.414,0.0
-38.537,41.951,60.244,0.841,-0.427,0.0
-41.22,42.256,61.098,0.867,-0.439,0.0
-44.085,42.317,62.012,0.9,-0.446,0.0
-47.012,42.256,62.561,0.935,-0.458,0.0
-49.451,41.524,62.866,0.971,-0.474,0.0
-50.488,41.037,62.927,1.006,-0.492,0.0
-49.573,40.549,61.89,1.038,-0.512,0.0
-48.11,39.451,60.488,1.058,-0.547,0.0
-45.793,37.988,58.415,1.077,-0.583,0.0
-42.378,36.707,55.549,1.086,-0.621,0.0
-38.598,35.183,52.317,1.088,-0.661,0.0
-34.939,33.11,49.024,1.086,-0.704,0.0
-30.427,31.463,45.244,1.083,-0.745,0.0
-26.524,29.329,42.073,1.075,-0.778,0.0
-22.317,27.439,38.598,1.075,-0.816,0.0
-18.598,25.793,34.817,1.069,-0.852,0.0
-15.854,24.146,31.707,1.065,-0.877,0.0
-13.537,22.439,28.902,1.062,-0.901,0.0
-12.073,20.976,26.22,1.049,-0.909,0.0
-11.22,20.061,23.841,1.038,-0.914,0.0
-10.366,19.146,21.768,1.021,-0.914,0.0
-9.939,18.232,19.817,1.01,-0.91,0.0
-10.366,17.439,17.622,0.995,-0.909,0.0
-10.305,16.341,15.183,0.982,-0.909,0.0
-8.841,15.488,12.256,0.966,-0.911,0.0
-7.012,14.268,9.939,0.946,-0.91,0.0
-5.488,13.293,6.707,0.938,-0.896,0.0
-2.866,12.073,3.11,0.924,-0.883,0.0
0.0,10.244,-0.488,0.915,-0.872,0.0
2.744,7.683,-4.207,0.915,-0.861,0.0
5.61,5.122,-8.171,0.917,-0.844,0.0
7.744,2.805,-12.317,0.917,-0.83,0.0
9.451,0.305,-16.707,0.914,-0.815,0.0
11.098,-2.317,-21.341,0.91,-0.801,0.0
12.561,-4.939,-26.402,0.898,-0.784,0.0
13.293,-7.561,-31.707,0.882,-0.769,0.0
13.841,-10.0,-37.134,0.861,-0.745,0.0
14.573,-12.256,-42.561,0.832,-0.715,0.0
16.037,-14.451,-47.744,0.806,-0.678,0.0
16.646,-16.89,-52.927,0.779,-0.633,0.0
17.439,-19.451,-58.171,0.748,-0.59,0.0
19.207,-22.134,-63.049,0.716,-0.549,0.0
21.22,-24.39,-67.5,0.683,-0.504,0.0
23.232,-26.22,-71.707,0.652,-0.461,0.0
25.183,-28.293,-75.122,0.631,-0.418,0.0
27.378,-30.122,-77.744,0.603,-0.375,0.0
30.0,-31.524,-79.268,0.579,-0.341,0.0
32.988,-32.195,-79.756,0.563,-0.307,0.0
35.366,-32.866,-79.573,0.545,-0.278,0.0
38.049,-33.11,-79.329,0.523,-0.245,0.0
40.976,-32.927,-78.476,0.5,-0.209,0.0
43.537,-32.866,-76.646,0.48,-0.178,0.0
46.646,-31.951,-74.695,0.456,-0.16,0.0
49.878,-30.549,-73.049,0.435,-0.151,0.0
52.744,-28.841,-71.037,0.418,-0.145,0.0
55.854,-27.195,-68.415,0.392,-0.154,0.0
58.598,-24.878,-65.732,0.368,-0.165,0.0
61.463,-22.5,-63.11,0.347,-0.162,0.0
64.207,-19.878,-60.488,0.327,-0.177,0.0
66.829,-17.439,-56.951,0.304,-0.2,0.0
69.451,-14.695,-53.963,0.281,-0.218,0.0
71.707,-12.195,-50.61,0.257,-0.234,0.0
73.841,-9.573,-47.012,0.237,-0.252,0.0
75.061,-6.89,-43.293,0.226,-0.267,0.0
76.28,-4.085,-39.573,0.219,-0.279,0.0
77.439,-1.524,-36.22,0.211,-0.292,0.0
77.744,0.61,-32.561,0.204,-0.303,0.0
77.927,2.622,-28.659,0.2,-0.315,0.0
77.866,4.634,-24.817,0.202,-0.335,0.0
76.341,6.341,-20.305,0.202,-0.35,0.0
74.878,7.927,-16.098,0.194,-0.367,0.0
73.902,9.268,-11.89,0.18,-0.383,0.0
72.378,10.244,-8.049,0.163,-0.392,0.0
70.732,11.037,-4.878,0.151,-0.401,0.0
69.024,11.463,-2.012,0.151,-0.403,0.0
67.378,11.402,0.488,0.145,-0.409,0.0
65.488,10.976,2.561,0.148,-0.411,0.0
63.476,10.061,4.024,0.155,-0.408,0.0
61.098,9.024,4.939,0.169,-0.404,0.0
58.415,7.744,5.61,0.179,-0.404,0.0
55.61,6.585,5.854,0.2,-0.4,0.0
52.439,5.427,5.671,0.227,-0.389,0.0
49.024,3.841,5.488,0.253,-0.391,0.0
45.854,2.744,5.061,0.298,-0.389,0.0
42.927,1.463,4.878,0.355,-0.381,0.0
40.0,-0.488,5.244,0.408,-0.382,0.0
36.951,-2.256,5.549,0.452,-0.384,0.0
33.232,-4.207,5.549,0.494,-0.384,0.0
29.573,-7.134,5.671,0.537,-0.389,0.0
26.463,-10.915,6.037,0.586,-0.399,0.0
22.622,-14.634,6.28,0.648,-0.4,0.0
18.78,-19.146,7.256,0.722,-0.386,0.0
14.756,-23.72,8.049,0.805,-0.361,0.0
9.939,-28.72,9.512,0.882,-0.341,0.0
4.207,-33.841,11.402,0.956,-0.318,0.0
-1.28,-38.841,13.293,1.054,-0.296,0.0
-7.012,-44.085,15.61,1.164,-0.269,0.0
-13.415,-48.78,17.744,1.288,-0.241,0.0
-19.39,-53.049,20.244,1.406,-0.209,0.0
-24.451,-56.402,23.476,1.507,-0.182,0.0
-28.598,-58.841,27.561,1.59,-0.181,0.0
-31.646,-60.305,32.134,1.654,-0.182,0.0
-35.061,-61.037,37.195,1.702,-0.186,0.0
-38.415,-61.402,43.049,1.735,-0.204,0.0
-41.341,-60.915,49.756,1.758,-0.202,0.0
-44.085,-59.451,57.012,1.759,-0.192,0.0
-47.134,-56.951,64.39,1.727,-0.191,0.0
-50.061,-53.963,71.402,1.707,-0.188,0.0
-53.049,-50.61,77.134,1.653,-0.185,0.0
-55.976,-46.768,81.463,1.578,-0.193,0.0
-57.866,-43.293,84.451,1.507,-0.188,0.0
-58.659,-39.634,85.671,1.428,-0.182,0.0
-57.744,-34.878,84.512,1.344,-0.168,0.0
-55.0,-28.476,80.854,1.27,-0.143,0.0
-50.183,-20.915,74.573,1.189,-0.127,0.0
-44.207,-13.232,66.402,1.107,-0.082,0.0
-36.402,-5.183,56.402,1.014,-0.051,0.0
-26.28,2.744,45.488,0.933,-0.014,0.0
-15.366,10.366,33.841,0.859,0.026,0.0
-3.963,18.72,22.256,0.788,0.065,0.0
8.232,26.707,10.244,0.721,0.092,0.0
20.427,33.78,-1.402,0.669,0.121,0.0
32.317,40.915,-12.134,0.635,0.144,0.0
43.78,46.646,-22.134,0.601,0.147,0.0
54.512,50.61,-31.341,0.573,0.148,0.0
64.695,53.11,-39.024,0.551,0.149,0.0
73.72,53.659,-44.512,0.517,0.146,0.0
81.28,52.439,-48.598,0.487,0.135,0.0
87.805,50.244,-52.256,0.462,0.125,0.0
92.683,46.159,-54.512,0.432,0.115,0.0
95.915,40.732,-55.915,0.398,0.106,0.0
98.049,34.268,-55.976,0.361,0.081,0.0
98.78,27.256,-55.427,0.318,0.069,0.0
98.354,19.878,-54.451,0.277,0.059,0.0
96.951,12.683,-52.744,0.239,0.046,0.0
94.024,5.976,-50.854,0.21,0.04,0.0
89.756,0.61,-48.537,0.18,0.028,0.0
85.183,-3.598,-45.549,0.146,0.024,0.0
80.732,-6.341,-42.195,0.118,0.018,0.0
76.341,-7.683,-39.024,0.087,-0.005,0.0
71.768,-7.988,-35.488,0.069,-0.024,0.0
67.5,-7.134,-31.463,0.069,-0.038,0.0
64.207,-5.488,-27.439,0.087,-0.045,0.0
61.463,-3.049,-23.11,0.119,-0.046,0.0
59.39,0.0,-18.659,0.157,-0.057,0.0
57.866,3.72,-14.39,0.204,-0.063,0.0
56.768,7.134,-9.817,0.254,-0.074,0.0
55.183,11.037,-5.671,0.295,-0.083,0.0
54.268,14.878,-2.317,0.324,-0.093,0.0
53.415,18.11,0.671,0.35,-0.103,0.0
51.768,20.976,3.415,0.38,-0.123,0.0
48.659,23.049,6.22,0.415,-0.139,0.0
44.512,24.573,9.146,0.453,-0.152,0.0
38.963,24.573,12.378,0.488,-0.16,0.0
31.829,23.78,15.793,0.534,-0.162,0.0
23.659,22.073,18.963,0.575,-0.158,0.0
14.634,20.061,22.073,0.615,-0.154,0.0
4.146,17.5,25.854,0.665,-0.141,0.0
-6.951,14.573,30.183,0.711,-0.129,0.0
-18.232,11.89,34.329,0.759,-0.106,0.0
-29.756,9.268,38.293,0.818,-0.085,0.0
-41.159,6.646,42.622,0.867,-0.053,0.0
-51.037,3.963,46.768,0.928,-0.02,0.0
-59.146,0.732,50.366,0.99,0.015,0.0
-66.28,-2.988,53.354,1.062,0.047,0.0
-70.732,-7.134,55.854,1.126,0.071,0.0
-72.439,-11.22,57.805,1.192,0.085,0.0
-71.829,-14.817,59.329,1.25,0.099,0.0
-68.78,-18.354,60.549,1.297,0.11,0.0
-64.024,-22.073,61.524,1.329,0.116,0.0
-57.073,-25.183,62.195,1.34,0.108,0.0
-49.207,-27.439,62.561,1.331,0.097,0.0
-41.402,-29.634,63.232,1.311,0.078,0.0
-33.537,-31.22,63.293,1.277,0.061,0.0
-26.28,-32.622,63.049,1.247,0.034,0.0
-19.939,-33.354,62.561,1.198,0.007,0.0
-14.573,-33.171,60.732,1.145,-0.018,0.0
-9.939,-32.866,58.049,1.091,-0.043,0.0
-6.707,-31.829,54.207,1.039,-0.056,0.0
-4.939,-29.817,50.122,0.995,-0.076,0.0
-4.695,-26.89,45.488,0.951,-0.104,0.0
-5.732,-22.988,40.549,0.922,-0.13,0.0
-7.561,-17.744,35.732,0.904,-0.16,0.0
-9.756,-11.341,31.402,0.89,-0.197,0.0
-11.341,-3.841,27.744,0.883,-0.221,0.0
-12.012,3.902,24.573,0.87,-0.238,0.0
-12.073,11.22,21.768,0.858,-0.262,0.0
-11.037,17.927,19.329,0.845,-0.282,0.0
-8.78,23.902,17.195,0.845,-0.296,0.0
-4.573,29.207,15.793,0.854,-0.312,0.0
1.28,33.11,15.183,0.853,-0.312,0.0
8.476,35.671,15.0,0.859,-0.315,0.0
16.585,36.951,14.939,0.879,-0.315,0.0
25.244,37.134,15.061,0.898,-0.304,0.0
33.598,36.585,15.122,0.925,-0.298,0.0
40.305,35.366,15.122,0.974,-0.292,0.0
46.159,33.476,15.244,1.044,-0.264,0.0
50.305,31.098,15.671,1.127,-0.235,0.0
52.195,29.085,15.854,1.245,-0.206,0.0
52.805,26.768,16.037,1.356,-0.164,0.0
51.768,24.146,15.488,1.463,-0.097,0.0
48.11,21.341,14.39,1.587,-0.018,0.0
43.171,18.902,12.439,1.725,0.077,0.0
37.744,16.159,10.854,1.88,0.181,0.0
31.341,13.11,10.061,2.016,0.296,0.0
24.39,9.756,8.354,2.103,0.418,0.0
17.866,6.707,5.61,2.342,0.528,0.0
11.89,3.78,2.805,2.418,0.663,0.0
6.037,0.976,-0.366,2.393,0.796,0.0
0.366,-1.098,-4.512,2.64,0.847,0.0
-3.902,-2.195,-8.963,3.153,0.92,0.0
-7.012,-2.561,-13.78,3.289,1.058,0.0
-8.11,-1.89,-19.146,3.044,1.097,0.0
-7.622,0.732,-23.049,3.073,1.104,0.0
-6.159,4.512,-26.89,3.373,1.104,0.0
-2.439,8.232,-32.195,3.29,1.102,0.0
4.512,12.927,-35.915,3.221,1.025,0.0
12.439,17.134,-39.024,3.205,0.967,0.0
21.829,21.829,-41.524,3.306,0.883,0.0
32.317,23.598,-45.732,3.112,0.777,0.0
44.146,23.902,-51.524,2.819,0.702,0.0
57.134,26.768,-53.11,2.669,0.627,0.0
71.402,21.402,-56.037,2.461,0.537,0.0
85.61,11.159,-61.89,2.241,0.463,0.0
101.52,12.134,-64.512,2.021,0.384,0.0
117.5,30.244,-65.366,1.801,0.304,0.0
132.07,42.073,-66.037,1.577,0.237,0.0
149.69,40.061,-67.073,1.361,0.145,0.0
166.28,43.171,-63.78,1.352,0.098,0.0
180.37,53.78,-61.585,1.087,0.152,0.0
192.99,59.573,-56.463,0.665,0.241,0.0
202.99,64.207,-43.11,0.249,0.269,0.0
211.77,75.305,-30.793,-0.339,0.24,0.0
221.89,94.573,-19.634,-0.973,0.147,0.0
231.95,108.6,-4.451,-1.617,0.007,0.0
238.48,119.15,14.939,-2.09,0.114,0.0
243.78,131.52,33.78,-2.373,0.289,0.0
248.48,143.84,51.402,-2.497,0.198,0.0
249.82,156.89,68.415,-2.554,0.067,0.0
249.69,170.91,85.427,-2.674,-0.027,0.0
247.01,186.65,102.56,-2.903,-0.191,0.0
243.6,203.54,118.84,-3.125,-0.188,0.0
240.79,228.05,139.69,-3.3,-0.248,0.0
233.9,267.19,157.13,-3.498,-0.176,0.0
225.49,302.74,174.88,-3.726,-0.056,0.0
209.82,335.0,198.17,-3.867,0.07,0.0
191.95,363.78,219.51,-3.862,-0.048,0.0
172.81,384.51,235.73,-3.649,0.006,0.0
155.85,396.58,245.61,-3.419,-0.096,0.0
137.19,391.16,263.05,-3.324,-0.245,0.0
110.73,379.82,269.82,-3.113,-0.246,0.0
82.683,367.07,266.28,-2.795,-0.385,1.134
61.829,357.13,265.79,-2.479,-0.527,1.547
49.146,354.39,270.61,-2.17,-0.462,0.0
48.78,356.28,279.27,-1.605,-0.065,0.925
58.902,352.99,291.58,-0.933,0.651,0.128
77.378,345.67,300.67,-0.198,0.897,0.0
103.35,337.74,308.84,0.339,0.566,0.0
131.77,325.18,314.21,0.582,0.319,0.0
151.89,302.13,319.08,0.516,0.054,0.0
151.46,272.44,313.9,0.234,-0.185,0.0
144.57,239.88,302.38,-0.066,-0.42,0.0
132.74,212.26,296.22,-0.343,-0.524,0.0
131.65,192.62,281.77,-0.496,-0.389,0.0
134.15,162.01,261.4,-0.485,-0.155,0.0
133.41,124.27,236.22,-0.405,-0.03,0.0
132.44,81.829,207.07,-0.366,0.144,0.0
117.81,37.5,169.21,-0.353,0.292,0.0
78.476,-14.268,125.73,-0.326,0.422,0.0
