Timestamp,Rotation X,Rotation Y,Rotation Z,Rotation W,Acceleration X,Acceleration Y,Acceleration Z
0.000,-4115583,31255290,-6033543,-17826130,765625,15356450,15722660
0.020,67594640,28122000,-4333105,-69787090,88671870,121032700,9100342
0.030,57806320,26568300,-3469935,-79696250,8408203,15490720,15136720
0.050,57935800,13865060,-11684700,-79791200,10,15197750,27734380
0.060,-4027539,22338770,-1139381,-17810600,10917970,17443850,2644043
0.080,58117070,10756800,-8750794,-79903420,11796880,-18981930,45776370
0.090,5817749,18385470,1122118,-7992930,11748050,-2692871,-11193850
0.100,58246540,17004400,1985283,-79946570,11689450,-32543940,-22766110
0.110,58298330,7225579,-5376673,-79963830,10136720,-25146480,-39379880
0.120,-3890296,5907519,-4105224,-17723420,8598633,-42999270,-50683590
0.130,-3852318,46766410,-29192320,-17692340,49267580,42260740,-34594730
0.140,-3849727,8864730,8312302,-17694930,16418460,9423828,-1743164
0.150,-3864398,102026400,65773360,-17714780,4611206,7285156,-45703120
0.160,-3853180,19412640,-3029717,-17708740,59631350,43237300,-59472660
0.170,58565910,7993538,7992324,-80041510,9777832,6821289,-13647460
0.190,58695380,7660615,7651977,-80015620,45385740,8149414,25195310
0.210,-3668459,83899870,63183860,-17548190,74365230,-9301758,-47546390
0.220,-3658967,21898560,-7449135,-17540430,89208980,-45922850,-18884280
0.230,5884212,25230380,-11022650,-8000698,10351560,-8798828,-3317871
0.240,-3630480,90805220,49373180,-17517120,11425780,-10351560,-30932620
0.250,58911180,29382220,-15502490,-79989730,11044920,-9067383,-859375
0.260,-3558840,30193600,-16417440,-17450650,10302730,-76220700,10510250
0.270,-3514818,31039500,-17297870,-17408360,10693360,-5600586,15441900
0.280,59057910,31048140,-17289250,-79894780,11357420,-42919920,25585940
0.290,59101070,31082660,-17254720,-79851620,11455080,-37768560,28515620
0.300,59135600,9468950,4462573,-79817090,10654300,-33691410,33862300
0.310,59170120,73023970,68017600,-79782560,81591800,-34765620,24401860
0.320,-3333553,31315720,-17021660,-17227090,5473633,-38745120,16992190
0.330,-3325784,30556130,-16054910,-17217600,20812990,-38793940,9552002
0.340,68424150,28078840,-13353210,-70476760,-35949710,-3425293,36102300
0.350,5917014,9123680,5843643,-7969625,-24804690,-31640620,93566900
0.360,68389620,88215710,64047020,-70442230,-39282230,-29003910,7739258
0.370,5914424,7743303,7741921,-7967035,-46948240,-24511720,7519531
0.380,68363720,78807180,78807180,-70416330,-578125,-13391110,10437010
0.390,-3334415,8009505,8010885,-17208970,-5776367,10205080,927124
0.400,59066550,80015620,82777750,-79644460,-5258789,10614010,30258180
0.410,-3363762,-11575080,28130630,-17231410,-6484375,60157780,-7885742
0.420,-3374116,58177480,109967500,-17238310,-7792969,28884890,-13562010
0.430,58997490,-22537300,39610750,-79609930,-85498050,8477783,-13427730
0.440,-3368938,83123020,90200990,-17226230,-88916020,8111572,-17834470
0.450,-3361174,4902792,12671300,-17216740,-9277344,50567630,-15539550
0.460,-3345635,-31660980,49476760,-17197750,-87890620,12805180,-10949710
0.470,-3346498,-41394060,43196350,-17196890,-77441410,26245120,-12641910
0.480,-9596607,-34051960,52264790,-10981310,-67529300,22790530,-49194340
0.490,58902550,-33965640,52351100,-79532250,-50683590,60668940,-44036860
0.500,68173830,-33896580,52420160,-70243700,-3383789,32691960,2015686
0.510,-3456121,-33827530,52489210,-17294430,-2220459,-46661380,11260990
0.520,58781700,-33775740,52541000,-79584040,-2010498,-25222780,10961910
0.530,-3501005,-33723950,52592790,-17335860,-31420900,-3366089,10058590
0.540,-3519134,5066793,13871100,-17352260,-39941410,-3378296,10296630
0.550,58712650,-36244400,55251340,-79601300,-42944340,6829834,12963870
0.560,-3538124,-3707304,5614905,-17367790,-3803711,13586430,18676760
0.570,-3546754,-3963664,5876444,-17376420,-43823240,22741700,21740720
0.580,-3573511,-41337090,60516670,-17401460,-4572754,22399900,1907959
0.590,58626330,-43900690,63132060,-79635820,-34301760,12121580,2915039
0.600,58600440,3944678,15338480,-79644460,-27148440,23291020,53027340
0.610,-9848135,3720252,15631960,-11230410,-29174800,32983400,6245117
0.620,-3646017,-52428790,71867320,-17467060,-28833010,46166990,6142578
0.630,58522750,-5496647,7450859,-79670350,-2763672,48535160,80029300
0.640,5850550,3271405,16391550,-7967036,-24963380,63427740,9765625
0.650,5849686,3426776,16374290,-7966173,-16760250,7885742,11630860
0.660,-3684861,3608040,16382920,-17497270,-17956540,8647461,12958980
0.670,5847097,3797937,16400180,-7963583,-23339840,8798828,13251950
0.680,67977900,4082786,16339760,-70094380,-24902340,80566410,12929690
0.690,-3671914,4272679,16357020,-17475690,-2331543,69433590,13017580
0.700,58453700,4376262,16460600,-79566780,-3605957,67822260,12304690
0.710,-9857973,-51634680,72661430,-11237840,-53564450,6977539,10605470
0.720,58445070,4030995,17151130,-79523620,-7314453,59716800,85546870
0.730,58445070,3668465,17651770,-79506350,-9526367,49609380,64453120
0.740,-3642562,-65255460,86662020,-17435990,-9584961,27001950,4777832
0.760,-3582145,-8076657,10222490,-17375560,-94189460,-26708980,21618650
0.770,58565910,595589,20793700,-79402780,-10791020,-12792970,5341797
0.780,-9676711,10640440,10662540,-11056570,-10693360,-29006960,65625
0.790,-3440585,-1406962,22589090,-17240910,-10253910,-14562990,49194340
0.800,-3395700,-2511817,23555840,-17199470,-91064460,-4169922,22473140
0.810,-3324058,9028732,11825390,-17133010,-68115230,-4597168,52001950
0.820,58902540,-13814130,15878830,-79238770,-5029297,-2993164,9555664
0.830,-3225656,-5394798,25851870,-17041520,-19885250,-23925780,94921870
0.840,68084920,-6163012,26464710,-70108180,-6881714,-51171880,73828130
0.850,-9390656,-6844916,26991240,-10772930,13830570,-45263670,8305664
0.860,59075180,-7518184,27526400,-79169720,18798830,-33129880,7685547
0.870,-3107402,-17940760,18139640,-16935340,17980960,-3762207,54833980
0.880,-3072012,-8571253,28372320,-16901680,14697270,-3330078,3347168
0.890,59221920,-17831310,19802780,-79092030,16064450,-43286130,36206060
0.900,-2975337,-9158207,28821160,-16808460,15979000,-3955078,20166020
0.910,59351400,-9261785,28890210,-79014350,16821290,-6020508,64941410
0.920,-2843274,7889351,11721820,-16681570,19226070,-58496100,1907959
0.930,-2773356,7880720,11730450,-16613380,15820310,-47631840,31762700
0.940,68246340,7897986,11747710,-70171200,88134770,-3449707,21789550
0.950,68252380,7923880,11756340,-70165160,35491940,-16845700,20324710
0.960,59713930,7949775,11782230,-78720870,-52948000,-10253910,11804200
0.970,59774350,-9184100,28967900,-78660450,-19396970,-3149414,1282959
0.980,-2460026,-8985572,28821160,-16305230,-26049800,-4260254,2401123
0.990,-8629862,-18631300,18830170,-10014560,-3095703,4537964,3359375
1.000,-8578071,-8588516,28527680,-9962767,-27929690,18249510,46875
1.010,-8534912,-8381355,28389580,-9919608,-29003910,24646000,43798830
1.020,-8500385,-8087879,28165150,-9885081,-30908200,25683590,43237300
1.030,-8483122,-7872087,28035680,-9867818,-38476560,20080570,3251953
1.040,-8474491,-16769620,18792880,-9859186,-44604490,1282959,27954100
1.050,6006784,-7449135,27768100,-7838424,-5541992,7751465,27783200
1.060,6006784,-7164290,27535040,-7838424,-61865230,6976318,3425293
1.070,60050560,-6870810,27310620,-78384240,-6855469,-77934260,5102539
1.080,60024670,-6663648,27172500,-78392870,-7084961,-22094730,5834961
1.090,-2289982,8623043,11954870,-16130010,-7167969,19515990,6791992
1.110,59886560,-5688270,26421550,-78479180,-78759770,34118650,82421870
1.120,-2440174,-14754980,16836950,-16273300,-87841800,14379880,9135742
1.130,-2519585,-4911423,25817340,-16349260,-84814460,3708496,81152340
1.140,59601710,-13883180,15982410,-78660450,-7836914,38110350,64208980
1.150,-8941810,-3961939,25040490,-10324090,-72998050,49835200,60009770
1.160,-2827736,-13011390,15127870,-16645320,-70947260,-3330078,5415039
1.170,59230550,9253157,11980760,-78910770,-7138672,-31982420,55615230
1.180,6805904,-2718977,24039210,-7004777,-7651367,-49951170,47070310
1.190,-3144518,-2330552,23737100,-16950020,-6816406,-65966800,3461914
1.200,58876660,-2028440,23521310,-79143820,-50878900,-67822260,15698240
1.210,-9529972,-1717703,23314150,-10909830,-22619630,-62158200,13195800
1.220,-3400878,-1303383,23037940,-17194300,5230713,-4790039,-74920660
1.230,58591810,-802742,22675400,-79307820,43286130,-2064209,14205930
1.240,5852276,-379793,22407830,-7934235,6020508,17297360,-5029297
1.250,-3545029,9995478,12239710,-17326360,5673828,5683594,-14111330
1.260,58436440,11201500,11223590,-79342360,38964840,7763672,-3088379
1.270,-3564882,10176740,12403720,-17341030,6980896,8779297,-6464844
1.280,-9729709,34526,22649510,-11107150,-4699707,9199219,-8491211
1.290,-3504459,-120844,22839410,-17280610,-9057617,6904297,-8725586
1.300,-3469933,-224424,22908460,-17246090,-11337890,3696289,-90185540
1.310,67865670,-267579,22865300,-69930370,-1296875,15307620,-8066406
1.320,-3406057,-250318,22709940,-17189120,-13623050,-79956060,-7758789
1.330,-3387069,-10194010,12420980,-17173580,-12978520,-30517580,-8173828
1.340,58695390,9917797,12144760,-79204250,-10488280,-42895510,-7109375
1.350,58755810,10899390,10921480,-79195620,-71240230,-48608400,-58154300
1.360,5882487,10761280,10783380,-7917835,-39013670,-59765620,-44506840
1.370,-3230836,10623170,10645270,-17036340,-14111330,-58984380,-23352050
1.380,-3175592,1038564,1060660,-16988000,8105469,-48168940,-35308840
1.390,5905792,1023890,1045986,-7911793,19909670,-33935550,5404663
1.400,59152860,9097788,11324750,-79092030,26513670,-20544430,13464360
1.410,-3002959,8942414,11186650,-16832630,3647461,-10992430,12915040
1.420,5931687,8795676,11039910,-7903161,46362300,-99609380,647583
1.430,68229070,-10330390,12284600,-70188460,48168940,-16442870,-6365967
1.440,-9035549,-1778125,21009500,-10420240,45458980,-16394040,-12915040
1.450,59610340,-2114758,21018120,-78928030,40234380,-119140600,-24133300
1.460,59722550,-2356443,20949070,-78884870,33520510,-18457030,-375
1.470,-2561017,-2693083,20957700,-16428670,36865230,-265625,-36889650
1.480,59955610,-2934767,20888650,-78772660,41259770,-38085940,-37426760
1.490,6009373,-3185086,20810970,-7870361,40795900,-44189450,-41918940
1.500,-2258045,-3435406,20733280,-16144690,5,-40966800,-43701170
1.510,-2151012,-3763409,20750540,-16044560,51171880,-47558590,-55859380
1.520,68603680,-4186360,20845490,-70400800,5185547,-45214840,-56347660
1.530,60672050,68880760,94603140,-78401500,47998050,-2915039,-51660160
1.540,-80395420,-5101315,21138970,-94309670,4038086,-8685303,-30444340
1.560,-1513133,-5619219,21138970,-15439480,49047850,71191410,27905270
1.570,-1398331,-5619220,20966340,-15329850,6435547,7138672,6142578
1.580,61397100,63011220,89078880,-77952650,69970700,7192383,7836914
1.590,6149209,62838580,88388340,-7789221,8066406,29663090,8305664
1.600,-74253980,-4980473,20051380,-88194140,9189453,36572260,11425780
1.610,-1109169,-4635209,19706110,-15049330,10068360,10693360,12626950
1.620,-1126429,64047030,87525180,-15066590,9765625,15761720,12011720
1.630,-11713180,6542816,8769782,-151080200,7426758,1671875,91064460
1.640,-1250729,-2788030,18273260,-15183980,2944336,12207030,34294130
1.650,-1303379,68708130,88043070,-15234900,-3970337,-51193240,-20585940
1.660,61423000,-975376,16805870,-77874970,-37841800,-7167969,-30
1.670,-74517250,-172629,16054920,-88448770,-11347660,-15166020,-14335940
1.680,-1103991,241688,15606070,-15037240,-11191410,-18349610,25566410
1.690,-74517250,586958,15260800,-88448770,-7080078,16279300,33300780
1.710,60948260,1286123,14751530,-78228860,-18005370,91064460,9682617
1.720,-1873073,1355174,14647950,-15787330,-7548828,21374510,18493650
1.730,-2012905,1217068,14682480,-15923710,-85009770,-75439460,-3803711
1.740,-2090588,71815540,85626210,-16001400,-8129883,-8125,-7910156
1.760,60456250,1078963,14371740,-78669080,-7753906,-5488281,-8149414
1.770,-2157918,1355174,13957420,-16072180,-5234375,-27563480,-8286133
1.780,-2148421,70002890,81741960,-16064410,-2824707,-34985350,-6542969
1.790,60482140,-46869990,61889100,-78694980,-105041500,-2861328,-40356440
1.800,-2155327,-43486380,58367380,-16074770,8862305,-9472656,-91674810
1.810,-8436252,2710346,12032560,-9828369,34960940,8178711,20666500
1.820,-2233011,68967080,77253480,-16152450,6245117,6732178,13171390
1.830,6035269,-30720130,45238610,-7884173,8779297,-4272461,14978030
1.840,-2336593,-27310620,41742780,-16256040,10361330,12310790,20861820
1.850,-2379752,-24747010,39127380,-16299190,10214840,13439940,33398440
1.860,60205930,4151839,10194010,-78971190,8540039,80566410,40454100
1.870,60171400,-22174770,36520610,-79005720,5541992,5958557,359375
1.880,-2493690,6913973,7466399,-16409680,19616700,-15649410,2861328
1.890,-2511816,-18661680,33128370,-16426080,-72143550,-2692871,16784670
1.900,60076460,-16892180,31445190,-79048870,-36914060,-26879880,10046390
1.910,-2548066,52566900,93998940,-16458880,-5229492,-122558600,9136963
1.920,-2573964,-10755070,25497970,-16484770,-5488281,38635260,18249510
1.940,59929710,-2037072,16952600,-79126560,-27905270,23754880,29907230
1.950,-2689629,7487979,7496610,-16593530,-13134770,2722168,35131840
1.960,-2733652,7526821,7526820,-16635830,-21865840,32299800,3955078
1.970,59774340,7557035,7548397,-79230140,60577390,2286377,390625
1.980,-2838954,84417780,67154430,-16737680,7989502,11602780,28466800
1.990,59627600,88992560,63097530,-79325080,9753418,-62316900,15808110
2.000,-2962391,24902380,-9624316,-16855930,10888670,-22949220,100097700
2.010,59480870,28398210,-13033830,-79420040,12030030,-35180660,13598630
2.020,68438820,2580529,-2425849,-70444820,14294430,-35961910,17810060
2.030,5933412,37142100,-21553290,-7951497,11541750,-3647461,1451416
2.040,-3210116,82000900,75268200,-17091580,10736080,-24633790,17163090
2.050,59178750,45920510,-30038230,-79601300,105041500,-16247560,17858890
2.060,5910969,50314030,-34276380,-7963580,64086910,-13183590,10748290
2.070,59049280,12757620,3435404,-79661720,758667,-15161130,4257202
2.080,5898890,86748320,76735580,-7968758,9851074,-18859860,-18936160
2.090,58962970,62640060,-46119040,-79696250,7696533,-27734380,-47729490
2.100,-3452671,14130050,2563607,-17315140,4852295,-27124020,-8270264
2.110,58911180,90459940,78202970,-79696240,4814148,-28930660,-4953003
2.120,58911180,14915540,2140652,-79678980,-38238520,-28222660,15525820
2.130,-3456124,15260800,1968021,-17311690,-7543945,-2043457,-32928470
2.140,58893910,93826300,80188260,-79644460,-13000490,-1060791,-4852295
2.150,-3431955,15770070,1786757,-17284070,-17687990,15289310,22369380
2.160,5890255,16020390,1691808,-7960130,-18811040,10961910,6573486
2.170,-3415554,8229440,-6444409,-17265940,-27954100,120666500,-23620600
2.180,58911180,16486500,1467382,-79575410,-29370120,14440920,15926360
2.200,-9622504,16900820,1191172,-11007200,-19677730,14511110,-89782710
2.210,-9613873,8934646,-7120268,-10998570,-18811040,-30345920,-16430660
2.220,-9596609,9917794,8260512,-10981300,-18151860,-8166504,-24353030
2.230,-9587977,17556830,638744,-10972670,-14050290,-14013670,-28051760
2.240,-9579345,17815780,379794,-10964040,-5029297,-24291990,-2788086
2.270,-9527556,18445890,-198529,-10912250,4802246,-22595220,-14038090
2.280,-9501662,10496980,-8665338,-10886360,62158200,-22106930,8520508
2.290,-9467134,18877470,-457479,-10851830,7314453,-21643070,22998050
2.320,59161500,19481690,-543798,-79273300,5786133,-58685300,5463867
2.340,59178760,20008220,-535166,-79186980,19580080,31274410,75878900
2.370,-9304340,11333390,9140943,-10686620,-2800293,4675293,6923828
2.390,5902339,22347400,-1130749,-7908339,-5522461,38134770,34765620
2.400,-3162646,22951620,-1389700,-16966420,-64404300,28637700,17810060
2.410,58885280,23555840,-1648653,-79083400,-6088867,31811520,-957489
2.420,58798970,24142800,-1924866,-79100660,-6567383,33691410,-27270510
2.430,-3302479,24807430,-2296026,-17085540,-4189453,30908200,-3071289
2.440,58634970,25549760,-2762140,-79143830,-20397950,4555664,-40429690
2.450,-3429364,26283450,-3236878,-17200340,-1665039,16699220,-75
2.460,-3492376,26999880,-3728884,-17258170,-10998540,16937260,-86621100
2.470,58376020,27612730,-4151839,-79230140,-16235350,-70251460,-10
2.480,58306960,28122000,-4505736,-79247410,-11584470,-45837400,-11113280
2.490,-3628756,28700320,-4963215,-17380740,-18811040,-2692871,-11689450
2.500,58194750,18541700,-16157630,-79290560,-57128900,-45141600,-10820310
2.510,-3700399,29736120,-5826382,-17447200,-7244873,-44384770,-11240230
2.520,-3718526,30202230,-6223440,-17463600,-11993410,-31030270,-10380860
2.530,58108430,19845090,-17443760,-79325090,-1607666,-32165530,-10585940
2.540,58091170,13931530,10099060,-79342350,-8682251,-3579712,-10146480
2.550,-3763411,31609190,-7578610,-17505040,26660160,-6097412,-8623047
2.560,5806527,32135730,-8087879,-7935097,53808590,-92163090,-7036133
2.570,-3781538,32670890,-8588517,-17521440,66015620,-8581543,-5283203
2.580,58039380,22354320,-19940900,-79342350,75097660,-10241700,-44604490
2.590,5803938,33775740,-9555263,-7932508,7207031,31223300,-42773440
2.600,-3766863,14389000,9952321,-17501580,7163086,927124,-3017578
2.610,58022110,35035970,-10539280,-79290560,7446289,11975100,-23022460
2.620,-3770316,35743760,-11039910,-17498130,8066406,14672850,-18969730
2.630,-3772906,25243330,-22748780,-17495540,87890620,3286743,-15234380
2.640,-3775495,3730611,-1206708,-17492950,9223633,-14660650,-13134770
2.650,-3770315,13036420,12530600,-17480870,9008789,-25268560,-10101320
2.660,57892640,38946120,-13016570,-79143820,8652344,-22509770,-7220459
2.670,-3769452,39748860,-13422250,-17464460,78222660,-15527340,-18615720
2.680,57814950,16098080,10660120,-79048870,6738281,-9686279,1486969
2.690,-9933157,16400180,10824120,-11300760,6323242,-6982422,-3604126
2.700,-3784126,42347000,-14622060,-17449790,5180664,-24169920,-2482605
2.710,-3789305,43210160,-14967320,-17444610,41430660,22491460,-34179690
2.720,-3786716,43995640,-15217640,-17429940,2631836,101989700,-70251460
2.730,57573270,17686300,11644130,-78755400,7183838,14221190,-8465576
2.740,57530110,18005680,11859920,-78677710,-5444336,13562010,-36499020
2.750,-3743558,46455670,-16037650,-17352250,-10827640,13696290,-30059810
2.760,-3723705,47241160,-16287970,-17320310,-16357420,17956540,-32073980
2.770,-3712484,48121580,-16615970,-17297010,-14013670,13757320,-7128906
2.780,-3701261,19317690,12705830,-17273710,-93322750,37353520,-9527588
2.790,-3681410,49934240,-17392830,-17241770,-23651120,-37902830,-13000490
2.800,-3661558,50797400,-17738090,-17209830,9399414,-7397461,-8709717
2.810,-3633073,51738260,-18178310,-17169260,115722700,-7678223,1676941
2.820,-3613219,20586540,13474040,-17137330,23266600,-8258057,21118160
2.830,57219370,5343873,-1889476,-77900860,37939450,-2286377,8569336
2.840,-3565746,54198280,-19170950,-17063950,54003900,-34155270,51849360
2.850,57150320,54862920,-19369480,-77728220,6230469,-53027340,15820310
2.860,57124430,55354930,-19395370,-77633280,6386719,-40454100,22717280
2.870,57098530,39195570,-35554730,-77538340,7314453,-43481440,37329100
2.880,57081260,39132560,-35445110,-77452020,74853520,-59277340,3869629
2.890,-3403471,38896920,-35162850,-16846440,78564460,-77441410,38110350
2.900,-3322332,55423980,-17599990,-16754940,5595703,-59521480,6381836
2.910,-3223930,5507009,-1674545,-16646180,33276370,-3659668,7998047
2.920,-3117763,37331990,-33447740,-16527930,20129400,-12359620,8334961
2.930,-3002960,54655760,-15260800,-16401040,13903810,10266110,99658200
2.940,57340210,36699300,-32699370,-76502530,13098150,37402340,10546880
2.950,-2775947,54923340,-14302690,-16144680,12414550,55371100,10957030
2.960,57426530,55329040,-14069630,-76105470,12792970,69970700,11025390
2.970,65757820,55821040,-13922890,-67601540,19311520,6660156,11279300
2.980,57478320,56399360,-13862470,-75708420,27319340,6723633,11191410
2.990,57504220,21933950,21224420,-75509890,29370120,6333008,10605470
3.000,-8226503,25480700,18316410,-9554745,25854490,5727539,10400390
3.010,-2154466,5846234,-1404373,-15419620,24084470,44067380,11083980
3.020,-20612440,59126980,-14069630,-153056900,18518070,34277340,10263670
3.030,65266680,59877930,-14181850,-66987830,1381836,21081540,92871100
3.040,-1925727,60715200,-14380370,-15130460,7896423,10028080,78564460
3.050,-83931210,61457530,-14501210,-85249610,-14758300,-14839170,7006836
3.060,-18178300,27647260,19930540,-149794100,-29296880,27175900,61865230
3.070,-1785031,63365120,-15183120,-14925890,-36523440,-17213820,37402340
3.080,-1761725,64426820,-15675120,-14880140,-47509770,-60699460,26708980
3.090,64659870,43293030,-38362620,-66317150,-5498047,-1625061,12927250
3.100,-1730651,4426928,-3928534,-14807640,-6069336,-9240723,13198850
3.110,57038100,67801810,-17479140,-73541860,-5917969,-21142580,-59173580
3.120,56960420,45955900,-40878750,-73446920,-53271480,-27905270,-49682620
3.130,56891360,2558873,2557984,-73343340,-4777832,-3251953,48309330
3.140,-1704755,30254020,21294340,-14712690,-37329100,-25512700,17700200
3.150,56779150,71435740,-19542110,-73162070,-19396970,-18151860,21386720
3.160,-16831760,30702870,21501500,-146652100,-13464360,-22509770,1796875
3.170,-16633240,26714180,25783680,-146332800,-7055664,-20959470,20739750
3.180,-16434710,31082670,21691400,-146013400,17044070,-13146970,21081540
3.190,-1613259,31238030,21777710,-14562500,-18815990,-14355470,1529541
3.210,56632420,31496980,21984870,-72670060,-29467770,-1274414,-13452150
3.220,56632420,31609190,22079820,-72601020,-5078125,-18408200,-29736330
3.230,-1491554,7474167,-2089728,-14407990,-6376953,-31396480,-43017580
3.240,56632420,75069680,-21087180,-72480170,-7631836,-45703120,-5341797
3.250,-72438740,75449470,-21397920,-85348270,-9223633,-5317383,-6879883
3.260,-72094340,7581204,-2172590,-85002140,-9682617,-62890620,-7885742
3.270,-1374162,31937200,22114350,-14283690,-99072260,-60546880,-8105469
3.280,56779150,31945830,22053920,-72350700,-91015620,-30249020,-5883789
3.290,-1301655,31911300,21984880,-14218090,-62158200,12451170,-34643560
3.300,56891370,27376220,26381850,-72342060,-19482420,47338870,26916500
3.310,-1216203,31738660,21829500,-14148180,4949951,6113281,2232666
3.320,57072630,7588971,-2251143,-72350700,5770874,4580078,42578120
3.330,-11022650,75276840,-22088450,-140549600,-15063480,29174800,40356440
3.340,-6878670,50813800,-45515680,-8174971,-28100590,46905520,38989260
3.350,-989190,7413746,-2132887,-13960870,-2722168,-17980960,21875
3.360,5748696,31065400,21570560,-7231616,-26293940,-36889650,11273190
3.370,57573270,7347285,-2095773,-72298900,-35620120,-34472660,-13513180
3.380,-66527770,30918660,21492870,-79520170,-38134770,-21276860,-20715330
3.400,57789060,30858240,21432440,-72203950,-15759280,-3643799,-2512207
3.410,-663775,30840970,21415180,-13664800,-51452640,27374270,-15075680
3.420,57909900,30823710,21415180,-72134900,22296910,58380130,-40161130
3.430,-5489748,30797820,21406550,-135551800,-18859860,6591797,7745361
3.440,-486825,30763290,21406550,-13496490,-117126500,6738281,16955570
3.450,-6289210,30728760,21389290,-7590521,-14465330,10498050,23291020
3.470,5822929,26472480,25541990,-7195363,-19506840,17871090,4584961
3.480,58281070,30616550,21328870,-71936380,-14807130,7928467,25268560
3.490,-61417820,30564760,21294340,-74444740,-11987310,5206299,2763672
3.500,-61069960,7205725,-2030167,-74102060,-13574220,2310791,32788090
3.510,-66675200,7182419,-2018946,-67978930,-12463380,32983400,26538090
3.520,-202846,48323560,-43172180,-13245300,-40100100,48046880,13793950
3.540,-2062976,26086650,25185500,-132591200,2121582,35913090,86120610
3.550,-2123392,7029641,-1912779,-132703400,3815918,30444340,14929200
3.560,-67019260,29977810,21087180,-68325400,52246100,19189450,20800780
3.570,-2615396,25507040,25506150,-133247200,59228520,6842041,22814940
3.580,-286571,29882860,21078550,-13351470,5932617,-74035650,23120120
3.590,-312467,6940730,-1846315,-13377370,56347660,-109069800,18920900
3.600,-338361,29856960,21069920,-13403260,56347660,-1361084,15014650
3.610,-355625,6940730,-1846315,-13420530,61035160,-96191410,14208980
3.620,58419180,29865590,21095810,-72212590,61572260,-69732660,123168900
3.630,-6252266,29882860,21130340,-7558411,6645508,23254400,12298580
3.640,58384640,69217400,-18135150,-72195320,7167969,3475952,20141600
3.650,-369437,69182870,-17997040,-13423980,77734380,27374270,22717280
3.660,58376010,69070660,-17763990,-72134900,7495117,-44769290,22937010
3.670,5835874,45904110,-40757900,-7208310,7421875,-13586430,22607420
3.690,-61502400,69174240,-17315140,-74532780,65478520,-16235350,20361330
3.700,-2390972,69286450,-17202930,-132608400,3720703,-1274414,14355470
3.710,-6056157,45861810,-40627560,-7357465,2998047,-6713867,8892822
3.730,58358750,69519500,-16624610,-71582470,35668940,-52368160,12878420
3.750,-207160,69433190,-16020390,-129958500,31323240,-690918,27783200
3.760,258952,45237750,-39870570,-129388800,3137207,-11663820,32885740
3.770,64736,44990880,-39599530,-12891400,3227539,-23034670,30249020
3.780,58358750,44829470,-39415680,-71116370,3425293,-24084470,24743650
3.790,-5705969,6895845,-1459616,-6999857,26123050,-2006836,19897460
3.810,145013,31471080,23236470,-12781780,16784670,22399900,1430664
3.820,5829833,68250650,-13404990,-7091781,17358400,10398870,12512210
3.830,5827242,43143700,-37648780,-7089193,20422360,46081540,21118160
3.850,58229280,66990420,-11903080,-70883310,26513670,53985600,1973877
3.860,58203380,6648982,-1136794,-70909210,30297850,29876710,17456060
3.870,58168850,6579929,-1067741,-70943730,33544920,-13183590,6149292
3.880,58125700,65186410,-10081800,-70986890,27685550,-27661130,6427002
3.890,-258952,39610760,-34103750,-129388800,22180180,-27685550,16625980
3.900,-64609720,6367589,-865754,-65901190,2866211,-23693850,2076416
3.910,58013480,3102227,2392698,-71168160,38354490,-7611084,20617680
3.920,6454179,62130790,-7267873,-6467435,45166020,-70617680,19836430
3.930,-209750,61293520,-6551441,-13134820,51708980,-14587400,19482420
3.940,63979700,30607920,24013320,-65322780,4621582,-17370600,15673830
3.950,-61117430,34747670,-29299350,-74054580,4104004,-97473140,12634280
3.960,-61545560,58237910,-3910146,-74489620,3935547,-77819820,105163600
3.970,5788402,30090020,24082370,-7160836,36132810,-10247800,9069824
3.980,57866740,56166310,-2183819,-71711950,34594730,-8013916,6738281
3.990,57840850,30915210,-25535950,-71806900,32128910,-6762695,8013916
4.000,-63948620,29520330,24082380,-76920300,2553711,-11315920,115600600
4.020,5777181,29071480,24047840,-7213489,17663570,-647583,-23651120
4.040,-72373310,48976130,3573518,-73674620,-3289795,9106445,-10467530
4.050,-67029260,47534630,4721530,-80054460,-8135986,32885740,-49865720
4.090,-1016811,42856260,8156930,-14088620,5014038,4555664,-16145710
4.100,-69330480,42174370,8510834,-82414370,4189453,2854004,7330322
4.110,-69497060,26827250,23547210,-82593040,46240230,15429690,32104490
4.120,-69749980,41250780,8795679,-82858040,6713867,-569458,27416990
4.130,-1104855,18454520,-13482680,-14225000,6430664,-3959961,1583252
4.140,57970330,40491190,8899252,-73351970,61328120,-41601560,4498291
4.150,-1154054,40059600,8985574,-14296640,5727539,-31030270,-10449220
4.160,-1182539,39628020,9071891,-14337210,45922850,-375,-22753910
4.170,58056640,39110120,9244522,-73628180,24536130,-3623047,-119262700
4.180,58091170,38583590,9408522,-73714500,17004400,-21777340,-14355470
4.190,5815160,38048420,9563895,-7379217,14294430,-19628910,-29882810
4.200,65258920,25005960,22226560,-66822970,-34637450,-19042970,-42993160
4.210,-1183402,36891780,9960954,-14405400,-2614746,-23498540,-5317383
4.220,58427810,15356620,-10711050,-73947560,-42797850,-26586910,-5854492
4.230,-1090181,14991490,-10385630,-14343250,-5180664,-30517580,-60253900
4.240,-1039253,35174080,10487490,-14307860,-54052740,-26733400,-546875
4.250,-9796956,34613020,10616960,-142638400,-53222660,-2310791,-54833980
4.260,-68963620,34138280,10660120,-82263300,-46826170,-13952640,-4477539
4.280,-6773879,23072470,20845490,-8107127,-4970703,7287598,-28564450
4.290,59368660,32601840,10850010,-74111560,-3918457,24975590,-18640140
4.300,-6283860,32196150,10789600,-139936700,-26879880,3239746,-13293460
4.310,59653500,12569450,-8319211,-74171980,-15441900,24938960,-15795900
4.340,-3633936,30495710,10642860,-137925500,4940796,-37994380,-171875
4.370,-119120,109760400,-69778460,-13587980,-11254880,-16809080,-27490230
4.380,-66998370,10614370,-6648976,-68346290,-20874020,-10101320,-38745120
4.400,60896460,27232930,11868550,-74102930,-30078120,-60791020,-46044920
4.410,-58328540,26594190,12265610,-71837110,-36694340,12963870,-48046880
4.420,61164040,8577298,-4715487,-74007980,-44433590,13232420,-6123047
4.430,435900,25325330,13068360,-13089930,-46362300,9136963,-53808590
4.440,-55726950,24790170,13396360,-69259690,-51416020,22546390,-58935550
4.450,61526580,7164293,-3366356,-73869870,-4074707,40740970,-6245117
4.460,61647420,23650790,14155940,-73818080,-3215332,17224120,-4038086
4.470,61742360,61120890,-23469520,-73774910,-18322750,25390620,-2956543
4.480,8398616,55864200,-18368200,-127170500,-36987300,23449710,-3852539
4.500,957254,18894740,18342310,-12610010,-20141600,54248050,-11621090
4.510,984874,41863620,-4747421,-12585840,8459473,5385742,-5731201
4.520,62087630,35778290,1251591,-73654080,13745120,58251950,-3753662
4.530,62096260,29701600,7259236,-73662710,-18444820,6796875,-3567505
4.540,-5138867,18450200,18441570,-6496629,-5576172,48339840,-3762207
4.550,-5190657,1838547,1842000,-6548420,-6220703,11065670,-5
4.560,-52509930,8856100,27845780,-66089280,-5522461,-2897644,-39746100
4.570,6192363,-1457113,1822923,-7390440,-31860350,-10809330,8105469
4.600,67314980,-19818320,56140410,-68547580,-50634770,2109375,6652832
4.610,5696908,-43072910,46696490,-130165600,-6479492,21789550,31375880
4.640,61561100,11281600,24574380,-74370500,-14208980,-31143190,-546875
4.650,3426772,-5468160,9033047,-132556600,-16181640,-18200680,-56933590
4.660,2934768,9840112,25549760,-133100400,-17148440,-22253420,-52734380
4.670,61483420,16710930,18385470,-74620820,-16533200,-2614746,-49047850
4.680,6802037,8484935,26266180,-6815294,-14335940,-23803710,-2697754
4.690,-5999617,7872087,26516500,-7362214,-115625,-11425780,-15722660
4.700,-60596080,7155659,26835880,-74230670,-93359380,-687027,-53710940
4.710,-61110530,-101899500,105260700,-74752040,-68652340,21560670,1661377
4.720,61405730,5817752,27396930,-75095570,-53222660,6518555,20471190
4.740,61397100,4402158,28052940,-75276830,-33862300,-15710450,12548830
4.750,61379840,3789309,28303260,-75363150,-28125,-28125,9716797
4.760,-63507540,-11101190,14275930,-77188740,-3413086,-29589840,-6866455
4.770,-242550,-11550040,14690250,-13930660,-43359380,-32714840,-71899420
4.780,-282254,2062969,28993790,-13977270,-5073242,-25634770,-21472170
4.800,-379792,854535,29511700,-14086890,-5292969,-1899414,-21972660
4.810,61293520,258952,29779270,-75846530,-53515620,-15673830,-2590332
4.820,-4678368,-353893,30029600,-141887500,-45410160,-1381836,-20983890
4.830,61250360,-871796,30202230,-76010520,-36645510,-13549810,-19921880
4.840,61241730,-1484646,30452540,-76088210,-26367190,-19116210,-25097660
4.850,-605079,-1933496,30521600,-14344980,-17126460,-19189450,-15698240
4.870,-68737470,12265610,15597440,-82489460,4159546,-19934080,-1537323
4.880,-69079290,12075720,15424810,-82838180,14257810,-11987310,5819702
4.900,-797566,-15574990,18261170,-14566820,2722168,-29510500,32562260
4.910,-7027995,-3633934,30202230,-8405439,19372560,-42877200,4473877
4.920,61155410,-3866986,30141800,-76640630,10620120,-12866210,22583010
4.930,61155410,-4091412,30090010,-76692420,79711910,-10211180,26138310
4.950,6114680,-4289942,29718850,-7678738,1352539,-1730957,10185240
4.960,-77685670,-4333095,29503060,-79065530,21484380,-2709961,49102780
4.970,-9451680,10780970,14130050,-147472200,22680660,-30200200,7354736
4.980,-9598416,1066881,1398332,-147670700,19384770,-33544920,-1146698
4.990,-71901840,10556540,13853840,-85712520,16125490,-3244629,-8178711
5.000,-9822848,10452970,13733000,-147964200,15441900,-2590332,-103881800
5.010,-72071030,-15115780,17511940,-85888620,19360350,-20141600,-9802246
5.020,-72155620,-4350361,28104740,-85976660,15209960,-11236570,-8673096
5.030,-9943688,-4272672,27837150,-148188600,1697998,-19677730,-1303711
5.040,-72152160,-4177728,27586830,-85980100,16137700,-14477540,-4824829
5.050,-9822848,-3987829,27258830,-148136800,14624020,-15344240,-67871100
5.060,-71976940,-3789303,26939460,-85810060,12146000,-17822270,-4196167
5.070,-71889760,-3487193,26551030,-85724610,12371830,-18566900,10144040
5.080,-9451680,-3262767,26257550,-147817400,7952881,-16601560,1899414
5.090,-71542770,-2943397,25886400,-85381070,4434204,-13806150,30395510
5.100,6137122,-2598133,25541120,-7701180,17852780,-7281494,3935547
5.140,68400840,-958113,24073740,-69964900,-37646480,33374020,5410156
5.150,-71544500,-492002,23676690,-85379340,-4243164,34765620,42871100
5.160,-71890620,-103577,23374580,-85723740,-46435550,3203125,3552246
5.170,61241730,362533,22977510,-77072220,-47460940,36816410,24230960
5.180,-1043569,10608330,12800770,-14873240,-5390625,35620120,6542969
5.190,-1078959,1113486,22347400,-14906900,-55810550,3100586,6512451
5.200,61112260,-9096918,11446460,-77149900,-69433590,3557129,69885260
5.210,68317110,1829918,21682760,-69927780,-76953130,3022461,15563970
5.220,61034570,2183817,21346130,-77210330,-7519531,2541504,22131350
5.230,-80532920,2615402,20914550,-81915190,-6767578,17004400,26245120
5.240,-80791870,2960669,20569280,-82174140,-6669922,7562256,40454100
5.250,-80964500,10927710,12602250,-82346780,-60546880,9851074,5473633
5.260,-81137140,-6763777,9118504,-82519410,-45043940,-80566410,6640625
5.270,-1280941,-6332196,8686917,-15101980,-38354490,-14074710,7685547
5.280,6090511,4799211,18782520,-7730528,-34716800,-18078610,82666020
5.290,6090511,5256690,18376830,-7730528,-42114260,-24487300,78027340
5.300,60905090,5809120,17893460,-77288010,-45214840,-27270510,7402344
5.310,-12645400,11830580,11941060,-150838500,-45141600,-4038086,67626950
5.320,-74574220,7008923,16849030,-88391800,-49047850,-5620117,64746100
5.330,-74228950,-31186240,55130510,-88046540,-61279300,-6743164,6982422
5.340,-1161823,8389988,15640590,-14979410,-79248050,-5942383,7294922
5.350,-1128159,-28140980,30554400,-14944020,-82128900,-30737300,63134770
5.360,61060460,-9451680,33706680,-77080850,-64404300,-395813,7128906
5.370,-1078095,-2477289,26870400,-14890500,-49780270,2208252,81103520
5.380,6108637,3625303,20888650,-7702043,-47460940,50097660,8071289
5.390,6107773,12313950,12320850,-7701179,-43237300,76171870,7607422
5.400,-1081549,1238646,1238645,-14887050,-36108400,94384770,53564450
5.410,-1108307,12441700,12434790,-14912080,-26245120,9785156,3227539
5.420,-1135928,12490550,12489520,-14936250,-9765625,99121100,26733400
5.430,-7380685,12551150,12549760,-8760545,7122803,9394531,20251460
5.440,-12162030,12611490,12610270,-150113500,33618160,74902340,19543460
5.450,-74673480,12680450,12679420,-88465180,4987793,44482420,17370600
5.460,-1297341,12761930,12753300,-15085580,4501953,17785640,11071780
5.470,-1343089,1289573,1280941,-15126150,37451170,-9503174,19152830
5.480,68060760,12956750,12955540,-69718040,21887210,-25024410,13781740
5.490,-1461343,9077070,-6459946,-15232320,7696533,-23730470,-9289551
5.500,-77276790,24444910,2002552,-91040860,32714840,-18115230,-22424320
5.510,-1614987,28907480,-2166550,-15372150,8508301,-11639400,-30517580
5.520,60180040,33378690,-6327021,-77305280,23254400,-23083500,-43798830
5.530,-1760862,39584860,-12205190,-15502490,41503900,-33374020,-4272461
5.540,-18255990,44936500,-17211560,-155585900,64208980,-33447270,-3034668
5.550,5986065,52031740,-23927000,-7736568,7998047,-26367190,-22460940
5.560,59765720,18661680,9857369,-77374330,95996100,-296875,-12878420
5.570,59662140,66256740,-37323360,-77374330,10283200,-3317871,-78186030
5.580,59558560,20646970,8735251,-77357070,10585940,-36767580,-11260990
5.590,-2101812,21656870,8191458,-15783020,10527340,-35424800,-14453130
5.600,67447040,22684040,7664924,-69244160,10009770,-2902832,-1628418
5.610,-2201077,16244810,14604790,-15856390,9248047,-16210940,-19104000
5.620,-2258909,24574380,6793128,-15902130,82373050,-35949710,-14562990
5.630,-2308973,25359860,6542810,-15938390,70410160,39489740,-21521000
5.640,-2377162,26145340,6292490,-15991040,6035156,10204320,-27197270
5.650,5875577,120075200,-87084960,-7724480,48095700,-27893070,-28393560
5.660,5861771,27560940,5981751,-7722758,33911130,5420685,-2536621
5.670,-2581734,28363680,5748694,-16149000,28173830,30685420,-2770996
5.680,58332850,29175060,5524269,-77184420,18310550,-27980800,-26538090
5.690,58186120,29986440,5299844,-77158540,13598630,1838684,-29638670
5.700,58039380,30892770,4997737,-77132640,12609860,6921387,-33789060
5.710,57901270,31704140,4773313,-77098120,12408450,7867432,-31640620
5.720,-2918369,32610470,4471209,-16399320,50933840,1640625,-31860350
5.730,-2988286,16558140,-12789550,-16450240,17486570,1977539,-35327150
5.740,-3066834,34604380,3702989,-16509800,39245600,23522950,-3486328
5.750,-3137614,35691980,3236877,-16559870,20568850,23132320,-30078120
5.760,57089900,36874520,2693079,-76925480,-14411930,1862793,-25830080
5.770,-3288669,38057050,2149288,-16667760,-5908203,25439450,-24560550
5.780,-3368080,20858440,-16775660,-16726460,-14880370,24633790,-24377440
5.790,65668050,21839870,-17693210,-67691310,-20678710,21826170,-1463623
5.830,55743360,45532090,-1596863,-76683790,-24633790,7867432,-3046875
5.840,-3964528,4687000,-233055,-17183070,-13647460,-4840088,-28076170
5.850,-4062929,48294220,-3150558,-17257300,-19424440,-20788570,-22143560
5.860,-4151836,49623500,-3892884,-17323770,-8552551,-20471190,-25097660
5.870,5491472,25938180,20379380,-7654568,-25730130,-19067380,-19958500
5.880,64519180,31262200,-26570020,-66699540,45928960,-25219730,-1763916
5.890,-4431501,26766820,20759180,-17527480,12072750,-33862300,-14074710
5.900,54293230,33654040,-28839290,-76407580,16760250,-31933590,-53955080
5.910,-4595504,34808090,-29929470,-17639690,21923830,-2861328,1015625
5.930,53732180,37202520,-32196150,-76157260,30932620,-10473630,2529297
5.940,-4757778,28959270,21777710,-17719100,2421875,206604,18530270
5.950,-4797485,62726380,-11333390,-17731180,16540530,-1928711,15344240
5.960,5324015,38325930,-37805440,-7580335,12536620,-7739258,14453130
5.970,-4852728,65548930,-12826670,-17727730,15283200,-9661865,13696290
5.980,-4876034,67007690,-13612150,-17721690,12683110,-12963870,2220459
5.990,-11226150,31168980,22882570,-11354310,57250980,-27297970,1538086
6.000,-4896751,45290400,-39817920,-17683710,-8773804,14129640,23071290
6.010,-4894160,71289000,-15890910,-17651770,39398190,-46310420,2644043
6.020,-4882939,7265281,-1659871,-17611210,7965088,-10144040,3815918
6.030,5227341,74016610,-17306510,-7471574,12231450,-2084961,51123050
6.040,-10553170,29148300,28217810,-11820130,18017580,-12768560,69384770
6.050,52049000,33758480,24263630,-74335980,21289060,-29891970,7104492
6.060,-4796622,77685070,-18989680,-17404040,25854490,-40893560,8256836
6.070,6277127,34621650,24781540,-6299222,24719240,-41748050,87158200
6.080,-4717210,35053230,25057750,-17259030,25854490,49324040,99072260
6.090,-4674053,81275850,-20405280,-17181350,17333980,11273190,99121100
6.100,51496570,35985460,25644710,-73213860,101135300,16101070,96728510
6.110,-4564428,36460190,25946810,-16997490,25520320,19348140,92089840
6.120,51263510,36934940,26248920,-72687330,-10888670,21350100,79541020
6.130,-4447904,57404960,-51008880,-16803280,-16235350,1899414,6123047
6.140,-4389205,37875790,26879040,-16706610,-2121582,15844730,49243160
6.150,-9865055,8861277,-2308109,-11092650,-24658200,925293,40942380
6.160,-4308935,56570620,-56504320,-16545190,-2253418,3527832,38012700
6.170,-4277858,9083975,-2378889,-16472690,-10534670,-13442990,31811520
6.180,-9733075,39697070,28096100,-10948420,-9086609,-44708250,32250980
6.190,-4258868,40137290,28398210,-16370830,18630980,-7446289,32006840
6.200,50055070,62762640,-55836580,-70632990,-37719730,-43823240,33544920
6.220,49709820,41371620,29304530,-70166880,-124816900,-58044430,2788086
6.230,49528550,9653668,-2516998,-69933820,-19555660,-16159060,28955080
6.240,49364550,42139840,29882860,-69700770,-14038090,-45959470,21862790
6.250,-4207941,36947020,35714420,-16076490,-7366943,-18530270,13793950
6.260,58141230,65552390,-58225830,-60164490,-3540039,-26098630,15441900
6.270,-4201900,98996670,-25126800,-15996210,8782959,-35375980,11029050
6.280,-4202764,65956350,-58512390,-15960830,14709470,-51220700,11016850
6.290,-4202765,65984840,-58483910,-15926300,22705080,-53271480,7861328
6.300,-4211396,65925280,-58370840,-15900400,21447750,-45922850,7922363
6.310,48233790,65778540,-58172310,-68328340,31835940,-40454100,29525760
6.320,4808705,100084300,-23521310,-6814703,42504880,-49536130,41229250
6.330,-4198447,9998069,-2293436,-15792510,45825200,-37841800,17675780
6.340,-4177729,44858810,32636360,-15744170,4350586,-21240230,28320310
6.350,47793580,9963544,-2172595,-67611900,41479490,-51086420,38476560
6.360,56596160,45178190,33128370,-58567640,47192380,28823850,43017580
6.370,-4057754,63664640,-55797730,-15553410,5332031,10406490,38500980
6.380,47620950,98625520,-19628430,-67128530,46899420,28222660,328125
6.390,-3965391,9818530,-1886020,-15421350,16809080,48242190,19348140
6.400,-3930865,9781414,-1819556,-15369560,11126710,37719730,75927740
6.410,47517370,45687460,34190060,-66714210,119262700,12268070,-56495670
6.420,-3842824,60888700,-52876780,-15250440,-48736570,-1743164,-927124
6.430,47482840,60296560,-52260480,-66455260,-18835450,-15795900,-12963870
6.440,-3735788,9597560,-1537301,-15115790,-1472168,-99487300,-83862300
6.450,-8779708,9557854,-1473426,-9916500,-8343506,-1595459,9613037
6.460,47500100,45998200,35087750,-66040940,-10839840,-46936040,2133789
6.470,-3513955,94698100,-13370460,-14854240,-17590330,-27557370,21105960
6.480,-3443178,57594850,-49437910,-14769660,-10479740,-7946777,14672850
6.490,-3381890,9390399,-1209297,-14692840,-34057620,-21942140,26953120
6.500,55578490,46291670,35778290,-57375600,-33931730,11804200,29858400
6.510,-3311109,46377990,35933660,-14590980,51513670,99243170,17932130
6.520,-3284350,46455670,36097660,-14548680,44403080,9301758,32104490
6.540,47284310,55078720,-46775050,-65031030,15579220,12817380,-32440190
6.570,-3167825,5355955,-4518682,-14354480,-86364740,-36346440,-16455080
6.590,-81083360,90598060,-6421964,-92240660,-4737854,-15930180,-3635254
6.600,-3060792,90278690,-5878172,-14202550,7476807,-21862790,-47827150
6.630,4698222,42984880,42054380,-6402111,32128910,-35961910,-8564453
6.640,-2932181,88448770,-3219616,-14020430,25097660,-23217770,-7841797
6.650,-78879700,87930870,-2529080,-89955860,25976560,-13574220,-7080078
6.660,-78539600,47241160,38333270,-89605410,29541020,-8148193,-6621094
6.680,46904520,47538950,-38950430,-63546380,26220700,-47302250,-4375
6.700,-2712936,85142830,1070328,-13739030,17993160,-12931820,-35986330
6.720,-26110820,45240340,-36587940,-136164700,15124510,-81848140,-28100590
6.730,-2547209,44644750,-35975090,-13542230,13061520,-7342529,-36523440
6.740,-2484198,43963710,-35275060,-13467140,7171631,-7946777,-26367190
6.750,-24211850,47439690,39636650,-133920400,51002500,6414795,-22814940
6.780,-2258909,81034160,6629128,-13191780,-32348630,29077150,-1496582
6.790,46913150,41077280,-32291960,-62260270,-3503418,3034668,-19213870
6.800,-70852240,47646840,40413500,-81755780,-7850647,20458980,-2052002
6.820,-2116488,39641830,-30792640,-12988940,-9185791,16601560,-15563970
6.830,-2098360,79135190,9563896,-12955280,-11187740,1439209,-29858400
6.840,4669735,38885690,-29995070,-6169920,-14038090,7269287,-30664060
6.850,46636940,34627090,-33735780,-61604260,-124939000,-3439331,-43310550
6.860,-2072465,78677710,10660120,-12877590,-117004400,-7720947,-4880371
6.870,-2063835,38227960,-29271730,-12851700,-8105469,-11798100,-62060550
6.880,-2063833,7846192,1130750,-12834440,-57250980,-13342290,-6430664
6.890,46343460,48337380,41656460,-61207200,-1348877,-8178711,-6044922
6.900,52947560,4543198,4476902,-54430480,-21972660,-24536130,-5678711
6.910,46205360,7817710,1223106,-61000040,-171875,42510980,-48046880
6.920,46136300,7802174,1259359,-60896460,-19848630,41656500,-43920900
6.930,46067240,32822980,-31914580,-60792880,-24401860,16467290,-42211910
6.940,-20111800,36489550,-27384850,-126799300,-2208252,17590330,-50341800
6.950,-67956310,36067460,-26943770,-78609530,-22216800,25073240,-7290039
6.960,-19913270,35559050,-26416370,-126307300,-3071289,24707030,-88134770
6.970,-67797490,3513527,-2597700,-78423070,-38623050,29541020,-10400390
6.980,-67803530,48881180,42856260,-78417030,-33520510,24365230,-10498050
6.990,-67983070,34286740,-25099180,-78582770,-35327150,24060060,-9326172
7.000,-68161740,75354520,16659140,-78749360,-32861330,21350100,-76904300
7.010,-2082824,33523700,-24308520,-12660080,-33398440,11956790,-6508789
7.020,-2106130,33184470,-23957210,-12671300,-2800293,-40924070,-7216797
7.030,4535944,32758930,-23519590,-6018866,-36791990,-97473140,-70751950
7.040,45299020,49019280,43477740,-60162760,-5029297,-13256840,-62353520
7.050,-2181222,49036540,43564060,-12717040,-5751953,-6762695,-56396480
7.060,45169550,31652350,-22381930,-60102350,-578125,-11419680,-5517578
7.070,45100500,26890910,-26798110,-60067820,-6191406,-10217290,-51220700
7.090,-2269266,73006700,20008220,-12767110,-49951170,21392820,-6645508
7.100,-2299477,72972180,20146330,-12788690,-5073242,6903076,-58496100
7.110,-23296890,31073170,-21752680,-128102700,-56347660,6939697,-41992190
7.120,-70722760,73144820,20146330,-81194710,-5107422,9863281,-32861330
7.130,-23901110,31340750,-22003000,-128534300,-46704100,9643555,-25878910
7.140,-2410828,31516830,-22172180,-12867240,-40014650,-95336910,-29101560
7.150,-2431542,73697230,19835590,-12881050,-33813480,-20251460,-22229000
7.160,44539440,73904400,19697480,-59869290,-3059082,-23156740,-17626950
7.170,44496280,7403391,1965431,-59843400,-2746582,-24291990,-14489750
7.180,-2460889,49623500,44151020,-12886220,-27148440,-27124020,-1385498
7.190,44427220,49683920,44194170,-59739810,-28295900,-21032720,-14831540
7.200,-2434996,7452588,1945580,-12843070,-26538090,-2890625,-22595220
7.210,-24134160,47310210,46757780,-128128600,-31811520,-30810550,-3017578
7.220,-70676150,47362000,46809580,-81068690,-33764650,-2614746,-33129880
7.230,-7033434,7483662,1942127,-8071997,-3984375,-10827640,-3713379
7.240,-2320192,49942870,44401330,-12698920,-4658203,-52604680,-39453120
7.250,-2279624,49977400,44435860,-12653170,-45263670,62042240,-41870120
7.260,-2247688,7503515,1944717,-12616060,-5048828,13513180,-39501950
7.270,-2207119,7506968,1948169,-12570310,-5229492,15368650,-3840332
7.280,-21656880,7509562,1950759,-125254200,-4970703,519104,-46826170
7.290,-67845820,7512149,1953351,-78202110,-46289060,10368350,-5258789
7.300,51046000,50124140,44565330,-52499570,-4658203,-74653620,-54833980
7.310,44539440,7524233,1948167,-58988860,-3720703,-17791750,-5854492
7.320,-2014633,7525094,1949033,-12365740,-31591800,-14480590,-5102539
7.330,-1972338,3270542,-2322784,-12321720,-26391600,-3753662,-42651370
7.340,44634390,50210460,44599860,-58842120,-21838380,-7928467,-3449707
7.350,-65434130,7546676,1936087,-75780060,-20166020,-1541748,-3112793
7.360,-65003410,75656630,19205480,-75347610,-18188480,-2298584,-29833980
7.370,-1795389,33057590,-23566200,-12136130,-15917970,-24597170,-23535160
7.380,44781130,33232810,-23736240,-58591810,-13244630,-29174800,-20666500
7.390,-1677999,33495220,-23991740,-12011840,-12347410,-23327640,-15759280
7.400,-62595170,76468010,18635790,-72922100,-15283200,-16809080,-72631840
7.410,-1537302,33848250,-24329240,-11859060,-15551760,-46905520,-70129390
7.420,51559000,34112380,-24583010,-51572250,-11004640,-8201599,-14709470
7.430,-1399196,34377370,-24835920,-11703690,-54992680,-32806400,-25439450
7.440,-59590490,34643230,-25087960,-69884620,-78308100,-21209720,-2993164
7.450,-1263675,50866460,44824290,-11545730,-9429932,-39978030,-39404300
7.460,-1192035,7847919,1736694,-11462000,-7879639,-60913090,-49487300
7.470,-1138520,31381400,-30421390,-11394670,-6329346,-70129390,-57910160
7.480,-10677380,79411420,16745450,-113100800,-7110596,-16186520,-67333980
7.490,45014180,79929300,16400180,-57253900,-13183590,-17236330,-69189460
7.500,45031450,80360900,16141230,-57098530,-24719240,-15673830,-66796880
7.510,-8571248,80878800,15795970,-110545900,-31298830,-19262700,-7285156
7.520,-769080,51712360,45135030,-10952730,-4416504,-22973630,-8129883
7.530,-681039,8181965,1518312,-10850880,-48950200,-2310791,-85009770
7.540,-51632950,38608620,-28891080,-61787250,-43603520,-18518070,-9223633
7.550,-5069038,39135150,-29400350,-6083085,-43554690,-11743160,-93896480
7.560,-435901,39660820,-29910480,-10560850,-3466797,-4562378,-9399414
7.570,-3659832,40273670,-30506060,-104754000,-26538090,64575200,-83496100
7.580,-3141932,8501340,1285257,-104063500,-18774410,2758789,-63183590
7.590,-271899,41673720,-31868140,-10345060,-8544922,57470700,-37939450
7.610,-241685,53067530,45419870,-10271690,9552002,134375,97961420
7.620,44781130,53248800,45463030,-55277240,18664550,16201170,28930660
7.630,-273624,88914880,10021380,-10257010,34301760,16894530,24353030
7.650,-3901516,89726260,9624318,-103303900,50927740,13369140,-36376950
7.660,-49246300,89898900,9624320,-59167540,53125,93115230,-76904300
7.690,-7354180,50378780,49558760,-106066000,49023440,-40966800,-13515630
7.700,4352956,54198280,45860080,-5504417,47607420,-54589840,-11621090
7.710,43374160,42968740,-41966940,-55044190,49194340,-51464840,-8984375
7.720,-54127510,93558730,6724080,-63953800,5292969,-4892578,-62646480
7.730,-54825800,54638500,45765140,-64636560,5625,-46923830,-40014650
7.740,-5543693,95483580,5023632,-6523384,48242190,-29248050,-11193850
7.760,42718160,55044200,45652920,-55009660,2541504,-19104000,36791990
7.780,-57272890,99108900,1743604,-67023220,18847660,-8691406,5761719
7.790,-57622460,55406720,45514820,-67364170,26123050,-35888670,68847660
7.850,42053510,58848170,-48702500,-54690280,25146480,-12927250,4411621
7.860,41984460,56235370,45324920,-54638500,16882320,8874512,25512700
7.870,41924040,5592361,-5490714,-54578080,8013916,16894530,17028810
7.880,41854990,61366030,-51191010,-54526280,-30975340,19470220,1713562
7.900,-1563196,5680506,4511777,-11177160,24719240,41210940,-17565920
7.920,41526980,11222040,-1017676,-54388180,-3463745,6530762,-20095820
7.930,-16745450,11362740,-1153191,-112557000,-12893680,-47698980,-356102
7.940,-17211560,51704600,50425380,-112954100,-18630980,-16796880,18432620
7.950,47191090,116234100,-14104160,-48499650,-11932370,-30444340,9484863
7.960,-1803157,11743390,-1532122,-11368780,-16955570,-26391600,20959470
7.970,41181720,72690780,-62481240,-54457230,-9509277,-2734375,31396480
7.980,-1898105,11973000,-1768630,-11463730,-8666992,-37548830,37402340
7.990,-62543390,57961700,44012920,-72110740,-11413570,-47045900,41479490
8.000,-63059560,121473600,-19568010,-72630360,-23010250,-54296880,54833980
8.010,41043610,58056650,43797110,-54698920,-34057620,-5805664,6850586
8.020,-6392012,58099800,43702170,-7349610,-4658203,-5932617,8198242
8.030,40965920,58151590,43633110,-54776600,-5839844,-5751953,94970700
8.040,-2144972,124089000,-22304250,-11717490,-6621094,-6538086,10820310
8.050,-2156192,12462410,-2280488,-11723540,-7089844,-6230469,11181640
8.060,-2143245,12516790,-2329689,-11701960,-76904300,-50683590,11132810
8.070,40862350,58453710,43520900,-54638500,-8881836,-29052730,10527340
8.080,-2058652,58548650,43529540,-11596650,-94140620,-57922360,88623050
8.090,-67196030,58652230,43546800,-68148620,-93115230,17614750,7739258
8.100,-1933498,81075590,-70841880,-11445600,-9394531,32055660,7036133
8.110,-1854950,81427770,-71180250,-11351510,-79589840,20227050,7246094
8.120,-60341450,8178083,-7151771,-69824200,-8618164,12768560,84472660
8.130,40931400,12820630,-2543756,-53758070,-97265620,15356450,9506836
8.140,40931400,12846520,-2552388,-53585430,-89208980,21948240,9560547
8.150,-57688930,8232290,-7201145,-67125080,-73583980,7684326,8911133
8.160,4093140,5241671,5086991,-5325743,-609375,-4324341,70947260
8.170,46391800,12915580,-2569652,-47607140,-54833980,-109191900,5810547
8.180,-1308560,59575820,44073330,-10689460,-4621582,-16479490,47314450
8.190,-54618650,12943200,-2559289,-63980560,-4362793,-15393070,45581060
8.200,40862340,12952690,-2549798,-52566900,-40600580,-1048584,453125
8.210,-1120392,12952690,-2532533,-10446050,-45092770,2394104,43725580
8.220,40810560,5296053,5141369,-52256160,-42260740,22595220,4086914
8.230,-52150850,12952690,-2498004,-61441980,-33813480,24658200,37182620
8.240,-51814220,60067830,44634400,-61088080,-30517580,25317380,32714840
8.250,-9978216,8223660,-7175252,-102578800,-25219730,21362300,29370120
8.260,-979695,12939740,-2441901,-10224220,-23242190,113342300,30004880
8.270,40568870,60231830,44867440,-51738260,-18041990,13046270,31811520
8.290,40448020,12932840,-2397018,-51582890,-9423828,-120910600,3076172
8.300,-955526,12930250,-2382343,-10144810,-9161377,-7122803,31298830
8.310,-953800,12936290,-2376301,-10129270,-12924190,-6359863,27294920
8.320,40266760,12950970,-2378892,-51349830,5899048,-99121100,203125
8.330,-958979,12965640,-2381479,-10106830,1121521,-155181900,18811040
8.340,4512640,12979450,-2384932,-4623124,56274420,60691830,21594240
8.350,45554520,13010530,-2405650,-45665010,1652832,-513916,19787600
8.360,45494100,60792880,45359450,-45604590,20837400,-25024410,21081540
8.380,-953800,13042460,-2408237,-10042950,-4034424,-26733400,17614750
8.400,39878340,13026060,-2372849,-50806040,-12005620,-21875,18005370
8.420,-49509560,12991540,-2321055,-58559010,-11260990,-67871100,1784668
8.430,-49168610,76838060,-75769960,-58209420,-33691410,-8154297,16809080
8.470,39809280,12805090,-2093183,-50305400,-993042,-34362790,125
8.480,39800660,61008680,46196720,-50244980,-36895750,-38482660,12573240
8.490,39792020,78819280,-68091830,-50184550,-27893070,14503480,8685303
8.510,-50995500,60930990,46498830,-51894050,-14746090,16906740,17410280
8.520,-6370176,60896470,46602410,-96174110,-13439940,552063,-38238520
8.530,-6223436,124555100,-17004390,-95975580,-9613037,7757568,-107177700
8.540,-46527310,123976700,-16374280,-55499060,-26931760,14990230,-21582030
8.550,-46615360,12356240,-1592542,-55583670,4449463,17541500,-24804690
8.560,-46702540,60767000,46904520,-55669120,1303711,17260740,-2043457
8.570,-6534176,60732470,46939050,-96182740,2084961,52703860,-7312012
8.590,-678450,12203460,-1434585,-9645033,9857178,-61523440,14025880
8.600,39679810,121508100,-13836570,-50020550,-8415222,-9844971,8929443
8.620,-706934,12053270,-1291299,-9685602,-119140600,13134770,-42755130
8.630,-721608,5385889,5372631,-9705455,-1574707,3474121,-15588380
8.640,-735419,7132267,-6056932,-9726170,-14501950,52197260,-17712400
8.650,39722970,11950560,-1204121,-50253610,-11114500,5390625,-12756350
8.660,-805335,11938470,-1198940,-9811624,-39154050,4567871,-18341060
8.670,-8433144,7113799,-6040877,-98599620,513916,3515625,13000490
8.680,-8899256,11954010,-1235192,-99169310,17224120,1706543,23950200
8.690,39731600,11973860,-1267132,-50659300,21313480,-141067500,2265625
8.700,39722960,11985080,-1290437,-50788770,23339840,-6121826,21606440
8.710,-1069465,11996300,-1313741,-10134450,24768070,-14562990,31445310
8.720,-52170700,60007400,46662840,-61249500,3076172,-15783690,3540039
8.730,-1192898,12016150,-1362941,-10287230,31567380,-13549810,328125
8.740,39740240,53859920,52516840,-51358460,3527832,-14697270,2434082
8.750,39757500,59826140,46377980,-51513830,44213870,-24914550,21362300
8.760,-54899180,120342800,-14311320,-64045290,4897461,-265625,7550049
8.770,-1433724,72619140,-62034980,-10598830,45947260,-27490230,1496582
8.780,45321470,120144300,-14509850,-46536800,59375,-43798830,21960450
8.790,39912870,59429080,46015450,-52169840,43896480,-5834961,25805660
8.800,39990550,11925520,-1401786,-52333840,2541504,-51953120,2770996
8.810,-61598900,11872010,-1368981,-62524570,1026001,-42529300,17041020
8.820,-62274290,58971600,45851460,-62367090,6414795,-25390620,97473140
8.830,-15959970,65519500,-64473520,-109026700,-91674810,-112854000,16952520
8.840,-1608079,58609070,45747880,-10942370,-122680700,43762210,-793457
8.850,40525710,58410550,45704720,-53127950,-9277344,11340330,-1484375
8.860,-1637429,11458550,-1074644,-11033870,-690918,13110350,-21691900
8.870,40767400,57944440,45601130,-53525010,-11639400,16772460,-13952640
8.880,40888250,52233720,51018380,-53749440,-16064450,17858890,-42114260
8.900,-60401000,57184840,45411240,-69937280,-11791990,7696533,-5496216
8.910,41311190,56917260,45333550,-54431340,-14465330,2175293,-25830080
8.920,-1796252,6214979,-5196096,-11410210,-1966858,25927730,-3815918
8.930,-1819557,107032800,-5524272,-11473220,5657959,1784668,-41455080
8.960,-1792801,59225380,-49188460,-11569030,11651610,-13598630,59765620
8.970,-1765180,58603890,-48601510,-11579390,15490720,-15991210,9248047
8.980,42588680,55147770,44548070,-55898720,2553711,-30786130,11044920
8.990,49401080,54940620,44461750,-49414330,3359375,-46289060,11044920
9.010,-60199890,100282800,-1398332,-70138390,14050290,-34350580,10078130
9.020,-14742900,54336400,44323650,-114386900,77819820,-18688960,85839840
9.040,-1320647,5399977,4422871,-11333390,12731930,36010740,48388670
9.070,-57192610,53542280,43995650,-67276130,51953120,16784670,7965088
9.080,-57181390,53421440,43892070,-67287350,71777340,36743160,3665161
9.090,-57429120,53300590,43771220,-67557520,8071289,28149410,-35217280
9.120,-1293886,53110700,43270580,-11480990,11777340,15222170,21618650
9.140,-1295615,98772250,-2736240,-11513790,11904300,-6401367,14611820
9.150,-1264539,53119320,42795840,-11493070,10810550,-57666020,17785640
9.170,-11281590,5813179,-4855575,-113705000,6074219,-6855469,-27783200
9.180,45091870,101879700,-6188914,-57400630,38232420,-7055664,-5957031
9.230,5091827,53222900,42105300,-5202308,-19042970,18251950,-89404300
9.270,-391876,52920790,41785940,-10742980,-13623050,16962890,-10302730
9.290,-5203517,52635950,41656460,-6242080,-11416020,5600586,-84716800
9.310,-54175840,100887000,-7008916,-64595990,-1015625,-18188480,-11337890
9.320,-839860,52169840,41483820,-11279010,-9863281,-47338870,-1140625
9.370,52603430,5158291,4100043,-52616680,-12363280,-74279780,-2355957
9.380,-62231780,99790790,-7414608,-72767610,-10908200,14274600,-21459960
9.390,4588599,5152247,4064655,-5961035,-8911133,-20019530,-28027340
9.400,-1693533,51513840,40448030,-12255250,-6455078,-4675293,-25268560
9.410,-17815780,60952570,-51777100,-123571100,-46240230,-16052250,-17602540
9.420,-1861851,51522470,40042340,-12449460,-29882810,-32299800,-2487793
9.430,45765140,51522470,39852440,-60214560,-22595220,-37890620,-3232422
9.440,-19887380,104900800,-13698470,-125987900,-17504880,-5229492,-35864260
9.450,-20439800,51539740,39489910,-126643900,-124816900,-6298828,-47680660
9.460,45765140,51531100,39325900,-60559820,-16052250,-7241211,-48168940
9.470,45791030,66337870,-57267710,-60654770,-11767580,-7480469,-5258789
9.480,45834180,66847140,-57794240,-60732460,-18041990,-71191410,-59228520
9.490,45894610,10793910,-1756548,-60792880,-15405270,-69873050,-65966800
9.500,4599819,10811170,-1791073,-6082740,-31762700,-7553711,-5341797
9.510,-2022400,51323940,38721690,-12720500,-54345700,-7133789,-6020508
9.520,-67840650,10795640,-1806607,-78552550,-6894531,-5878906,-81933590
9.530,-6722779,5116857,3854906,-7795697,-87060540,-52978520,-94189460
9.540,-1835093,51082250,38445480,-12579800,-10078130,-53027340,-12509770
9.550,-1773809,10793050,-1860989,-12537510,-10390630,-5336914,-16035160
9.560,-1721156,10807720,-1898105,-12503840,-9326172,-35864260,-15419920
9.570,-70239560,10829300,-1945577,-71319900,-6513672,-21228030,-14228520
9.580,-65194170,10876780,-2018945,-76020020,-103515600,17602540,-13027340
9.590,-65270140,69669700,-60841220,-76116700,53564450,51904300,-890625
9.600,4724979,11019200,-2221794,-6144026,10302730,8334961,-32739260
9.610,-1701303,5052983,3709894,-12592750,12597660,15732420,11480710
9.620,-1792799,11191830,-2463480,-12708410,10126950,19921880,62060550
9.630,-1920549,7391735,-6522525,-12856880,3869629,20507810,58496100
9.640,-20905920,11430070,-2777673,-130493600,-100097700,16865230,-14941410
9.650,47120310,77156820,-68545860,-62691850,-1352539,14150390,-83447260
9.660,-2515269,50322660,35303550,-13522380,14976500,10302730,-1390625
9.670,46921780,12013570,-3506188,-63425540,-7885742,10400390,-12207030
9.680,-2969296,12243170,-3794484,-14035100,16235350,77685540,-10634770
9.690,4675780,50175920,33637640,-6426280,43725580,2734375,-10136720
9.700,-3449216,50037820,33033420,-14590980,64208980,-20751950,-7158203
9.710,-3694359,128050900,-45791030,-14881000,79589840,-48046880,-7550049
9.720,-3955033,12917300,-4777631,-15190020,10068360,-47973630,7807617
9.730,46550620,49226440,31289820,-66299890,12861330,-4494629,10478520
9.740,-4517819,13026920,-5065066,-15852930,13291020,-6425781,11328130
9.750,55867650,13026060,-5152249,-57966880,11875,-83203130,10371090
9.760,46369360,48052540,29839700,-67931270,9902344,-9321289,10693360
9.770,46343460,9491911,-8720929,-68406020,7558594,-7817383,13632810
9.780,-10671340,47292940,29080110,-11822800,5600586,-47338870,18691410
9.790,56611700,12892270,-5320567,-58897370,4411621,-18371580,21914060
9.800,-5783222,9143983,-9068851,-17366930,27416990,93444820,23027340
9.810,-5890255,12828400,-5367176,-17501580,8685303,3388672,22363280
9.820,-11209010,46179460,27983890,-12372730,-41008000,38476560,20605470
9.830,-6021455,45980930,27785360,-17681120,-2529297,27563480,19384770
9.840,46507460,45791040,27612730,-70296360,-37597660,27416990,18847660
9.850,-6061161,45618400,27457360,-17762260,-31396480,113342300,18886720
9.860,4667146,4547166,2732788,-7051215,-18859860,-20092770,17890620
9.870,-6036130,12683380,-5425871,-17770030,-1809082,-3720703,18525390
9.880,-6021455,45221340,27146620,-17767440,-11871340,-44677740,17021480
9.890,-5998152,4511777,2709483,-17756220,-524292,-6152344,15986330
9.900,-5966214,12562540,-5356817,-17736360,33477780,-7607422,13935550
9.910,-5951538,44850180,27051670,-17733770,14294430,-89746100,12148440
9.920,-5928233,44677550,27051670,-17722550,31420900,-10625,8959961
9.930,47215260,90672290,-83514900,-70866050,46240230,-12910160,7441406
9.940,-5914424,12149950,-5009824,-17736360,6738281,-13613280,64453120
9.950,57995350,87893750,-80769160,-60362160,953125,-15214840,6713867
9.960,-5926507,43814380,27276090,-17776070,13046880,-16259770,70458980
9.970,-5946362,11634630,-4541124,-17808010,15712890,-15429690,7739258
9.980,-5974849,82434220,-75352790,-17848570,18828120,-14423830,71240230
9.990,47465580,43020270,27673150,-71375310,21289060,-14033200,71533200
10.000,-6051665,42752680,27871680,-17944380,22070310,-97998050,6269531
10.010,47456950,42476470,28078830,-71539310,22578120,-65478520,5263672
10.020,47448320,42217520,28303260,-71617000,22207030,-60302740,2705078
10.030,-6153521,10231120,-3182498,-18066960,21367190,-3786621,7397461
10.040,-6167334,99799420,-29330430,-18087670,20273440,-9259033,-34484860
10.050,-6164744,97287600,-26835870,-18090260,19042970,118652300,-16748050
10.060,-6153522,94784420,-24332690,-18084220,18876950,1430664,-32885740
10.070,47586420,40940040,29528960,-71772380,17841800,-11779790,-4074707
10.080,47646840,8996797,-1948171,-71763740,16972660,1352539,-42260740
10.090,-6043034,40525710,29995070,-17987540,18330080,14709470,-57666020
10.100,47793580,40353080,30219490,-71686060,17773440,99609380,-73535150
10.110,-5893707,8427105,-1361215,-17843400,15703130,47912600,-72998050
10.120,47957580,8286411,-1208436,-71522060,15908200,-3503418,-8276367
10.130,-5698632,4981340,-4271816,-17641420,16123050,-62890620,-61328120
10.140,-11480890,49050350,-41927500,-11600210,15625,-8383789,-2088623
10.150,48233800,40301300,31307080,-70952360,13261720,-79833980,24938960
10.190,4863948,8427967,-1015086,-6933824,-34088140,19897460,16230470
10.200,48691280,52168980,-44678420,-68854870,-63720700,7294922,14804690
10.210,-3993877,8740434,-1168728,-15703610,-13339840,16074220,10
10.220,48639480,54578080,-46930420,-67991700,-21035160,23554690,31811520
10.230,-3746147,9045996,-1329278,-15364380,-25527340,28632810,-74853520
10.240,48415060,9187557,-1412144,-67387480,-33535160,31992190,-12539060
10.250,-3695222,57945300,-50123270,-15242670,-35859380,31445310,-17226560
10.260,48121580,5882576,-5096920,-67094010,-3796875,2890625,-21132810
10.270,47974850,44936500,33836160,-67068110,-38964840,21992190,-209375
10.280,-3904106,9546632,-1657281,-15396320,-37675780,17197270,-18476560
10.290,-4037898,95923790,-16978510,-15521470,-34589840,14931640,-16386720
10.300,47448320,96355380,-17410090,-67318420,-31230470,12675780,-13955080
10.310,4726706,45186820,33741220,-6744788,-29472660,12666020,-9711914
10.320,-9681113,9711498,-1820420,-10827750,-2859375,12451170,-69970700
10.330,-4669736,9752067,-1866168,-16132600,-28339840,11621090,-74072260
10.340,-4790579,6246312,-5458239,-16253440,-28613280,95458980,-3779297
10.350,-4886392,98426990,-19654320,-16347520,-26660160,3239746,-11529540
10.360,46611030,63668100,-55794280,-67965800,-25195310,-2614746,8282471
10.370,-4993423,45428500,33326900,-16447650,-23613280,-8911133,-2796936
10.380,-5012412,45523450,33249210,-16463190,-20957030,-15419920,-22631840
10.390,-5024501,66262780,-58378610,-16468370,-18935550,-20429690,-27978520
10.400,-5029677,10275150,-2378890,-16463190,-16171880,-2359375,-32250980
10.410,-5036581,45998190,33119740,-16456290,-11318360,-25859380,-44677740
10.420,4628304,10534960,-2602450,-6774138,-73291020,-30449220,-5410156
10.430,46222620,46481570,33102470,-67611900,-39575200,-33359380,-65185550
10.440,4616221,46757780,33119740,-6744789,-18188480,-3390625,-8100586
10.450,-4877759,10950140,-2929590,-16218050,-10412600,-36386720,-9428711
10.460,55556910,110692600,-30176340,-57638860,-58935550,-35546880,-88134770
10.470,46248510,11189240,-3104815,-66757370,-82470700,-31699220,-97753900
10.480,46369350,11298000,-3185953,-66481150,-11748050,-27597660,-8100586
10.490,-9302530,114145300,-32765840,-10429480,-10800780,-15722660,-5410156
10.500,-4094003,11549180,-3383616,-15344530,10443120,27612300,-24938960
10.510,-4055164,76455060,-75635040,-15279790,23359380,32890620,-13977050
10.520,-4102635,11857330,-3627893,-15301370,3859375,41171880,48242190
10.530,-4127666,4904518,3340458,-15310860,15791020,31679690,28691410
10.540,-4139755,83192080,-74940190,-15316040,-4790039,29980470,25546880
10.550,46153560,8431336,-7606320,-65592090,-17402340,40625,61035160
10.560,-4137164,122664700,-40301290,-15318630,-26640620,56953120,-25449220
10.570,46196720,12409760,-4197586,-65721570,-24003910,64296880,-43203120
10.580,-4226068,12591020,-4413374,-15436890,-18427730,58007810,-44492190
10.590,46239880,91154800,-83032390,-66144520,-49926760,39453120,-32460940
10.600,-4485017,49140120,31358880,-15764890,11679690,21679690,-5366211
10.610,-4633482,13020020,-5054708,-15961690,19599610,6333008,14501950
10.620,-4746559,9534980,-8746907,-16124830,19384770,-16027830,32265620
10.630,-4800936,48268320,29796540,-16225820,20351560,-10976560,45664060
10.640,46766410,13215960,-5462989,-67810430,190625,-19003910,59882810
10.650,46878630,48112960,29192320,-67819060,20507810,-23027340,68007810
10.660,-4627440,48302850,29123270,-16088580,20976560,-23320310,68789060
10.670,-4485880,48656750,29183690,-15919400,19355470,-20917970,60195310
10.680,-9443136,49131490,29347690,-10582340,14345700,-17744140,50625
10.690,-4136300,14019570,-6092235,-15474870,1078125,-18017580,39394530
10.700,-3951581,14220680,-6201858,-15228000,9067383,-18232420,29824220
10.710,46662830,50926890,30210860,-65428090,7939453,-20214840,19628910
10.720,-3639112,51522460,30564760,-14780880,6459961,-23808590,10146480
10.730,-3553659,42567960,40451480,-14624640,60791020,-26191410,3791504
10.740,45955030,43034080,40900320,-64047020,11611330,-29335940,-2705078
10.750,-3589050,53127960,31686880,-14520200,15449220,-36386720,-67578130
10.760,45186820,15029480,-6463400,-63416910,16230470,-39726560,-9980469
10.770,-3813474,15070040,-6422829,-14606520,18183590,-43046880,-12929690
10.780,-8794381,5434503,3288669,-9867299,19082030,-50742190,-13525390
10.790,43900700,15082990,-6289040,-62786800,21582030,-5796875,-12099610
10.800,-4223479,11077370,-10191070,-14835260,19892580,-64960940,-10966800
10.810,43192900,15071770,-6144891,-62372480,15830080,-68789060,-14648440
10.820,42890790,15108890,-6125038,-62156690,17646480,-75,-25117190
10.830,42657730,15152910,-6115544,-61923630,13701170,-7953125,-32246090
10.840,42485100,11105690,-10197290,-61699210,86328130,-77304690,-41210940
10.850,-9027350,5626126,3497555,-10065910,20239260,-70117180,-38105470
10.860,42295200,11066240,-10150420,-61302150,-25708010,-59492190,-34257810
10.870,-4325331,56433890,35407130,-14664350,-6695557,-48046880,-3765625
10.880,-4330512,14943160,-5738337,-14659170,-60791020,-28457030,-40742190
10.890,42139840,47104780,45081510,-61112260,-22695310,60546880,-38398440
10.900,-4296848,14522790,-5295532,-14623780,-32949220,384375,-38222660
10.910,4233837,14284560,-5067656,-6112088,-40507810,70078130,-534375
10.920,42631840,14042010,-4861361,-61258990,-48789060,109140600,-69648440
10.930,43028890,13827080,-4713760,-61552470,-47929690,119375,-74101560
10.940,-3917915,54189650,35976820,-14467550,-45742190,108203100,-67734380
10.950,-3785853,13365280,-4467754,-14444240,-50546880,109140600,-53984380
10.960,-3663287,91472440,-82714740,-14445970,-59375,12515630,-44609380
10.970,45566610,51453420,34466270,-63658600,-66835940,151953100,-43828120
10.980,-3541577,12468450,-4069834,-14619470,-67148440,1709375,-38007810
10.990,-8613203,8453517,-7635924,-9737737,-64296880,17265620,-33183590
11.000,56211190,40392780,38828720,-58072180,-58632810,15953130,-2640625
11.010,48656750,114145300,-37772210,-67560110,-50585940,1425,-15839840
11.020,-3670187,44021540,29226850,-15492130,-4328125,122578100,-46606440
11.030,50408980,42200260,27733570,-69812980,-32695310,103828100,12353520
11.040,60123930,40301290,26093550,-62083320,-18632810,828125,25996090
11.050,52169840,101456700,-38721700,-71953630,-86621100,59257810,38828120
11.060,52963960,36468820,22537300,-72954910,10722660,34550780,46796880
11.070,53689010,28359370,26969670,-73852600,3078125,83740230,55820310
11.080,-3683998,32903940,18920630,-16583170,51054690,-20273440,49335940
11.090,64105720,31402030,17142500,-66128980,73554690,-51914060,509375
11.100,55562090,9674384,-5103049,-75656630,104765600,-8203125,45976560
11.110,56097250,29468540,13948780,-75863780,12390630,-107265600,50117190
11.120,56632420,29131900,12714450,-75812000,14125,-13796880,55078120
11.130,-2465209,107438500,-66230840,-15730360,1553125,-1484375,59765620
11.140,-80211560,21778580,19929680,-93457730,138046900,-123984400,96328130
11.150,-1767767,31367500,11739080,-14960420,12609380,-127890600,69882820
11.160,-74748570,32774470,12144770,-87872170,115546900,-106015600,9421875
11.170,-1574417,34103750,12748980,-14618600,-3642578,-51445310,72460940
11.180,-77870650,25857910,23618860,-90792260,-28730470,-51328120,7328125
11.190,54612600,38126110,14768790,-72877220,-1621875,-77265620,-57695310
11.200,-3515680,28318800,25853590,-16164540,-26171880,-98515620,-20734380
11.210,53179740,12933960,-12391380,-73101650,-2009375,-73085940,-2671875
11.220,-3210983,39213700,13957420,-15899540,-17328120,-33710940,-235625
11.230,-2727609,38169270,13482680,-15502490,-38203120,-25195310,36113280
11.240,-8145021,37090300,13767520,-9429067,7807617,-10839840,17900390
11.250,-86015060,13306590,-8393437,-87308950,475,-23984380,32832030
11.260,-2277898,24645160,22673680,-15313450,56054690,-71289060,546875
11.270,-2403061,109872600,-64487240,-15533560,35996100,-41914060,15302730
11.280,56943150,97468880,-54275980,-75328620,15947270,76220700,3251953
11.290,57158950,27051670,13896990,-75976000,1550293,54296880,28222660
11.300,57167580,7751247,-3832466,-76554320,18671880,10703130,32421880
11.310,57245270,24177320,13646670,-76925490,-70007330,1053125,17119140
11.320,-3191993,6838013,-3174730,-16643600,15771480,48085940,27988280
11.330,57262530,22994780,13033830,-77374330,52265620,11298830,22011720
11.340,56994950,22986150,12904350,-77590120,796875,-11425780,26191410
11.350,56571990,68820340,-32688150,-77840440,10796880,-11445310,26386720
11.360,-4180320,23219200,13206460,-17606020,12875,-26484380,29550780
11.370,-4263186,66757370,-29917380,-17678530,103828100,-21171880,546875
11.380,-4386617,4883457,-4507806,-17779520,578125,6870117,65351560
11.390,-4573925,6592011,-2747462,-17937480,259375,23164060,50859380
11.400,-4737926,24427640,14967320,-18066960,12949220,20410160,31796880
11.410,-4787992,50010200,-45974020,-18085940,8129883,32753910,26523440
11.420,-4787126,2558429,1581323,-18052280,93115230,55546880,35722660
11.430,-4779358,26274820,16244810,-18008260,61572260,5828125,30683590
11.440,5460398,26948090,16590080,-7733980,26464840,4078125,22792970
11.450,-10718560,55999720,-51550950,-12034540,43041990,10791020,20039060
11.460,54198290,28320520,17116610,-77020430,60498050,-7832031,14130860
11.470,5395660,6084295,-5620256,-7686505,11337890,-21679690,5522461
11.480,-4967528,29787910,17565460,-18009990,21621090,-36738280,1616211
11.490,53499120,30538870,17815780,-76493900,3125,-57460940,34814450
11.500,-4968391,31307080,18169680,-17922810,32382810,-67109380,11142580
11.510,53153850,32101200,18653050,-75906940,27617190,-60859380,15292970
11.520,-4881212,9432694,-4222616,-17733780,23417970,-45703120,11201170
11.530,-4839779,33611740,19818320,-17637100,19541020,-37265620,48242190
11.540,52515100,9658847,-4186365,-74922940,19726560,-3203125,-2097168
11.550,52256160,34854700,21095810,-74663980,24863280,-37363280,-14746090
11.560,-4848413,96070540,-38928860,-17490360,1421875,-48242190,-13837890
11.570,51790050,35743760,22571830,-74128820,-3269043,-31601560,-121875
11.580,51375730,94560000,-35087760,-73973450,-90185540,-16035160,-21015620
11.590,-5225617,6716566,-6110104,-17700110,-11298830,-26113280,-2640625
11.600,50529820,6347378,-6341189,-73593660,-14658200,-32675780,-27265620
11.610,-5286901,9449958,-3135024,-17638830,-22558590,-32246090,-12197270
11.620,-5172099,9508654,-3059065,-17460150,-26894530,-14550780,-64208980
11.630,-4989106,33560810,32298860,-17211560,-29941410,5541992,-7573242
11.640,-4726704,39938760,27250200,-16887010,-38417970,33671880,-8251953
11.650,-4517817,40672450,27811260,-16612520,-4234375,66679690,-13562010
11.660,49735710,41362990,28208310,-70607100,-33515620,61601560,-15849610
11.670,49606230,10199190,-3162648,-70270460,-22089840,37421880,-15791020
11.680,-9561650,42157100,28864320,-10757310,-2296875,34472660,4482422
11.690,-4030131,100887000,-29278640,-15960820,-31210940,49570310,9995117
11.700,-3922233,9935058,-2718978,-15827040,-39199220,58476560,21933590
11.710,-3894614,65526500,-58251720,-15768340,-44570310,69921870,27929690
11.720,49364540,42778580,30573390,-69010240,-36328120,65898440,20117190
11.730,-3825558,9706319,-2308973,-15630240,-36835940,62734380,11982420
11.740,49183280,96786980,-22157510,-68483700,-4875,70429690,18676760
11.750,-3797075,97287600,-22002140,-15520610,-47539060,59492190,-10791020
11.760,-3808296,97606980,-21682760,-15492130,-44101560,41132810,-18095700
11.770,48587690,63039710,-55386870,-67853590,-48476560,37128900,-11416020
11.780,-3838506,9716677,-2005138,-15444650,-49765620,32226560,-65771480
11.790,48147480,9702005,-1933497,-67534220,-43476560,22363280,-10869140
11.800,-3987834,9702003,-1881705,-15519750,-37402340,9819336,-13613280
11.810,-4056888,9708045,-1841136,-15554280,-33066410,-3635254,-19482420
11.820,-4106088,9728761,-1820420,-15574130,-28964840,-11054690,-296875
11.830,-4144067,9754656,-1811789,-15587940,-2625,-15351560,-34765620
11.840,-4136299,9786593,-1814378,-15561180,-21074220,-21210940,-36269530
11.850,47267060,45791040,34138270,-66843690,-18574220,-25507810,-31503910
11.860,47310210,45911880,34190060,-66696940,-17558590,-29355470,-2375
11.870,47396520,63052660,-55028660,-66541580,-16240230,-3296875,-20546880
11.880,-3747876,63576600,-55540510,-15138230,-13291020,-36171880,-18876950
11.890,47577790,10039500,-1993056,-66256740,-11015630,-39414060,-17226560
11.900,-3574375,46429780,34190060,-14949200,-10761720,-45703120,-13671880
11.910,55871960,102889600,-22097090,-57720860,-6870117,-48242190,-12988280
11.920,47456940,46878630,34103740,-65963250,16271970,-5484375,-10078130
11.930,-3591642,69144020,-61021620,-14914670,6948242,-61328120,-35107420
11.940,47275680,7002190,-6187014,-65730200,7265625,-61523440,-54779050
11.950,-3528627,47586420,34259120,-14805050,60595700,-58789060,28051760
11.960,47189370,10832750,-2615399,-65350410,34179690,-47421880,24182130
11.970,-3350818,72053770,-63808790,-14585800,30541990,-42890620,30273440
11.980,-3191993,10961360,-2693946,-14416620,-9613037,-41601560,-33007810
11.990,-2985695,48216540,34561220,-14208600,-78808590,-32832030,-9946289
12.000,-78547380,10987260,-2702574,-89770270,-10820310,-14375,-75146480
12.010,47690000,11060630,-2767317,-64452710,1550293,17734380,-8100586
12.020,47422420,112142700,-29071480,-64547660,28769530,47226560,-7631836
12.030,47154840,11319580,-3009004,-64694400,36445310,36738280,58740230
12.040,-3288667,48708540,34293640,-14475320,-17895510,52226560,26796880
12.050,-3380165,114697700,-31868150,-14573710,-15732420,58320310,14785160
12.060,4704264,48717170,33836160,-6506554,-26953120,70195310,-7458496
12.070,-3474249,11655350,-3432816,-14704060,-28574220,828125,-15869140
12.080,47042630,11753750,-3576105,-65497150,-15263670,79023440,-26660160
12.090,-3755641,11802090,-3683135,-15044150,-7451172,66015620,-29921880
12.100,55687240,11835750,-3787581,-57612110,-4397583,56796880,-29101560
12.110,4703396,82962480,-74997170,-6674870,8310547,48828120,-19658200
12.120,-4340004,47370630,31384770,-15771790,11005860,45742190,-80078130
12.130,-4449631,120023400,-42252050,-15938380,97998050,4359375,48828120
12.140,-4505734,12107650,-4430639,-16054910,12099610,33144530,15029300
12.150,-4493653,88034450,-80455840,-16101520,10566410,20195310,20078120
12.160,-4455669,45989560,28829790,-16122240,65185550,109375,21992190
12.170,57600020,91045180,-83659910,-59652640,73876950,-11242680,21992190
12.180,-4346912,12518520,-5228205,-16127420,10224610,-12958980,2171875
12.190,-4295121,45005550,27017140,-16127420,146875,-23769530,19746090
12.200,-4227794,44686180,26525130,-16108430,17490230,-31875,19306640
12.210,49519920,44392710,26110810,-69718030,19853520,-371875,18408200
12.220,-4032717,44116490,25765550,-15992760,20332030,-39394530,19130860
12.230,50046450,43883440,25515230,-69882030,1984375,-39492190,1703125
12.240,-3796212,12635050,-5733158,-15814950,20175780,-38789060,17460940
12.250,-3675366,43555430,25204490,-15711370,21132810,-38183590,18027340
12.260,50642030,35235360,33403710,-69821620,22539060,-3828125,18691410
12.270,50771510,43460480,25178590,-69743930,24121090,-40859380,17519530
12.280,-3375847,43486380,25273540,-15423940,22636720,-44179690,16855470
12.290,50857830,12511620,-5614906,-69536770,21191410,-43320310,13408200
12.300,50788780,12485720,-5554485,-69433190,25097660,-44023440,86328130
12.310,-3331825,43831640,25912290,-15329850,29433590,-45859380,5546875
12.320,-3381026,44021540,26240290,-15349710,33789060,-43203120,6689453
12.330,-3486333,12366600,-5276542,-15417030,40117190,-35429690,9223633
12.340,-3629618,44565340,27043040,-15515430,44882810,-30429690,13027340
12.350,58216320,90453910,-83215380,-60158450,44023440,-28945310,15244140
12.360,-3929139,8962959,-8231338,-15716550,43710940,-32792970,11650390
12.370,-3995601,45454400,28484530,-15736400,390625,-34980470,9509277
12.380,48674020,12065360,-4593779,-68302440,29726560,-35039060,-61572260
12.390,-3841097,119004900,-43443220,-15493850,99853520,-26796880,20471190
12.400,48535900,82546430,-74895310,-67508330,-4482422,-9453125,10266110
12.410,48397800,39503730,37974180,-67111270,-20332030,26074220,15271000
12.420,48138850,11445600,-3608042,-66800530,-278125,35859380,-4580078
12.430,-3629619,47051260,32170250,-15066590,-37382810,46523440,-52246100
12.440,-3718524,47448320,32584570,-15098520,-38164060,57851560,-6542969
12.450,-3808294,47854000,32955730,-15129600,-35820310,66875,-27294920
12.460,46800940,11527600,-3370671,-65859680,-378125,73945310,4375
12.470,46490200,48553170,33689420,-65652510,-46328120,81875,9355469
12.480,-4091414,11572490,-3291257,-15260800,-49648440,78828130,9345703
12.490,54651450,11624280,-3291260,-56610840,-4875,64453120,7270508
12.500,-4384028,4939908,3439723,-15468820,-4671875,50039060,50097660
12.510,-4516954,49692550,34587120,-15560320,-43476560,35566410,17993160
12.520,44876070,80111440,-71633410,-65125980,-4296875,23710940,-55615230
12.530,4460847,80396280,-71866460,-6496195,-42382810,16044920,-11513670
12.540,-4728432,5056436,3526902,-15642320,-38417970,6323242,-16884770
12.550,44202810,50883730,35502080,-64504500,-3359375,-30395510,-20078120
12.570,-4529902,51487940,35933660,-15322950,-24941410,-22226560,-20878910
12.580,-4363311,5174689,3610630,-15127010,-24726560,-27792970,-18095700
12.590,-4204490,123018600,-34768380,-14940560,-26445310,-33085940,-15849610
12.600,44125120,8418820,-7532520,-62959430,-26660160,-38984380,-15869140
12.610,52465040,12536650,-3639116,-54326040,-20117190,-43476560,-14628910
12.620,-3910148,5285175,3645156,-14561630,-68652340,-51015620,-9116211
12.630,43917960,53119330,36511980,-62286160,6357422,-55429690,-20275880
12.640,43805750,128888200,-38911590,-62104890,19892580,-62617190,30517580
12.650,-3851456,88933010,-79902540,-14413170,23007810,-67851560,12561040
12.670,43313750,13026060,-3926551,-61681950,24140620,-75859380,10458980
12.680,-8687005,130226100,-38782110,-9732983,19394530,-68085940,90527340
12.690,-8741299,130338300,-38324630,-9782271,20527340,-61445310,68896480
12.700,4245056,130657600,-38005260,-6106041,23730470,-55664060,9954834
12.710,4212254,88827700,-79489950,-6073243,19296880,-40859380,-8093262
12.720,41768670,131072000,-36900410,-60361300,10820310,-25507810,28686520
12.730,-4193271,88736200,-79236180,-14330300,15795900,-875,24609380
12.740,41112660,131978300,-36166720,-59515390,-11767580,9399414,25854490
12.750,40845080,89417240,-79763580,-59092440,-17792970,17275390,-43237300
12.760,40681080,13383410,-3672779,-58721280,-12851560,19208980,-1734375
12.770,-3962802,9067229,-8092540,-13870240,-76660160,27011720,-30039060
12.780,-3910149,13496490,-3732336,-13802050,-5371094,34921880,-40703120
12.790,40603400,13519790,-3760822,-58350120,-80566410,37421880,-47695310
12.800,-8446438,13498210,-3765136,-9438390,-18981930,34238280,-45546880
12.810,-4039624,13406720,-3718525,-14000580,-47753900,35800780,-40742190
12.820,-4087965,89318840,-79689340,-14107610,-1578125,42851560,-31679690
12.830,-4122488,13091660,-3532944,-14211190,-26503910,54257810,-26777340
12.840,-4152698,8665339,-7717580,-14319080,-275,55664060,-25605470
12.850,4194995,55026920,38851160,-6055980,-24277340,51054690,-29902340
12.860,42372890,12616920,-3334418,-61103620,-22617190,55429690,-37128900
12.870,51317030,124615500,-32998890,-53212540,-16015630,65820310,-42070310
12.880,43270580,12260430,-3242059,-62484690,-16708980,69726560,-47109380
12.890,-4387483,80384190,-71533280,-15102840,-21328120,77734380,-46796880
12.900,-4455671,5071110,3588187,-15328130,-26191410,8140625,-48007810
12.910,-4499692,11443870,-3005549,-15543060,-32421880,82890620,-4328125
12.920,-4518683,111478100,-29563490,-15748490,-33789060,8359375,-33300780
12.930,-4498828,46472930,32696780,-15923710,-34863280,86171870,-18222660
12.940,4787987,71307990,-63691400,-6840599,-31152340,921875,-20385740
12.950,-4360722,10257020,-2966706,-16199930,-26582030,934375,12128910
12.960,5000327,68120310,-61182170,-7052938,-24492190,92578130,26328120
12.970,-4088824,39179170,26490610,-16350980,-13701170,92734380,39355470
12.980,-3900657,65584320,-59402320,-16366520,-21276860,77460940,49648440
12.990,53300580,65043980,-59252130,-73274280,859375,54414060,60859380
13.000,-3388798,89260140,-35208600,-16222370,21074220,34082030,70195310
13.010,55337660,25766410,24504460,-74551780,3484375,17333980,78632820
13.020,-2863129,66986110,-62316370,-15988450,55429690,-11193850,7515625
13.030,56951790,22371580,21028480,-75423580,82578130,-17441410,69257810
13.040,-2461756,90969220,-50417620,-15785600,10875,-28496090,54960940
13.050,-8471901,26654610,11566450,-9809983,132421900,-3796875,4625
13.060,66135020,8279419,-7913609,-67983930,16125,-5265625,3609375
13.070,57754530,104667700,-69001610,-76433480,1721875,-65820310,38242190
13.080,-2655103,27137980,8424515,-16058370,1809375,-88359380,67304690
13.090,57366110,28346420,8182824,-76183150,155625,-890625,75078130
13.100,56908630,30141810,8424511,-75811990,142890600,-129140600,55039060
13.110,64892070,32316990,9270415,-66740970,68203130,-1271875,60195310
13.120,55760620,34638910,10055900,-74525880,-62421880,-10375,43984380
13.130,-3131571,25201040,22583910,-16013480,-1534375,-16046880,-87265620
13.140,5457808,16233590,-11284190,-7336060,-1759375,-125703100,-17359380
13.150,54862920,38920220,10711910,-72972180,-18125,-98671870,-22765620
13.160,-1946442,38549060,10081800,-14781740,-19375,-99140620,-18078120
13.170,-1313741,37668630,9650212,-14223270,-200625,-49492190,-110390600
13.180,-1269720,16073040,-11513790,-14250030,-11328130,-42890620,-42578120
13.190,-16193020,35433030,8502201,-146600400,-36582030,-103671900,22937010
13.200,-16106710,34103750,8605783,-147204600,15908200,-11765630,4501953
13.210,-1107443,21821740,19454930,-14308730,13242190,-46757810,39433590
13.220,-6810909,30797810,9063258,-8139150,29160160,32929690,58632810
13.230,59325500,11839210,-8013650,-74275560,34316410,41835940,48320310
13.240,59506760,10854330,-7203136,-74784820,43085940,47734380,596875
13.250,-11454230,99048470,-64090190,-146332800,56679690,940625,60234380
13.260,59368660,24220480,9373997,-75924210,91015620,91875,596875
13.270,58988860,23184680,9512101,-76528420,110078100,29433590,62382810
13.280,5847097,22528670,9874636,-7708085,104765600,1421875,26152340
13.290,-3119489,75259570,-42821740,-16664310,996875,-18916020,16464840
13.300,-3707304,21950350,10798220,-17233140,8640625,-50976560,-88720700
13.320,-4400427,21941720,11911710,-17886550,52929690,-6671875,-35488280
13.330,56088620,65315880,-30668340,-78565500,37871100,-53164060,-19267580
13.340,-4579103,22502780,13111510,-18018620,18681640,-35078120,836792
13.350,-4672325,23020680,13646680,-18080770,12753910,-21640620,47558590
13.360,-4697356,23607630,14216370,-18073000,4736328,37384030,10537110
13.370,55329030,24203220,14777420,-78099390,16393660,27851560,10751950
13.380,-4677504,24729750,15355750,-17989270,-7324219,48945310,13691410
13.400,55035560,25644710,16443340,-77512430,-31816410,971875,94921870
13.410,5495786,67370220,-24470800,-7734841,-37089840,8921875,92822260
13.420,-4541123,26464710,17228820,-17745860,-3171875,58085940,43701170
13.430,-4483291,26887670,17548190,-17665580,-19355470,29960940,7558594
13.440,-10312870,7038268,-2525627,-11628850,-2097168,8496094,21679690
13.450,54923340,27768100,17979770,-76519790,72314460,-11279300,35390620
13.460,55035560,28147890,18221460,-76234940,10693360,-12167970,42148440
13.470,-3962801,28579470,18566730,-17063960,25039060,116760300,37246100
13.480,-4006822,29054220,19058740,-17071720,4375,6245117,30195310
13.490,54491760,7408570,-2483335,-75725680,47578120,6801758,29804690
13.500,-4199310,3012455,2035349,-17172720,34492190,34643560,27382810
13.510,-4243333,48682730,-48164660,-17163220,10878910,49560550,15224610
13.520,5363721,75061040,-21786350,-7497469,-13134770,12109380,-2536621
13.530,62945620,3227386,2250275,-65062110,-34335940,15214840,-10136720
13.540,62634880,33076580,23184680,-64734110,-4671875,24140620,-6430664
13.550,-4108676,33905220,23823420,-16779970,-5125,3078125,-5166626
13.560,52592790,34751120,24427640,-73446920,-52304690,36015620,121398900
13.570,52213000,35571130,24954170,-73136180,-52109380,3703125,46948240
13.580,-9915634,36304820,25411650,-11162910,-46914060,26484380,-17272950
13.590,-4443586,36917670,25800070,-16859390,-44882810,17373050,-30908200
13.600,51047730,88155290,-24574380,-72609650,-42578120,13935550,-5444336
13.610,-4775907,89052980,-24712490,-17096750,-40976560,10332030,-11699220
13.620,-4951128,38203790,26775450,-17232270,-40703120,48608400,-15361330
13.630,49968760,38514540,27068930,-72462900,-42109380,23828120,-1515625
13.640,49640760,38808010,27327880,-72445650,-39921880,-14648440,-13388670
13.650,-5481113,39110120,27578200,-17651770,-34179690,-39233400,-9223633
13.660,-5645977,39438120,27819890,-17780380,-26425780,-58740230,-9033203
13.670,-5777179,39766120,28061570,-17873610,-22109380,-9897461,-62060550
13.680,48380530,40094130,28320520,-72203950,-21289060,-14082030,-30566410
13.690,4812156,62664230,-55762340,-7208309,-19238280,-16083980,-55615230
13.700,47879900,94465050,-24824690,-71945010,-17099610,-215625,-8647461
13.710,-6086193,41147190,29114640,-18030700,-14658200,-275,-13261720
13.720,4745695,4152699,2937359,-7159111,-12568360,-34335940,-16767580
13.730,-6100867,9715813,-2558428,-17964240,-10136720,-37558590,-16806640
13.740,-6079289,98306140,-25989970,-17899500,-6269531,-36425780,-14804690
13.750,-6043898,9948006,-2636977,-17814050,-3088379,-3390625,-12792970
13.760,-6010233,43374160,30616550,-17726870,20092770,-26894530,-9375
13.770,-5970531,102371700,-27448720,-17628460,65283200,-21542970,-50390620
13.780,-5933411,44556700,31350240,-17527480,890625,-13837890,20141600
13.790,-5906657,105867500,-28959270,-17433390,11572270,-31225590,58154300
13.800,45661560,10774920,-2983972,-68915290,12958980,-69732660,9506836
13.810,-5862637,74033870,-66144520,-17252990,71191410,-7598877,11777340
13.820,4516094,47068520,32791730,-6806937,-2999878,-33935550,6123047
13.830,-5683958,11311810,-3241194,-16948290,-7128906,-74609380,-22546390
13.840,-5552755,41457070,39974150,-16768750,-19638670,-8286133,-81640620
13.850,-10472720,48587700,33482260,-11589830,-30039060,-25756840,-20429690
13.860,44712070,48976120,33577210,-66619260,-25683590,66308590,-27753910
13.870,44599860,120049300,-37219780,-66489780,-18544920,12207030,-35175780
13.880,-5449176,12182750,-3889432,-16544330,-12216800,20019530,-36875
13.890,44315020,12354520,-4062931,-66550210,-58740230,2890625,-26621090
13.900,-5757326,49770240,33007520,-16840400,33422850,40820310,-12333980
13.910,-5946361,12683380,-4424595,-17031160,70751950,509375,16955570
13.920,43797110,91210040,-82977140,-67119900,3947754,63007810,93603520
13.930,43693540,9274738,-8454727,-67344320,-3083496,72109380,86621100
13.940,43607220,13133960,-4975300,-67603270,-76660160,69375,6953125
13.950,-6592009,49830660,31307080,-17732050,-20214840,49648440,1940918
13.960,-6737884,49830660,30858240,-17896910,58203120,3015625,-23913570
13.970,43469110,13714010,-5690002,-68328340,8256836,17070310,-52734380
13.980,-6898434,10290860,-9492942,-18098890,7783203,94970700,-296875
13.990,-6930372,14049780,-6113814,-18153270,83447260,30297850,109069800
14.000,43693540,14199110,-6309756,-68794450,859375,-41577150,5053711
14.010,-6887213,14341530,-6495334,-18161910,7714844,-10019530,93652340
14.020,-6814707,14476180,-6671420,-18113570,7207031,-11943360,12001950
14.030,-6699041,49571710,28147890,-18022070,6953125,-14580080,11542970
14.040,-11663890,49545810,27880310,-12798270,6767578,-17783200,9902344
14.050,44737970,14793830,-7078839,-68906660,6171875,-19628910,57177740
14.060,-6245018,14857700,-7170332,-17630200,5317383,-21386720,-6939697
14.080,-5934275,49191910,27077560,-17371240,23339840,-20800780,-69628900
14.100,-5626126,14780020,-7230754,-17126970,3088379,-22890620,27217860
14.110,-5479388,4849276,2656830,-17014760,60009770,-24316410,25
14.120,-5339554,14623780,-7162564,-16912900,828125,-25136720,4855957
14.130,47042630,11168960,-10427500,-69053400,10585940,-24609380,42797850
14.140,-5086647,14361380,-6993384,-16734230,12392580,-25429690,3190918
14.150,-10222490,14181840,-6862181,-11391220,13671880,-26132810,30566410
14.160,57553420,4671465,2601584,-59699250,15439450,-2484375,5205078
14.170,4814748,13764930,-6536768,-6948498,18203120,-23496090,72216800
14.180,-4735337,3692804,3493929,-16533110,20917970,-24648440,8588867
14.190,-4694767,45463030,26024500,-16521890,23125,-24628910,6308594
14.200,48665380,13052820,-5936868,-69882030,23261720,-27109380,65771480
14.210,48768960,12815450,-5725392,-70002880,24101560,-25644530,72998050
14.220,-4705127,12599660,-5526861,-16597850,25917970,-2703125,54052740
14.230,-4751736,44168280,26473350,-16654810,2765625,-27382810,5883789
14.240,48794860,4393526,2672365,-70270460,27304690,-26582030,4921875
14.250,-4782811,11883230,-4810432,-16692800,27089840,-25488280,7001953
14.260,-4729295,11603560,-4520408,-16642730,23242190,-20957030,48535160
14.270,48976120,43261960,27707670,-70192780,18242190,-14306640,3166504
14.280,-4564430,11050270,-3934317,-16479590,15419920,-5703125,7104492
14.290,-9831649,42959840,28475890,-11022470,10996090,8330078,38452150
14.300,-4391799,73850020,-66673640,-16289690,11289060,19775390,26931760
14.310,-4251100,10441740,-3230836,-16136920,8725586,30175780,18469240
14.320,58348390,10297590,-3046983,-60354390,-5505371,4734375,21484380
14.330,-3975749,43054790,29900120,-15825310,-66503900,52851560,-8041382
14.340,49347280,68754740,-61410910,-68906660,-1109375,55273440,38452150
14.350,58009160,68521690,-61126070,-59951290,-21445310,6546875,13535160
14.360,57836530,68807390,-61358260,-59778660,-24902340,67148440,14179690
14.370,4884665,10337290,-2834642,-6838875,-30,59335940,18466800
14.380,-3989558,44479020,31082660,-15673390,-3359375,47617190,15664060
14.390,-4079330,10660120,-3046981,-15721730,-38554690,36191410,17519530
14.400,-4126807,74096020,-66427640,-15726050,-38417970,21308590,13046880
14.410,-4155288,11052000,-3328374,-15714830,-4078125,13144530,11669920
14.420,-4150112,77259530,-69478940,-15668210,-40039060,53125,8876953
14.430,56389000,11387770,-3545032,-58360480,-39199220,50079340,8144531
14.440,56161980,79653960,-71745620,-58121380,-35117190,-67626950,73583980
14.450,4718075,47569160,32239300,-6660198,-31679690,-18554690,515625
14.460,-3925686,8162543,-7357207,-15253900,-30390620,-30136720,5292969
14.470,-3805709,82700070,-74569030,-15080400,-28535160,-40195310,56884770
14.480,46844100,49027920,33111100,-65350400,-28007810,-48515620,4741211
14.490,-3440584,49554440,33465000,-14599610,-25644530,-54101560,3840332
14.500,-3214440,85509680,-77111060,-14307860,-21015620,-62148440,13464360
14.510,-7925086,5068520,3428502,-9027524,-12861330,-70859380,-42700200
14.520,4657652,12558220,-3962802,-6297669,-7207031,-8171875,-9296875
14.530,-2498869,51755520,35148180,-13383410,-39575200,-91875,-14980470
14.540,-2317603,52273420,35562500,-13133090,13220220,-9796875,-21367190
14.550,-70243700,88340010,-79459740,-80983230,50927740,-10015630,-20292970
14.560,52541860,129155800,-39334540,-54024780,6894531,-92734380,-17128910
14.570,-20094540,89048670,-79959510,-125780800,3618164,-68085940,-21933590
14.580,-1979243,13109790,-3911875,-12452920,63623050,-29960940,-13271480
14.590,-72505900,91578620,-82263300,-73542040,453125,26875,-14123540
14.600,-67717220,13511160,-4097453,-77985460,26113280,12167970,26289060
14.610,-19766540,13584530,-4075876,-121620300,-23496090,14833980,26796880
14.620,-1635702,13648400,-4046528,-11743390,-25585940,-61553960,1586914
14.630,-57035510,13581940,-3905830,-67087960,-31191410,17041020,-27773440
14.640,-726787,13414490,-3693493,-10753340,-42382810,33554690,-67578130
14.660,-318506,56848200,40344440,-10367500,-27714840,6515625,-123125
14.670,-3141932,86138930,-76481810,-104236100,-12167970,78984380,-132734400
14.690,-51787460,12454650,-3065105,-62150650,-31699220,15015630,-71328130
14.700,4668874,53525020,38436850,-5866947,-47382810,1778125,-32851560
14.710,47275680,11851290,-2874350,-59929720,-45273440,16609380,-12587890
14.720,47914420,11574220,-2840686,-61258990,-43828120,146640600,-91845700
14.730,-1424225,49433600,35260390,-12541820,-45117190,136875,-734375
14.740,49364540,74353250,-66170420,-63883020,-43710940,1240625,-41723630
14.750,-1715117,74026100,-66152290,-13252210,-38789060,106875,-16430660
14.760,51108140,70552380,-69798660,-66438000,-38789060,89609380,5048828
14.770,52092150,73849160,-66674510,-67663700,-40429690,71757810,11132810
14.780,-17565460,104287900,-36408400,-139531000,-38847660,53710940,20761720
14.790,-16745450,73627330,-67241600,-140868900,-29335940,33164060,33496090
14.800,-15554280,73592800,-67621400,-141714800,-11279300,12080080,47070310
14.810,56200830,28520780,27101730,-71824160,11425780,-7553711,66523440
14.820,-1305109,9777962,-4602410,-14266430,340625,-16103520,7578125
14.830,5765094,97632860,-49450860,-7329151,57734380,-31953120,73710940
14.840,-1332734,78292740,-73797360,-14532280,87890620,-50585940,67851560
14.850,-74756340,10031740,-5816020,-88037030,11375,-65820310,59609380
14.860,-77578040,20767810,19110530,-90912250,1471875,-65859380,56484380
14.870,58039380,106350900,-68008960,-75561680,17375,-63085940,46210940
14.880,-2470385,27966620,9563895,-15828760,18265620,-68125,4140625
14.890,57150320,11634640,-7872953,-76157260,19015620,-871875,38886720
14.900,-8986091,29598010,9002837,-10314330,17984380,-12140630,503125
14.910,-3029718,31091290,9512105,-16236180,109453100,-126015600,1059375
14.920,55639780,33171530,10487480,-75216410,6859375,-12984380,8828125
14.930,55035550,35588400,11764970,-74370500,24023440,-152890600,-13171390
14.940,5481114,37815370,12818040,-7324838,-46015620,-112421900,-29316410
14.950,5446587,3974887,1369847,-7231617,-137109400,-98046870,-846875
14.960,-2479880,41095400,13715730,-15076940,-236875,-66757810,-1825
14.970,-81073000,41863620,13102890,-93632090,-23765620,-10109380,-24828120
14.980,54742080,41863620,12481400,-71124990,-16953120,-67734380,-2125
14.990,-72578570,41406150,12196560,-85208440,-117578100,28857420,-31953120
15.000,55113240,17018210,-11673480,-71323530,-28984380,51054690,23984380
15.010,-77558180,40292660,12533200,-90241560,11767580,-13154300,-57890620
15.020,55587980,38669900,12515920,-72264380,17041020,-31972660,30625
15.030,-1920547,36839990,12809410,-14807640,-40771480,16884770,3421875
15.040,5646842,34759750,12818040,-7350733,-10996090,55546880,11591800
15.050,-2239056,32765840,12671300,-15335030,74560540,60976560,30410160
15.060,-2503186,11476680,-7115953,-15675120,4171875,74375,42148440
15.070,-2727609,29926020,12300140,-15951330,62695310,4921875,45625
15.080,5670148,29278640,12222450,-7577746,90078130,27480470,58515620
15.090,-3207533,104995700,-63667230,-16455420,106953100,3881836,48320310
15.100,-3429364,29131900,12472770,-16665170,10421880,-15146480,4265625
15.110,-3611496,102811900,-60672030,-16828310,7875,-19707030,32753910
15.120,55648400,29399490,13379090,-76312630,46171880,-23476560,21191410
15.130,5546711,100369100,-56900000,-7628669,11210940,22558590,8457031
15.140,55268610,9960956,-5558801,-76295370,61309820,31035160,55810550
15.160,-4195856,30176330,14794690,-17314270,16914060,57617190,94433590
15.170,54716180,30348970,14932790,-76329900,15878910,48867190,20214840
15.180,64415600,7969715,-7515516,-66578690,14770510,58242190,29199220
15.190,54595340,23526490,21962430,-76329900,13000490,38535160,23925780
15.200,54526290,30694240,14846480,-76347160,61865230,17568360,16591800
15.210,-4414238,30875500,14786060,-17492950,92822260,-21875,13730470
15.220,-4447042,104788500,-58868020,-17511940,15830080,-22480470,11777340
15.230,-4483291,31514240,14855110,-17527480,21835940,-38515620,11923830
15.240,54077440,10837070,-6132807,-76088210,26660160,-49609380,1203125
15.250,-4506598,11036460,-6244153,-17486910,28359380,-503125,16455080
15.260,53663120,11247080,-6344283,-75691160,2734375,-49609380,20195310
15.270,-4590324,34051960,16218920,-17472230,27441410,-47851560,19140620
15.280,-4608450,34777020,16823130,-17436840,24765620,-434375,21894530
15.290,52886270,35441660,17556820,-74845250,17958980,-32070310,23417970
15.300,52653220,36019980,18359570,-74543140,10957030,-23417970,19472660
15.310,52428790,36494720,19231370,-74249660,15917970,-11328130,14453130
15.320,52126680,112401700,-55398090,-74033870,-46606440,-6500244,38232420
15.330,51738260,84479940,-78658730,-73887140,-11303710,-34277340,-83447260
15.340,51341200,10892310,-4955447,-73766290,48242190,-16728520,-16953120
15.350,-5070245,37936210,22589090,-17527480,13745120,-28769530,-18496090
15.360,5065067,10508200,-4338280,-7338649,20812990,-27441410,-11455080
15.370,-5229931,38678540,24229110,-17574950,8041992,-31933590,-4506836
15.380,-5233386,102432100,-38264210,-17519700,9086914,-30332030,5595703
15.390,49761600,33434790,32062350,-72445640,11455080,-23125,79248050
15.400,-5197131,40145920,26749560,-17348800,12900390,-22382810,4025879
15.410,49235070,34801190,33492620,-71573850,66064450,-16845700,40551760
15.420,-10482740,41259400,28432730,-11683400,20117190,-12519530,-41229250
15.430,-5012412,41829100,29192320,-16946560,19445800,-5439453,3203125
15.440,-4916601,42390150,29856960,-16783430,6640625,35058590,42285160
15.450,57973780,65469530,-58136060,-60107530,23876950,10410160,26513670
15.460,-4574787,43218790,31117180,-16331130,-93847660,23417970,28686520
15.470,-4416830,63059560,-55539650,-16126550,-15615230,38027340,-9995117
15.480,48216540,9632088,-2037941,-68466450,-20234380,39765620,-20546880
15.490,-4117307,44030170,32532780,-15752800,-26816410,43515620,-26523440
15.500,48276950,60740230,-53025240,-67767280,-34316410,52890620,-29121090
15.510,-3792759,95544000,-17876200,-15369560,-38125,58125,-29316410
15.520,-3669325,9638992,-1823873,-15216780,-40195310,55078120,-20039060
15.530,-3597681,39875750,38707020,-15115790,-365625,48203120,-11025390
15.540,-3586461,4548030,3349953,-15075220,-31816410,40273440,64746100
15.550,47923050,10105100,-2169142,-66653790,-2546875,3515625,14990230
15.560,-3747012,66480290,-58506350,-15173620,-20957030,36582030,14726560
15.570,4742242,10305360,-2296889,-6655021,-20175780,34355470,17773440
15.580,-3963664,46490200,33905220,-15336760,-24101560,34511720,2484375
15.590,47008100,10302770,-2230427,-66463890,-30136720,31171880,19902340
15.600,-4153565,66373260,-58268120,-15474860,-35664060,27792970,10107420
15.610,-9327217,66305070,-58163670,-10456580,-38789060,23203120,-40844730
15.620,5531865,66238610,-58057500,-5730739,-39238280,14433590,-13505860
15.630,46205350,103096700,-20854130,-66109990,-36894530,66503900,-16103520
15.640,-4326194,47500100,35208600,-15526650,-38183590,39331060,-15419920
15.650,45920510,10250980,-1936950,-65756100,-40078120,17370600,-16787110
15.660,-4384028,10229400,-1872210,-15520610,-35996100,-20288090,-19433590
15.670,45549350,10203510,-1811790,-65540310,-29609380,-83496100,-21855470
15.680,-4503147,63768220,-55348880,-15591390,-2453125,-13427730,-21835940
15.690,-9528160,101240900,-16840400,-10635430,-21679690,-17988280,-22714840
15.700,45212710,4809573,3640839,-65428090,-20683590,-22578120,-21796880
15.710,-4604134,48087060,36486090,-15663030,-18378910,-27402340,-20351560
15.720,-4641252,9997206,-1534711,-15694970,-16035160,-32871090,-15595700
15.730,-4679231,9976490,-1503637,-15726050,-159375,-35605470,-10585940
15.740,44884710,48182010,36684610,-65445350,-11630860,-3328125,-10019530
15.750,-4885526,48302850,36736410,-15899540,-3112793,-3390625,-9536133
15.760,-5018453,43224840,42056110,-16008300,5234375,-39414060,-95166020
15.770,-5109949,48674010,36900410,-16072180,7631836,-44296880,-95166020
15.780,44064700,102000500,-16080810,-65281350,38842770,-46367190,-63720700
15.790,-10020080,63358220,-54723090,-11110260,-11798100,-37734380,-48999020
15.800,43814380,63555020,-54871560,-64841140,-12005620,-24492190,-6435547
15.810,4361587,49666660,37703150,-6460807,3930664,-12119140,-97314460
15.820,43417320,44551530,43336180,-64375030,10449220,-98339840,-12861330
15.830,-5047802,50305400,38048420,-15789060,18916020,37280270,-12539060
15.840,4326195,10571210,-1703030,-6390891,23007810,1046875,-578125
15.870,43874800,103916700,-14855110,-63261530,-19814450,26796880,11590580
15.890,-3917917,50331300,38367790,-14674710,-38125,59335940,-16962890
15.900,44755230,10470220,-1648652,-63209750,-31777340,72695310,-32753910
15.910,44953760,10547910,-1795390,-63529120,-20800780,76875,-4109375
15.920,-4013729,10633360,-1968885,-14924170,-6508789,75585940,-41953120
15.930,-4246784,10728310,-2167413,-15226270,7519531,67929690,-36347660
15.940,-4482428,10805130,-2366805,-15543060,12714840,521875,-21289060
15.960,-4858770,10927700,-2762136,-16098940,10351560,38808590,4777832
15.970,55591440,47085780,33136990,-57725180,12871090,23554690,6303711
15.980,56034240,7480644,-6692572,-58197340,14931640,7729492,13212890
15.990,4664557,11089110,-3343048,-6844918,18095700,-72265620,18359380
16.000,47042630,111616200,-35467550,-68880760,18505860,-11533200,22929690
16.010,47456950,38211560,36711370,-69226030,17373050,-22011720,23710940
16.020,-4928687,11329070,-3948991,-16667760,15048830,-29394530,21386720
16.030,-4775042,44168280,28614000,-16579720,11523440,-32695310,18847660
16.040,-4590328,82571460,-75388180,-16453700,8901367,-334375,1578125
16.050,-4397840,8347693,-7638169,-16318180,80810540,-32304690,12539060
16.060,58860250,35858570,34247890,-60895600,5288086,-30585940,13076170
16.070,50150020,42726790,26568290,-70123720,4404297,-28203120,12558590
16.080,-9210256,8413121,-7728110,-10418170,41088870,-28085940,13173830
16.090,50970040,41906780,25851870,-70304980,5800781,-29707030,11728520
16.100,5132394,11310950,-4605862,-7039994,88134770,-328125,12597660
16.110,-3328377,81955160,-75313940,-15540460,14228520,-35410160,128125
16.120,51867740,40663820,25178590,-70615730,203125,-39121100,13886720
16.130,52040360,79140380,-72604470,-70736580,2640625,-40273440,14980470
16.140,52161210,3992153,2509225,-70857420,31777340,-40898440,18251950
16.150,-3224793,39636650,25169960,-15540470,34238280,-36679690,19912110
16.160,-3281764,102803200,-38065680,-15604340,39667970,-31796880,17958980
16.170,52074890,39256860,25549750,-71116370,446875,-27890620,19853520
16.180,-3461301,39187800,25843230,-15770070,4953125,-26875,19365230
16.190,-3538989,97684660,-32308360,-15830490,4921875,-30683590,16689450
16.200,-3601997,39256860,26602820,-15871060,41953120,-34960940,14492190
16.210,-3616675,65125980,-58479590,-15856380,31855470,-37773440,8540039
16.220,51323940,9420613,-2698264,-70693420,21660160,-29296880,7397461
16.230,-3535535,93670930,-25618810,-15695830,11347660,-2234375,11816410
16.240,-3436270,9341199,-2449669,-15553410,31445310,-10751950,14144900
16.250,51047720,40689720,29054210,-69709400,-10333250,3569336,31518560
16.260,-3114308,9258335,-2204530,-15150310,-12333980,18681640,9897461
16.270,59071730,92203550,-20871390,-60874020,-21953120,4046875,-4729004
16.280,-2992601,4165647,3043529,-14944020,-28964840,503125,-10722660
16.290,-8372896,9199639,-1917957,-9563722,-36191410,63242190,-10029300
16.300,50305400,9208274,-1857539,-68345600,-4015625,75351560,-39770510
16.310,-3204078,5920898,-5179436,-15026020,-421875,77265620,9628906
16.320,-3373260,93739980,-18989680,-15150310,-39082030,71367180,21367190
16.330,-3550208,4341733,3190267,-15284110,-34199220,5828125,33847660
16.340,-8945004,9692508,-2098360,-10113730,-33691410,45820310,42695310
16.350,-3772040,44384070,32282460,-15407540,-38144530,35117190,39609380
16.360,48268320,65851040,-58099800,-67482430,-43320310,26640620,28710940
16.370,-3835053,10257880,-2413416,-15344530,-45273440,16386720,15605470
16.380,47664100,104434600,-25040490,-66757360,-4703125,64501950,3642578
16.390,-3807430,46757780,33585840,-15182250,-44140620,-31933590,-7636719
16.400,-3790169,10771470,-2642155,-15095940,-40703120,-14873050,-14492190
16.410,46809580,10929430,-2708622,-65574830,-34746100,-25625,-19121090
16.420,46550620,11086530,-2775948,-65177770,-27929690,-33144530,-17607420
16.430,-3657241,112522500,-28519060,-14762750,-19658200,-4046875,-12792970
16.440,-3561429,11417980,-2927864,-14599620,-14628910,-49179690,-9458008
16.450,4593774,77140420,-68562260,-6378804,-10253910,-61953120,-11445310
16.460,53659670,11720950,-3056479,-55410170,-8774414,-72773440,-11435550
16.470,45635670,11842660,-3090141,-62778170,-45703120,-8609375,-10546880
16.480,-30124540,11938480,-3097907,-137847800,-75683590,-95,-8413086
16.490,-2901969,12010110,-3078054,-13601790,3857422,-97109380,-35229490
16.500,-28199680,12050690,-3020221,-134421100,8671875,-95234380,-9136963
16.510,-2739694,12048950,-2918369,-13280690,101501500,-828125,12182620
16.520,-73840520,12068810,-2829460,-84291750,-29342650,-6109375,-11444090
16.530,43961120,12141320,-2791485,-59567180,-15905760,-421875,-15588380
16.540,43546800,12259570,-2794075,-58945700,-85253900,-19609380,-11191410
16.550,-70626090,81006540,-71428830,-80773480,-6225586,58740230,-18417970
16.560,-6955660,56166310,40681080,-7959869,-17959600,32304690,-18369140
16.570,42355620,83438950,-73657540,-57115790,-32543940,46484380,-196875
16.580,-68349060,12846520,-2983967,-78216780,-8564453,525,-37480470
16.590,41924040,57392010,41561510,-56442520,16577150,58867190,-6703125
16.600,-2233015,12766250,-2891610,-12095570,-9116211,58867190,-834375
16.610,-2195899,12584120,-2780262,-12132680,-28183590,84921870,-965625
16.620,-68002060,80806290,-71111180,-78045880,-18974610,959375,-101171900
16.630,43425950,12300140,-2753506,-58376020,-16171880,94140620,-96171870
16.640,-24539860,54232820,39351800,-128068200,-29042970,107421900,-70585940
16.650,44927860,119229300,-27854410,-60516660,-41171880,125234400,-44921880
16.660,52978630,11719230,-2833781,-54572040,-4765625,13390630,-28417970
16.670,-75821490,50227720,35812820,-86799250,-44140620,125859400,-21757810
16.680,-2655103,11304040,-3007276,-13865920,-42382810,10359380,-18330080
16.690,48907070,11086530,-3121216,-65566200,-42617190,86484380,-13876950
16.700,-7779730,108646900,-32567300,-8948452,-40117190,6828125,-84472660
16.710,-2364219,73702420,-66475980,-14294910,-38320310,53945310,9283447
16.720,-2155328,40991820,27129350,-14331170,-38710940,43007810,828125
16.730,53982500,38687170,25031850,-70192780,-3765625,325,20292970
16.740,55337670,36253040,22856670,-71168160,-30371090,22050780,3609375
16.750,-1230013,27844050,26535490,-14099840,-17626950,23925780,55664060
16.760,57944430,6687220,-6191244,-72756380,24365230,18183590,80078130
16.770,59014760,8648941,-4160470,-73429660,19960940,13681640,86015620
16.780,59817500,8459907,-4418557,-74077030,47890620,11240230,75976560
16.790,-6540910,24669330,11600970,-7891248,72851560,14025880,73789060
16.800,60447620,23003420,9710631,-75414940,10984380,-21057130,61914060
16.810,60240450,82889970,-53145220,-76157260,154296900,-25219730,4875
16.820,-1649516,84141560,-56727360,-15320360,18640620,-30605470,51484380
16.830,-2119076,20353490,5593325,-15800280,2025,-6203125,52734380
16.840,58997500,20569280,4945947,-77693700,20890620,-90390620,35332030
16.850,-2860537,21518760,4790579,-16491680,19609380,-11015630,36308590
16.860,-3177319,23176040,5170371,-16744580,170625,-134453100,37929690
16.870,-3160056,25368490,6068067,-16641010,118515600,-137890600,43320310
16.880,57184840,18496820,16444200,-76640640,26308590,-98203130,39433590
16.890,-2951169,30323070,8415883,-16211150,-50039060,-9578125,-37480470
16.900,56364830,13826220,-9686468,-75199140,-17828120,-8234375,-163125
16.910,56028200,33430480,8070614,-75121460,-25734380,-11359380,-18734380
16.920,56580630,33931120,6913968,-74586300,-2440625,-15796880,-22390620
16.930,-1431132,33698060,6646390,-14589250,-18484380,-19912110,-11953130
16.940,57935800,33395950,6292485,-73852610,-125703100,11386720,25214840
16.950,57426530,15545650,-11626870,-74361880,-74960940,-17832030,47509770
16.960,56830940,20600360,17931440,-75078300,-6123047,-74609380,-35332030
16.970,57029480,31453820,6180275,-75397680,-6616211,-834375,-10117190
16.980,57737270,29882860,6542807,-75466730,-66748050,3618164,13417970
16.990,5821202,28242840,6749969,-7571704,-6756592,56757810,35390620
17.000,-2139793,11615650,-8254470,-15589670,30351560,48046880,53789060
17.010,58540020,25472070,7052076,-76407580,52265620,54570310,53984380
17.020,-2266682,102570200,-70753830,-15790780,7421875,6609375,8171875
17.030,58315590,24168690,7544081,-76960010,8390625,4046875,77109380
17.040,66589050,24142800,7967033,-68531180,90625,7548828,40664060
17.050,57245260,24393120,8562619,-77581490,9921875,19208980,27714840
17.060,5657200,24816060,9365368,-7785769,97109380,22460940,53759770
17.070,56002300,25247650,10297580,-78013070,8546875,24882810,17705080
17.080,5551031,25687860,11272970,-7807349,54101560,38671880,2875
17.090,-4848414,89441410,-51082250,-18163630,16025390,55507810,35644530
17.100,54638500,8948460,-4983068,-78082130,-95166020,61015620,15429690
17.110,-5271366,90667110,-49856550,-18500260,-66503900,43398440,-1138916
17.120,-5358544,9246250,-5065067,-18551190,7548828,21796880,-7285156
17.130,53887540,94430520,-51790050,-77745490,17480470,-12336730,-61309820
17.140,-11220400,29175060,14225000,-12533970,21894530,-17919920,42626950
17.150,64365520,98383830,-54224190,-66732330,26464840,-42929690,7109375
17.160,-5188498,22562850,22408170,-18272390,21367190,-60,14462890
17.170,-5039172,30746020,15174480,-18093720,13583980,-65898440,18291020
17.180,53732170,101879600,-54871560,-76485270,65625,-64335940,22402340
17.190,5368036,103105400,-54854300,-7612269,22509770,-5390625,26054690
17.200,-4687862,32765840,16849030,-17616380,42700200,-34726560,234375
17.210,-4777631,33508160,17522300,-17647460,14169920,-19970700,21054690
17.220,52644580,34190060,18290520,-75432210,29707030,-95166020,20820310
17.230,52031730,27756010,26191950,-75354510,44648440,-109802200,18466800
17.240,-11338660,78815820,-73274280,-12605610,51757810,-68066410,12177730
17.250,50736980,101482600,-44565340,-75250940,49375,-17851560,-10949710
17.260,-6261415,36183980,22269720,-18787700,36464840,-18818360,9539795
17.270,49459500,36701880,23340050,-75009250,31171880,-22695310,13828130
17.280,48846640,95682110,-33965640,-74758930,26152340,-36308590,18554690
17.290,-6838013,9505201,-3148835,-19108800,5810547,-45546880,22089840
17.300,-6784498,94844830,-29278640,-18955150,-10380860,-37539060,12568360
17.310,47603690,39999180,27655880,-73032600,-19609380,-25214840,8779297
17.320,58486500,65982240,-59004400,-60993140,-24433590,-15107420,-3692627
17.330,-6349459,42303840,29546220,-18181760,-29960940,-64697260,-11982420
17.340,46714620,37537430,36228860,-70538050,-31777340,94873050,-14150390
17.350,-5690862,44453130,31004980,-17321180,-31777340,25820310,-19648440
17.360,-5317112,4529904,3157467,-16866290,-28164060,440625,-22597660
17.370,-4918327,45963670,32101200,-16401910,-30605470,51289060,-13466800
17.380,-4559250,4651610,3261910,-15984130,-31894530,65195310,-11435550
17.390,-4241605,10935470,-2927000,-15611250,-29921880,7484375,-14169920
17.400,-3942948,47301580,33559950,-15271160,-31054690,78046870,-19550780
17.410,-8757528,68079920,-67264740,-9886890,-31152340,7578125,-19814450
17.420,4724979,10740390,-2535123,-6539356,-30664060,63398440,-159375
17.430,-3299028,69297670,-61040610,-14534010,-30898440,48789060,-10986330
17.440,-3273129,47974840,35096390,-14473590,-29335940,35976560,-101867700
17.450,-3307658,10557400,-2200214,-14473590,-26171880,25351560,35473630
17.460,-3333552,10503020,-2099223,-14464960,-27695310,21152340,21765140
17.470,46567880,66373260,-57922860,-64400920,-3421875,19013670,-43548580
17.480,46386620,6553256,-5703726,-64254180,-38066410,16845700,-5390625
17.490,-3452668,48760330,36624190,-14483950,-40507810,13945310,-11835940
17.500,4602409,10295860,-1719430,-6399523,-39296880,11474610,-20214840
17.510,4587735,10285500,-1677998,-6390028,-4109375,11494140,-22578120
17.520,-3585598,102898200,-16564180,-14540910,-371875,7089844,-26972660
17.530,-3654651,4926097,3728021,-14592710,-33496090,4465332,-27617190
17.540,45419870,49364550,37314720,-63822600,-29003910,9954834,-24257810
17.550,-3830738,10396850,-1722019,-14744630,-23652340,-9661865,-18203120
17.560,45160920,49494020,37306090,-63908920,-20292970,-56689450,-11220700
17.570,-8923857,10460730,-1778988,-10014040,-19384770,-85253900,-5522461
17.580,-4106951,10487490,-1804019,-15003580,-15566410,-12529300,-32055660
17.590,-4187224,49597600,37254310,-15078670,-14609380,-16904300,-6402588
17.600,44694810,105686200,-18782530,-64133340,-12568360,-203125,-7232666
17.610,4456535,49778870,37193880,-6415921,-8754883,-26757810,-2541504
17.620,-4417692,10714500,-2008590,-15279790,-7104492,-30585940,-40649420
17.630,-9340678,50011920,37133470,-10425850,-75439460,-34785160,-4404297
17.640,44297760,108793600,-21544660,-64116080,-7001953,-35996100,-54785160
17.650,-4511777,10970860,-2235603,-15341080,-6142578,-37675780,-62890620
17.660,-4517817,50426240,37064410,-15335030,-5,-38925780,-6928711
17.670,44133750,111391800,-23780260,-63934810,-5571289,-39257810,-4399414
17.680,-4478113,11223770,-2448806,-15271160,-43725580,-36054690,-42944340
17.690,52910440,50875100,37029880,-54881910,-22491460,-33691410,-50341800
17.700,43995650,114128000,-26050400,-63658600,41308590,-33007810,-6645508
17.710,43961120,114818500,-26568300,-63537750,42333980,-30996090,-6308594
17.720,-4358133,7130206,-7129321,-15097660,27807620,-27246090,-5
17.730,43995640,5143618,3707303,-63313330,20129400,-17275390,-7885742
17.740,44012910,11687290,-2831191,-63244280,17785640,-37426760,-13867190
17.750,-4273542,11802090,-2940811,-14992360,9355469,12802730,-17890620
17.760,43840270,7987236,-7100935,-63244280,18867190,3203125,-17441410
17.770,43702160,12181890,-3320607,-63313330,17265620,33886720,-12412110
17.780,43676270,12348480,-3499283,-63356490,7739258,41367190,-10175780
17.790,-4446176,12518520,-3691767,-15164990,-75097660,44570310,-60791020
17.800,-4354678,44772500,43115220,-15101110,-21074220,48710940,-59033200
17.810,-4265778,88873440,-80134740,-15051910,-33984380,521875,-12978520
17.820,44461750,12969090,-4294260,-63848500,-36191410,54492190,-22695310
17.830,44573970,13110650,-4515231,-64254180,-28535160,49140620,-30585940
17.840,44651650,5149660,3352540,-64763450,-18769530,38242190,-35976560
17.850,-4801801,9174296,-9090326,-15810640,-10947270,325,-31542970
17.860,-5015003,13393770,-5112540,-16098070,-4699707,33007810,-14736330
17.870,-5219573,50184550,31436560,-16376870,6604004,31972660,5239868
17.880,-5422418,4965803,3070287,-16657410,54296880,24726560,11171880
17.890,-5589010,13509440,-5601094,-16905130,66015620,16826170,17099610
17.900,45549350,13505980,-5725392,-68388760,58251950,7402344,19238280
17.910,-5823791,10059100,-9293119,-17291830,76171870,-37670900,18398440
17.920,-5884213,13518930,-5971392,-17421310,11113280,-13027340,18408200
17.930,46283040,47034000,27422830,-69692140,13710940,-19755860,20195310
17.940,-5878171,13544820,-6187185,-17530930,13193360,-19853520,22246090
17.950,-5820339,13557770,-6277817,-17519710,12089840,-1625,22988280
17.960,47111680,46032720,26093550,-70330880,9692383,-13076170,20058590
17.970,47396520,45747880,25739650,-70443090,6723633,-10292970,15888670
17.980,-5525135,13565540,-6477209,-17348800,3815918,-7285156,13007810
17.990,-5410332,45152290,25109540,-17273700,26635740,-6538086,85302740
18.000,-5286036,44824290,24798800,-17190840,1583252,-8486328,41503900
18.010,48587700,13426570,-6529864,-70891940,14758300,-13085940,1385498
18.020,-5070245,44073330,24220480,-17061370,33007810,-1703125,120910600
18.030,-4970117,34787380,32815900,-17006120,7470703,-21523440,-82092290
18.040,-4851863,43201530,23693950,-16934480,10605470,-25644530,17565920
18.050,49856550,34073540,32148670,-71418470,12832030,-25878910,49780270
18.060,-4591187,33730860,31835340,-16763580,16474610,-25546880,8828125
18.070,50503930,4178597,2317603,-71634260,19277340,-26601560,99072260
18.080,-9848998,41319820,23072470,-11074180,2046875,-26542970,10976560
18.090,-4222614,40879610,23012040,-16510670,22363280,-26289060,10673830
18.100,-4119901,118979000,-55553460,-16440750,23984380,-26425780,93896480
18.110,-9593760,39999180,22994780,-10828780,25703120,-26445310,86376950
18.120,-3971434,11400720,-5137573,-16347530,28535160,-26503910,6503906
18.130,-9522290,39196430,23158780,-10762140,31269530,-26660160,5576172
18.140,-3925685,38816640,23314150,-16341490,30839840,-25761720,42382810
18.150,51988580,10583300,-4384030,-72307540,31660160,-22089840,32910160
18.160,51936790,10329530,-4137164,-72428380,346875,-22285160,20324710
18.170,-4120760,37927580,23978790,-16560730,34492190,-240625,113708500
18.180,51729620,9823712,-3624442,-72635540,32578120,-23046880,-29647830
18.190,-4332240,67673190,-61456660,-16763570,26289060,-25605470,-40252690
18.200,-4390071,93282500,-30840970,-16809320,27578120,-18115230,5102539
18.210,51436150,91124590,-28337790,-72635540,27988280,-15986330,78027340
