Timestamp,Rotation X,Rotation Y,Rotation Z,Rotation W,Acceleration X,Acceleration Y,Acceleration Z
0.000,25403020,2255194,-2908271,76502530,-26708980,13828130,12333980
0.010,-20642650,-5904070,-58850760,30784870,-19885250,14228520,13144530
0.020,-20812690,23901970,-30322210,30908300,-1274414,13789060,13779300
0.030,-20982740,-4091416,-59541290,31031730,-4675293,12832030,14306640
0.040,23857940,-28699460,-34363560,76183160,-14717100,11025390,14550780
0.050,23478150,-2347820,-60128250,76114100,8123779,90283200,15068360
0.060,-21516180,29439550,-29445730,31430520,22436520,71533200,15820310
0.070,2273580,-656008,-60594360,7599326,3395996,5961914,16425780
0.080,-21885610,172630,-60784250,31717090,40576170,546875,17490230
0.100,21630980,28453450,-34385140,75906940,20031740,5678711,19013670
0.110,21285700,2520444,-61181310,75906940,34118650,7158203,20585940
0.120,45676230,3245508,-61267630,51171160,-95336910,8652344,21855470
0.130,-22811790,3901516,-61319420,32465450,-17578120,10644530,23046880
0.150,20042750,30405930,-36040700,75941470,-6378174,14599610,25078120
0.160,-23309840,5532900,-61431620,32882370,3994751,15009770,25351560
0.170,4490971,5955856,-61457520,5055659,18481440,12929690,25039060
0.180,-23601590,-24187680,-30968720,33125780,23791500,88134770,24277340
0.190,1905010,-24023680,-30839240,7598462,2578125,40698240,23574220
0.200,-23819970,6922604,-61543840,33304450,25219730,-10046390,22421880
0.210,18713470,7181550,-61561100,75976000,30126950,-5605469,21503910
0.220,18618520,7423238,-61578370,75967370,38330080,-8666992,203125
0.230,-23983970,7656290,-61587000,33433930,46411130,-103125,19716800
0.240,4692799,-26497080,-27191930,4750251,53466800,-98583980,19296880
0.250,18463150,8139664,-61569740,75932840,5576172,-8984375,18710940
0.260,-24024540,8372720,-61543840,33462420,609375,-82714850,18125
0.280,18376830,8812938,-61466160,75967370,46289060,-74609380,17783200
0.300,-24173870,-22569240,-29617860,33606560,14440920,-7114258,18408200
0.310,1820418,9253158,-61250360,7612275,670166,-6489258,19160160
0.320,18135150,9296312,-61155420,76209060,30914310,-65771480,19794920
0.330,18083360,9287676,-61060460,76312630,4046631,-62890620,20507810
0.340,1803154,9218628,-60939620,7641622,19210820,-6074219,20957030
0.350,18005670,32370500,-37546060,76528420,-5923462,-60498050,21230470
0.360,-24580420,-22432000,-29392580,34045910,-15466310,-5839844,21425780
0.370,-24608040,32022650,-37220640,34087340,-30615230,-5078125,21445310
0.380,1811786,8329564,-60499400,7684780,-44458010,-44555660,21210940
0.390,44649920,7967036,-60395830,50522920,-5961914,-25708010,21035160
0.400,18350940,31285500,-36559460,77046320,-66845700,-390625,20839840
0.410,44889020,30992030,-36300510,50749930,-76416020,16149900,20332030
0.420,1869618,6629126,-60093720,7720170,-828125,35083010,19550780
0.430,45159190,6111224,-59990140,50997660,-86572260,4633789,18671880
0.450,1930903,5032264,-59791610,7740023,-10048830,38867190,16054690
0.460,19516220,31807720,-32360150,77452020,-10097660,22595220,15097660
0.470,-24019360,-24688320,-31037770,33743800,-9980469,49926760,1375
0.480,45864400,3314558,-59524030,51621730,-9121094,-12927250,12607420
0.490,20172220,-25246790,-31463320,77555590,-7675781,-26586910,11425780
0.500,20370750,-25529050,-31681700,77581490,-6699219,-39331060,10224610
0.510,-23602450,-28559880,-29168760,33418390,-55810550,-46240230,89160160
0.520,-23507500,27219980,-33046360,33340710,-47338870,-5083008,74902340
0.530,46400420,422950,-59221920,52069710,-42504880,-5229492,6044922
0.540,-23348680,26551890,-32488760,33206050,-35595700,-47631840,47607420
0.550,49039040,-776854,-59196020,49603730,-32910160,-38256840,4038086
0.570,21138970,-2062978,-59187390,77521070,-6939697,-6976318,3046875
0.580,-23259770,-2753508,-59187390,33122320,9313965,19665530,29101560
0.590,21087180,-3487200,-59161500,77503800,28637700,38745120,27001950
0.600,-23299480,-4264048,-59144230,33151670,41015620,5708008,22192380
0.610,-23329690,-5084056,-59135600,33173250,5336914,81591800,16064450
0.620,20871390,-5947226,-59135600,77426110,58935550,9785156,11035160
0.630,20759180,-6853554,-59161500,77365700,6699219,10878910,-21347050
0.640,2063832,-30929020,-36070040,7727937,6845703,11347660,-19067380
0.650,20491590,21854530,-28658020,77167170,7207031,11640630,-32714840
0.660,-23470390,-9727894,-59377290,33205190,7373047,11064450,-6689453
0.670,-27852860,-10677380,-59498130,28822720,81103520,11455080,-88427740
0.680,45468200,20442390,-27566980,51137490,8745117,11191410,-10595700
0.690,19740640,20002180,-27230340,76468000,96191410,10087890,-11474610
0.700,45059060,19581820,-26908380,50735260,98828130,9013672,-12402340
0.710,19300420,19163180,-26584690,76096840,10351560,75439460,-13388670
0.720,-23672370,18757490,-26265320,33175840,10957030,5332031,-14443360
0.730,-23705170,21769510,-22528240,33177570,11484380,3647461,-14921880
0.740,18791150,-16521030,-60093720,75673890,128125,25976560,-15097660
0.750,-23728480,17550780,-25279580,33154260,15976560,25341800,-14824220
0.760,18644420,17139910,-24930870,75475370,20507810,2310791,-13183590
0.770,18670310,16715230,-24561430,75397670,240625,2006836,-10771480
0.780,-23572240,-19283160,-59713930,32982490,28046880,22509770,-765625
0.790,18981050,15783880,-23731930,75259570,32070310,17004400,-45996100
0.800,-23233880,15268570,-23263220,32682110,36269530,6866455,-3095703
0.810,19688850,-21458350,-58937080,75121460,38808590,1394043,-41430660
0.820,-22634840,14119690,-22202390,32159030,42382810,20935060,-48510740
0.830,47635700,-23107000,-58151590,48175880,434375,35205080,-69970700
0.840,-26051350,-24004690,-57668220,27016190,47070310,67333980,-9482422
0.850,22684040,11990260,-20188620,74629460,50429690,11777340,-12998050
0.860,23806160,11202180,-19422990,74491340,5296875,19599610,-14794920
0.870,2511815,-26654610,-55605250,7437050,55703120,27128910,-16943360
0.880,-23318900,-27440090,-54647130,24327940,578125,31054690,-20273440
0.890,-17826130,8615274,-16779110,28077110,63554690,38710940,-19384770
0.900,49968760,-28674430,-52238900,54370920,6390625,38476560,-20175780
0.910,32204780,-38842540,-41017720,74171980,63164060,38828120,-21894530
0.920,-14421800,6064613,-13909080,25283900,63085940,40507810,-21816410
0.930,-13048500,5263595,-12931970,24154010,59960940,40742190,-22832030
0.940,39602120,-29062850,-45566610,73990710,55703120,41289060,-25410160
0.970,4870852,-27517780,-39101490,7284269,478125,50351560,-3734375
0.980,-3893750,-26654610,-36719140,16304370,4796875,53398440,-42304690
0.990,-1717705,40339260,-46322740,14371740,45703120,5859375,-43242190
1.000,-52944970,9279050,-65298620,65826880,4375,6328125,-45234380
1.010,61638780,6188906,-58030750,69286450,40390620,71601560,-3828125
1.030,38663000,-328002,-42277940,-25211400,39013670,89375,-15449220
1.040,91271320,-17479140,-20241280,44660280,221875,75351560,-38256840
1.050,49665790,-10064530,-22666780,-35960420,-32226560,71796870,11651610
1.070,77193060,-19343580,-3288671,61224470,-18466800,5109375,20996090
1.080,16653090,-23219200,5610588,-2785442,-20761720,35585940,29492190
1.090,18328500,-8243250,-4341734,-4459123,-11748050,25078120,384375
1.100,82216700,-40223610,-35735140,56269890,-14335940,25585940,36894530
1.110,83476930,-37461470,10703270,54595340,-27792970,23046880,26679690
1.120,84547260,8200089,13206460,52938060,-39121100,12646480,21386720
1.130,85453580,8890618,60162770,51237620,-46523440,-20385740,17011720
1.140,25145800,-19939170,31505610,-11573350,-46796880,-8046875,18398440
1.150,86869180,-1715116,3325780,47715900,-48867190,-18720700,11767580
1.160,27431460,-13758890,34233220,-14104160,-57695310,-2984375,6660156
1.170,28532860,-1022853,3482880,-15350570,-62578120,-3453125,3390503
1.180,29610960,-6387438,34871960,-16585760,-5859375,-33515620,-5292969
1.190,30608780,-1795387,33939740,-17745860,-578125,-38007810,-47192380
1.200,66001240,3107402,32455090,60970700,-6015625,-47617190,-2993164
1.210,88690460,7811664,30944550,36658720,-53398440,-52539060,19140620
1.220,32904810,12429610,29347690,-20525260,-446875,-50039060,-47302250
1.230,33367470,-3034896,7495745,-21132930,-47265620,-53203120,-50927740
1.240,88146660,21130340,26136710,32834890,-44765620,-54648440,-11845700
1.250,33968230,2485923,2485921,-21999550,-38515620,-58984380,-18632810
1.270,8720579,54494350,-49085740,2992604,-17099610,-57148440,-34394530
1.280,8693824,28855690,27181140,2889886,-8779297,-58398440,-38945310
1.290,8669654,40741500,17090720,2779401,-1574707,-54140620,-4109375
1.300,59555100,18684120,-12735170,53571620,44458010,-48828120,-4328125
1.310,35988900,50624780,10401170,-24812610,4611206,-50,-45703120
1.320,36404950,33689430,28752110,-25363310,5786133,-44335940,-490625
1.330,8589378,32620820,-26247200,2321059,4584961,-41914060,-52578120
1.340,57100250,37771340,-31282050,50743890,47558590,-37070310,-5671875
1.350,56530560,72670060,-6741342,50087880,5522461,-34980470,-6171875
1.360,85375890,48656740,-41975830,20085910,7836914,-30039060,-68632820
1.370,38292700,38937480,28614000,-27860450,10654300,-275,-78632820
1.380,38726000,9268693,-2453124,-28411150,1328125,-25566410,-89609380
1.390,39217150,40957300,27647250,-29024870,11298830,-18583980,-96015620
1.400,85065150,41993090,26887660,15562910,77197260,-14833980,-100859400
1.410,40421270,11985080,-5088374,-30496570,37768560,-5385742,-10234380
1.420,8510831,4408196,2483332,1270583,-5449219,25805660,-1109375
1.430,8513422,45135020,23573100,1116078,-20800780,6113281,-12078130
1.460,85220520,48087060,18877470,5705537,-74179690,15732420,-18171880
1.490,47729700,33119740,29235480,-39398410,-15796880,33046880,-224375
1.500,44658560,24432820,-18449340,35685070,-19015620,346875,-21828120
1.520,50479760,29216490,23954620,-43001270,-255625,4562378,-17734380
1.530,8332155,53697650,-4652474,-1076368,-28125,-24785160,-132890600
1.540,82199440,54569450,-10064530,-11333390,-290,-53320310,-78476560
1.550,49254060,35798180,-35758410,-42293480,-29546880,-90703130,-7060547
1.560,38700980,57055360,-22010770,29903580,-29375,-140390600,9578125
1.570,37971600,19573180,10879360,29683460,-2584375,-1990625,19390620
1.580,41512310,60508040,-34250480,-34860740,-15609380,-24625,3346875
1.590,36533560,14846480,5437955,28514740,145125,-4434375,710625
1.600,74897040,13934110,4986516,-13111510,874375,-13171880,7075
1.610,75613460,15486950,6748240,-13499940,-14804690,-4221875,48875
1.620,37258620,10468410,9643391,28065890,-729375,22125,-983125
1.630,36890910,14991490,6622219,27794850,30,2484375,-137265600
1.640,76985900,16769620,8279499,-10901810,4090625,-18421880,4103125
1.650,39351800,18487320,9979941,31030870,-66210940,-203125,141796900
1.670,42562790,22236920,13670840,35329440,-54016110,-28613280,-16005860
1.680,38154590,6189775,-2345227,-30087430,16552730,-48632810,-8334961
1.690,36897820,62484700,-22623620,-28651110,-24707030,-2453125,-14589840
1.720,3685467,20208560,19376300,-2838353,24804690,-14953610,31464840
1.730,37525340,42911510,-38985820,-29007600,13466800,9238281,36640620
1.740,38247810,42074230,-38148540,-29683460,-16821290,11367190,34277340
1.750,35069800,58945710,-19360850,-34208010,-6816406,13439940,35039060
1.760,39558960,58229280,-17971150,-30875500,-73535150,-7011719,2609375
1.780,40457520,56925900,-14734270,-31616960,-209375,-17509770,27001950
1.790,40762220,56295780,-13068360,-31830160,-28886720,-16279300,-36010740
1.800,48787080,35789510,-31364920,41500230,-28945310,-16416020,-60009770
1.820,41060880,33805090,-29206140,-31824980,-28242190,-17216800,-61328120
1.830,8307124,53887540,-7207448,1037530,-29824220,-17509770,-10830080
1.840,8347692,53266060,-5999012,1102267,-28007810,-16142580,-16611330
1.850,8388261,52610060,-4911424,1165278,-24980470,-18154300,-16826170
1.860,8426240,51928150,-3936042,1225700,-21757810,-16386720,-16806640
1.870,8463356,29547950,-24728020,1286983,-21191410,-1609375,-17060550
1.880,40643960,26814300,21540340,-30791770,-24667970,-14082030,-15244140
1.890,5335238,49839290,-1381070,4625716,-25839840,-16582030,-12246090
1.900,40195980,26749560,21777710,-30117640,-26875,-16044920,-8300781
1.920,5514604,47603680,940854,4829596,-20175780,-20722660,-16064450
1.930,38958200,26494060,21981420,-28472440,-1921875,-19287110,-22148440
1.940,33668540,26331790,21971060,-32605460,-18193360,-22714840,-24941410
1.960,8647212,44142380,3521722,2290849,-22714840,-19892580,-2671875
1.970,86463480,25584280,21665500,24574370,-23261720,-23867190,-27050780
1.990,34720910,41216250,4790577,-23266680,-2328125,-32207030,-17197270
2.000,86040530,40154550,5058157,30400760,-21777340,-36699220,-11591800
2.010,32427470,39041070,5239425,-20588270,-22128910,-3984375,-12558590
2.020,8525505,37858520,5334375,3512230,-26757810,-34511720,-17216800
2.030,29606640,22564930,19436800,-17366930,-31289060,-32636720,-23984380
2.040,28014100,35363970,5273952,-15575860,-35429690,-31816410,-28964840
2.050,26341280,34043320,5075424,-13709690,-34863280,-30175780,-34179690
2.060,24585600,32679520,4816473,-11771010,-33867190,-32109380,-31953120
2.070,81224060,31298450,4453942,48665380,-26972660,-453125,-35507810
2.080,80058780,29874220,3892881,51453420,-24726560,-5046875,-29023440
2.090,7879856,28432740,3245508,5419830,-20234380,-57851560,-28144530
2.100,16996630,13742490,-10805990,-3564018,-19013670,-57695310,-28964840
2.110,76001900,25506600,1458749,59463610,-21679690,-55507810,-29492190
2.130,50106010,12010110,9655389,-36383370,-29121090,-51015620,-26855470
2.140,93006290,21121710,-2408242,44841550,-32539060,-51367190,-23261720
2.150,12180160,19602530,-4048256,1649514,-3390625,-53632810,-19589840
2.160,-6018867,18057460,-5835013,19876160,-3359375,-6140625,-15429690
2.170,66256730,55717460,31462450,72402480,-32714840,-66640620,-13339840
2.180,2137204,26615770,24138480,11718360,-34199220,-68125,-11669920
2.190,4566156,7744332,5203173,133696000,-3546875,-621875,-3786621
2.200,-1182541,319372,-25869130,14958690,-36601560,-47578120,33398440
2.210,-2745738,-18989680,-46093140,16451110,-35585940,-28652340,10751950
2.220,57012210,-3878215,-6686961,79143820,-36757810,-11484380,19287110
2.230,-11866660,-58954330,-88129390,13216990,-40390620,45928960,25898440
2.240,5286037,-7954088,-10983810,8082699,-46640620,32861330,29589840
2.250,50650660,4082779,-27371040,81448480,-5296875,96533200,290625
2.260,48285580,2485919,-30176340,81949110,-590625,21621090,34492190
2.270,-11894450,871797,-33016150,24703850,-64492190,41796880,415625
2.280,-13466280,-716428,-35881870,26032270,-63789060,61132810,43945310
2.290,40284030,16194740,-20299970,82665550,-65351560,82421870,42382810
2.300,37375150,-3849730,-41656460,82570600,-68554690,10578130,37480470
2.310,3438857,-5463852,-44444490,8231165,-7484375,123984400,30371090
2.320,31358870,-25125940,-29115500,81940480,-76640620,133984400,21386720
2.340,-22369850,-10806860,-51496570,33010970,-59726560,125078100,68652340
2.350,22994780,-30914350,-34979860,80240050,-440625,114375,5336914
2.360,20862760,16769610,-23678410,79523620,-28320310,1015625,6303711
2.370,-29298060,16509800,-23696530,30277760,-10673830,92265620,11591800
2.380,-25223480,-1717705,-5712441,34818450,11464840,834375,14980470
2.390,1714249,16032470,-23673230,7721897,2875,73867180,18349610
2.400,1671955,15845170,-23670640,7643349,39570310,63867190,1828125
2.410,16676390,-20241280,-59636240,75630740,4265625,58046880,14394530
2.420,-28448360,-2102677,-6028360,29366600,44882810,59570310,10292970
2.430,-23599860,-39380290,-43276620,32764970,4796875,59492190,5732422
2.440,-22731520,-40044930,-43889470,31906980,50976560,57109380,-16015630
2.450,-21758720,14575450,-23093180,30963540,515625,5125,-10585940
2.460,20854120,-24911020,-61526580,71573840,5328125,46992190,-18232420
2.470,2204529,13258250,-22028030,7077974,56328120,40,-24414060
2.480,23176050,-27595460,-61345310,70011510,603125,30449220,-29472660
2.490,-17873610,11519830,-20538210,27218260,64960940,20136720,-32714840
2.500,25031860,-30538870,-60853310,68570020,69726560,8955078,-34433590
2.510,25731020,9668336,-18919770,67922640,75390620,-17285160,-34492190
2.520,26248920,8795674,-18152410,67335700,82421870,-95703130,-32734380
2.530,-15438610,7998972,-17447200,24784990,8828125,-16484380,-3171875
2.540,2682722,-35562500,-59713920,6642935,9203125,-21171880,-30703120
2.550,-14950920,6752559,-16345800,24254140,94375,-228125,-29765620
2.560,-14893960,6331332,-15972910,24173000,95234380,-22832030,-2890625
2.570,26723660,-47273100,-49453460,65825140,9421875,-22871090,-29277340
2.580,2649924,5954993,-15641460,6585968,9078125,-21601560,-29960940
2.590,4591153,-3759958,-5923055,4630928,84765620,-19541020,-29921880
2.600,-15556000,6115540,-15774380,24771180,77578130,-16435550,-29824220
2.610,25601550,6359814,-15978960,66584740,69414060,-12978520,-28828120
2.620,25325330,-46665420,-48956270,66999060,61523440,-8520508,-27109380
2.630,-20727930,7010645,-16502040,21653590,54140620,-41381840,-25292970
2.640,2494554,-3498418,-5911834,6798307,47382810,-7116699,-23671880
2.650,-17151140,7690821,-17013030,26490610,42382810,27514650,-2234375
2.660,-17380740,-33534050,-58721280,26778910,37441410,49487300,-209375
2.670,-17553370,8221668,-17345350,27020590,33847660,8208008,-19697270
2.680,2529080,8421062,-17439430,7017552,30175780,10107420,-17226560
2.690,-17728600,8562621,-17470510,27363270,26855470,9472656,-16328130
2.700,-17731190,8663610,-17455840,27464260,23945310,890625,-16025390
2.710,-17660410,8730936,-17405770,27500510,21757810,10419920,-16074220
2.720,27250200,8766326,-17318590,72273010,18730470,12294920,-15654300
2.730,-17363480,-29140540,-55139140,27434910,15654300,11855470,-16113280
2.740,-17138190,-28570840,-54431340,27332190,11787110,10439450,-17324220
2.750,-16868020,8776684,-16945700,27188050,9707031,11064450,-18007810
2.760,30452540,8765461,-16801560,74025240,78515620,11591800,-18056640
2.770,-16238770,8763738,-16665170,26816020,67822260,11015630,-16669920
2.780,32256570,8764598,-16526200,74776190,56591800,10615230,-15654300
2.790,33180160,8801715,-16420040,75130100,3671875,11142580,-14052730
2.800,52698100,-24747020,-49951500,56837850,-9712219,10048830,-14521480
2.810,34949650,8985569,-16305230,75794740,-24560550,10605470,-15712890
2.820,-14578040,-23106990,-48553170,25766410,-47607420,8046875,-15712890
2.830,-14290600,-22200670,-47888530,25587730,-7895508,8364258,-15634770
2.840,55029510,-21259820,-47258420,58977640,-10703130,90478510,-14960940
2.850,-13836570,9842698,-16535700,25333970,-13535160,9350586,-12919920
2.860,38471370,-31321760,-34002760,77400220,-16289060,8930664,-10996090
2.870,-13551730,-18204200,-45514820,25221750,-18789060,8886719,-9243164
2.880,56785190,-17133880,-44996920,60657360,-21542970,8623047,-7290039
2.890,-13463690,11197870,-17252130,25275270,-24394530,8125,-59033200
2.900,57417900,-1495009,-4402157,61302150,-27460940,8540039,-37036130
2.910,4012002,14826380,-14883840,7913520,-30839840,8745117,-18396000
2.920,57889180,-12809410,-43175640,61814870,-3375,8022461,-3125
2.930,58073040,-11790870,-42778580,62028080,-3640625,71875,122924800
2.940,-13917710,-10824120,-42416050,25960620,-38320310,66503900,37719730
2.950,-14093800,-9917792,-42079410,26164330,-39492190,48461910,5419922
2.960,58432120,16094270,-16602510,62497640,-40429690,1352539,6479492
2.970,58498580,-8286410,-41466570,62603800,-41367190,-25830080,7553711
2.980,-14661760,-7569978,-41198980,26787540,-42070310,-6298828,86621100
2.990,58598710,-6905340,-40931400,62779900,-42695310,-10078130,10400390
3.000,-14985450,-6292490,-40681080,27137120,-428125,-13710940,12207030
3.010,-15108880,-5731432,-40430760,27272640,-42539060,-17578120,13134770
3.020,39619380,-5222166,-40180450,82173540,-41835940,-19570310,14931640
3.040,58935340,-4359000,-39697070,63202840,-39238280,-225,18310550
3.050,39861070,-4005098,-39464020,82467020,-37871100,-2390625,19082030
3.060,40059600,1561553,-1991243,82492910,-3703125,-2546875,18994140
3.070,40301290,-19480830,-23038800,82475650,-36679690,-25996090,18916020
3.080,4061201,-3305930,-38868430,8242386,-3671875,-25996090,18642580
3.090,-14516750,-3202352,-38713060,26846230,-37597660,-26894530,17666020
3.100,4136296,-3159194,-38583580,8219080,-38144530,-27265620,17080080
3.110,-13921170,15552550,-19716470,26302440,-38320310,-27910160,16503910
3.120,-13579350,15466240,-19630160,25988250,-3828125,-28515620,15791020
3.130,42744050,-3435410,-38290110,81603860,-37539060,-2828125,16201170
3.140,-12828400,-3659830,-38221060,25289080,-3625,-28300780,16494140
3.150,4375394,-3953306,-38186530,8109458,-34414060,-28476560,16210940
3.160,44254600,-4298576,-38186530,80801100,-33125,-27949220,15634770
3.180,-11182330,-5187636,-38264210,23724150,-31289060,-25351560,15019530
3.190,45713350,-5748697,-38359160,79808460,-30761720,-23300780,14384770
3.200,-10362330,13819310,-18307780,22921410,-303125,-20664060,13935550
3.210,4655061,-7095237,-38687170,7905751,-29882810,-18515620,13193360
3.220,61199430,-7889352,-38911590,64374160,-29648440,-16992190,11796880
3.230,47215260,-8769785,-39170540,78254760,-29824220,-15371090,10595700
3.240,-8918247,12412350,-17332400,21447980,-2984375,-14199220,9584961
3.250,-8609232,-23819970,-26727120,21118250,-30332030,-13222660,8613281
3.260,-8321799,11574210,-16772200,20801470,-30507810,-11904300,8066406
3.270,47966210,-12947510,-40534340,76502530,-30507810,-9482422,81591800
3.280,4806115,-14130050,-40922770,7602779,-30234380,-6352539,90625
3.290,-7516465,-15373010,-41337090,19880470,-29160160,-24377440,9765625
3.300,48147480,12249640,-12834010,74991980,-28066410,15588380,10039060
3.310,-7008059,-18022940,-42191620,19266760,-26328120,5605469,10048830
3.320,59697520,-1944719,-4264913,62268030,-24433590,90478510,8286133
3.330,-6504831,7898844,-14301820,18630610,-22265620,12421880,6274414
3.340,-6240703,-22442360,-43589960,18290520,-20175780,15761720,40405270
3.350,47862630,-24030590,-44073340,71789630,-16484380,18330080,26611330
3.360,-5707266,-25653340,-44556700,17580990,-12109380,20664060,118896500
3.370,-5427599,-27276090,-45040080,17204650,-75683590,234375,-4437256
3.380,-5150522,4591187,-12033420,16825720,-3737793,27089840,-10797120
3.390,47180730,-3748221,-3902900,68500970,72509770,30917970,-17932130
3.400,46947670,-32101200,-46429780,67629170,5576172,32988280,-27001950
3.410,4669734,-33646270,-46852730,6675736,10234380,34433590,-31982420
3.420,46421140,1939534,-10179340,65894200,15068360,34882810,-42163090
3.430,-3901517,1331867,-9751202,15019110,20097660,34316410,-50878900
3.440,4581691,-37893050,-47974840,6425417,24433590,32929690,-5625
3.450,4548026,1950760,-89372360,6350323,28417970,30957030,-60791020
3.460,53973770,-316785,-8568666,53973950,31855470,27871090,-6464844
3.470,-81658230,32781370,-41796290,92356330,34628900,24414060,-7363281
3.480,-3284352,-1206709,-7922151,13892680,36523440,21621090,-8364258
3.490,44133750,-43132480,-49174660,61138150,38457030,19140620,-90527340
3.500,-79190430,-43874810,-49312750,89645120,39960940,16884770,-94189460
3.510,-78790780,-46729300,-47217840,89181590,4203125,14658200,-9316406
3.520,50840560,-25454810,-69131090,52515100,43710940,12226560,-93066410
3.530,43089320,-2805297,-6706813,59800240,45507810,97802740,-921875
3.540,42908050,-30521610,-65048300,59584440,46640620,76660160,-9428711
3.550,42752680,10307940,-19902920,59394550,47304690,5722656,-10292970
3.560,-3218754,-35096390,-61164040,13405850,48125,38452150,-11191410
3.570,-8261480,-3729747,-5922191,8363126,48828120,18908690,-11894530
3.580,-3239470,-39472650,-57253900,13385140,49296880,2128601,-12695310
3.590,42338360,2061242,-11749440,58980230,50,-16455080,-13115230
3.600,-3278311,69916,-9770192,13398090,50039060,-36328120,-13466800
3.610,-3308525,-19188210,-77883600,13419660,50351560,-5395508,-13789060
3.620,-79019520,6364994,-16077350,89125490,50195310,-6948242,-13681640
3.630,-34069220,-4856790,-4855575,135111600,50,-82910160,-14101560
3.640,-3456987,-70978260,-26093550,13564670,49414060,-9199219,-14736330
3.650,41993090,-86463490,-10504750,59152860,48789060,-9790039,-15664060
3.660,-3593368,-53663120,-43132480,13721770,47734380,-9399414,-16679690
3.670,-3671051,-11303180,1644334,13816720,46679690,-8955078,-17792970
3.680,5084834,-80773490,71143980,5085005,4515625,-7890625,-18681640
3.690,4207078,-13428300,3835053,5992108,4359375,-6269531,-19599610
3.700,-3902382,-57253900,-38264220,14137820,4203125,-43676760,-20234380
3.710,-3976612,-15023430,5519956,14253480,39980470,-17993160,-20917970
3.720,42424680,-15600030,6151793,60810140,3828125,77819820,-21171880
3.730,42614580,-16086850,6700767,61155420,36035160,2614746,-21699220
3.740,42839000,-58419180,-34768390,61517940,33574220,43017580,-21933590
3.750,-4150972,-16793790,7547537,14648810,31328120,5253906,-22304690
3.760,-4169100,-58177490,-33490900,14734270,28945310,56103520,-22597660
3.770,43693540,-57918540,-32886680,62683220,26386720,57421880,-22402340
3.780,44047430,-17011310,8020550,63088900,23886720,5756836,-22421880
3.790,-4150974,-56813680,-32127090,14942290,21367190,58496100,-2203125
3.800,-4118173,-16481320,7687370,14992360,19130860,5551758,-21992190
3.810,53837480,-15997080,7308436,55750260,16816410,5253906,-21816410
3.820,45652920,-4300131,-4278033,64797980,14453130,48706060,-21347660
3.830,-4006823,-14504670,6038720,15138230,1234375,5214844,-21347660
3.840,-3972297,-13411030,5060751,15190020,10205080,5527344,-21289060
3.850,-3936907,-12143900,3911012,15242670,77978510,5839844,-21152340
3.860,-3911877,-47128940,-34008800,15302230,5361328,65722660,-21035160
3.880,-3889434,-42398780,-36356620,15445520,84350580,7446289,-20761720
3.890,48449590,-13373060,5616629,67888120,-11883550,7314453,-20078120
3.900,57560320,9127130,-16767890,59519710,-31103520,6953125,-19433590
3.910,-3994742,345268,-75613470,15771800,-4650879,6201172,-18730470
3.920,-4073290,-30435290,-43728060,15917670,-63183590,47314450,-17910160
3.930,-4172552,5926507,-13235810,16077360,-75683590,37036130,-17255860
3.940,-4299438,9172880,-16376880,16261210,-87402340,24438480,-16533200
3.950,-4446177,12674750,-19780350,16459740,-98779300,12060550,-16064450
3.960,4965800,-15191750,-54897450,7094373,-11123050,22323610,-15029300
3.970,49658020,-10850020,-58324230,71375310,-12382810,-57128900,-14560550
3.980,49597600,-31376140,-36934940,71798260,-13632810,-12420650,-13935550
3.990,4949400,-1622756,-65842410,7222986,-14707030,-1463623,-13496090
4.000,-5561391,3167826,-69856140,17761400,-16269530,-16894530,-13632810
4.010,-5860909,-28847060,-37081670,18083360,-17744140,-16540530,-13710940
4.020,-6196683,13310040,-78530980,18438120,-18984380,-1595459,-13505860
4.030,-6561801,47613180,-54067950,18815330,-20214840,-97229010,-13212890
4.040,4822516,2397879,-8788771,7439640,-21953120,11863710,-13095700
4.050,-7367997,2945127,-9277323,19631880,-234375,11413570,-12558590
4.060,-7809079,-24747010,-38022530,20071230,-24375,13391110,-12246090
4.070,-8270872,-30416290,-31852600,20524390,-2515625,13024900,-11943360
4.080,-8751658,-23158780,-38644010,20993100,-25644530,72631840,-11308590
4.090,-9253158,-22381930,-39006540,21475600,-25195310,-26306150,-10019530
4.100,4512639,5849685,-11948830,7687370,-24394530,-19018560,-88916020
4.110,44479020,-20810970,-39800660,77262120,-23964840,-41796880,-7915039
4.120,43814380,-20008220,-40223600,77633280,-23613280,-6738281,-73583980
4.130,-11380000,-28853100,-30998930,23491960,-23496090,-8129883,-5961914
4.140,-11923800,-18368200,-41086770,24001230,-23144530,-82470700,-3696289
4.150,-12477090,-17530930,-41509720,24518270,-22382810,-69091800,-5606079
4.160,40991820,-16676400,-41898150,79057500,-22304690,-5786133,19873050
4.170,-13566400,-15847750,-42260680,25535080,-24375,-640625,16833500
4.180,57675990,-15036380,-42571420,61682810,-27910160,-921875,53741460
4.190,-14521930,-14276790,-42847630,26426730,-31953120,-12392580,-42633060
4.200,38523160,-13568990,-43089320,80248680,-33828120,-14707030,-36987300
4.210,38074320,14893350,-15455620,80455840,-33671880,-15400390,16662600
4.220,-15524930,-12395080,-43469110,27357230,-31074220,-16220700,44921880
4.230,-15713960,-1194625,-4364174,27530720,-2796875,-16757810,69140620
4.240,3730608,-11583710,-43814380,8074068,-25898440,-16542970,88378900
4.250,-15846030,13592300,-19121750,27640350,-24804690,-16123050,9458008
4.260,-21119380,-27472890,-27804350,22297950,-24003910,-15185550,89941410
4.270,5672477,14003170,-19539520,6104580,-22714840,-13916020,78515620
4.280,-15581900,-1081550,-4472070,27352050,-21308590,-12226560,62841800
4.290,56670390,-10789590,-45022820,60927540,-20371090,-10791020,46655270
4.300,3765999,14480500,-20097990,7981710,-18916020,-9082031,36645510
4.310,-15006170,-10832750,-45773770,26736610,-17939450,-7680664,22888180
4.320,-14826630,-10875910,-46213980,26536360,-16494140,-65185550,10687260
4.330,-14667810,-10901800,-46688730,26349910,-14648440,-48095700,34606940
4.340,37875780,-10893170,-47215260,78617300,-1296875,-30419920,-34210200
4.350,3776357,-1084139,-4776769,7834971,-11630860,-14074710,-14538570
4.360,3756504,15863290,-21770810,7809940,-10507810,2822876,-21740720
4.370,37262940,16239630,-22188590,77900860,-9873047,2088623,-2878418
4.380,55244440,16671210,-22654690,59332400,-96972660,35717770,-36889650
4.390,36330720,-9883270,-50227720,77607380,-91552740,55371100,-39697260
4.400,-15261660,-9434422,-50883720,26584690,-81884770,72802740,-34814450
4.410,34949640,-28094380,-32361880,77486540,-7470703,79541020,-28979490
4.420,-16094620,-28055530,-32452510,27253650,-6982422,82470700,-1607666
4.430,-16615110,19669000,-25716350,27682640,-5131836,97021490,-37670900
4.450,52143080,-5688276,-53939340,56805920,15576170,38359380,7470703
4.460,30262650,-26881630,-31831030,78099390,33574220,35644530,11337890
4.470,-19109670,-3444038,-54284600,29883720,53046880,26132810,19033200
4.480,-19719920,-25752600,-30974760,30430100,70898440,32402340,26386720
4.490,-20329320,-1035804,-54569450,30977350,74296870,32890620,33925780
4.500,-20955120,-24468210,-29945860,31542730,68164060,3015625,29511720
4.510,-21607670,1441490,-54578080,32133130,55976560,23007810,23828120
4.520,-26968890,2710344,-54534920,28014880,41054690,13632810,18193360
4.530,23823420,3953302,-54500400,80067410,271875,71484380,14658200
4.540,5128697,5118582,-54474500,5186152,16074220,47387700,14326170
4.550,2189854,6171650,-54457230,8050764,93359380,10119630,15605470
4.560,20992240,709520,-5443135,80688900,5341797,-42016600,17304690
4.570,-25290810,-20156690,-26385300,35389860,41210940,-84814460,1875
4.580,19438530,29176780,-33765390,80947840,31298830,-11044920,19140620
4.590,18834310,-19520540,-25864810,81034160,14147950,-13964840,19130860
4.600,-26394800,29669650,-34170210,36340220,-5618286,-15957030,18945310
4.610,-26608860,9667474,-54431340,36523200,-2680664,-17285160,1765625
4.620,-26767690,9814210,-54457230,36657860,-51464840,-17753910,16738280
4.630,-26861770,9840108,-54483130,36736410,-7583008,-18984380,14833980
4.640,1750501,9736526,-54534920,8117227,-11025390,-21523440,12773440
4.650,17513670,9546628,-54603980,81146370,-13789060,-20800780,11357420
4.660,46181180,9244522,-54698920,52530640,-15537110,-203125,11367190
4.670,46244190,29528090,-34121880,52571210,-16054690,-19482420,10009770
4.680,17997040,-20087640,-26419830,80956480,-15683590,-17363280,8515625
4.690,18247360,7923874,-55035560,80861530,-13232420,-13671880,78271490
4.700,18523570,28903160,-33676480,80757940,-10771480,-10644530,6098633
4.710,-25954580,-21075100,-27296810,35900000,-92041020,-8305664,43237300
4.720,-25756920,6430594,-55423980,35717870,-9169922,-59033200,24719240
4.730,-25579100,30523930,-31019900,35550410,-9145508,-37890620,41534420
4.740,-25437550,5541534,-55708830,35415760,-79052740,-15222170,-9753418
4.750,-25342600,5170372,-55855570,35320810,-5864258,8416748,-24243160
4.760,-25294260,4859630,-55993670,35265570,-39379880,25976560,-38549800
4.770,46769000,-22709940,-28786640,52823260,-36450200,35302740,-44702150
4.780,19386740,4471202,-56261260,80015620,-28442380,47827150,-36816410
4.790,1917094,-22960250,-29036950,7998972,-1373291,62353520,-25585940
4.800,-25595500,-2300602,-2909478,35482220,-54718020,6855469,-115600600
4.810,18558100,-23006010,-29112050,79981100,43060300,81640620,6286621
4.820,-25981340,30373570,-30894060,35804180,19726560,8535156,2130127
4.830,1787617,4799210,-56692840,8004152,47070310,85546870,39526370
4.840,-26380130,5032262,-56684210,36147730,91552740,9658203,625
4.850,-26544130,5265322,-56641050,36294460,11660160,9980469,80859380
4.860,17185660,-22438900,-28643350,80248670,12070310,8496094,8413086
4.870,1712523,28518190,-33595340,8032638,12451170,75341800,98876950
4.880,45614080,580909,-5628717,51941100,13251950,671875,10566410
4.890,1723743,5895432,-56114520,8050764,13007810,4855957,10908200
4.900,17392820,28426690,-33427880,80611200,12978520,3544922,11611330
4.910,48833260,30565880,-31064280,49464240,11748050,26586910,12529300
4.930,46365040,5696904,-55329040,52640270,8540039,13513180,14082030
4.950,-26134120,5325742,-54906080,36117510,5864258,-7408142,140625
4.960,19162320,5118578,-54681660,81120480,5883789,-12741090,14267580
4.970,47292080,-21824330,-27756010,53456820,55810550,-86364740,13896480
4.980,-25588600,4617946,-54198280,35713550,53759770,-13464360,13671880
4.990,-25390940,28901170,-29397150,35565950,46240230,-19348140,13007810
5.000,48104320,-21920140,-27694730,54163760,3371582,-23352050,1265625
5.010,21285710,3772036,-53421440,81500270,19848630,-2524414,1171875
5.020,48660200,3461300,-53162490,54643680,12390140,-2709961,11679690
5.030,-24537260,25529900,-30506930,34917710,10028080,-21801760,11357420
5.040,2261496,2788032,-52644580,8169017,44281010,-21887210,11201170
5.050,4946034,2442762,-52402900,5532817,-26184080,-24377440,10917970
5.060,-23895070,2080228,-52161210,34420530,-10101320,-28320310,10849610
5.070,-23682730,1709070,-51928160,34253070,-19812010,-2553711,10673830
5.080,2428089,-25186960,-25187490,8185416,-30126950,-296875,10205080
5.090,24677950,949482,-51462040,81888700,-4091797,-36743160,10117190
5.100,50638580,-25074930,-25593000,56325130,-44677740,-38842770,10322270
5.110,25437540,172628,-51013200,81940490,-56396480,-41015620,10029300
5.120,25808710,22741000,-27840600,81966380,-69873050,-43896480,9848633
5.140,-22288710,-1018540,-50339930,33143900,-8120117,-39990230,97802740
5.150,2693082,-23349540,-28216080,8200090,-75634770,-35180660,10087890
5.160,-21888200,-1890340,-49899710,32819350,-7192383,-31103520,10537110
5.170,-21680180,-2330552,-49683920,32647580,-6533203,-33203120,10283200
5.180,-21472150,20717740,-25945080,32475810,-6508789,-30151370,96728510
5.190,-21264990,-3280040,-49252340,32303180,-8256836,-33422850,91064460
5.200,-21058700,-3780676,-49062440,32129680,-10605470,-32202150,9086914
5.210,2909736,19637920,-24953310,8190597,-12138670,-38964840,9794922
5.230,5319268,-5334374,-48527270,5839760,-10625,-72265620,8808594
5.240,-20205890,20971260,-21513840,31394260,-8642578,-81640620,7651367
5.250,-19959020,-6447862,-48225160,31175020,-6982422,-7939453,64160160
5.260,-19695760,-25516960,-29622180,30937650,-6254883,-7832031,53515620
5.270,31272550,17372100,-22937810,81388060,-58251950,-8588867,30737300
5.280,5396263,19502660,-20064930,5892241,-5283203,-8569336,19555660
5.300,3232561,19021380,-19078830,8088743,-3935547,-8803711,-25009160
5.310,-18363890,-10375270,-47733160,29697280,-29467770,-76904300,-22979740
5.320,-23230340,-27550580,-31213860,24364710,-20581060,-7788086,-16479490
5.330,-17897780,-11747710,-47672740,29248430,-14990230,-68359380,-24450680
5.340,54433060,14622060,-20629710,59107980,-15686040,-42651370,-3203125
5.350,33577220,-13076990,-47655480,79963830,-12512210,-16833500,-3876953
5.360,-17371250,-13724360,-47664100,28721890,-10253910,5050659,-5
5.370,-22358540,13565540,-19769980,23492920,-14074710,31030270,-57373050
5.380,3384478,-14993220,-47707260,7948909,-18688960,53564450,-6616211
5.390,33853420,-15614700,-47741790,79342350,-1829834,78125,-703125
5.400,33827530,12559950,-18962930,79195620,-22387700,10576170,-6875
5.410,33784370,-16900820,-47802210,79066140,-24194340,11240230,-69091800
5.420,-16963830,-17565460,-47828110,28231620,-21264650,10449220,-68847660
5.430,33698060,11499980,-18106670,78789930,-15856930,8569336,-7290039
5.440,33672160,-18912000,-47828110,78643180,-83862300,54785160,-78222660
5.450,-16798960,10734350,-17473960,28016690,-25680540,25048830,-75634770
5.460,3371531,10348510,-17152000,7832382,-61035160,2588272,-69189460
5.470,-21606380,-20931810,-47707260,22725900,-3161621,-21606440,-6796875
5.480,33957000,9574250,-16493410,77961280,5458832,-27026370,-6723633
5.490,34164160,-22183410,-47526000,77754120,4534912,-21118160,-69384770
5.500,-15953930,-22778990,-47396520,27152660,11071780,-7952881,-78027340
5.510,53916890,8416744,-15475730,58174040,18457030,82336420,-9013672
5.520,5401529,11220310,-11929840,5821375,23596190,19519040,-10859380
5.530,3553659,-24427640,-46835460,7688232,24902340,2553711,-12509770
5.540,-14713550,7247153,-14401090,25976160,2746582,33447270,-13945310
5.550,3643429,6864771,-14041150,7643348,31445310,33081060,-14755860
5.560,3691765,-25895020,-46058610,7622631,37158200,24743650,-15566410
5.570,37409680,6123307,-13332490,76010530,37109380,16455080,-16162110
5.590,3838505,-35216370,-37030740,7560483,5097656,10015870,-15429690
5.600,38859800,5165191,-12391630,75423570,6616211,1239624,-13925780
5.610,39334540,-27621360,-44625760,75259570,69628900,43670660,-13652340
5.620,39783380,-27854420,-44340910,75086940,5449219,-38360600,-13535160
5.630,55846070,-28070210,-44073340,59317730,37426760,-13220220,-13671880
5.640,-11310080,4182908,-11388630,22854080,18200680,-19995120,-13554690
5.650,4106083,39722970,-111676600,7467264,24780270,-15551760,-12958980
5.660,-10737800,3788441,-10971720,22338770,-91552740,-12890630,-12578130
5.670,-10456410,3604586,-10775780,22085000,-24475100,-58288580,-121875
5.680,42277940,3421592,-10578980,74284190,-35961910,87768550,-11435550
5.690,-9894491,-28890210,-42545520,21576600,-4650879,29516600,-10839840
5.700,43063420,-29011060,-42303840,74016610,-5546875,5073242,-9682617
5.710,43443220,29131900,-100343200,73878500,-6699219,6723633,-86572260
5.720,43814380,2727606,-9840111,73731770,-7915039,8046875,-7236328
5.730,-8811214,-29416750,-41621940,20588270,-90722660,8544922,-6411133
5.740,-8541910,23642160,-94611780,20339680,-10146480,81591800,-5961914
5.750,-8264829,-29744750,-41173090,20081590,-10976560,703125,-61328120
5.760,57797690,1962841,-9051176,60577090,-11835940,60839840,-5932617
5.770,-7683916,1758271,-8841423,19540380,-12324220,5620117,-5644531
5.780,-7389580,15442070,-86239060,19265030,-12490230,51171880,-45458980
5.790,58169720,13223720,-83968930,60774760,-12617190,4621582,-4020996
5.800,-6765507,4643837,-4643845,18680670,-12548830,4008789,-3564453
5.810,-12344060,-35337630,-35338510,12463380,-12529300,3413086,-33276370
5.820,-6117272,6715440,-77357060,18068690,-11748050,296875,-2319336
5.830,-5797899,4661104,-75268200,17766580,-10878910,21789550,-19628910
5.840,-5488021,34449880,-41508860,17472240,-10136720,18078610,-15930180
5.860,4914010,-776852,-69830240,7094374,-9033203,14318850,-13378910
5.870,59020800,-35287670,-35353960,61149370,-7944336,9527588,-14733890
5.880,4970980,31937190,-31937200,7052943,-72753900,7720947,-122802700
5.890,-4198449,27535040,-34613020,16224100,-62353520,9197998,-108947800
5.900,-4034445,-489417,-6600642,16060090,-5678711,11767580,-9838867
5.910,50184560,-32489630,-38549060,70037410,-5234375,15283200,-1116333
5.920,-3841961,-32575940,-38635370,15855520,-5024414,15136720,-18701170
5.940,-3828151,27751700,-34914260,15817550,-5410156,1817627,-27197270
5.950,49986020,28688230,-35876690,69718030,-53271480,20239260,-3161621
5.970,-4119037,31075750,-38322910,16044560,-4555664,18334960,-29174800
5.990,-4485021,1044432,-74223770,16351840,-3798828,14123540,-28759770
6.000,-4700813,2390972,-75984620,16533110,-30004880,8758545,-29638670
6.010,48147480,37040240,-44442770,69812980,-25732420,46203610,-31835940
6.020,-5179007,38571500,-46018910,16935350,-27392580,75149540,-3383789
6.030,4730156,-33085210,-41837730,6986476,-28295900,-385437,-35229490
6.080,-6508287,9563896,-86592960,18040200,-45092770,53863520,-42651370
6.090,-6652434,44207980,-51948870,18155000,-46020510,13232420,-4465332
6.120,55885770,41566690,-49411160,58397590,-3918457,35009770,-39697260
6.130,44539440,4289936,-83062610,69571300,-3251953,38085940,-39135740
6.150,44634390,-35821460,-43572700,69200140,-30395510,39038090,-4819336
6.160,44789760,-36287560,-43417320,68975710,-25756840,42333980,-52685550
6.170,-6183734,-7967034,-72014060,17553370,-18920900,38745120,-58203120
6.180,-11023950,-11972130,-68250650,12160730,-7269287,3779297,-6279297
6.190,-10721840,19800200,-27846650,11858630,3677368,35473630,-7089844
6.200,4588598,-2108719,-5958446,6781044,15161130,3149414,-796875
6.210,-4930413,10372680,-18457110,16303510,2602539,22790530,-8911133
6.220,46628310,9003438,-9813612,67137170,33935550,17102050,-9423828
6.230,-4201903,1717700,-82872700,15581900,4177246,13415530,-98095700
6.240,-3828149,-50995940,-30279910,15213320,5126953,8282471,-94628900
6.250,47793580,-46990840,-34388590,66092730,5932617,7165527,-9404297
6.260,-3091867,-15726910,7578610,14482220,66552740,4260254,-8979492
6.270,-83761850,-20996550,12839620,84901060,7368164,31219480,-9038086
6.280,48863910,-6283862,-1881707,65074190,80908200,92041020,-9267578
6.290,-7216167,-67879490,-13845210,8355372,8833008,14990230,-9111328
6.300,56193060,-35941430,27760320,57693250,95703130,28759770,-82128900
6.310,-1559744,-77382960,-4531628,12941470,9291992,3527832,-7529297
6.330,49968760,-49336070,41123880,63675860,7241211,5415039,-6689453
6.360,-720746,-47033990,-35329440,12054130,40820310,18188480,-82470700
6.370,-5437948,-10446920,2207120,118685500,46923830,4267578,-8574219
6.380,-349583,-10957050,2715525,11665710,37475580,10664060,-54003900
6.390,-156235,-48587700,-33844800,11462000,4260254,9560547,-39746100
6.410,2701716,-85002920,84177900,110079700,9584961,88012700,-14904790
6.420,-45467340,-50262240,-32273830,56731680,13369140,7299805,-2614746
6.430,-42625800,-50771510,-31781820,53876320,17441410,-16540530,-48828120
6.440,10875920,-14107610,5848822,101508500,18808590,29037480,-59375
6.450,13922890,-14581490,6324428,98340660,22324220,8325195,-92822260
6.460,16710920,-52161210,-30392130,95431790,24296880,6829834,-10117190
6.470,-31513380,-15424800,7172923,42719020,23671880,20788570,-66308590
6.480,-29704180,-15799420,7557895,40902920,26796880,3022461,-25585940
6.490,21717300,-5314526,-2913191,90252790,27460940,42333980,-114746100
6.500,21889930,-16396730,8186279,90080160,26816410,64501950,-15441900
6.510,-29013650,-16638420,8445232,40212380,25039060,8173828,-10119630
6.520,52446050,-53611340,-28113370,59575820,22382810,5449219,-22009280
6.540,-32544010,-53740800,-27535040,43760000,24042970,36834720,-41601560
6.550,-33662670,-17293560,9188420,44885570,21132810,1586914,-31811520
6.560,15847750,-53792600,-27017140,96467590,18017580,22045900,8323669
6.570,52092150,-17553380,9498292,60344030,18671880,-2097168,16796880
6.580,14242260,-17668180,9642443,98314770,18681640,-38256840,-9521484
6.590,-37091170,-17756220,9761562,48362410,23203120,-6635742,-34277340
6.600,-37426080,-17817510,9855648,48718030,24394530,-3803711,-6269531
6.610,-37932760,-17834770,9907438,49247160,23359380,5203247,-38720700
6.620,52247530,-17833040,9943686,61120890,24179690,15820310,-4208374
6.630,-39807560,-53102060,-25428910,51170290,265625,37060550,-2685547
6.640,999548,-17658680,9841834,10390810,21015620,21575930,-29296880
6.650,8493572,-17511080,9730487,105686200,26113280,2619629,-7098389
6.660,-45032310,-52204370,-25273540,56476180,18974610,88964850,-9757996
6.680,-50965720,-16897370,9204820,62454480,15986330,54785160,7910156
6.700,-58975060,-50702460,-25843230,70500060,5307617,5913086,46240230
6.710,-1160098,-50244980,-26128080,12702370,48339840,50079340,80078130
6.720,-1617576,-15453290,7834972,13177110,41186520,-14782720,6958008
6.730,-72932470,-15029480,7430150,84509270,-49853520,16943360,-50634770
6.740,49614870,-14647090,7070202,66308520,9063721,-13781740,17663570
6.750,-3000370,-14255210,6702496,14608250,16223150,-31762700,2722168
6.760,-3457850,-13870240,6345145,15082990,-5161133,58447260,56884770
6.770,48466860,-13536190,6040443,67922650,-8955078,5073242,11396480
6.780,-4297711,-13236670,5770274,15952200,-95996100,-15478520,11591800
6.790,-4609315,-46447040,-27906200,16279340,-12490230,-57128900,8876953
6.800,-4832875,-12790420,5387892,16521890,-12275390,-8149414,56933590
6.810,47698630,-45799660,-27897570,69381400,-11835940,-546875,35253900
6.820,47690000,-12533190,5196267,69579930,-9794922,-35791020,45166020
6.830,-5131531,-12446880,5144478,16879240,-4963379,-29101560,23693850
6.840,-5172096,-87715940,86989150,16942250,-41577150,-1776123,59539800
6.850,47862640,-90365860,83130790,70046040,-17382810,-28900150,-18286130
6.860,-10553000,-12214680,5014140,11733980,-43304440,-33325200,-4934082
6.870,47923060,-44366810,-27310620,70382670,-24157720,9020996,-45654300
6.880,-5425869,-119997500,48665380,17275430,-11123660,10144040,-31469730
6.890,-5555346,-11871140,4770727,17422170,-20678710,-72387700,-120666500
6.900,-5675326,-11724410,4658516,17561140,-5620117,-15625,-40356440
6.910,47802220,-43210170,-27068940,71263100,-11269530,-33691410,-99121100
6.920,-5860045,-42908060,-26956720,17790740,-15136720,-30371090,-10283200
6.930,-11279360,-42631840,-26766820,12475010,-20722660,-32836910,-44750980
6.940,4811295,-4239016,-2645609,7178100,-24863280,-6279297,2705078
6.950,48466850,-42208900,-26033140,71806900,-27792970,-59521480,8544922
6.960,49002010,-11701960,4939905,71686050,-2890625,-609375,15830080
6.970,49778870,-120403200,53438700,71375320,-28398440,-64501950,17832030
6.980,50771510,-42329740,-23978790,70848780,-25371090,-6484375,16181640
6.990,51936790,-13045050,6479796,70149620,-20878910,-3959961,10292970
7.000,-7458027,-42916680,-22062560,8683204,-15009770,-6854248,11968990
7.010,-820010,-43253320,-21035390,13111510,-57647700,-8306885,-28149410
7.020,55751980,-43555430,-20025480,67508320,82421870,31030270,-73876950
7.030,56917260,-43779860,-19093260,66671050,18037110,8798828,-77685540
7.040,21630980,-32353250,-29794810,102250800,23886720,89990230,-90283200
7.050,58738540,-43840280,-17599990,65436720,26757810,90283200,-10478520
7.060,-22432000,-16337170,10265650,34882320,25175780,11826170,-9770508
7.070,-19135560,-43382800,-16641870,31618680,22597660,9765625,-4248047
7.080,39023800,-43028900,-16357020,86152740,18144530,57421880,19030760
7.090,-16596980,-42580050,-16167130,29150890,12763670,3256836,40283200
7.100,-16838670,-42096680,-16063540,29427100,9135742,16491700,5361328
7.110,-17683710,-41552880,-16037650,30308400,8564453,-13830570,6586914
7.120,-19047520,-40991820,-16098070,31706730,29516600,-57128900,50683590
7.130,36529250,-40413500,-16193020,90390900,-4397583,-7626953,20458980
7.140,-22035800,-39809280,-16331130,34760620,23880000,-9189453,-20092770
7.150,-23486790,-39187800,-16503760,36244400,-4660034,-97314460,-39941410
7.160,-25111270,-38566320,-16710920,37899960,-4638672,-93652340,-5473633
7.170,60766990,-28481070,-26381850,67430640,-12670900,-7207031,-5722656
7.180,60672040,-12788690,7340373,67801810,-33447270,-6557617,-17407230
7.190,2586912,-36693250,-17427350,10286370,-86328130,-9819336,3581543
7.200,2314152,-11922070,6549714,10583300,-11582030,-65771480,7729492
7.210,21000860,-35588400,-17755350,108180800,-8066406,-81152340,94873050
7.220,-39020350,-35148180,-17867560,51957500,-51464840,-91796870,8701172
7.230,60050560,-11018340,5744376,69476340,-8256836,-9199219,75
7.240,5994700,-107550700,55070080,6971799,-10810550,-8198242,6645508
7.250,-44264080,-105099300,52860380,57244400,-11484380,-77197260,9584961
7.260,5966213,-33680790,-18316410,7024455,-12695310,-10693360,12851560
7.280,59351390,-98703200,47172100,70762460,-11601560,-13867190,93603520
7.290,59239180,-32774470,-18549470,70978260,-11787110,-12109380,82177740
7.300,64544210,-32532780,-18601260,65742290,-12617190,-89160160,97265620
7.310,5910107,-3236015,-1863579,7125447,-1015625,-48706060,13476560
7.330,58945700,-32118460,-18739370,71461630,-76123050,-17358400,12851560
7.340,58798960,-32006250,-18834320,71608370,-6928711,4550171,10458980
7.350,-100989,-90071520,39230960,13140000,-7890625,31762700,11728520
7.360,-396195,-31755930,-19101890,13431750,-10830080,19946290,13105470
7.370,57892640,-87421600,36529240,72393860,-10517580,76660160,11796880
7.380,-11022640,-31514250,-19412630,141240100,-10146480,-22009280,8276367
7.390,-7333645,-31393400,-19619790,8634954,-10722660,-2890625,77441410
7.400,56710100,-31255300,-19809700,73334700,-11748050,-892334,82910160
7.410,56382100,-31117190,-19982330,73610920,-13095700,-11047360,85009770
7.420,56097250,-79497720,28398210,73843980,-14199220,-2631836,859375
7.430,-2619714,-30771920,-20310330,15610380,-15947270,-11999510,11474610
7.440,55596620,-76554320,25472070,74275560,-16611330,-26519780,10214840
7.450,-3037487,-30538860,-20526120,16021250,-15634770,12164310,11103520
7.460,55225450,-30435290,-20595180,74594930,-159375,-55633540,7636719
7.470,5510463,-51059810,45960220,7469849,-115625,-29174800,6074219
7.480,-3359449,-30262650,-20767810,16338030,-12773440,-32470700,7167969
7.490,55018300,-30305810,-20776440,74750300,-21210940,67285150,7792969
7.500,55026920,-74059770,22960250,74724410,-16826170,-10070800,9824219
7.510,55070080,-30512970,-20586540,74681250,-13574220,44555660,7207031
7.520,55147770,-76545690,25480700,74620830,-13144530,6707764,65234380
7.530,-3152288,-30771920,-20241270,16130870,-11171880,29614260,6333008
7.540,5536355,-30944550,-20034120,7443955,-10371090,28637700,72753900
7.550,55475770,-81914590,30987710,74344610,-10673830,-43792720,7236328
7.560,55579350,-26030540,-24861810,74241020,-10673830,11268620,5708008
7.570,63985740,-8585929,3498415,65834640,-10107420,9838867,30200200
7.580,-2685311,-64950760,59863250,15665620,-85498050,18908690,99853520
7.590,55777880,-31894040,-19032840,73990720,-10097660,31103520,1665039
7.600,55803770,-32135730,-18894740,73895760,-9370117,5805664,18157960
7.610,5579514,-32403310,-18782520,7381807,-8847656,42358400,-34326170
7.620,-2501460,-32679520,-18696210,15452420,-11474610,6074219,-4440918
7.630,-8286839,-9786593,4628305,9580727,-10986330,61572260,-5048828
7.640,-2401333,-33335530,-18454520,15328130,-10830080,4609375,-11468510
7.650,-2285667,-10315720,5117721,15202110,-12060550,40722660,35595700
7.660,-2143246,-34077850,-18040200,15051050,-10439450,25097660,43701170
7.670,-19568000,-34440390,-17746720,148577000,-7182617,-16467290,26953120
7.680,63658600,-89532050,84309870,65298610,-49731440,-3125,16882320
7.690,-1512270,-35165440,-17073450,14404540,-9210205,-3552246,10217290
7.700,6366205,-35510710,-16745450,6520884,46850580,-41967770,-95825190
7.710,-1112623,-35830080,-16477870,13992810,52490230,-63671880,-8647461
7.720,56960420,-2719153,-2520279,71755110,34326170,-5307617,-6635742
7.750,56960420,-37021260,-15821860,71409840,83203130,-20385740,-927124
7.760,-848493,-13400680,8092196,13669980,86816410,-23034670,-35327150
7.770,-66880810,-13518930,8181104,79685030,8017578,-5732422,-10859380
7.780,63184720,-37798100,-15908180,64667640,55566410,-7602539,-1015625
7.790,63081140,-38048420,-16003130,64581320,6791992,-8666992,-8149414
7.800,-69326150,-38281480,-16098070,82073410,71191410,-93115230,-88623050
7.810,-69680050,-13879740,8407253,82410050,4790039,-7055664,-7993164
7.820,-69688680,-13966050,8459043,82401420,59765620,-69921870,-61376950
7.830,-12213820,-28827210,-26570880,139185700,8120117,-6826172,-59472660
7.840,5590736,-14127460,8556578,7090920,9067383,-79541020,-9433594
7.850,62597760,-39429490,-16607350,64080680,11337890,-63183590,-12285160
7.860,-66784130,-39671180,-16710920,79436430,14560550,-38012700,-96191410
7.870,55993680,-39895600,-16831770,70391310,15576170,-42016600,-10488280
7.880,-792389,-40111390,-16978500,13415350,14882810,-55859380,-9550781
7.890,-64045300,-14441660,8691236,76650990,14453130,-1673584,-8779297
7.900,-7155664,-40517080,-17418720,133022700,13564450,-60180660,-64160160
7.910,-64065150,-40698350,-17703560,76631140,13994140,6628418,-50439450
7.920,-7967040,-30585480,-28299810,133419800,14541020,3408203,-28955080
7.950,-66784990,-14230180,8194915,79262940,17402340,16132810,10371090
7.960,61510170,-31540140,-29313170,63010360,13925780,-10,-79541020
7.970,54465860,-31755930,-29563490,69830250,10195310,-28808590,-24882810
7.980,54284600,-41647830,-20137700,69838870,2919922,-6274414,-31679690
7.990,-16831760,-13725230,7508694,140782600,12998050,13388670,-21914060
8.000,-1830780,-32322170,-30222940,14206870,18808590,1078125,-70947260
8.010,-20034120,-41829100,-21078550,143622400,10498050,14003910,49957280
8.020,-77730820,-41915420,-21320230,90068930,72998050,10429690,48583980
8.030,60735050,-42001730,-21527400,62456200,10830080,10009770,74609380
8.050,-2896791,-42243420,-21820870,15177930,13056640,1763916,7944336
8.060,-3035761,-42381520,-21958980,15297910,7006836,-7036133,2927246
8.070,51962680,-4251103,-2215753,70468980,-16369630,-20078120,-6669922
8.080,-3173005,-42597310,-22347410,15402360,-37963870,-72265620,-17158200
8.090,51764150,-42683630,-22520040,70391300,7807617,3515625,-22832030
8.100,-3185089,-42787210,-22658150,15390270,128125,10576170,-9482422
8.110,-3173868,-13355790,6790539,15366970,11494140,11386720,-22290040
8.120,-3188542,-43028900,-22830780,15369560,5678711,11367190,17956540
8.130,59914180,-43184270,-22848040,61775170,46044920,91796870,52001950
8.140,-3277447,-13528420,6911383,15436020,63964840,-16882320,-19543460
8.150,-3325784,-10287580,10221280,15474000,24743650,-60498050,-11904300
8.160,-3354269,-43495010,-22865300,15497310,-38604740,-5283203,-178125
8.170,-3311975,-34221140,-32139180,15453290,-4597168,-9824219,-11904300
8.180,51384350,-43693540,-22632250,70011510,7553711,-38269040,-6220703
8.190,-3121214,-34195240,-32061490,15264250,-67993170,-5498047,1965332
8.200,-2963255,-43917960,-22217930,15111470,10078130,34936520,-85372930
8.210,-8239797,-44047440,-21967610,9455134,8618164,46081540,21026610
8.220,-2552387,-44202810,-21691400,14710960,10966800,35327150,-21850590
8.230,-78337620,-44384080,-21406550,90497930,10273440,24084470,-47802740
8.240,52558260,-44556700,-21130340,69062030,11767580,15893560,-74902340
8.250,52730900,-44746600,-20871390,68889390,12597660,2915039,-5078125
8.260,-1860990,-44919230,-20629700,14021290,10449220,40625,-15271000
8.270,-1749640,-15625920,9077932,13908220,77783200,14416500,-1496582
8.280,-1611535,-45264500,-20129060,13770110,10644530,30615230,-2319336
8.290,-15174490,-45445770,-19878750,136743000,14541020,28857420,-29907230
8.300,5327469,-45583870,-19637060,6827653,12949220,3017578,-34692380
8.310,-1328417,-33875870,-31241480,13483540,9584961,16467290,-5629883
8.320,-66946410,-16621160,10119780,79101530,9379883,48583980,-54345700
8.330,53585430,-16787750,10298450,67983060,80126950,-32287600,-37353520
8.340,5369764,-46084510,-18653050,6788810,51708980,-41625980,-4189453
8.350,53818490,-46162200,-18402730,67801810,5205078,-121032700,-82666020
8.360,53973860,-4623128,-1814381,67715490,24328610,-3996582,-11435550
8.370,54224180,-33471050,-30627770,67568750,10443120,715332,-69628900
8.380,-58815360,-17604300,11225500,71005020,7705078,36547850,-5498047
8.390,54724820,-17802830,11458550,67292540,59814450,10211180,-2685547
8.400,55052820,-46386620,-16676400,67102640,5708008,6298828,-22814940
8.410,55423980,-46421150,-16227550,66886840,82910160,11308590,-6549072
8.420,55812410,-46429780,-15752810,66671060,10849610,11845700,-40802000
8.430,-45053020,-18665140,12495210,57318630,98046870,9765625,-41625980
8.440,-41848950,-46395250,-14768790,54135270,96240230,9326172,-68066410
8.450,1709071,-46343460,-14216370,10599690,12929690,11943360,-5986328
8.460,-34661350,-19299560,13310910,46994290,14794920,12255860,-5341797
8.470,24505320,-46136300,-13076990,99082990,15097660,11455080,-57714840
8.480,-27816430,-45989560,-12533190,40201160,12861330,10556640,-30639650
8.490,31160340,-45799670,-11980770,92963130,10634770,87109380,-10719300
8.500,3433680,-45583870,-11419700,9009740,13134770,12460940,-48431400
8.510,3725432,-20046200,14428710,8749064,12617190,83691410,-2117157
8.520,4035307,-45031440,-10245800,8471986,14257810,13671880,7354736
8.530,4354681,-20263720,14832670,8187142,16611330,18105470,18908690
8.540,-9679559,-20361260,15028610,22257640,16630860,14394530,13989260
8.550,50564350,-43961120,-8346832,75596210,15087890,10498050,29663090
8.560,-83442400,-27427150,-23845000,96096430,10527340,15009770,4934082
8.570,-53744860,-20514900,15496450,55014240,14580080,17070310,91796870
8.580,-16075630,-26339560,-22722880,28809070,17753910,17587890,11552730
8.590,63866280,-25781950,-22158380,63865240,1484375,22128910,76416020
8.610,68673600,-40991820,-4687000,59869290,14863280,23496090,609375
8.620,117986400,-2408669,-2045280,10953600,13701170,24492190,8388672
8.630,65212300,-39886970,-3513094,64090180,12041020,23769530,8154297
8.640,11490490,-20309470,16081670,1477742,10820310,21015620,76464850
8.650,102138600,-38764850,-2373714,27906200,65185550,19306640,81640620
8.660,85919690,-21811380,-18170540,44487650,38012700,17773440,7114258
8.670,6541947,-20157550,16285380,6535040,68115230,19550780,68115230
8.680,54353660,-20116980,16377740,76796010,70947260,2046875,5878906
8.710,-46904520,-18430350,-14767070,60128240,5600586,19755860,25756840
8.720,-6726077,-34181430,2468660,6739334,41479490,19287110,17993160
8.730,5809117,-33430480,3236877,7483661,5942383,20566410,22949220
8.740,-3780674,-32653620,4013730,17107980,48706060,23320310,7885742
8.750,-6182005,-15374740,-11711460,19540380,5048828,26308590,-60699460
8.760,51237620,-31048140,5550166,82656910,5913086,28320310,-3642578
8.770,-12020470,-13771840,-10120640,25441000,4326172,2921875,-50390620
8.780,65039670,-29356330,7069340,69441820,23535160,26972660,-44580080
8.790,-18985370,-28493160,7828931,32459410,24731440,246875,-3203125
8.800,3745284,-27604100,8579885,9752928,42529300,24296880,-5048828
8.810,-28111640,-104935300,-68906660,41632290,2849121,24335940,-7836914
8.820,27474620,-96648860,-60792880,107921800,25219730,2203125,-1046875
8.830,22036660,-72216900,-68652020,113532400,19030760,23808590,-11816410
8.840,-44659420,-79601310,-44176910,58230130,10168460,23808590,-13203130
8.850,1085865,-22908460,12291500,12496940,-6347656,22949220,-13457030
8.870,60416,-52213010,-17530930,135923000,7659912,19033200,-11972660
8.880,-4997736,-17438580,16932760,141050200,13000490,17333980,-14169920
8.900,-1490692,-70356780,-36675980,15099390,48706060,18251950,-13916020
8.910,59196030,29097370,62398370,76856430,39916990,19619140,-14257810
8.920,-2611081,-2037076,30866870,16205970,25219730,16933590,-13847660
8.930,57858120,7906611,40430760,77952660,24047850,14814450,-14023440
8.940,5707265,17763980,49908340,7853098,-27038570,10048830,-1359375
8.950,56200840,27535040,59299600,79143820,-14221190,48828120,-1515625
8.960,-5497513,-1040981,2099224,18999180,-30151370,-8569336,-13798830
8.970,54267340,46869980,77944020,80369520,-4482422,-46118160,-12373050
8.980,53214280,5660649,8736979,80973740,-54296880,-68359380,-12197270
8.990,-8015369,66153150,96640220,21384110,-7973633,-10908200,-11962890
9.000,-8889760,-14189610,16003990,22201530,-5834961,-15839840,-15263670
9.010,-9748612,-4937319,24962800,22999960,-6376953,-21816410,-18525390
9.020,-10583290,-3866991,25774180,23770770,-6455078,-23144530,-21367190
9.030,-11385180,-2813926,26568300,24505320,-8496094,-24355470,-19277340
9.040,-12162890,-1795390,27362410,25212260,-10800780,-25976560,-14414060
9.050,45497560,-776854,28156520,84271040,-1125,-28320310,-10244140
9.060,-13574170,14443900,14731160,26476800,-12451170,-29863280,-8979492
9.070,62091950,1225696,29727480,66209260,-13691410,-32988280,-71777340
9.080,4271817,2226973,30504340,8487525,-14423830,-34199220,-6201172
9.090,63236600,3228245,31281190,63666280,-13769530,-34589840,-59033200
9.100,-15499900,4212257,32040780,28124590,-12470700,-32851560,-6064453
9.110,-15799420,5179004,32783100,28360230,-10498050,-32792970,-63427740
9.120,40197700,-11701100,15661310,84788940,-9658203,-35410160,-66308590
9.130,3972299,7043444,34146900,8467673,-92529300,-35898440,-9379883
9.140,59652640,7941138,34785650,64177360,-8930664,-34785160,-11708980
9.150,-16579720,8787043,35389860,28909200,-10488280,-33027340,-91552740
9.160,-22260140,-10904390,15456740,23487730,-11699220,-30683590,-47387700
9.170,-16892180,10314850,36468820,29114640,-11601560,-31367190,-14587400
9.180,-17064820,11005380,36952200,29235480,-7885742,-34765620,47821040
9.190,37331990,-10415850,15323810,83873980,-5463867,-35839840,19909670
9.200,-17347070,12326030,37823990,29419340,-15588380,-34375,31811520
9.210,57795970,12973400,38177890,62495050,-3635254,-28320310,7885742
9.220,36347980,13603510,38480000,83528710,-46411130,-25058590,12304690
9.230,3608905,14216370,38730320,8342515,-35327150,-23808590,10419920
9.240,35847340,14820580,38920220,83338820,-1829834,-22773440,61572260
9.250,59208190,26040900,28407700,59684490,-3059082,-21757810,5654297
9.260,-17953020,15916810,39187800,29814670,-27612300,-19453120,67822260
9.270,56782610,16400180,39291380,61574910,-24157720,-18642580,8833008
9.280,-23448720,-10983200,11545470,24629710,-19274900,-18212890,11318360
9.290,-23553510,17271980,39438120,24732080,-12512210,-171875,13642580
9.300,56374330,17686300,39507170,61223600,-11065670,-17119140,14082030
9.310,3430229,18083360,39576230,8303672,4159546,-18242190,14404300
9.320,-18643550,18454520,39653910,30349830,14123540,-18398440,14296880
9.330,33784380,-7533729,13389450,83002180,32006840,-17246090,15703130
9.340,3355134,19170950,39835180,8297630,54003900,-17314450,19511720
9.350,-18975870,-7230755,13174530,30604460,6010742,-16699220,22226560
9.360,3320607,19852850,39999180,8287272,7109375,-16572270,240625
9.370,-24262510,20180850,40085500,25421410,89697260,-1734375,246875
9.380,33050680,20500220,40163180,82700070,10664060,-17382810,2265625
9.390,33050680,20802330,40240860,82579230,12050780,-16962890,20761720
9.400,3309386,21087180,40301290,8246703,13583980,-16015630,20664060
9.410,33162900,-6427148,12597060,82346180,13730470,-14619140,215625
9.420,-18697070,21587820,40422130,30244530,13671880,-15097660,21113280
9.430,-18550330,-6207902,12436520,30097790,1453125,-16738280,19746090
9.440,55338530,22028030,40499820,60170540,14882810,-18066410,19365230
9.450,-18192120,22243820,40525710,29748210,12714840,-17646480,20371090
9.460,-17962510,22459620,40534340,29528960,10654300,-17109380,20136720
9.470,3438861,22666780,40551610,8137944,84375,-17128910,20332030
9.480,3472525,22856670,40568870,8118091,59814450,-16767580,19511720
9.490,35087760,23037940,40594760,80956470,4777832,-17148440,16386720
9.500,35493450,-55268610,119091200,80723420,35961910,-18486330,13125
9.510,35916410,-54664390,118659600,80473100,44311520,-19580080,10878910
9.520,3636526,23460890,40689710,8021416,23730470,-19248050,85253900
9.530,36839990,23590360,40732870,79946570,86364740,-18789060,71777340
9.540,3733201,23711210,40767400,7966173,-16137700,-17675780,5463867
9.550,3784991,23832050,40801920,7936826,-36157230,-16191410,43652340
9.560,-14474450,-52187100,116993700,26215260,-49975580,-13251950,5058594
9.570,38902960,-51833200,116829700,78712240,-43896480,-97998050,4321289
9.580,-13564670,-51556990,116760700,25346910,-38452150,-48876950,32592770
9.590,57107160,-51375720,116769300,60905090,-20654300,16638180,-6695557
9.600,4057755,-51108140,116691600,7762463,-14477540,7441406,-43847660
9.610,-12155120,24488060,41250770,23994330,-31811520,12998050,-77734380
9.620,-11732170,-50952770,116847000,23588640,-61279300,18417970,-8515625
9.630,-11354960,-51134040,117183600,23223520,-8671875,22226560,-7182617
9.640,57688080,-51392980,117615200,61083770,-11025390,23320310,-484375
9.650,57713970,24703850,41725510,61057880,-125,23574220,-41723630
9.660,-10575530,24755640,41915410,22449260,-13564450,24785160,-59033200
9.670,42968480,24816060,42131200,75682520,-1375,25722660,-81591800
9.680,-10319160,-53723540,120981600,22170450,-14228520,25039060,-92578130
9.690,4299439,24988700,42614580,7532863,-12177730,24980470,-11152340
9.700,-15542100,25118170,42899420,16723090,-1046875,24667970,-13740230
9.710,4280450,25282180,43184270,7501790,-11757810,240625,-16953120
9.720,42692270,25463440,43469110,74853890,-13291020,22597660,-19267580
9.730,42571420,25661960,43753960,74698510,-15253910,21777340,-22128910
9.740,-10179330,25834600,44030170,21878710,-17226560,21835940,-26152340
9.750,-10148260,-5634758,12664390,21823460,-19482420,209375,-29453120
9.760,42312470,26136710,44556700,74197870,-22421880,19140620,-32128910
9.770,-10093880,26231660,44807020,21722470,-240625,16318360,-34238280
9.780,-10104240,-5815160,12950100,21712120,-25390620,13867190,-36445310
9.790,42001730,-5904932,13067490,73852600,-26308590,12197270,-37421880
9.800,-15373100,-6005057,13191790,16529570,-27617190,9379883,-37148440
9.810,41734140,35066170,37008300,73723130,-27871090,65527340,-36074220
9.820,41596040,-6218262,13444690,73688600,-26347660,24377440,-33984380
9.830,-10324340,26257560,46162200,21837280,-23496090,-10638430,-32128910
9.840,4138026,-6436640,13692420,7359366,-19570310,-46191410,-31542970
9.850,-10372680,-6524684,13794280,21857990,-15595700,-79833980,-31757810
9.860,-10378730,-6594601,13879730,21851950,-13994140,-95703130,-30957030
9.870,4120762,-6648115,13947060,7342102,-15273440,-9838867,-27480470
9.890,-10370090,-6752560,14084300,21808790,-14453130,-10146480,-24707030
9.900,55505120,-6812983,14161990,58726460,-13349610,-91308590,-25527340
9.910,-10420160,-10196860,10933480,21827780,-11123050,-89990230,-26445310
9.920,-15588890,-6968352,14351890,16728100,-91748050,-8955078,-25683590
9.930,-10541000,-7071933,14472730,21914100,-81884770,-8276367,-24003910
9.940,-10655800,26171240,48009370,22006460,-72216800,-80371100,-21679690
9.950,-10807720,26093550,48259700,22130750,-39257810,-62841800,-20722660
9.960,-16077180,-7537179,14991490,17206550,-24536130,-5361328,-196875
9.970,-11200460,-7700317,15173620,22463070,-33111570,-43432620,-18945310
9.980,-11405030,25869130,49053810,22638290,-12207030,-23950200,-20117190
9.990,38859800,25851860,49243700,73213860,-546875,59417720,-21308590
10.000,3864401,2586913,4936454,7323976,-35620120,30151370,-1875
10.020,3828150,25912290,49545820,7329156,-43432620,12408450,-12041020
10.030,38117470,-8046451,15604340,73317440,-51123050,2631836,-11113280
10.040,-12147350,26024500,49658020,23277040,-4482422,6064453,-12539060
10.050,3773770,26067660,49666660,7343830,-25708010,79248050,-13173830
10.060,-12478810,-7976532,15553420,23584320,-8496094,86083980,-12822270
10.070,-12699780,26171240,49580340,23794940,13415530,89453130,-7885742
10.080,36891780,-7858280,15429980,73921660,11621090,82177740,-45141600
10.090,-13292780,-7790087,15360070,24358590,8647461,95166020,90270990
10.100,-19124340,-7680465,15245270,19234820,10654300,79345700,3395996
10.110,-14035100,-7562211,15121830,25066380,11503910,7729492,50439450
10.120,35148180,2656826,4895884,75009250,16591800,10224610,87939460
10.130,-14809360,-7234208,14776560,25811300,16474610,121875,14179690
10.140,52870740,26879030,48458220,57010480,12373050,13203130,18789060
10.150,-1559139,-6793991,14319090,2656570,13535160,18154300,25175780
10.160,-15988450,-6546263,14066180,26945500,10957030,22324220,30898440
10.170,-16386370,27535040,47629580,27324430,8149414,27617190,35976560
10.180,32282460,2781985,4736199,76839170,78222660,32089840,39082030
10.190,3166962,-5733159,13256530,7714127,72558590,33945310,37871100
10.200,30996340,-5461264,12993260,77434750,4272461,33847660,35761720
10.210,3027128,2872621,4669736,7772823,3166504,3203125,3609375
10.220,-18887830,-5009826,12564270,29639440,3010254,29160160,33945310
10.230,-19467020,-4849276,12414080,30165110,4165039,24140620,29785160
10.240,27802630,29347690,46403880,78591400,89160160,17988280,24492190
10.250,2690494,-4676642,12258700,7888487,13623050,10654300,20078120
10.260,25998610,-84038420,84797140,79169720,13984380,2709961,19785160
10.270,-21936530,-46377980,122284900,32391220,14609380,-47070310,19951170
10.280,2427232,-46369350,122293600,7968760,14189450,-11777340,19335940
10.290,23504060,-46369360,122293600,79920670,14785160,-17382810,15058590
10.300,-23510090,-46377980,122284900,33804220,17949220,-25292970,10625
10.310,-23908870,-46317570,122172700,34165030,15839840,-31953120,87841800
10.320,-24244640,-80455840,88034450,34468000,121875,-371875,10361330
10.330,48024920,-80631930,88203620,53949690,10791020,-425,11074220
10.340,-24759950,29347690,46283040,34936700,9526367,-48710940,8569336
10.350,2075918,2925274,4629167,8083563,11826170,-56992190,68066410
10.360,-25129390,29140540,46300300,35275060,16845700,-63828120,39038090
10.370,4765291,29036950,46300300,5371751,18242190,-696875,49682620
10.380,2030174,-83159280,90682640,8106865,18203120,-7125,8041992
10.390,-25321010,-83596900,91108180,35463230,21738280,-69414060,12226560
10.400,-25272680,2876073,4626579,35425250,2046875,-6890625,17490230
10.410,-25169100,2872620,4623126,35338940,20351560,-63476560,17001950
10.420,20845490,-4998606,12489170,81060050,18505860,-55585940,19511720
10.430,2117354,-83524400,91008060,8100822,16064450,-46679690,21972660
10.440,21544660,-83182580,90659340,80947840,16982420,-37402340,22382810
10.450,21958980,28700310,45998190,80878790,18789060,-25039060,21132810
10.460,51299340,28726210,45903240,51883700,16132810,-10419920,22011720
10.470,22761730,2875207,4579103,80766580,10283200,7421875,24238280
10.480,-23629200,-80782980,88225200,34013110,5605469,2234375,24882810
10.490,2340914,-80273710,87698670,8074065,-42510980,32714840,24882810
10.500,2372849,36158080,37832630,8076659,-7578125,44453120,24863280
10.510,24047840,28441360,45204080,80827000,-16923830,496875,26621090
10.520,24367220,-80322910,87649470,80904690,-20039060,51796880,23164060
10.530,2466075,-47741790,120575900,8100825,-19033200,48164060,14130860
10.540,-22802290,-80712200,87950720,33407170,-25078120,428125,47265620
10.550,25118180,-4880353,12072260,81258580,-33789060,41289060,-1505127
10.560,2523039,-4971845,12118870,8140532,-43398440,39609380,-5620117
10.570,25282180,-51151300,122172700,81560690,-48632810,35410160,-10019530
10.580,-22875660,-5292081,12351060,33575490,-48125,29667970,-16445310
10.590,25256280,34169340,35971640,81880060,-4703125,24394530,-24941410
10.600,25213120,-5744383,12710140,82044070,-42460940,14238280,-35097660
10.610,-23177770,-6009374,12928520,33912120,-36953120,13342290,-45898440
10.620,-23349540,24600270,44107860,34085620,-37480470,-10966800,-54335940
10.630,24747010,33120590,35138680,82579230,-42578120,-17871090,-54296880
10.640,24462170,-7088335,13869370,82743230,-42851560,-22695310,-46953120
10.650,2416871,22796260,44582600,8289861,-38710940,-3078125,-40820310
10.660,-24208390,22183400,44815650,34901320,-35488280,-3921875,-36640620
10.670,-24351680,-8407252,15070900,35034240,-31464840,-4640625,-32246090
10.690,23469520,-9279053,15873650,83200710,-18994140,-64023440,-30234380
10.700,2343500,-9710634,16270710,8321797,-14589840,-68242190,-2703125
10.710,-24550210,19248630,46041350,35215510,-12402340,-70,-23066410
10.720,-24504460,-10519420,17015620,35174940,-12744140,-721875,-21621090
10.730,2361627,1820420,4646430,8315756,-17080080,-72265620,-27167970
10.740,23719840,1767764,4669736,83123020,-22246090,-70625,-25488280
10.750,50455590,17107980,46956300,56387270,-21875,-65,-22597660
10.760,23702580,16486490,47284310,83036700,-17705080,-61054690,-2328125
10.770,23547210,-12744670,19088950,83002180,-640625,-61367190,-21464840
10.780,2336596,15114060,48000740,8297630,16845700,-60546880,-19570310
10.790,-24576970,14423530,48363270,35188750,7705078,-55976560,-18056640
10.800,23029310,-14338940,20584820,82898600,12353520,-5078125,-14306640
10.810,2295165,13189200,48993380,8283819,16123050,-38886720,-75
10.820,2296890,30804800,31170620,8275188,21835940,-24628910,-49804690
10.830,23055200,-15527520,21709520,82631020,33554690,-9897461,-24291990
10.840,-24363760,28971350,32745120,34935840,47617190,75927740,736084
10.850,23374570,28893660,32701960,82432500,55625,24765620,7287598
10.860,50012790,11600970,49873820,55897860,56835940,45703120,1005249
10.870,-24079780,28714990,32552640,34684660,61914060,69570310,8306885
10.880,-24098770,28556170,32400720,34717460,69296870,8359375,9243164
10.890,23668050,11031280,49494020,82656910,78164060,996875,25078120
10.900,2360765,10806860,49235070,8285545,896875,1184375,4265625
10.910,-24429370,-16159360,22113490,35094660,100703100,1315625,5703125
10.920,-24536400,27636030,31421890,35229320,11703130,140703100,7125
10.930,50668800,10806850,47888530,56657450,133359400,155703100,72460940
10.940,23970160,-1507526,2091885,83873980,134140600,16625,67382820
10.950,51215180,11799500,46447040,57198660,128671900,1765625,6375
10.960,51511240,12507290,45618400,57489540,13375,18875,6015625
10.970,24807440,13310040,44763860,84659460,1415625,20046880,55234380
10.980,-24531220,-11927250,17748450,35510710,17015620,228125,5015625
10.990,24695220,15390270,43132480,85186000,1990625,2378125,45585940
11.000,51795220,16745450,42364260,57913350,230625,2303125,45585940
11.010,23693940,1837680,4157876,85652100,2546875,22328120,51914060
11.020,-25952850,20318960,40758770,36833940,2825,22875,58632810
11.030,2212300,22442350,39981920,8585928,31828120,243125,45546880
11.040,-26970530,24479430,39498540,37663450,333125,239375,17177730
11.050,20103170,-31850880,97278970,85652100,3646875,2503125,-25371090
11.060,18955160,-23486790,89760780,85695260,371875,23359380,-5453125
11.070,48531590,27854410,38229680,55359240,3484375,1834375,-39160160
11.080,16624600,27025770,37590940,86851900,3196875,106875,-26894530
11.090,-31030870,-2894202,9069302,41388880,32625,8671875,-39160160
11.100,1490692,21475610,35717870,8946732,28375,-41875,6015625
11.110,49004610,-61517950,112151300,56681610,21984380,-12171880,66132810
11.120,1451849,10271690,30884130,9323935,-16796880,-21015620,12390630
11.130,-34786510,1458752,27077570,45729750,-4690625,-3534375,44140620
11.140,-35471000,-9477580,22804890,46426320,-89375,-3959375,137734400
11.150,11713180,-7155663,16961240,97408450,65625,9175,60625
11.160,17392820,-14009210,24677960,94111140,-12919920,-62125,-152875
11.170,2125120,-12438240,38713060,8864729,1151875,-3665625,-8375
11.180,26775460,-7647667,34474900,89441410,74375,1440625,821875
11.190,2622303,8402071,12089520,9158207,-845,-4153125,3709375
11.200,23037940,8808618,12425290,92488400,-5834375,-770,27203120
11.210,21717290,-4557529,29123270,92859550,-83359380,-4046875,521875
11.220,22174770,-13761480,16552960,92868190,-21296880,-36625,853125
11.230,-29177650,14772250,17458430,40704390,-15609380,-229375,10566410
11.240,22796250,6560070,29865590,92246700,-23875,-10400390,-23734380
11.250,21889920,-8150895,12133550,92117230,-2215625,-10195310,-3853125
11.260,53255710,-7203136,11389490,60285340,-46679690,-14109380,-13359380
11.270,-29541910,13163300,30167700,40858030,-159375,-575,-102109400
11.280,52754200,14225000,30711500,59802830,-89140620,35722660,-15410160
11.290,-34788150,22502770,24160060,35905260,-8640625,1675,24140620
11.300,1992192,15459330,32601840,9090880,-38964840,139921900,71435540
11.310,-29494430,15865020,33698060,40560240,4234375,112734400,11289060
11.320,-28320530,-6570432,11711460,39438120,11640630,1353125,2515625
11.330,-26778040,17487770,35942290,37976780,1578125,1621875,-1671875
11.340,53363600,-6396074,11903080,59538700,152265600,17609380,-70820310
11.350,27448730,19119160,37073040,86437580,118515600,149140600,-59335940
11.360,57101030,19593900,37426940,57665720,7703125,1246875,-52695310
11.370,30651080,19818320,37824000,84858000,49726560,1059375,-37753900
11.380,3185953,19861480,38419580,8413294,44570310,8828125,-19375
11.390,32843520,19878740,39110110,83425130,55742190,8015625,-20097660
11.400,-18753170,19921900,39774750,30395580,51289060,61015620,-37832030
11.410,3427639,19982330,40404870,8219945,478125,53007810,-63515620
11.420,-17591350,-7386126,13485270,29244110,5578125,39667970,-51054690
11.430,56024750,-7526823,13672570,60606440,5109375,24316410,-4578125
11.440,-16595260,-7629539,13811540,28272190,46875,86279300,-39023440
11.450,-16129150,20241280,41837720,27823340,45664060,-6308594,-21523440
11.460,37038510,-7718446,13947060,80110570,38339840,-14257810,-17841800
11.470,-15246130,20379380,42113940,26980030,39003900,-15771480,-8930664
11.480,3797075,20465700,42252040,7948910,46328120,-13935550,-21757810
11.490,38290110,2056062,4236425,79256040,42929690,-18955080,-20390620
11.510,3896340,20707390,42528260,7878994,31523440,-115625,-3635254
11.520,56982860,20750550,42588680,60908550,24765620,-14453130,12958980
11.530,39653910,20785070,42744050,78306550,19003910,-12939450,25039060
11.540,-13109790,20880020,43011640,24904110,275,41160580,29335940
11.550,-18098290,21026760,43331000,19276860,32207030,14619140,24726560
11.560,-12462410,21182130,43676270,24239470,37910160,2890625,19853520
11.570,-12094700,21372020,43969750,23864860,30625,43515620,20390620
11.580,57074360,-8042134,14624640,60592630,23515620,6453125,24804690
11.590,41578780,-11317510,11383800,76036420,24101560,90859380,45664060
11.600,-11047680,22045300,44643020,22805750,18974610,102578100,64492190
11.610,-10808580,22261090,44772500,22561470,15371090,12625,66523440
11.620,58581450,22364660,44841540,58912900,11464840,14984380,65625
11.630,-10802540,-7845331,14562500,22550250,80859380,153125,74492190
11.640,-1117110,32429200,34656180,2290675,11396480,139375,79101560
11.650,-11801230,-7684781,14395050,23502320,19550780,119765600,79335940
11.660,39714340,22778990,44599860,76675170,25136720,100859400,665625
11.670,38290110,-7370590,14156810,77218960,24882810,8640625,47226560
11.680,3670191,23624890,44858810,7775414,29160160,72148440,26894530
11.690,-15921120,-7021869,13935840,27254510,35898440,54023440,12763670
11.700,-16985410,24522590,45186820,28210040,29160160,33476560,-11062620
11.710,-1795991,24867850,45307660,2908271,25761720,15048830,-3930664
11.720,30823710,25100910,45419870,79506350,24941410,22961430,-63427740
11.730,-19571460,25230390,45514820,30526780,26640620,-11796880,-67089840
11.740,51881540,25256280,45592500,57015660,26640620,-24746090,-7734375
11.750,2794939,25213120,45652930,8039543,2796875,-39707030,-64990230
11.760,-21313330,25144070,45704720,32099470,29042970,-51835940,-7285156
11.770,50999380,2503183,4573059,56430430,34980470,-62421880,-9248047
11.780,2597272,-6885487,13951380,8109458,33945310,-70742190,-10117190
11.790,-22567510,24764280,45739240,33244900,30566410,-75664060,-65527340
11.800,25100910,24617530,45730610,81465740,28613280,-74296870,-9033203
11.810,24867850,-7141852,14161130,81577950,2640625,-73476560,-10321050
11.820,50379630,24272260,45765140,56066180,31953120,-7296875,6451416
11.830,-23071600,24091000,45773770,33724820,31425780,-74140620,36157230
11.840,-22942120,23944260,45799660,33612600,31210940,-77070310,5649414
11.850,2537714,23832050,45842820,8155207,32363280,-74414060,49804690
11.860,-22478610,-7582928,14548690,33195690,31308590,-7265625,1348877
11.870,-22145420,23737100,45972300,32890130,28574220,-6859375,2442627
11.880,26689140,23762990,46049980,81034160,26074220,-61523440,65185550
11.890,-21392740,33879320,36106300,32192690,18984380,-55429690,15244140
11.900,51454280,-7585518,14615150,56735130,18886720,-49726560,19863280
11.910,28139260,-7486254,14559040,80170990,25195310,-44882810,19345700
11.920,-20208480,24712480,46550620,31046410,34921880,-39648440,15576170
11.930,-19828680,-7203997,14392460,30666610,38300780,-29824220,11640630
11.940,29244110,2559289,4693040,79066140,34765620,-21308590,12578130
11.950,51634680,-6888079,14207730,56554730,23632810,-10419920,20878910
11.960,29641170,-6756878,14149040,78323820,20898440,6855469,30527340
11.970,29718860,-6629992,14103290,77935390,2578125,303125,33359380
11.980,-1853650,27526410,48035270,2926571,27324220,48476560,33847660
11.990,-18337990,2812199,4830286,29032640,27382810,6578125,30742190
12.000,29805170,28760740,48544540,76761480,2203125,81640620,22285160
12.010,29822430,-5768551,13583670,76381690,7001953,86171870,14042970
12.020,-17806280,29951910,48976120,28390440,-49682620,92578130,90478510
12.030,-17711330,30435280,49148760,28260970,-15634770,94375,6479492
12.040,2962391,-5217848,13236670,7550989,-25117190,86796870,61279300
12.050,29373590,-5077154,13152940,75328620,-28613280,77070310,23181150
12.060,29045590,-4937322,13068360,75190520,-2984375,68632820,-6616211
12.070,28648520,32006240,49839280,75069670,-35703120,58085940,-16669920
12.080,-18240450,32308360,50003290,28560490,-36796880,48398440,-21542970
12.090,-18490770,32575940,50150030,28759010,-38242190,37382810,-24667970
12.100,48715450,-83024620,91335200,53483580,-38378900,27851560,-25957030
12.110,26861770,-4459989,12803360,74922940,-34140620,17109380,-2609375
12.120,-19104480,33326900,50383090,29250160,-26953120,5996094,-24179690
12.130,2631803,-41932670,125867100,7487976,-22363280,-7104492,-240625
12.140,-19299560,-4053436,12467590,29400350,-24199220,-18144530,-29785160
12.150,25998610,-39170540,123450200,74871140,-23027340,-29863280,-328125
12.160,2582599,34138280,50210450,7490569,-27929690,-43789060,-34804690
12.170,-19639650,41403550,42996960,29699000,-3125,-51171880,-39492190
12.180,-19783790,-74846980,83285300,29831060,-32480470,-5921875,-39570310
12.190,-19889100,-74417980,82851130,29932920,-32929690,-6625,-38320310
12.200,2529081,3430227,4994287,7518189,-28925780,-6765625,-38847660
12.210,-19861480,34293640,49830660,29926020,-25976560,-73320310,-3359375
12.220,-24251120,41924390,42079070,25260170,-23828120,-76523440,-31171880
12.230,2605042,34207330,49623500,7518190,-20761720,-78398440,-30859380
12.240,26464720,34112370,49528540,75147360,-25449220,-83828130,-2875
12.250,2689630,-3579556,11922930,7509556,-28847660,-82734380,-23730470
12.260,2731066,-78218420,79050690,7504375,-30058590,-775,-22578120
12.270,2770768,-7595270,8425118,7499199,-28203120,-7640625,-19433590
12.280,-18274120,-4053436,12329490,28578610,-30605470,-7203125,-19814450
12.290,28475900,-83487370,84312380,74897040,-29511720,-63671880,-15712890
12.300,-17827860,-4503146,12725680,28196230,-30097660,-57695310,-10107420
12.310,29192320,-4750013,12944920,74819350,-29980470,-48398440,-87841800
12.320,29537590,31712770,49908340,74802090,-27539060,-38359380,-6479492
12.330,-17200340,-5300713,13430020,27667110,-22285160,-21015620,-30493160
12.340,30305810,-5586424,13679480,74741670,-15302730,34985350,-32910160
12.350,30728760,30366230,50132760,74733040,-17294920,31445310,6768799
12.360,50774960,-6107776,14107610,55135680,-16542970,61835940,9169922
12.370,-16344940,29425380,49986030,26986070,-16083980,7890625,18339840
12.380,-16278470,-6498790,14372600,26966210,-15458980,859375,1984375
12.390,51459460,-6697318,14502070,55797740,-88964850,94453130,209375
12.400,-16520160,-6888941,14621190,27276950,-68408200,990625,2328125
12.410,3162648,27362410,49200540,7611412,-7114258,971875,30722660
12.420,31177610,-7317937,14900000,76614740,-23852540,90625,38027340
12.430,-17894320,-7558758,15073490,28664930,50439450,853125,35292970
12.440,-18536520,-7795267,15251310,29282960,16376950,72539060,33984380
12.450,2899380,-8026594,15434300,7812528,26699220,62578120,27207030
12.460,2814791,35656580,38040650,7855688,36679690,496875,19599610
12.470,-20468290,24617540,48786220,31097330,45039060,35,14560550
12.480,26689140,24349950,48777580,79238780,46796880,20351560,15244140
12.490,26136710,-8663616,15953920,79497730,45546880,61376950,15341800
12.500,-21729370,23978790,48734430,32270380,4328125,-8803711,14697270
12.510,-22004730,-8821573,16072180,32530190,39570310,-21523440,12402340
12.520,-22243820,-8902711,16129150,32757200,35332030,-31875,10107420
12.530,-22463070,-8994207,16193020,32969540,33417970,-46289060,1078125
12.540,24626170,23176040,48501380,80421310,34765620,-55546880,10878910
12.550,24505330,22951620,48380530,80593940,33027340,-63476560,12607420
12.560,-22896380,-9208272,16306960,33416660,32949220,-68164060,14902340
12.570,-22949030,-9233304,16299190,33484850,3609375,-70625,18662110
12.580,-22948170,22416460,47931690,33502980,35507810,-72890620,18388670
12.590,-22919680,-9210861,16218050,33496940,33417970,-7421875,16328130
12.600,2482470,-9179786,16162810,8117226,27246090,-76445310,16201170
12.610,-22829920,-9156482,16117060,33448600,19931640,-75898440,134375
12.620,25040490,22071190,47344730,81284480,16679690,-73203130,10283200
12.630,25118170,-9208274,16134330,81327640,1875,-65195310,3095703
12.640,-22778990,-9285956,16194750,33430480,16875,-62617190,10308840
12.650,-22749640,21639610,47310210,33408030,15292970,-571875,46899420
12.660,-22712520,2148422,4736201,33376100,96777340,-4578125,38916020
12.670,50535000,21363390,47448310,56135230,28344730,-38164060,2619629
12.680,25420280,21259810,47551890,81267220,-11810300,-29414060,-1706543
12.690,-22475150,34430420,34433070,33147360,5178833,-19404300,-6948242
12.700,-22326690,21104440,47845370,33002350,-57678220,-953125,-15546880
12.710,25964080,21035390,48000740,80896050,-72802740,44433590,-20976560
12.720,-21883020,-10140490,17049290,32582850,-12480470,14072270,-15214840
12.730,-21632700,20845490,48259690,32349790,-20605470,18447270,-11269530
12.740,26870410,20724650,48380530,80455840,-23164060,2296875,-4206543
12.750,2703441,-10485760,17394550,8036089,-23554690,29238280,-35058590
12.760,2705169,20491590,48613590,8030911,-1984375,3203125,-33789060
12.770,2693085,20336220,48734430,8030912,-11669920,3578125,-59814450
12.780,-21447980,20172220,48881170,32154720,9625244,40117190,-9086914
12.790,26490610,-11076170,17978050,80369520,14248050,44921880,-77685540
12.800,26257560,19749270,49183280,80412680,20761720,50820310,-5957031
12.810,-21863170,19507590,49304130,32516380,26894530,56523440,14941410
12.820,-21946030,19309060,49399070,32588890,32226560,621875,10830080
12.830,-21975380,19205480,49485390,32611330,40625,6828125,12324220
12.840,-26761810,19188210,49554440,27824890,49179690,6640625,10302730
12.850,2584326,19291800,49606240,8039543,54257810,6375,35717770
12.860,2584325,19481690,49640760,8032637,57226560,625,27905270
12.870,-27198350,19749270,49701180,27198460,67421870,7046875,54833980
12.880,-21840720,-11346340,18329360,32435240,8296875,8890625,39086910
12.890,-21765630,20465700,49744340,32354970,10078130,94140620,13759770
12.900,-21585230,-10835340,17908140,32172840,129140600,118984400,10791020
12.910,26317980,-10427070,17556830,79609940,1575,13875,7397461
12.920,-21032800,22502770,49468120,31637680,16640630,139921900,6341553
12.930,27103460,-9185831,16467510,79048870,1678125,150703100,5463867
12.940,2744011,35736860,38150280,7867773,17203120,16828120,12773440
12.950,2754369,-7485389,15008760,7824613,19046880,20359380,94189460
12.960,27276090,28061570,48725800,77840450,208125,24484380,55126950
12.970,-20198980,-5439683,13291050,30607050,23140620,261875,-40673830
12.980,-20516620,-80139920,88177730,30790040,25765620,28546880,-35644530
12.990,-21005180,33620370,48466850,31130140,26703120,2821875,-52890620
13.000,23219200,-2264092,10614370,76528420,29296880,27078120,-41054690
13.010,-22523490,-52664440,61101040,32356690,29828120,2503125,-29101560
13.020,20293070,-1100542,9533683,77072220,29328120,22984380,10498050
13.030,45651200,-5152508,5982353,51541450,2309375,159296900,58984380
13.040,18575370,-25057750,105453200,79376880,23078120,71992190,94140620
13.050,17979780,29330430,45955030,81664270,12234380,-1775,-4375
13.060,1551977,26602820,44539440,8384810,-118625,-4225,-86875
13.070,-29320070,25739660,46921780,39077320,6040625,-205625,3453125
13.080,12912980,22727200,45376710,84987460,29828120,47094730,110546900
13.100,14794680,18799780,42226150,87231700,-365,-3084375,-153125
13.110,48915700,-8820710,14502070,56079990,-4653125,-50875,106171900
13.120,50542770,16874920,37988000,57474000,-509375,-5171875,63359380
13.130,52401170,19196840,36322080,58861120,-4121875,-521875,41601560
13.140,5701843,-2964981,8756834,5759294,-3846875,-450625,6046875
13.150,32429200,-4756056,65851040,83787660,-4665625,-30421880,-23339840
13.160,34336800,14397630,50305390,81759220,-3496875,-1115625,-85703130
13.170,34423120,-3777225,10551360,80516260,-3225,-4453125,-106484400
13.180,-17503300,647376,69700770,28831520,-21390620,-122734400,23671880
13.190,3192857,-1012496,8309713,7926467,-121875,-8734375,54375
13.200,51972180,-3390525,10938060,56855980,-43984380,-47695310,78164060
13.210,28147890,28415470,49304120,78418760,-9580078,-50390620,88515620
13.220,49766780,-10164660,18147230,54866380,26875,-48632810,95625
13.230,-24913340,23573100,58272430,25944480,61953120,-17822270,90625
13.240,25938190,2242506,6126762,76036420,67851560,8730469,65273440
13.250,26240290,-16457160,24974890,75095570,5796875,15908200,490625
13.260,26982610,-17350530,25980480,74180610,59101560,32109380,38867190
13.270,-1757925,41319830,45704720,2771978,52734380,5328125,375
13.280,-16574540,2176907,6579063,26756460,42265620,71015620,38378900
13.290,3029718,2181224,6617905,7186732,43359380,74726560,1730957
13.300,31168980,-17252130,26078880,71323530,34863280,78945310,4177246
13.310,-14438200,-17072590,25913150,24715070,-32373050,67617180,-43725580
13.320,4958641,21561920,66791900,5344130,98779300,73515620,43432620
13.330,-13990220,4163919,4652474,24317150,24765620,6890625,20983890
13.340,32567310,17444610,70443090,70909200,32871090,51289060,-58154300
13.350,-14073940,14682480,72859970,24440590,4078125,47148440,-5595703
13.360,32619100,-27063750,35774840,71323530,36503900,58164060,11513670
13.370,32765840,43246070,43312360,71573840,26972660,703125,18359380
13.380,50466820,8778408,77141270,54356240,11054690,83046870,11083980
13.390,3317154,-34014410,34866350,7218668,25625,8484375,22304690
13.400,51004570,-29441780,37885280,54923340,28769530,67460940,33320310
13.410,33525430,-28184150,36553410,72920380,32304690,55390620,28066410
13.420,-14534010,3840231,4456534,25223480,2296875,5328125,15996090
13.430,33473640,11255700,70986890,73783550,1640625,42578120,18564450
13.440,-15107160,1057379,7099553,25858770,14375,440625,16298830
13.450,3288670,-27286450,35379510,7475029,18642580,43007810,91259770
13.470,-16683300,-31231130,39203340,27441820,11455080,38007810,2359375
13.480,31048130,2149280,77072220,76381690,11777340,43789060,17246090
13.490,3035762,-35941430,43815240,7688232,12773440,42734380,13115230
13.500,-18442430,-3090140,81327630,29152620,19941410,38574220,10244140
13.520,28942010,33922480,43331000,78090750,26484380,34238280,7163086
13.530,-19454070,33534060,43322380,30160800,23320310,25820310,9770508
13.540,-19607710,33231950,43331000,30317900,14755860,20878910,17861330
13.550,-19756180,-1341364,8982121,30462910,11699220,23691410,16386720
13.560,28165160,-4866283,5629836,78746770,71875,20644530,44799800
13.570,50753380,-15416180,91789220,55865060,60058590,15087890,-8190918
13.580,52843020,-1685768,9328249,53361100,14599610,57910160,-118637100
13.590,26568300,-18722110,95216000,79169710,20234380,-15026860,-45825200
13.600,2584327,-21018130,97581080,7934234,26992190,-89160160,-9404297
13.610,-21967610,-23668050,100282800,32429200,34296880,-18798830,-48901370
13.620,-22408690,-26490610,103157100,32816760,35703120,-23515620,-8154297
13.630,23806160,-29339070,106005600,79791190,31386720,-26582030,82421870
13.640,-23180360,-32187520,108854000,33495210,28808590,-28945310,9506836
13.650,-23493690,-34863340,111529900,33768840,3296875,-35976560,10117190
13.660,22364670,-71953650,79618570,80076040,33847660,-41757810,55566410
13.670,-23926140,3046980,4611042,34147770,39902340,-44609380,-7696533
13.680,-24080640,30159070,46283040,34286740,4328125,-48476560,-113464400
13.690,21674140,-4491064,12116280,80300470,44609380,-509375,2800293
13.700,48036140,-4745698,12345020,53921210,38046880,-49296880,6699219
13.710,21458340,-5001196,12572900,80516260,30644530,-46640620,14541020
13.720,-24506180,28691690,46749150,34707100,29746090,-44101560,18964840
13.730,2136340,-5501830,13021740,8068026,35078120,-38515620,1890625
13.740,21397930,28009780,46913150,80749310,34433590,-36367190,13007810
13.750,2151013,2768178,4693041,8082700,36347660,-33828120,11113280
13.760,2166551,2736241,4690452,8091332,36914060,-32148440,12998050
13.770,48491020,-9531011,10270050,54398540,33183590,-27089840,14326170
13.780,22200670,35759300,37765300,81034160,26972660,-18935550,15107420
13.790,-28726040,26395660,46783680,29762190,20878910,-8095703,15488280
13.800,-23835500,26059020,46775040,34238400,17480470,9008789,13701170
13.810,49351600,-6895847,14148180,55108920,18398440,8852539,13730470
13.820,2393564,2547207,4675778,8097374,190625,19189450,1296875
13.830,-22974930,25273540,46680090,33510750,16513670,2671875,12255860
13.840,-22694400,25169960,46559250,33273380,91308590,29238280,81396480
13.850,-22433720,-7081428,14238810,33050680,-13952640,36464840,18859860
13.860,-22203250,25126800,46360720,32849560,-30737300,48320310,-21569820
13.880,-21828640,-6974394,14121420,32516380,-134375,59335940,-8100586
13.890,-21667230,-6945910,14098120,32367050,-17158200,61445310,-10507810
13.900,2663737,25282180,46326200,8042996,-19140620,59921880,-14208980
13.910,-21428990,25342600,46386620,32139180,-15527340,51679690,-16796880
13.920,-21361670,-6945046,14133500,32068400,-13046880,43984380,-20742190
13.930,2682725,-6953677,14159400,8015373,-16416020,37890620,-21328120
13.940,-21276210,2555837,4672326,31963950,-175,36035160,-22226560
13.950,26801350,-6990796,14243120,79937940,-13339840,34042970,-25585940
13.960,5331521,-7014963,14288010,5332050,-92333980,28222660,-29238280
13.970,50640310,25800070,47154830,55926340,-5073242,21015620,-27734380
13.980,2694810,-7034816,14354470,7956677,-60253900,19101560,-29355470
13.990,27094830,-7039997,14383820,79402780,-91308590,15380860,-28730470
14.000,2725021,-7036542,14404540,7923014,-9848633,8671875,-34023440
14.020,-20400960,26343870,47767680,31043820,-6142578,-9169922,-38730470
14.030,27560940,26481970,47854000,78815820,-13300780,-13544920,-40625
14.040,-2020847,2662872,4796622,3083925,-15195310,-13017580,-36875
14.050,5057817,-6908793,14394180,5566049,-15488280,-12119140,-32890620
14.060,-19964200,-10596660,10671790,30582890,-14160160,-15800780,-27949220
14.070,50566940,27103460,48337380,55585390,-12158200,-18476560,-28027340
14.080,-19561100,2731061,4847549,30174610,-9243164,-23027340,-30859380
14.090,-19310780,-6732707,14345840,29924290,-61035160,-27421880,-32558590
14.100,28717580,-6655888,14301820,77434750,-9760742,-30839840,-33027340
14.110,-18798920,-6588559,14265570,29417610,-1484375,-33339840,-29941410
14.120,29235480,28130620,48898430,76985900,-20429690,-36210940,-24238280
14.130,-18337990,-6494474,14221550,28963580,-21699220,-4078125,-19345700
14.140,-18111840,-6465126,14216370,28740890,-18017580,-41757810,-17373050
14.150,52930460,-6445274,14218950,53394500,-16015630,-39335940,-17871090
14.160,30202230,2863987,4928685,76174530,-15283200,-37109380,-17441410
14.170,-17455830,28700320,49364540,28102140,-1515625,-34902340,-18525390
14.180,53048810,28726210,49407700,53500590,-14589840,-31621090,-15517580
14.190,51090880,28700320,49433600,55579350,-1828125,-29960940,-11884770
14.200,31056770,37991450,40073410,75734310,-21503910,-2546875,-63623050
14.210,51228990,28501780,49442220,55682930,-25410160,-22675780,-5984497
14.220,-16838670,-6658475,14437340,27545400,-21621090,-10878910,24987790
14.230,31514250,-6738751,14495170,75742940,-14443360,6376953,21923830
14.240,51574260,-6770688,14497760,55976410,-82128900,22070310,10902410
14.250,-16511530,2786304,4902792,27302850,-12939450,40625,20654300
14.260,3233428,27733570,48708540,7601054,-19111330,553125,11416020
14.270,32532780,36918530,38988400,76226320,-25390620,62148440,21660160
14.290,3256732,-9603774,10352660,7681327,-275,71015620,35761720
14.300,-21903480,-6057710,13501670,22998490,-24765620,70,34726560
14.310,-17427350,27431460,46628300,28372320,-18603520,68242190,30
14.320,-17988410,27405560,46291670,28916110,-15986330,64921880,25898440
14.330,-18641830,2737966,4598957,29540180,-13789060,59882810,21972660
14.340,54053880,27336510,45721970,54549850,-10898440,50820310,23710940
14.350,-20133380,-5461262,12734310,30948870,-60546880,3890625,24511720
14.360,-20880880,27207040,45212710,31651490,13049320,23984380,23710940
14.370,-26394370,-5303302,12512480,27467280,10263670,9819336,20449220
14.380,2598134,-5191090,12365740,8099963,14648440,-39916990,17324220
14.390,2538578,27060300,44323650,8138808,17626950,-17412110,15595700
14.400,50494440,-49105600,120075200,56175800,17236330,-30117190,11376950
14.410,24600270,26982610,43538160,82069960,17490230,-43632810,82470700
14.420,24332690,26896290,43106580,82406590,11279300,-54648440,86865230
14.430,-2396412,-7636875,8331724,3464495,35009770,-61796880,8378906
14.440,-24219610,-4492788,11389500,34907350,28027340,-66601560,99072260
14.450,-24449220,-4561842,11406760,35143860,39453120,-75703130,10332030
14.460,-24645150,25869130,42079420,35344980,87060540,-840625,9140625
14.470,2338323,25437540,42027620,8368410,13916020,-93671870,11894530
14.480,-24887710,-5201448,11906530,35603070,18945310,-1003125,12255860
14.490,2331416,3335190,3335368,8390851,24257810,-10296880,93408200
14.500,-2493258,24082370,42347000,3566177,21796880,-10453130,7885742
14.510,50635990,23668050,42554150,56690250,14873050,-10328130,73046870
14.520,23435000,-6456496,13068350,83891250,13046880,-100625,11396480
14.530,-24821240,32041640,34059720,35548690,10693360,-9546875,7338867
14.540,-24803120,-7127176,13744220,35515020,13642580,-88828130,4794922
14.550,23314160,22381930,43943850,83597770,1921875,-81640620,40795900
14.560,-24775500,-7831520,14489990,35439060,27890620,-63632810,-328125
14.570,2314153,-8231165,14918990,8321797,40820310,-30917970,-93310540
14.580,23141520,21544660,45540710,83010810,42890620,2097168,-1421875
14.590,-24509640,-9074480,15784740,35117970,26054690,29238280,-13681640
14.600,-24358580,20577910,46317570,34975550,12294920,41210940,4647827
14.610,23711210,20008220,46559250,82665550,2364502,4625,12636720
14.620,-23928730,19473050,46731880,34594020,13066410,4890625,16054690
14.630,-23741420,18981050,46826830,34436070,28730470,553125,13740230
14.640,2465208,18532200,46861360,8257061,38027340,73359380,86865230
14.650,2483335,32311470,32598730,8263104,43515620,1021875,6640625
14.660,2491103,17643140,46680100,8277777,47304690,1225,20839840
14.670,-23657690,-11458550,17820090,34450740,4640625,13109380,39257810
14.680,24833330,16685020,46153560,83304300,44492190,12859380,52421880
14.690,24764280,-11675210,17879650,83597760,565625,11984380,64140620
14.700,-24158330,29156930,32110690,35020430,89296870,11296880,5734375
14.710,24772910,15519750,44988280,84176100,109140600,12015630,51875
14.720,-24283490,15226270,44470380,35223280,131015600,126328100,59882810
14.730,-24281760,15045010,43823010,35276790,136015600,125625,83046870
14.740,25592920,15070900,43227420,84927050,15265630,1346875,103515600
14.750,26119450,15433430,42795840,84918410,19140620,158828100,119765600
14.760,26775450,16279330,42467840,84728510,24296880,1865625,123984400
14.770,-22807470,17608620,42295210,33988940,30953120,22484380,89765620
14.780,28087470,1936081,4209666,83830820,3515625,24171880,50390620
14.790,28346420,21372020,41811830,83399240,3396875,250625,6801758
14.800,-21993500,23434990,41423400,33111100,3275,250,-28789060
14.810,2718116,25351230,40922770,8311440,29328120,23046880,-37832030
14.820,-23164820,33029100,34401540,34080440,27796880,23796880,-44023440
14.830,2466072,27845780,40085500,8351147,285,22953120,-434375
14.840,2351270,28001150,39533070,8405526,28390620,1815625,-80078130
14.850,2252869,27086200,38721690,8498748,293125,840625,-91640620
14.860,50832800,24824700,37495990,57304830,195,-17539060,-6064453
14.870,-27989930,21087180,36399770,38905550,52929690,-71328130,9859375
14.880,2075918,-7217806,12358830,8955362,-33203120,-16828120,91875
14.890,2075919,9270419,34146900,9100374,-17734380,-2296875,51484380
14.900,53061490,14376050,17423030,60237860,-273125,-758125,130625
14.910,51818530,215790,25575650,59685440,275,580,265625
14.920,21907190,-19543840,22526940,90304580,27167970,69179690,-1390
14.930,2622304,-5101321,31807720,9077068,125546900,-18484380,-4065625
14.940,33318260,-1674548,35217230,87248960,-16984380,-6371875,3634375
14.950,58808460,2995189,35484810,63692260,-1234375,3515625,871875
14.960,-23822470,-11411940,15587940,25050070,-4265625,-220625,-3275
14.970,-19404000,10099060,34941020,31522880,-4946875,-153203100,-3109375
14.980,31669610,-9349834,14042010,87102220,-3271875,-151640600,-66679690
14.990,54609150,13404990,35519340,60727280,-285,-9953125,-67070310
15.000,-28038270,15079530,35830080,39167950,-18203120,-129375,46992190
15.010,5028555,-6875129,12183610,5745501,-1590625,-118671900,32382810
15.020,1523496,-59265080,114749500,8967444,-103515600,-70898440,105859400
15.030,-32884960,-5019321,10828440,43142840,-47226560,-13681640,1653125
15.040,46510920,23132880,37599570,54186200,2052002,27714840,141953100
15.050,1134204,24885120,38298740,8802582,32558590,809375,95546870
15.060,45400020,26274820,39101480,53018340,65234380,130390600,77304690
15.070,45076340,27276090,39878330,52634230,8015625,15171880,66914060
15.080,1110898,27983890,40620660,8606644,67773440,154140600,4359375
15.090,1122985,-30003700,99816670,8553125,59609380,15625,20664060
15.100,1131618,-32152980,103019000,8504787,68984380,1575,26523440
15.110,44241650,-34535340,106506200,51569930,8046875,1603125,29179690
15.120,11014020,2918366,4371943,84141560,88515620,12765630,28554690
15.130,-31805130,-3742696,11121050,41253360,859375,884375,19130860
15.140,-31782680,-71971770,79427810,41172220,80859380,63476560,1875
15.150,1038391,-3940360,11458550,8313166,834375,35175780,24042970
15.160,10547910,-4026680,11596650,82864080,71601560,40185550,23691410
15.170,43187720,-40965930,117166300,50345100,628125,-17832030,6347656
15.180,11652760,30331700,46334820,82225330,52773440,-29003910,-16435550
15.190,-30014920,-42977110,119988900,39452800,55390620,-33632810,-25117190
15.200,-2941329,-4471207,12187920,3891504,540625,-39257810,-20722660
15.210,14242260,-4693045,12414940,81448480,50507810,-46757810,-15517580
15.220,-28247150,-4903657,12618650,37888740,5359375,-5421875,-1484375
15.230,-27699900,29520330,47439680,37417440,49101560,-70351560,-27910160
15.240,-27178550,-5374945,13045050,36972050,48320310,-753125,-35253900
15.250,-26681370,28674420,47646840,36554280,40429690,-69882820,-40234380
15.260,-26202310,36947880,38907270,36152910,22226560,-64101560,-44882810
15.270,-25767270,27457360,47828110,35793830,10722660,-559375,-38203120
15.280,-25341730,26715030,47983480,35442520,80126950,-55,-28867190
15.290,20905920,-7447412,14856840,80826990,8598633,-5078125,-30351560
15.300,-24336140,25092280,48449590,34583670,14541020,-46171880,-40039060
15.310,22718570,24280900,48725800,80533530,16220700,-38085940,-43789060
15.320,49203130,-9099513,16346660,54860330,6508789,-30019530,-44921880
15.330,-22331010,-12838150,13557510,32825390,-5732422,-125,-45195310
15.340,26110820,-13246260,13960780,79748050,-9506836,13359380,-43007810
15.350,-20703930,2154465,4945950,31379590,-165625,28808590,-35449220
15.360,28553580,21018120,49588960,79048870,-20234380,35097660,-25175780
15.370,2969299,20534760,49744340,7865183,-10927730,49804690,-21425780
15.380,30685610,-11423160,18425170,78263390,40185550,73632820,-19892580
15.390,3147111,33383000,36429980,7792678,75341800,94140620,-13945310
15.400,32014880,19334950,50288130,77693700,3463745,1075,-16210940
15.410,3232564,19076000,50374460,7757287,-3947754,1146875,15507810
15.420,-17084670,18946530,50452140,28076250,-24597170,115625,27832030
15.430,3223932,33155130,36312590,7753834,28173830,1125,3359375
15.440,-17391100,19067370,50607500,28339520,3684082,11078130,30683590
15.450,54294270,33414070,36554270,54758310,32666020,104453100,21679690
15.460,30642450,19568000,50745610,77892230,8730469,97890620,10361330
15.470,29848330,-11917760,18983640,78099390,12324220,85859380,34960940
15.480,28950640,33955280,37014340,78358340,10585940,7296875,12841800
15.490,2801844,20491600,50771510,7861730,9135742,65507810,15405270
15.500,2704306,20759180,50728350,7891942,578125,57382810,55859380
15.510,49975670,21009490,50650660,55296230,10966800,4578125,6201172
15.520,2500599,21277080,50572980,7955816,19667970,30585940,42871100
15.530,-22759140,-10863830,18069550,33139590,24667970,17695310,13879400
15.540,2285668,-10689470,17915900,8013646,26386720,7348633,40016180
15.550,-24250690,-10549630,17796790,34461960,28398440,-43676760,-18463140
15.560,-25022360,-10463320,17727730,35140410,33105470,-15351560,-16711430
15.570,1933498,22330140,50452140,8091333,38886720,-25605470,-27856440
15.580,18238730,-10407210,17697520,81111840,46640620,-33300780,75927740
15.590,17246090,-10412390,17709610,81293110,46992190,-38535160,-11955260
15.600,-27629990,-10429650,17726870,37418310,51601560,-45429690,6010742
15.610,1578734,-10433110,17723420,8161248,46445310,-5171875,64404300
15.620,1535576,-10449510,17724280,8176785,4390625,-5703125,11132810
15.630,-28535450,-10452100,17704430,38239180,40742190,-61015620,16523440
15.640,-28598460,-10439150,17665590,38314280,39941410,-65078120,19814450
15.650,-28549260,21976240,49994660,38294420,384375,-67382820,20
15.660,1561471,-10366640,17530930,8225122,359375,-69726560,17988280
15.670,-28246290,-10358010,17487770,38079500,31972660,-71289060,14853520
15.680,16434710,-13568130,14277650,82397960,296875,-69335940,12705080
15.690,-27807800,2133748,4925235,37741130,271875,-653125,11591800
15.700,-27548850,-10514240,17538700,37533970,25449220,-60078120,12705080
15.710,46965810,20845490,49071060,53420570,27265620,-53359380,13349610
15.720,-31493090,33372640,36215920,32502140,29394530,-46210940,11230470
15.730,18989690,-10862970,17794200,82397960,28085940,-42148440,90771490
15.740,-26328330,20085910,49019280,36510260,28554690,-38007810,96777340
15.750,1993917,1988737,4907970,8222533,27910160,-328125,109375
15.760,48132800,19749270,49183280,54307900,25644530,-21582030,10361330
15.770,-25473790,19671590,49312760,35742040,2703125,-5830078,97558590
15.780,2116489,19671580,49433600,8175924,25800780,81640620,9433594
15.790,-24799660,33130090,36113200,35121420,22910160,15976560,11513670
15.800,2220932,19809690,49606230,8135355,22382810,22597660,16328130
15.810,2279627,19956430,49632130,8112912,19833980,33535160,19599610
15.820,23383210,33432190,36380780,80904690,15478520,46367190,17050780
15.830,49478490,-11103790,18105800,55154680,14121090,58984380,10732420
15.840,-22804880,-10931150,17950430,33301000,17001950,69648440,56591800
15.850,24859220,20914540,49416330,80412680,128125,78984380,49951170
15.860,25230390,21225280,49226440,80334990,734375,86171870,50097660
15.870,-22087590,21596450,48958860,32671750,-52825930,88671870,3828125
15.880,-2727554,22036660,48639480,2727663,-8652344,8703125,-3994751
15.890,-21950350,-9371412,16454560,32567310,-17880860,79179690,-81640620
15.900,25739650,-9000251,16100660,80412670,-16845700,70820310,-165625
15.910,-22191170,-8626497,15749350,32792600,-15058590,59101560,-22871090
15.920,2518723,-826138,1540668,8060258,-17412110,46015620,-31699220
15.940,-22929180,34828810,37073040,33452920,-23007810,25839840,-39824220
15.950,24108270,-7339516,14550410,80887420,-22578120,17675780,-42539060
15.960,23875210,25532490,46835460,80930580,-21875,6958008,-43984380
15.980,-23334860,26551030,46507460,33789550,-22226560,-17001950,-49335940
15.990,-23305520,-5961036,13304860,33749850,-26191410,-26875,-5671875
16.000,23685320,27612720,46205350,80654370,-28691410,-378125,-5921875
16.010,-23228700,28122000,46058610,33654040,-33144530,-47460940,-5875
16.020,-23182090,-4930414,12384730,33597070,-39101560,-54882810,-57539060
16.030,-23107860,-7989652,8738535,33515930,-41875,-59335940,-55625
16.040,-23006860,-4334829,11858200,33409760,-41640620,-63203120,-5140625
16.050,-22868750,-74857340,82411780,33271650,-3734375,-6703125,-45625
16.060,24134160,-3865268,11447330,79929300,-31347660,-69648440,-40859380
16.070,24393110,30573390,45506190,79773940,-29941410,-73710940,-36894530
16.080,24703860,-69466000,77099840,79584030,-271875,-75664060,-32050780
16.090,-21942580,31056760,45506190,32385180,-25683590,-75117180,-28632810
16.100,-21639610,-3325786,11002800,32101200,-27832030,-71992190,-26367190
16.110,25834600,-3283493,10976040,78971180,-30976560,-68710940,-23632810
16.120,2625756,-3286079,10990710,7877266,-34453120,-64492190,-18720700
16.130,-20664230,-6770169,7541150,31194870,-3578125,-60078120,-128125
16.140,-20330180,-3334417,11045960,30890180,-34335940,-55195310,-8569336
16.150,27664520,31307080,45773770,78246130,-3234375,-475,-8510742
16.160,-19702660,-69087920,76787380,30326520,-33847660,-34882810,-74316410
16.170,5078619,-3548482,11228950,5574594,-33925780,-18476560,-39697260
16.180,-19319410,30780550,45765140,30001980,-30058590,7800293,22631840
16.190,51082250,-72147860,79769620,56002300,-25859380,27558590,94189460
16.200,2907148,-3891160,11473220,7827202,-2578125,56367190,15654300
16.210,-19281430,-3983519,11518970,30039950,-25898440,79023440,20625
16.220,2915782,29598010,45204080,7870362,-24316410,90859380,22558590
16.230,-19546430,2924410,4488471,30361920,-24726560,915625,23261720
16.240,28976540,-4125081,11463730,79437300,-20,90703130,26210940
16.250,28657160,28605360,44004270,79929300,-21816410,90859380,28125
16.260,28147890,-3958489,11146940,80455840,-32714840,9421875,26933590
16.270,27457360,28216940,42994360,81025520,-38828120,94140620,22636720
16.280,-22132470,34524970,35978550,32954870,-40742190,90234380,18134770
16.290,25472070,-3727160,10705000,82320280,-34023440,8109375,10117190
16.300,2422912,-3799664,10701550,8301081,-20878910,67382820,16674810
16.310,22856680,26758190,41483830,83692720,-5727539,48789060,-5859375
16.320,-26164330,26197130,41268040,36743320,10361330,29570310,-11328130
16.330,-27221710,25558390,41095400,37723010,21308590,50390620,-11513670
16.340,48803490,-4744834,11327340,55484400,32089840,-175,-9140625
16.350,48440090,-5046942,11543140,55278100,30039060,-40546880,-3630371
16.360,-29654120,23521310,40594760,39986240,27988280,-60546880,28735350
16.370,-30146120,22839410,40378970,40460980,24394530,-74921870,-11328130
16.380,48029220,-5879899,12108510,55153810,26445310,-89765620,-36157230
16.390,15908170,-6142303,12277690,87516540,28847660,-102734400,-40844730
16.400,-30674380,20793700,39645280,41054840,26757810,-1121875,-38232420
16.410,4852469,-6695590,12656620,5569415,24511720,-114921900,-34033200
16.420,1654692,-7041720,12931970,8806897,23359380,-11734380,-30664060
16.430,1683178,18791150,39507180,8812941,24902340,-11921880,-2265625
16.440,17151140,-7908344,13688110,88120770,28867190,-11734380,23596190
16.450,17453250,-11261510,11318960,88060340,29042970,-1078125,-46923830
16.460,-29847470,16788600,40387600,40414360,30644530,-102734400,18908690
16.470,1788484,-9456864,15160670,8783591,28339840,-9140625,45874020
16.480,4933953,15726910,41293930,5631219,3109375,-82109380,46777340
16.490,17936620,2856618,2859272,87507910,31972660,-76796870,46655270
16.510,-29497890,28798370,29085640,39952570,30644530,-53867190,-17074580
16.520,-34188680,-12067950,17918490,35227240,35820310,-34492190,3491211
16.530,16866290,13983310,45316290,86195900,45,-16416020,6455078
16.540,-29402940,-13310040,19334950,39633200,55742190,-29345700,12011720
16.550,16607340,13707090,47560520,85073790,65039060,18056640,14902340
16.560,-28762470,1366392,4855318,38892600,63945310,45898440,16513670
16.570,47241150,13629410,49416340,53904800,58242190,68554690,13994140
16.580,-27652430,-15057960,21436770,37775660,59882810,8015625,20546880
16.590,-26976570,13707100,50736980,37122240,59179690,94765620,26640620
16.600,19481690,13853830,51263510,82251220,58828120,11125,30800780
16.610,20232650,14130050,51729620,81724700,6671875,125,35175780
16.620,20923180,31463310,35225000,81206790,746875,134765600,33808590
16.630,21561930,31917340,35668660,80688900,77617180,137890600,24453120
16.640,-28490480,-15230590,22075510,29514370,80625,139140600,21230470
16.650,22865310,16201650,53093420,79748040,94765620,148125,16689450
16.660,23555840,33232810,36856380,79350980,98828130,1503125,1203125
16.670,2421186,-14149900,21239960,7898844,108671900,17421880,3942871
16.680,2479019,18678940,52981220,7870362,109765600,180625,-4008789
16.690,25213120,-12940610,20187760,78436020,984375,16453130,-6430664
16.700,2529081,-12302730,19634470,7827202,106328100,1659375,46844480
16.710,-21485100,21725920,52385630,31806860,11046880,15421880,1734375
16.720,-21902010,-10971720,18479550,32149540,137890600,157890600,27324220
16.730,22960250,-10416710,18033290,78306550,2034375,18734380,11855470
16.740,-23670640,-10027420,17749310,33626410,29578120,20515620,-3330078
16.750,1898106,-9693370,17513670,7859140,3721875,23734380,5161133
16.760,16650510,26033130,52739530,78919400,37875,29703120,16201170
16.770,14449420,-9064988,16916360,79601300,3684375,325,65078120
16.780,-29307130,-8901848,16613390,38641420,321875,2765625,859375
16.790,-3034636,24479430,50098240,3972557,31328120,18375,834375
16.800,1228288,-12722230,13431750,8339060,3565625,9234375,128046900
16.810,14138690,19602530,46447040,84987470,355,-91308590,129921900
16.820,1703895,15804600,43667640,8669654,2309375,-1328125,106796900
16.830,-28624360,10470220,40284020,39496820,-7203125,-26515620,90859380
16.840,-27879450,18370790,21714710,39154140,-29765620,-516875,-105546900
16.850,-29153480,1294749,33698060,40469610,-3340625,-653125,1015625
16.860,2785443,-5541534,41725510,8611821,-22078120,54375,-1241875
16.880,36788200,-21330600,24330960,84365980,-57304690,-1189375,3503125
16.890,-21380910,-4324470,38385060,22606100,-109140600,68625,3840625
16.900,3678821,-2770766,36865880,8510831,-26265620,63945310,-4028125
16.910,-21309880,15756260,19478240,33276830,-3528125,-26515620,-455625
16.920,2755232,-1009904,36468820,8873361,-30453120,-2590625,-126171900
16.930,22192030,-16430400,20012540,90365000,-19578120,-12578130,-1028125
16.940,-37153140,1130746,35484810,38235900,-215625,-22421880,43710940
16.950,1251595,3513089,35312180,9246250,-23578120,-215,-65234380
16.960,10383900,6352908,35441660,92522920,-14921880,-86484380,97802740
16.970,-36613840,-10958780,15436890,46750880,-110,-5078125,37167970
16.980,49987200,-9651076,14431290,50071170,-69609380,-39160160,53828120
16.990,-37209420,14138680,36494720,47087510,-47421880,-18847660,31777340
17.000,649966,15908170,37228410,9100376,-31523440,-11308590,28378910
17.010,43867900,17228820,38082940,52340740,-12861330,-35327150,25253910
17.020,43186000,18307780,39041060,51676110,46445310,21113280,16513670
17.030,42481650,-7415474,13335070,50999380,79726560,40429690,-12294920
17.040,327142,19930540,40698350,8888036,77929690,39609380,-15449220
17.060,210615,20862760,41751410,8821572,41601560,49389650,20800780
17.070,40702660,20974960,42277940,49291180,22167970,86328130,16386720
17.090,41009090,-11004350,11645160,49450860,53320310,-18920900,-21105960
17.100,3927408,20560640,43797110,87223070,87890620,-13222660,-42578120
17.110,4980476,20379380,44133750,87050430,12203130,-11582030,-59414060
17.130,43303380,19896010,44254590,51230710,840625,-23710940,-43969730
17.140,9166840,19671580,44220070,86817380,58632810,-5151367,-10078130
17.150,4490286,19404000,44125120,5251426,30566410,65722660,-15410160
17.160,12058450,19050100,44030170,86705170,25273440,-1262207,-7416992
17.170,49654740,18635780,44012900,50386360,36503900,-18444820,-24335940
17.180,4704006,18238730,44012910,5420952,59296880,-11254880,-43320310
17.190,1595999,17893460,44012910,8632538,6859375,-1574707,-49492190
17.200,1694399,-10207820,16360470,8620452,63125,-17443850,-50585940
17.210,-33653520,17021660,44107860,34692080,47617190,14091800,-42070310
17.220,1835096,16503760,44176910,8604053,26054690,34960940,-29609380
17.230,-28418930,-11143490,17168400,38890870,96435540,53046880,-20683590
17.240,-33053010,-11498250,17486910,34101410,15400390,62226560,-25039060
17.250,-28317070,-11878050,17832180,38802830,28320310,67382820,-31074220
17.260,-33044380,14363100,44815660,34092780,40429690,72421870,-38261720
17.270,49052940,13819310,44979650,55770110,44296880,6640625,-403125
17.280,49041720,13327300,45126390,55764070,47890620,55585940,-33632810
17.290,18808420,12982040,45212710,86014640,40195310,57734380,-25820310
17.300,-28334330,12809400,45247240,38820090,20136720,67617180,-18945310
17.310,1890339,12818040,45238610,8600601,86865230,803125,-11708980
17.320,18920630,13007930,45169550,86006000,703125,83671870,-11220700
17.330,-28332610,13361830,45040080,38821820,17480470,75585940,-14941410
17.340,18713470,13793410,44850180,86092320,28339840,65976560,-29511720
17.350,-33364960,14259530,44660280,34410950,36640620,5984375,-3453125
17.360,-28960130,-11949690,17864120,39385470,37324220,52304690,-33105470
17.370,-29334740,-11673480,17605160,39718650,3953125,5140625,-28222660
17.380,1671956,-11425750,17369520,8661885,28925780,45820310,-28222660
17.390,-30286820,15537010,43987020,40561970,28339840,36699220,-20625
17.400,47476800,15735540,43892060,54653180,35761720,27597660,-13876950
17.410,1442355,15951330,43848900,8705045,36953120,17773440,-8930664
17.420,13724360,16218910,43805740,87145380,38222660,96728510,-32617190
17.430,1308564,16538290,43745320,8721444,396875,1932373,25952150
17.440,1254185,16892190,43667640,8725760,39882810,-7504883,33569340
17.450,-32668300,17271980,43598590,42599900,38476560,-17041020,-28686520
17.460,11566440,17625880,43538160,87318020,39648440,-21210940,-36914060
17.470,11169380,-9676110,15821860,87318020,4046875,-23886720,-5131836
17.480,45264500,18307780,43408690,52912160,415625,-28730470,-5180664
17.490,1061698,18635780,43339640,8731803,39550780,-340625,-93933100
17.500,1049614,18946520,43287850,8730076,34179690,-37382810,7392578
17.510,-33506430,19240000,43236060,43280940,2796875,-31523440,12626950
17.520,1055656,19524850,43141110,8724033,26503910,-33457030,16943360
17.530,-33352790,-11347120,11975670,43141110,30136720,-39667970,1640625
17.540,-37670780,19982320,43063420,38650480,37539060,-43828120,13583980
17.550,45202350,-8302811,14622920,52818940,36484380,-47851560,11347660
17.560,1102267,20249910,43123850,8701592,3375,-4671875,14101560
17.570,45276590,20353490,43227420,52848290,38574220,-39394530,19628910
17.580,1150604,30759840,33045500,8680876,371875,-33945310,1859375
17.590,45558840,20646960,43417320,53032140,31132810,-34921880,23242190
17.600,1247279,20845490,43495010,8649802,31816410,-33183590,25234380
17.610,1310290,21087180,43546800,8631676,35859380,-34980470,2375
17.620,46351230,21354760,43555430,53586300,37128900,-39941410,171875
17.630,4664644,2165687,4358132,5379174,33339840,-41210940,7739258
17.640,-3022379,21933080,43633110,4031425,31367190,-37421880,46875
17.650,-29743890,22252450,43676270,39879200,35019530,-26875,62841800
17.660,47464720,-10514760,10581050,54337250,2375,-25527340,52685550
17.670,1720295,23003410,43736700,8501338,20097660,-24394530,6508789
17.680,1785032,23417730,43788480,8472853,21289060,-22167970,1550293
17.690,48153520,-6619634,13388590,54753300,22910160,-22167970,-47729490
17.700,48306300,2424635,4396110,54824940,2640625,-17324220,-96484380
17.710,-27038720,24712480,44064700,37370840,31542970,-40625,-17099610
17.720,48529000,33760200,35655720,54895720,30761720,734375,-21445310
17.730,-26296400,-5775455,12782650,36645780,25351560,18154300,-18701170
17.740,-25887250,-5550168,12628140,36243540,15205080,27421880,-2171875
17.750,-25423730,26835880,44668920,35792100,15498050,40507810,-30742190
17.760,-29613890,27327880,44815660,30652460,15224610,50546880,-39609380
17.770,-24445770,-4936456,12206050,34853840,10966800,53398440,-46640620
17.780,-24010720,-80242630,87557110,34442970,6425781,53710940,-47617190
17.790,23417740,-44893340,118417900,81111840,-13049320,57929690,-43515620
17.800,-23327960,-75287190,82672460,33796450,-1328125,60351560,-41601560
17.810,24013320,-72507800,79927580,80740680,-25449220,54882810,-37871100
17.820,-22980970,-3643431,11099470,33452920,-27871090,5234375,-40351560
17.830,24134160,-3400020,10894040,80447200,-21972660,46054690,-47929690
17.840,24004690,3071147,4460848,80334990,-13798830,38359380,-575
17.850,-23041390,-63886480,71458180,33444290,-78515620,2984375,-68320310
17.860,23512680,-2800119,10406350,80188260,-81933590,22832030,-7109375
17.870,23245100,-60744550,68385300,80127840,-9658203,14785160,-66757810
17.880,23029310,-2489379,10164660,80050140,-72021490,7885742,-59257810
17.890,-23359030,-57947020,65658560,33644540,-1046875,17834470,-54414060
17.900,22908470,-2166554,9917793,79756670,-10039060,-42358400,-6140625
