Timestamp,Rotation X,Rotation Y,Rotation Z,Rotation W,Acceleration X,Acceleration Y,Acceleration Z
0.000,14985450,76528420,28812530,-7197950,-32409670,6777344,36621100
0.010,15549100,29339060,-18842950,-7773685,4714966,7363281,2614746
0.020,40023350,29578160,-19121750,37575400,11730960,7675781,28222660
0.030,51539730,76701060,27483250,25886400,6210327,7368164,30639650
0.040,17274570,30057220,-19678490,-9552674,-9942627,73876950,40673830
0.050,52506470,30296310,-19957300,24505330,-22338870,70996100,5888672
0.060,18408770,76882320,26128080,-10731760,-21228030,6977539,66015620
0.070,18957750,26123330,-25097030,-11304900,-16320800,69677740,6533203
0.080,53801220,76977270,25290810,22468250,-16088870,59033200,67529300
0.090,19984050,77020430,24885120,-12384720,-12988280,46313480,6582031
0.100,20478650,31370960,-21213200,-12908670,-1361084,29418940,61376950
0.110,54888820,5062742,5062210,20500220,-23937990,38482660,6435547
0.120,21422090,77193060,23728470,-13915980,-43676760,-15783690,80566410
0.130,5548440,31963090,-21898560,1924865,-51220700,-20495600,8979492
0.140,22261950,77296650,23089730,-14819720,-44360350,14930730,82177740
0.150,22642610,7734845,2279625,-15233180,-36132810,35131840,6376953
0.160,22987880,77400220,22537300,-15612970,-2998047,71435540,47875980
0.170,38675940,77460640,22304240,34745080,-2697754,10429690,43164060
0.180,56520210,77512430,22079820,16555560,-2565918,13447270,453125
0.190,5666694,3282626,-2288257,1608081,-23474120,16279300,5292969
0.200,24215300,32947100,-23020680,-16975050,-25317380,17080080,70947260
0.210,5692591,49844210,49281940,1516587,-21789550,15478520,10107420
0.220,5703809,33191380,-23294300,1476018,-111816400,11865230,13154300
0.230,5714170,77771380,21061290,1439767,10614010,71435540,15087890
0.240,37814500,77814540,20897280,33500400,39697260,2692871,15703130
0.250,37720420,52150850,46440140,33370060,6503906,-19543460,15058590
0.260,25452220,77883590,20586540,-18362150,7998047,-6254883,13671880
0.270,22045300,52058490,46308070,-22045290,82666020,-8979492,12421880
0.280,5742652,33769700,-23941670,1311153,7324219,-10126950,11181640
0.290,37401040,78064860,20111800,32947110,5493164,-10361330,10205080
0.300,37314730,51947140,46125940,32843520,32104490,-10087890,9667969
0.310,37228410,29725330,-28745640,32739940,-29087070,-9848633,10390630
0.320,37148140,78306540,19593900,32647590,-2084961,-94384770,10585940
0.330,57366110,78384240,19464430,12274250,-3388672,-83984380,9794922
0.340,2603746,78470550,19360850,-1908892,-4440918,-73095700,8642578
0.350,57236630,51878090,45953310,12127510,-52001950,-5942383,7128906
0.360,25991700,51892760,45955900,-19065640,-5883789,-4711914,609375
0.370,57072630,78677710,19222740,12101610,-67626950,-4260254,57177740
0.380,56977680,34652720,-24854040,12127500,-74853520,-40795900,63623050
0.390,56874100,78789930,19283160,12196560,-71240230,-35375980,7270508
0.400,56761890,52071440,46122490,12291510,-63378900,-31762700,8027344
0.410,56641050,7888487,1944714,12429610,-5698242,-28100590,88671870
0.420,56520200,78910770,19576630,12602250,-4399414,-18273930,92529300
0.430,25245920,78936660,19723380,-18326770,-3774414,11558530,8803711
0.440,56235350,34471460,-24586460,13059730,-3203125,17053220,8955078
0.450,5608863,78971190,20085910,1334460,-3137207,3083496,93847660
0.460,55941880,34310040,-24385340,13646680,-27783200,4814453,10019530
0.470,55777880,7897982,2047431,13983310,-2709961,5649414,10800780
0.480,55613880,78979820,20664230,14354480,-22265620,6044922,11435550
0.490,23854490,34054540,-24071150,-16835210,-66101070,58447260,11728520
0.500,55268610,33968230,-23967570,15183120,12963870,53759770,10742190
0.510,19723380,29382480,-28380690,-19723370,3071289,4345703,9213867
0.520,3744161,33811130,-23779400,3356256,45117190,29223630,765625
0.530,22614990,50256440,50198980,-15485220,51416020,15441900,5644531
0.540,54509020,78945300,21630970,17099360,5473633,56243900,31762700
0.550,21946890,29108680,-28102060,-14754980,56103520,-8018494,6072998
0.560,37923260,78936660,21812240,34323860,59277340,-24276730,-17126460
0.570,21271900,78928030,21872660,-14014380,6269531,-27496340,-43041990
0.590,53550900,78910770,21941720,19697480,6455078,3253174,-91845700
0.600,20243000,53281600,47588140,-12885360,625,657959,-11220700
0.610,19906370,78884880,21967610,-12514200,6176758,11657720,-13369140
0.620,52981220,33483130,-23399610,21302980,60302740,2277832,-15400390
0.630,52799950,7884170,2197622,21846770,64160160,39648440,-17509770
0.640,18856750,33454650,-23376300,-11354100,72753900,5395508,-18974610
0.650,39168810,78764030,21984870,36220230,81689460,72216800,-20019530
0.660,18168810,78720870,21976250,-10591930,91796870,921875,-19482420
0.670,17824410,33387320,-23322780,-10211270,11162110,10214840,-18027340
0.680,39613340,33367460,-23308110,36880550,12607420,10888670,-16738280
0.690,51729620,33338980,-23284810,25126810,13515630,10732420,-14179690
0.700,5154835,33301860,-23252870,2567062,13798830,10039060,-11142580
0.710,16445930,50510060,49945370,-8689504,14111330,78027340,-81396480
0.720,16092900,78392860,22010770,-8300216,13388670,4958496,-5234375
0.730,40328050,7832380,2202802,37961240,11523440,30639650,-30810550
0.740,50788770,33111100,-23081100,27863050,8925781,58166500,-22375490
0.750,50590250,78168450,22062560,28406850,7060547,-21875,-19628910
0.760,50391720,3301010,-2299222,28950640,6767578,-3984375,-31762700
0.770,14324260,32964370,-22951620,-6357227,73095700,-49780270,-4099121
0.780,49968760,7795264,2212296,30012330,81347660,-6357422,-47827150
0.790,10008510,32872870,-22870480,-9205594,89990230,-6176758,-5551758
0.800,4953718,7781455,2215751,3104814,82958980,-6308594,-56103520
0.810,49304130,77754120,22183410,31557410,79833980,-8129883,-65625
0.820,12549590,52739530,47198000,-4437542,9604492,-9394531,-8383789
0.830,48786220,32602700,-22605500,32593200,12539060,-80615230,-10859380
0.840,48484120,7751242,2256317,33119730,15380860,-6875,-10683590
0.850,48147480,7742611,2277034,33646260,18662110,-72509770,-95214850
0.860,109000800,77339810,23046570,-27034400,22792970,-7963867,-8730469
0.870,10449510,77227590,23400470,-2239053,25898440,-8276367,-50683590
0.880,47016730,31667020,-21573150,35243130,25019530,-7788086,-74401860
0.890,95397260,31356280,-21227880,-13016570,17900390,-29858400,48876950
0.910,4806030,7664064,2547207,-3981015,8203125,38110350,8120117
0.920,4510049,30342060,-20084180,3736653,11523440,67333980,49536130
0.930,37867160,76416220,26663240,-29632530,1328125,79296870,5703125
0.940,70330890,76373060,27224300,11808140,10234380,89941410,12001950
0.950,6597188,29470260,-19057010,1590819,50390620,6484375,19072270
0.960,24795350,29154340,-18682400,-16636690,42163090,31689450,21171880
0.970,5702084,7620905,2916643,2422048,2939453,17419430,19365230
0.980,52489210,76148630,29951910,28320530,3713379,-85754390,121875
0.990,11870280,7609685,3079782,-3839368,68115230,-22131350,63623050
1.000,44554980,56079990,51643310,-36582760,4260254,-4255371,28915400
1.010,11719220,27114680,-16250850,-3817789,-5810547,-11494140,-111328100
1.020,-17665580,75915580,33723950,25492790,-32202150,-11728520,-13017580
1.030,33447740,21002070,-19894800,43978380,-6323242,-18359380,-12666020
1.040,3005548,25300300,-14111920,4645569,-72314460,-24003910,-21269530
1.050,2657692,24544170,-13228040,4884666,9552002,-28984380,-32207030
1.060,-9754653,75276830,39248230,17176170,10859380,-3125,-38183590
1.070,21484240,22888610,-11292820,51349830,14150390,-25449220,-465625
1.080,18834310,74802090,42640470,52497850,13554690,-20585940,-46875
1.090,15882280,20890380,-8992479,53861650,17021480,-23945310,-43710940
1.110,9253158,73317450,48768960,57072630,42539060,-52001950,-42109380
1.120,6068068,62884340,60703980,58376020,53671880,-8660889,-41445310
1.130,2839824,15797690,-3295574,59636240,56601560,9399414,-36699220
1.140,27181140,88146660,-75509890,33275110,55859380,48510740,-33125
1.160,24807430,60475240,-47593330,31522880,484375,13549810,-24921880
1.170,-7336920,46633480,-33641090,61543840,50117190,86865230,-22421880
1.180,-8942414,32614780,-19520530,60974140,4203125,14375,-21484380
1.190,-10194010,77581490,54275970,60067820,30234380,14472660,-2109375
1.200,-32485300,36986720,95682110,37258620,17841800,21074220,-15615230
1.210,-11635490,49424970,83951660,57245260,64453120,42695310,-85058590
1.220,-32003660,3625302,9771056,36359200,11767580,44492190,28564450
1.230,-12861190,-36608660,50053350,54465860,-61340330,3390625,13867190
1.240,16572820,1244687,12241440,23167410,-48168940,22421880,20800780
1.250,-12964770,60965510,74206500,50909620,-12167970,12041020,18339840
1.260,15088170,-936538,14479630,21164870,-19335940,12783200,13808590
1.270,-11670020,-1963709,15524070,46334830,-225,17568360,10820310
1.280,13836570,-2915780,16488220,19343580,-21035160,16103520,98828130
1.290,-9969581,57366110,78444660,41820460,-21386720,12841800,87890620
1.300,-22722880,56641050,79221510,25787130,-25625,81347660,6020508
1.310,-7828930,-5178143,18766120,37401050,-29335940,18762210,36767580
1.320,-6939861,55337660,80524900,35527980,-31289060,-48999020,-14611820
1.330,-6421967,6788348,6791002,34146900,-23769530,-12480470,-28442380
1.340,-5429318,53930700,81759220,32377410,-16494140,-13613280,-5488281
1.350,-15693240,66339600,69246740,18315550,-11777340,-13330080,-8642578
1.360,-1726334,-8304536,21854540,27276090,-10214840,-12265630,-13330080
1.370,-10405480,52135320,83261140,12900040,-12138670,-13935550,-13808590
1.380,3668463,66044390,69248470,20759180,-15585940,-15957030,-14042970
1.390,-38928860,-9702868,23218340,62924900,-13085940,-15576170,-14775390
1.400,4039625,-16199760,17550090,19576640,-14052730,-153125,-15898440
1.410,54802500,-10484030,23973610,-31514240,-12607420,-10205080,-17617190
1.420,11250530,-16839710,18187630,-8947595,-10800780,-93896480,-18554690
1.430,17974600,-11021780,24488920,-15688930,-11992190,-10849610,-22988280
1.440,11620820,4926097,8525505,11132270,-15458980,-11972660,-29121090
1.450,14656590,48907060,85401780,8061985,-16230470,-10576170,-32773440
1.460,54086070,-17844690,19185190,-31367500,-19501950,-32543940,-37324220
1.470,16633240,6499996,6875646,5981751,-29414060,13798830,-446875
1.480,7567392,64844590,68635620,-5311066,-32109380,23144530,-575
1.490,19058740,64706480,68497510,3452674,-2875,2546875,-80
1.520,24677960,64034080,67702540,-2166547,-105,96972660,-74257810
1.530,27060300,-11585430,24667600,-4255417,-114296900,51708980,-44414060
1.540,29598010,63026760,66620990,-6119854,-95625,7167969,-2668457
1.550,32291100,-11242760,24078060,-7863459,-51210940,7939453,38222660
1.560,35087760,-10656660,23352130,-9779688,9638672,87353520,60742190
1.570,26213530,-9700276,22254180,-23643020,57539060,15146480,43632810
1.580,4026677,-14002130,15241980,-1514860,1709375,4875,53554690
1.590,43218790,-6370174,18558100,-18929260,1178125,16875,1046875
1.600,11650000,-3677957,15656990,10964990,156171900,15484380,30898440
1.610,13702790,52213000,65108720,6219124,133984400,1640625,-21113280
1.620,12279420,56937110,57536150,4207081,69375,16546880,-56210940
1.630,49183280,12551320,-1431997,-36909040,-16865230,15671880,-66953120
1.640,55989350,8431417,2302929,46900200,-95875,-5928125,-95625
1.660,74657940,69502240,41362980,66038350,111625,-421875,4546875
1.670,53758060,861443,10269960,-28898850,65375,720625,-2403125
1.680,17506770,49243700,63071640,9510381,655625,915,-3328125
1.690,5312799,-45238610,56442520,-2852771,4046875,31703120,22953120
1.700,50616140,-2199954,3341578,-29485800,-1203125,-18046880,378125
1.710,47819480,-12457230,24141070,-29088740,-47558590,20429690,-15585940
1.720,46283040,51815940,66317160,-29054210,-94453130,32929690,-121015600
1.740,11148670,1982609,-779527,3922233,-15171880,-92578130,25917970
1.750,10972580,23163960,-11017470,3942950,-12703130,-94296870,-5625
1.760,41967200,22432000,-10195740,-26689140,-121953100,-113359400,-50546880
1.770,41492460,17986680,-5664107,-25472070,-121796900,-67070310,-34199220
1.780,41000460,6262281,6151793,-24047840,-91953130,-25371090,-41953120
1.790,40508450,-6696453,19198570,-22554560,-50117190,-23496090,-50585940
1.800,40059600,53749440,72048580,-21087180,-26171880,-221875,-46601560
1.810,12978590,-11370500,24019360,7046898,-13886720,-99365230,-31269530
1.820,39282760,37047140,90045620,-18204200,-2536621,61376950,-16132810
1.830,38877060,-28403390,41167910,-16797240,1234375,23828120,-34106440
1.840,38410950,-35627230,48445270,-15450700,2046875,34609380,75390620
1.850,37884420,1661598,11208230,-14181840,23398440,34667970,1515625
1.860,25256970,59429080,69804350,-25013900,21015620,2546875,20683590
1.870,36641460,990917,11987670,-11816760,16445310,15087890,21210940
1.880,14980270,64567520,65718980,10310540,8730469,82666020,17539060
1.900,15289290,59411820,71755110,10951010,-58251950,6386719,9165039
1.910,34259120,59463600,72100380,-7518186,-8173828,48461910,5917969
1.920,15621600,192486,13001890,11602700,-5185547,52441410,79345700
1.930,15758850,176086,13054540,11897040,-14904790,79296870,11113280
1.940,32558680,229603,13039010,-4505734,-31054690,70947260,11064450
1.950,19202890,6020594,7282543,-16359610,-70458980,4182129,8852539
1.960,31462460,60525300,72834060,-2649920,-9511719,14477540,5078125
1.970,16253450,-52876770,66240330,12973400,-11035160,16711430,-2064209
1.980,17304780,987464,12398540,-14338940,-85595700,-122924800,-60009770
1.990,16818820,-47505290,60908550,-13806360,-10019530,-20776370,-4099121
2.000,16367390,16167130,118020900,-13308320,-11591800,9802246,-10345460
2.010,29882860,62476060,71884590,1191174,-10898440,46142580,60009770
2.020,29623910,-35655720,49107320,1933492,-65722660,2010498,9580078
2.030,29373590,-30037360,43504500,2632659,-5966797,3125,9995117
2.040,29149160,3710757,9770191,3288668,-7661133,70251460,85791020
2.050,17705290,-16042830,29532410,15198650,-9296875,-28881840,81396480
2.060,28890220,53145220,81802380,4497104,-10507810,-22253420,3725586
2.070,28890220,15675120,119255200,4997738,-15527340,-17858890,1784668
2.080,28976530,49901440,-36415310,5498377,-21679690,-6166992,57910160
2.090,13247890,8126722,5347322,-9729624,-1859375,-10371090,7138672
2.100,29244110,24064590,-22719090,6784496,-11777340,-11689450,3095703
2.110,12862930,70417200,63874390,-9165110,-83154300,-79052740,26016240
2.120,29865600,67391800,66554520,8182829,-8227539,6248474,-85876460
2.130,30323070,57775250,-44423780,8951049,-12490230,-9869385,-6435547
2.140,30823710,72523330,60490780,9779689,-98046870,-43164060,-11845700
2.150,12477090,73144810,59282340,-8273457,-5644531,-15759280,-17382810
2.160,32049400,85482060,-72304940,11471500,-60253900,14416500,-23300780
2.170,12484850,15485220,-2382343,-7989478,-10722660,39819340,-240625
2.180,12511610,16490820,-3465618,-7876403,-11777340,-31201170,-20625
2.190,33991540,17486050,-4541989,13776150,-5654297,-7114258,-18154300
2.200,34725230,7623495,5227341,14630690,39794920,-103125,-16689450
2.210,35458920,65058650,62482960,15554280,16662600,-11083980,-16992190
2.220,36166720,64651240,61923630,16538290,10634770,-10390630,-15380860
2.230,36900410,77098110,48475480,17548200,23417970,71240230,-33535160
2.240,12407170,21261540,-8811214,-6789675,2984375,11425780,-4625
2.250,12522830,21997820,-9663160,-6743064,26679690,51708980,-47148440
2.260,39403600,77745490,44392700,19930540,14638670,-3684082,-38867190
2.270,31354560,23527350,-11430930,29395170,67089840,-15205080,-33027340
2.280,40905500,78056240,41751410,21328870,8671875,-23476560,-35839840
2.290,12975130,77987180,40732870,-6601500,16152340,-115625,-45
2.300,42372890,7779727,3988695,22899830,11220700,39916990,-36855470
2.310,43028900,77495180,39308650,23693950,-1607666,16503910,-49101560
2.320,34956550,25040490,-13439520,33043770,-17797850,153125,-57109380
2.330,44142380,25149240,-13624240,24962800,-30737300,23327640,-57460940
2.340,13259980,25415960,-13979000,-6247605,-11738280,-35253900,-46640620
2.350,13510300,25737930,-14399360,-6394344,-35859380,-19130860,-11875
2.360,46317560,26021910,-14788650,25998600,-48984380,-19033200,10117190
2.370,13898720,26221300,-15089890,-6541082,-57539060,-9355469,39277340
2.380,13890090,26242880,-15206420,-6394344,-65195310,-74121100,71679690
2.390,48130220,75337260,34181430,28363680,-62109380,-11114500,88671870
2.400,48527280,7462945,3409509,29606640,-53671880,17333980,88515620
2.410,12873280,73895760,34051960,-4890704,-38769530,27773440,91328130
2.420,12268200,24958490,-14246580,-4114719,-18886720,32753910,9140625
2.430,49096960,72445640,33758480,34146900,-32836910,3171875,89296870
2.440,72003700,7176377,3343908,-63513580,4753418,34179690,840625
2.450,10417570,24274860,-13859880,-1770355,9916992,35703120,70703130
2.460,9860826,70572570,32506890,-1066872,17197270,38242190,51015620
2.470,49537180,24150560,-13949650,39748860,16494140,38828120,29609380
2.500,39249950,68621810,30504340,-29976080,18271480,28964840,-30546880
2.510,49925610,6818158,3009863,43779860,25234380,24609380,-4390625
2.520,31660980,50644620,46841510,-22200660,23691410,16660160,-4921875
2.530,70512140,23784580,-14108480,24936900,225,55029300,-49101560
2.540,18607730,23597270,-13985040,-17645300,28535160,-35913090,-49023440
2.550,61604260,23371980,-13813270,35363970,37539060,-12353520,-46796880
2.560,56917260,6593735,2918367,40689710,42304690,-19882810,-41171880
2.570,39433800,4918761,4555365,-29619590,4171875,-22851560,-33886720
2.580,4928081,22710800,-13266020,4929291,46367190,-27148440,-28417970
2.590,45557980,22569240,-13148630,53326480,46679690,-28320310,-21054690
2.600,-1088452,48804350,45246370,10995890,4125,-26816410,-13232420
2.610,42338360,64746180,29200950,56839580,32441410,-23515620,-47338870
2.620,41820460,64746180,29200950,57357480,2515625,-18378910,7879639
2.630,41526990,22482060,-13080440,57581900,2078125,-14208980,39501950
2.640,-3165235,6486703,2928728,13062310,16982420,-12167970,5151367
2.650,-3088412,64970610,29373590,12966500,13300780,-1125,49658200
2.660,41501090,6509143,2951168,57038110,12763670,-9692383,20800780
2.670,-2337458,22526940,-13035560,12163760,14453130,-828125,-22436520
2.680,-1405238,18257550,-17304950,11197010,14570310,-70703130,-5439453
2.690,43848900,6561797,3003821,53689020,13613280,-5625,-7597656
2.700,-27081880,65842410,30245390,36792520,11689450,-4416504,-92626950
2.710,36227140,66092730,30461180,60395830,9892578,-41015620,-10078130
2.720,13437790,22659870,-12954420,-3825557,7368164,-3803711,-10507810
2.730,35853390,50582470,47024500,-26294670,66845700,-34594730,-10888670
2.740,54854640,66835060,31341610,-53904460,63183590,-23400880,-11494140
2.750,12403720,22625350,-12747260,-2960664,61865230,-15771480,-11083980
2.760,14616880,22570970,-12629000,-5235973,5991211,-15148930,-10078130
2.770,58678120,22500180,-12492630,34509440,66064450,-15759280,-9526367
2.780,18955160,67750020,32998890,-9701999,7080078,-7299805,-9946289
2.790,47595060,67957170,33482260,44263230,71240230,23406980,-96435540
2.800,23634390,68155700,33974270,-14517610,7739258,2848816,-8881836
2.810,26275680,22110900,-11828850,-17227960,67578130,-23754880,-62939450
2.820,6965761,22023720,-11674340,2011181,4260254,-39916990,-48657230
2.830,7248882,68811700,35355340,1655559,28564450,-4794922,-47680660
2.840,75397680,69027500,35795550,12904360,16296390,-42797850,-44335940
2.850,78470550,21769940,-11220320,9071889,19946290,-20703120,-35058590
2.860,42403960,69459080,36693250,-33727400,26220700,6750488,-27246090
2.870,47137580,16822010,-15753930,38833900,35498050,-33111570,-6518555
2.880,43030620,69933820,37495990,42129480,33203120,-16381840,1171875
2.890,90857010,2156883,-1076546,-6508280,2421875,-2890625,-68969730
2.900,47025360,21546380,-10684290,36511980,904541,-22839360,-18188480
2.910,97900450,21548980,-10629910,-15174480,-7513428,-9552002,-34106440
2.920,47016730,21567100,-10594520,34880600,-2602539,5303955,-44726560
2.930,68790990,16640660,-15538230,-60684120,-36938480,16882320,-4975586
2.940,10900080,71470260,39274120,-2876071,-8466797,5703125,-5107422
2.950,76822770,16671480,-15559200,-68879900,-9819336,9941406,-75927740
2.960,46947680,21734560,-10565170,31635090,-8642578,11025390,-7807617
2.970,46930410,21807920,-10595380,30840970,-13203130,13671880,-6147461
2.980,87921370,21888200,-10635950,-80223640,-18505860,1765625,-6142578
2.990,12554770,72782280,40120020,-4932999,-19228520,13476560,-35253900
3.000,4680957,22072050,-10745570,2866580,-20214840,93115230,-16555790
3.010,13112380,73248380,40344440,-5635617,-22734380,58154300,46850580
3.020,46740520,73412390,40473920,27440100,-26855470,5966797,7368164
3.030,46688730,17022780,-15881160,26956720,-25703120,84350580,10478520
3.040,37592670,22113480,-10669610,35586670,-22675780,-29174800,10488280
3.050,46550620,22047880,-10579840,26231660,-21464840,-62158200,11074220
3.060,46516090,1625046,-1613559,25972710,-20683590,-87646480,11386720
3.070,13971230,21809650,-10300180,-6744791,-21074220,-6098633,8847656
3.080,14021290,21688810,-10162070,-6815570,-20976560,-87158200,9692383
3.090,46421140,7349870,4192402,25480700,-20351560,-10126950,93115230
3.100,14095520,7341240,4213120,-6913971,-20390620,-10224610,88720700
3.110,14118830,16072090,-14915620,-6942456,-20605470,-10644530,9746094
3.120,14127460,21125160,-9551812,-6951086,-20820310,-99072260,10283200
3.130,14113650,20963750,-9385219,-6930371,-20175780,-94873050,10185550
3.140,46464300,59401460,56401090,25506600,-19658200,-94873050,10195310
3.150,14026470,72721860,43080690,-6810389,-18896480,-10068360,95996100
3.160,46541990,20410460,-8833658,25877760,-17216800,-8730469,8066406
3.170,13857290,72264380,43434580,-6582513,-15771480,-89160160,7319336
3.180,46662830,7199679,4361583,26464710,-14570310,-6948242,5439453
3.190,13631140,19749270,-8200091,-6273501,-13115230,-6020508,3569336
3.200,4683549,71409840,43926590,2724160,-12226560,-4482422,1772461
3.210,13363560,14084300,-12932840,-5902339,-11435550,-17956540,-6652832
3.220,47051260,70745200,44194170,28165160,-10332030,3378296,-16259770
3.230,13045050,70399940,44297760,-5461258,-9609375,20605470,-27197270
3.240,47292940,70037410,44384070,29200960,-8876953,22680660,-36376950
3.250,3858449,69657620,44470390,3858273,-8535156,1763916,-40600580
3.260,47569160,18051420,-6669696,30323070,-8588867,22790530,-46142580
3.270,87831600,68863500,44608490,-79968140,-7573242,25170900,-43725580
3.280,121102400,17540430,-6231211,-41690980,-64990230,6958008,-3605957
3.290,82732870,17262490,-5991248,-74708870,-4650879,12451170,-37353520
3.300,116329100,16956060,-5727985,-35243130,-28271480,2397461,-4169922
3.310,11349790,16648770,-5465577,-3151424,-80322260,3149414,-4350586
3.320,48354640,16331990,-5195407,34543960,9863281,38305660,-51904300
3.330,69447860,65902840,44962390,-61063050,28955080,62060550,-6689453
3.340,10370090,6533315,4497965,-1886884,31298830,78515620,-7314453
3.350,61259860,10423350,-9325923,-52678250,40893560,77441410,-7319336
3.370,48682650,63546390,44988290,39153280,57128900,10244140,-6298828
3.380,47082340,54846520,53049410,-38198610,8574219,10722660,-5371094
3.390,41867070,92282960,-81558960,-32883220,12207030,97802740,-37280270
3.400,77512430,137528500,-30961820,13292790,13583980,9838867,-22924800
3.410,31345920,87122940,-76533600,-22170450,12861330,5131836,8404541
3.420,67819070,60551190,44668910,24833330,11240230,58447260,20043940
3.430,62907640,12935430,-2480746,30625180,103125,72216800,29638670
3.440,15508530,59437710,44453120,-6070654,9765625,7763672,4194336
3.450,59139050,78184850,-67863090,-49620040,8618164,76464850,56933590
3.460,47986070,12249210,-1993056,47980890,8076172,8847656,6904297
3.470,-43502780,57927160,43978380,53171980,75341800,91503900,8544922
3.480,-4970119,11907390,-1782441,14710100,5546875,8027344,10263670
3.490,34276380,72529370,-62470020,63796710,52685550,9609375,10673830
3.500,47405160,11687290,-1691810,51306680,29882810,81591800,11298830
3.510,25567030,11621680,-1688357,73731770,-48828120,65722660,11396480
3.520,-23750920,11556950,-1684039,33736040,-6921387,60058590,109375
3.530,46852730,11493940,-1677999,53533650,10656740,8276367,9291992
3.540,12369190,11456820,-1697851,88500560,35961910,7753906,73828130
3.550,8105140,11438690,-1733240,93213460,7524414,61621100,55322260
3.570,45989560,11467180,-1860127,56088620,9790039,40161130,-74401860
3.580,-53522340,54543540,41095400,54546230,12236330,27416990,-41210940
3.590,45601130,72779680,-63255500,57064000,13740230,1529541,-72216800
3.600,45428500,11632910,-2143246,57461050,15068360,4272461,-10029300
3.610,45255870,11714040,-2252006,57823590,16367190,-15075680,-12714840
3.620,-1374166,75412350,-65974480,11694200,17587890,-39941410,-14423830
3.630,-62421680,11856470,-2437582,72750340,18007810,-53271480,-15986330
3.640,-1798839,54241440,39826540,12132680,18408200,-6982422,-16806640
3.650,-1997370,11958320,-2560154,12331210,18339840,-87109380,-17275390
3.660,-21717300,77722180,-68325750,125021200,17958980,-10087890,-17490230
3.670,4410785,120282400,-26283450,5910976,17333980,-11142580,-17363280
3.680,50774960,78246130,-68837600,52304500,16259770,-12294920,-16464840
3.690,43684910,54491760,39748860,59221920,15341800,-13027340,-15966800
3.700,-73500430,12110240,-2667184,83768670,14013670,-12958980,-15009770
3.710,43270590,54742080,39947390,59152870,12070310,-12851560,-13789060
3.720,43063430,54888820,40094130,59066550,1046875,-12070310,-12353520
3.730,42856260,55070080,40275390,58928440,93115230,-10722660,-11572270
3.740,-2990875,12166350,-2593818,13133090,8310547,-89990230,-11142580
3.750,42450570,121534000,-25377130,58574550,7470703,-6948242,-10771480
3.760,49482790,77942290,-68278270,51093470,66845700,-50390620,-10800780
3.770,-3012453,55829670,41311200,13025200,6376953,-33935550,-10634770
3.780,4184636,12091250,-2323647,5778044,59375,-18640140,-10439450
3.790,-29416750,56261250,41984460,128542900,5180664,-9466553,-9873047
3.800,41483820,120101100,-21285720,57107160,45947260,-57556150,-9741211
3.810,-2814789,11962640,-2020675,12618650,42797850,-60699460,-9458008
3.820,-75557700,11906530,-1904144,76532390,40820310,-770874,-92529300
3.830,40974560,11859920,-1795390,55924620,3942871,-1451416,-9169922
3.840,-68553620,118133100,-16866290,78184850,43603520,-19433590,-9091797
3.850,4068108,7181725,-6162843,5504420,45507810,-26245120,-9536133
3.860,-65332280,11737350,-1486371,74846110,51708980,-2902832,-93847660
3.870,40456660,7075640,-6044504,54077440,5996094,-3371582,-98876950
3.880,-1906739,70442230,-60068680,11299730,66503900,-27441410,-10361330
3.890,-1703893,117166400,-12826670,11036460,7006836,-20092770,-10898440
3.900,40240860,70243700,-59749320,52480580,7504883,-11608890,-11347660
3.910,-1247280,70532000,-59978910,10457280,81640620,11932370,-11757810
3.920,40189070,11865960,-1254184,51306670,78222660,12011720,-12216800
3.940,40214970,12051540,-1327553,50072340,73339840,34545900,-12929690
3.950,40249500,73232850,-62457070,49450870,7211914,43920900,-12744140
3.960,-42022180,7446716,-6363959,42913490,6245117,39624020,-12421880
3.970,40378980,124727700,-15968600,48164750,55566410,38110350,-11855470
3.980,-30904840,55339390,53903080,39702250,51123050,3371582,-11357420
3.990,-31154910,128301200,-18609890,32028960,52685550,34570310,-10751950
4.000,40655190,13032960,-2020677,46196720,48168940,35961910,-10410160
4.010,-19508450,5605064,5450386,28138400,42333980,41333010,-10185550
4.020,-15480040,6344280,4750875,24053020,34472660,36791990,-10263670
4.030,-11364460,63891660,47439680,19882200,1973877,3322754,-10322270
4.040,-7076247,14086890,-2917506,15538740,57495120,3713379,-10351560
4.050,35035970,14389000,-3185090,49019280,-8532715,42211910,-9741211
4.060,1671958,65272720,47094420,6678330,-15881350,5493164,-9350586
4.070,22273170,15042420,-3774632,-13979860,-18981930,6958008,-89501950
4.080,47577790,66230840,46723260,34802910,-19580080,8232422,-8930664
4.090,4102463,6672284,4649020,4080366,-2722168,9663086,-8598633
4.100,56433890,6722347,4623123,24841960,-46069340,10742190,-8125
4.110,24667600,57912490,55732130,-16591800,-6455078,11757810,-63623050
4.120,29561760,17006130,-5626126,-21537750,-7265625,11845700,-45629880
4.140,75035140,69208770,44798390,4255421,-90771490,7314453,-39031980
4.160,49149620,18823960,-7416337,-41310330,-12246090,-54779050,38891600
4.170,8905301,58387240,55671710,-1107441,-12783200,-3815918,53027340
4.180,44280490,19727690,-8325252,33318260,-13144530,-6616211,5673828
4.190,63420360,71444380,42511000,-55696740,-17294920,-9980469,5698242
4.200,44858810,20564960,-9179788,32049410,-23886720,-12900390,5107422
4.210,71850060,20913690,-9538867,-64185130,-30644530,-14628910,49536130
4.220,10962230,72316170,41328460,-3314560,-3234375,-14824220,49853520
4.240,4579103,16432210,-15297830,3049571,-17626950,-7548828,18151860
4.250,82533480,72678700,40620650,-74908260,-10214840,-2980957,-5496216
4.260,11916890,21868350,-10552220,-4293394,-5859375,-3046875,-1270752
4.270,12166340,22057380,-10760250,-4544576,-5786133,-3840332,-17956540
4.280,12443420,22254180,-10977760,-4819926,-7885742,-56591800,-140625
4.290,12730860,22440630,-11188380,-5102182,-91748050,-54296880,-59448240
4.300,9583146,73127540,39136010,-8819583,-8442383,-3017578,13511660
4.310,4770726,22751370,-11550910,2875212,-6591797,-13000490,15039060
4.320,10119520,73162070,38583580,-9353538,-37402340,15220640,20910640
4.330,13833120,17967440,-16852740,-6157836,-15991210,9613037,24230960
4.340,4872580,23098360,-11980760,2819969,66589360,17138670,21606440
4.350,10924770,55432630,55432600,-10153780,18798830,21166990,21411130
4.360,14696290,73093020,37426940,-6969210,30200200,16564940,23010250
4.370,49865180,73110280,37047140,27560940,34423830,10095220,24865720
4.380,15375600,73144810,36615560,-7619176,29101560,13664250,31079100
4.390,15762300,23998640,-13065770,-7992067,15649410,-109802200,3942871
4.400,16164540,24277450,-13391180,-8383944,-24902340,-17590330,51171880
4.410,16575400,7335197,3502733,-8784454,-13659670,-20336910,61279300
4.420,17002670,7343829,3442311,-9203090,-101989700,-12841800,6352539
4.430,52575530,73533230,33793010,25489340,-5407715,-22830960,6542969
4.440,53050270,25597230,-14919850,25066380,-19332890,8660889,6748047
4.450,40511900,55169340,51034780,37622020,-29846190,113708500,7553711
4.460,53982490,7391302,3170412,24134160,-20828250,20581060,8334961
4.470,54439970,74059770,30935930,23624900,36010740,23474120,92333980
4.480,19807970,27246740,-16809320,-12008390,4849243,22460940,10996090
4.490,55337660,7437050,2936493,22554570,11047360,2631836,11503910
4.500,55743350,2812458,-1781321,22028030,-21447750,-77697750,15849610
4.510,56140410,28525960,-18274980,21527400,-7607422,-37402340,225
4.520,18100110,74741670,27215670,-17324280,-26586910,25097660,20429690
4.530,21921860,53155580,48335650,-14175800,9741211,11621090,17958980
4.540,40458380,29501340,-19388470,36795100,26757810,18828120,16748050
4.550,22343950,29869050,-19780350,-14651400,4203125,20527340,14267580
4.560,22450980,30249700,-20176540,-14803320,48945310,1828125,12978520
4.570,5671872,30625180,-20560650,1927454,4421875,14042970,128125
4.580,39609890,7626946,2434131,35848210,33027340,9355469,10146480
4.590,56364830,7660610,2398740,18558100,22597660,64453120,14355470
4.600,5620083,7694275,2361626,1811789,14101560,28149410,-7050781
4.610,22915370,32041640,-21992640,-15547370,43115230,19873050,-9628906
4.620,5595914,32392950,-22349130,1706484,-26611330,-5545044,-10576170
4.630,5584692,32733900,-22698710,1653830,-71533200,-3786621,-11884770
4.640,23441040,78185710,22097090,-16264660,-97802740,-65478520,-12050780
4.650,5562253,52941510,47272230,1555430,-12158200,-9868164,-87646480
4.660,55536190,33612600,-23598140,15139960,-12822270,-13271480,-48779300
4.670,5544987,33825800,-23816520,1479470,-11367190,-14746090,-21252440
4.680,23926140,79014340,21026760,-16936200,-95751950,-13945310,57922360
4.690,35025180,34124460,-24122080,34615170,-6035156,-13447270,16088870
4.700,36780430,79221510,20767810,32670030,-24450680,-12734380,14770510
4.710,5524271,34294500,-24297300,1406964,-13175960,-11318360,81970220
4.720,36674260,79316460,20621070,32551780,-23590090,-11230470,1628418
4.730,55242720,7934235,2056063,13931520,11956790,-9472656,-1973877
4.740,55277240,34434340,-24450950,13845210,4159546,-8925781,-11682130
4.750,24248100,52799090,46896750,-17339310,-103271500,-84765620,-36590580
4.760,55423980,34566400,-24612360,13646680,-15551760,-7758789,15881350
4.770,55527560,52643720,46706850,13525840,-960083,-54541020,32470700
4.780,24572650,34736450,-24822110,-17670760,3475952,-31103520,4375
4.790,36617290,52457280,46478980,32367060,13415530,-2578125,58984380
4.800,36603480,79368250,19343580,32329080,10864260,-36669920,93603520
4.810,55950520,79376870,19110530,12947520,-10559080,-46875,146875
4.820,56054090,35142140,-25314110,12826670,-83618160,-39379880,16416020
4.830,36603480,5207747,4601286,32260020,14001470,-122680700,14794920
4.840,56218100,35322540,-25530770,12593620,19628910,-3945923,15888670
4.850,56278520,35426120,-25651610,12481400,14648440,-12365720,18759770
4.860,56321680,7942866,1814376,12369190,1505127,-1763916,20957030
4.870,56373460,79454560,17979770,12265610,9436035,-14428710,21445310
4.880,34295860,79471820,17841670,34291440,1789856,-20214840,20800780
4.890,25559250,30888990,-30879270,-18703970,-19067380,-29614260,21503910
4.900,5639937,79514980,17677670,1215343,-421875,-5239258,23398440
4.910,25510910,35761890,-26040900,-18648730,-4020996,-42138670,20976560
4.920,56347570,35697150,-25967530,12360560,-19140620,-29492190,1640625
4.930,56304420,79463190,17971140,12507300,42816160,-16540530,121875
4.940,5623538,51867730,45739240,1267995,23657230,-25732420,10371090
4.950,25099180,35402820,-25623130,-18197290,45336910,-6744385,6899414
4.960,56071360,52048990,45972300,13051100,65625,42877200,4309082
4.970,55967780,79385510,18860210,13206470,9003906,11299130,35742190
4.980,36729500,79376870,19093260,32479270,10820310,21118160,37426760
4.990,36726910,30523070,-29536120,32499120,11357420,-13427730,5024414
5.000,24507050,7936825,1953347,-17580990,10634770,-1427002,6479492
5.010,55587980,79350980,19757900,13689840,8701172,-17456060,6870117
5.020,24319740,34632870,-24701260,-17388510,69873050,-27661130,7060547
5.030,55423980,7930782,2023262,13940150,56152340,-24597170,7290039
5.040,36769210,52821530,46943360,32646720,50146480,-23120120,671875
5.050,20821750,34245310,-24242920,-20126900,58691410,-20812990,5756836
5.060,55087340,7923877,2102673,14449420,6455078,-9161377,45898440
5.070,54949240,7922150,2130295,14622060,5957031,-13244630,43823240
5.080,54819760,33860330,-23781990,14803320,5131836,-10736080,47924800
5.090,54681660,79195620,21846760,14993220,3413086,-16003420,66259770
5.100,36839980,7916970,2213160,32903940,23693850,-20300290,76220700
5.110,54405440,33433930,-23276170,15407540,24963380,-1932373,7944336
5.120,36889190,53744260,48109500,33027380,2166748,-21618650,8022461
5.130,22611540,79048880,23098360,-15609520,15551760,-30078120,8642578
5.140,36968600,53997160,48443540,33189650,99243170,-34033200,9067383
5.150,53818490,32689010,-22415600,16495130,19256590,-3828125,89941410
5.160,53654490,32471500,-22167010,16814510,-15655520,-36645510,859375
5.170,21693990,78755400,24600270,-14628100,8404541,-31689450,7890625
5.180,53335120,32010560,-21643920,17530930,1430664,-17480470,6464844
5.190,21179540,7855688,2540301,-14072220,993042,-119140600,54833980
5.200,5299847,31547910,-21122570,1828190,3164673,-12030030,5498047
5.210,20649560,78349710,26179870,-13497350,-39863580,-9454346,49780270
5.220,20368160,31074030,-20595180,-13191790,-4815674,-2885437,38720700
5.230,20079870,55082170,49965310,-12875870,-3326416,7470703,2861328
5.240,19775170,55177120,50112050,-12541820,58258060,1484375,20776370
5.250,19461840,30351560,-19798470,-12199140,27075200,27661130,39093020
5.260,19140740,77693700,28061570,-11846970,4873047,30029300,-21020510
5.270,51790040,29872500,-19276260,21458340,6582031,28979490,-35058590
5.280,18525300,29655840,-19044060,-11167660,76464850,3803711,-4807129
5.290,38397140,7728800,2896789,35490000,6201172,19689940,-36621100
5.300,17934890,7716717,2919232,-10515110,55371100,-124939000,-15588380
5.310,51159940,77046330,29399480,23348690,5571289,-29345700,-491333
5.320,17337580,28986030,-18332810,-9852191,5649414,-4597168,87509150
5.340,50745610,28638170,-17972870,24816070,57714840,-58984380,-29632570
5.350,50607510,76468000,30219490,25316710,55371100,-68310540,-89660650
5.360,16157630,55663940,51075340,-8528956,51464840,-67822260,-2097168
5.370,15864160,55671710,51119370,-8200952,46679690,-69384770,-22546390
5.380,15570680,27921740,-17239180,-7872949,4387207,-5004883,-29418940
5.390,50072340,7582925,3104811,27232940,37182620,-32299800,-3491211
5.400,14999260,7567389,3125529,-7235932,25170900,-24072270,-29614260
5.410,49804760,7550125,3147970,28156520,39215090,-1595459,-19628910
5.420,49675290,55688110,51327390,28614000,-13305660,6488037,-12695310
5.430,14159400,26941180,-16234450,-6297668,-2783203,3395996,-20922850
5.440,49390440,26719350,-16007440,29554850,-4790039,42163090,-16430660
5.450,49243700,26481110,-15762300,30046860,-60839840,57177740,-2064209
5.460,13251350,74499980,32757210,-5289487,-6738281,6098633,-17907720
5.470,12931110,74275560,33033420,-4936452,-6611328,49438480,-4034424
5.480,8981344,74051140,33326900,-8178422,-52783200,24597170,13464360
5.490,48527280,73818080,33611740,32092570,-40844730,-66589360,31640620
5.500,119030800,73576400,33905210,-38065680,-2854004,-30639650,44067380
5.510,48147480,24935180,-14183570,33180160,-17626950,-46069340,4248047
5.520,47940320,24661550,-13904770,33732580,-647583,-5410156,29492190
5.530,67737070,72808180,34794270,-66917060,-724411,-45922850,21704100
5.540,10486620,24128980,-13367010,-2253729,-6604004,-49121100,12426760
5.550,47344730,23878660,-13116690,35312180,-26391600,-46362300,22644040
5.560,60858480,7206587,3555384,-52561720,-4140625,-453125,43164060
5.570,9497431,7181553,3582145,-1171318,-4958496,-30688480,40063480
5.600,46429780,22553700,-11783100,37677260,-43945310,-17053220,15808110
5.610,83088500,70762460,36960830,1260233,-48266600,-20996090,10675050
5.620,80438580,22003860,-11228090,4134573,-42333980,-2734375,59906010
5.640,45816930,21463520,-10680840,39170540,-46313480,-3474121,31738280
5.650,35246580,21189040,-10402900,-26728840,-7451172,-52685550,-3112793
5.660,32925520,20906780,-10115460,-24388800,-97314460,-6118164,-59448240
5.670,69105180,69191500,38773480,16451980,-9008789,-5283203,-19213870
5.680,28282550,68898020,39118740,-19709560,-6098633,-4560547,-33691410
5.690,25959760,19983190,-9174608,-17371240,-40356440,-39453120,-3947754
5.700,44971020,6835421,3980063,41069500,-32177730,-32666020,-5175781
5.710,21744050,6809529,4012865,-13127910,-29418940,-19091800,-6826172
5.720,19937440,14231220,-13148460,-11309220,-29003910,73165900,-7529297
5.730,44573970,18830860,-7996386,41811830,-35742190,19812010,-73095700
5.740,55423980,18557240,-7717583,31082660,-51904300,34960940,-63916020
5.750,53922070,6707673,4137159,32688150,-6894531,47705080,-55810550
5.770,11677790,17685440,-6828518,-2996054,-9580078,7890625,-5097656
5.780,4907970,17385920,-6523820,3785853,-10371090,80078130,-4038086
5.790,42332320,65963260,42692260,-33626410,-10361330,78466800,-31835940
5.800,23348680,65661150,43046160,-14630690,-94384770,7631836,-24584960
5.810,43659010,16416580,-5542401,43659010,-8857422,6870117,-11102300
5.820,25592920,55443830,53315260,61845950,-9003906,65722660,68244940
5.830,39912860,64694400,44081960,47681370,-8935547,5761719,10467530
5.840,-1482057,64349130,44409960,10257020,-83203130,5566406,15612790
5.850,-3631345,15070040,-4195857,12423570,-63623050,61865230,17651370
5.860,-5694314,55284150,53423160,14503810,-43969730,6298828,22473140
5.870,-7757284,63321960,45333560,16584040,-27661130,60009770,3034668
5.880,-9819394,141395500,-32791730,18665140,-14953610,5888672,31176760
5.890,28182410,84874040,-83788870,60464880,-20629880,61376950,3334961
5.900,26542400,62407000,46024080,62277540,17211910,6088867,29638670
5.910,42554150,6213941,4620534,46455670,26464840,5854492,3359375
5.920,23616270,61897740,46343460,65566200,37231440,5888672,3400879
5.930,42450570,81539110,-70723620,46887260,5205078,5913086,29248050
5.940,-18658230,12886230,-2081096,27607550,45898440,5361328,24401860
5.950,20905920,61345310,46602410,68725390,34326170,47216800,171875
5.960,2037938,126859700,-19015580,6940735,25805660,50097660,8203125
5.970,42450580,12611740,-1837685,47474210,28759770,5419922,-45814510
5.980,19559380,12572030,-1808337,70486260,32861330,5854492,-1472168
5.990,-21299520,7701956,-6626622,30317890,31835940,56396480,-32006840
6.000,-21551560,12543550,-1802292,30583750,3881836,5961914,-4946289
6.010,19067370,60861940,46447040,71375320,35473630,54296880,-6738281
6.020,19127790,12610010,-1891200,71435740,2866211,42944340,-79248050
6.030,19360850,126652600,-19568000,71323540,5407715,20739750,-7783203
6.040,-21182990,60853300,46110410,30261790,-1340332,14428710,-7763672
6.080,20060010,129147100,-22597730,71159530,-8798828,-3232422,-71972660
6.090,19766530,129354300,-22908460,71556590,-10751950,-5620117,-67871100
6.120,17608610,81178310,-70566540,74059770,-12988280,-421875,-66796880
6.130,-25016320,12836160,-2234739,34196970,-12597660,-27368160,-6845703
6.140,-26563980,60421720,45488920,35756720,-12558590,-23022460,-70654300
6.150,-2845604,12652310,-2073328,3766259,-12050780,-74279780,-75097660
6.220,-7095240,111711100,-6715438,100110200,-77978510,5319214,-86376950
6.250,40102760,5512099,-4466117,53257430,-40039060,-6454468,-10419920
6.260,-65416010,5687407,4756919,74762390,-21032720,-3955078,-10458980
6.270,-2770767,95302320,8985572,12127510,23361210,-34973140,-10625
6.280,-32152990,45084960,-34671710,125806700,22399900,-47973630,-11181640
6.290,-3659832,41797160,-31399440,13033830,44360350,-3704834,-11611330
6.300,-4096593,8547947,1832505,13477500,69140620,-50323490,-12353520
6.310,46017180,8245837,2117348,47860910,8691406,-4522705,-12314450
6.320,-4945086,7960993,2384932,14338070,10,-96588140,-12138670
6.330,-5348187,30541450,-20212790,14746350,11083980,7922363,-12148440
6.340,-5743518,23475820,-22444680,15145140,10957030,8496094,-1203125
6.350,36209870,25863080,-15568950,57858110,9995117,75683590,-12558590
6.360,-6499653,23696540,-13419660,15908180,88134770,103149400,-13115230
6.370,35467550,6768957,3488922,58652230,6982422,3302002,-13408200
6.380,-7282544,14667890,-13644000,16696250,64453120,-29769900,-13095700
6.390,-7687367,62838590,39360440,17102800,67529300,-37139890,-11894530
6.400,-8118953,14249170,-4049982,17534380,9291992,2241211,-9897461
6.410,4706390,11821080,-1644334,4709042,12578130,47143560,-72509770
6.420,33413210,50825020,-40670720,60758360,14521480,51123050,-4892578
6.430,-9342924,79143820,22174770,18761810,14902340,36254880,-2602539
6.440,32722680,51928150,49166020,61500680,14033200,3713379,-17480470
6.460,32170250,42580050,58117060,62122160,6982422,26831060,12756350
6.470,-10553080,-13102020,23151010,19985780,41870120,19543460,21276860
6.480,31591930,19067370,81215420,62752280,23205570,-90026860,41137700
6.490,31263920,-40744090,50751650,63080280,2010498,-40478520,6933594
6.500,-11493930,-57153770,67142340,20926630,4790039,-4255371,65966800
6.510,-11744260,-2437586,12408900,21176950,8989258,-33325200,2919922
6.520,30521600,41673720,57901270,63822600,9423828,-36938480,-12756350
6.530,3038350,-7961857,8956225,6399523,4873047,-60791020,-35131840
6.540,30262650,-3838509,13770110,64150600,12420650,-75,-5908203
6.550,30098650,-8912552,9904500,64314610,32885740,-38134770,-484375
6.560,29908750,-4885531,14794690,64487240,75927740,-105041500,-18334960
6.570,-12734310,-5149658,15048460,22172180,1015625,5911255,115478500
6.580,45412970,-98634140,108526000,48931230,8779297,29736330,35595700
6.590,29425380,-54137860,153022300,64867030,8144531,41235350,5571289
6.600,29278640,-98637590,108522600,64944720,96777340,25634770,6069336
6.610,2914054,-5242880,15127870,6501377,11142580,-23864750,53808590
6.620,29028320,39429480,59454970,65039670,10117190,-27294920,43139650
6.630,-13376500,39628020,59308240,22772950,10888670,-18188480,59765620
6.640,-13417080,-4457398,14359660,22801430,11630860,-16809080,77490230
6.650,2875213,40931400,58194750,6498789,8457031,-2163086,82958980
6.660,2873488,-70996380,80921090,6490153,8930664,-39819340,67578130
6.670,-1334543,-1418184,11356690,2270044,83935540,-48657230,37646480
6.680,44920960,-46812160,56767930,48508280,92822260,-38110350,24499510
6.690,-13166760,-32129680,42102720,22499320,8647461,-11315920,44458010
6.700,-13060580,27526410,72411120,22381070,6352539,12597660,34814450
6.710,-12954420,-2762137,12774880,22262810,10068360,8508301,18347170
6.720,28985170,57935800,42398780,63960710,11787110,39367680,9967041
6.730,2903695,27470300,-17414400,6375356,12050780,20544430,95947260
6.740,-12615190,87516540,13284150,21876980,13671880,54785160,39672850
6.750,29062850,104037600,-2995195,63365130,16806640,7626953,86621100
6.760,2907148,12401130,-2272721,6314934,14179690,56396480,13662110
6.770,2913190,14744630,-4590324,6291628,8930664,4970703,14238280
6.780,2919234,63063010,38721690,6268325,85595700,46801760,15556640
6.790,29304530,20205880,-10004980,62432900,14001470,15856930,14736330
6.800,-11783960,23151010,-12929390,20947350,-3215332,11871340,64160160
6.810,2958939,72186700,30236760,6192366,53588870,-7623291,20288090
6.820,-11398130,75389040,27224300,20539070,16918940,-4404297,93566900
6.830,29900120,78496450,24289530,61423000,-19848630,-36743160,13635250
6.840,30003700,81258580,21700030,61198580,-1907959,13903810,40795900
6.850,-10923380,83675460,19455800,20029810,12213140,19396970,50341800
6.860,43916240,85833370,17470500,46992570,23181150,-37963870,3701172
6.870,43847180,8789632,1556289,46906240,37597660,-296875,27001950
6.880,-14738760,43247280,-32884090,15644740,17492680,-27734380,78063970
6.890,43712520,45154880,-34774430,46730160,72509770,-72021490,8691406
6.910,-10390810,4914012,-3873032,19405730,9796143,-2709961,33007810
6.930,-14250460,53470630,-43031490,15149020,12084960,-37475580,59228520
6.940,-10084380,57314320,47215260,19056150,-20715330,20095820,8051758
6.960,-9847874,52458140,52347650,18792020,-28173830,5473633,12050780
6.980,-9591516,58574540,46472940,18513220,-60302740,-5672455,86279300
6.990,-9430964,53189240,51927290,18345760,-1265625,-5332031,46069340
7.000,-9278188,11810720,-1292161,18187800,-17226560,-6010742,14526370
7.010,-9158209,72759840,-62239550,18066100,-19179690,-86572260,13061520
7.020,-9071024,59489500,45730610,17980640,-20507810,-10224610,20935060
7.030,-9027866,59532660,45687450,17937490,-21542970,-9194336,-7672119
7.040,-9045130,5948086,4575651,17954750,-16386720,-54833980,-19689940
7.050,30970450,119963000,-14691110,58091180,-9868164,-23999020,-13366700
7.060,-9195320,59204660,46084510,18098030,-9165039,-34057620,24780270
7.070,-9284230,6888162,-5834925,18181760,-31152340,-3137207,14648440
7.080,-9387813,62415720,-61362490,18285340,-3017578,-4819336,5385742
7.090,-9474986,58695380,46645570,18370790,-48876950,-5551758,65527340
7.130,3023678,58306960,47206630,5849688,13105470,-39489740,11787110
7.140,-9644168,58358750,47223890,18512350,140625,6916046,10517580
7.150,-9561308,61734600,-51167700,18422580,12568360,-14465330,11347660
7.160,-9460312,53444740,52293270,18316410,96240230,-37719730,12802730
7.170,-9342062,6390028,-5331785,18192980,82958980,-31396480,13847660
7.180,-9224668,58937080,46973570,18068690,7192383,-107299800,13408200
7.200,30771920,67540260,-56928480,57530120,63720700,-42822260,98291020
7.210,-8787046,11673480,-1049611,17608620,65185550,-515625,65625
7.220,-8591108,70399940,-59765710,17407500,43164060,-55566410,26000980
7.230,-8403796,59886560,46559250,17215010,3059082,-8203125,-46783450
7.240,42768220,12137000,-1483787,45292120,123168900,-10410160,-6311035
7.250,-8028320,12263020,-1599449,16830900,-68206780,-12070310,-13769530
7.260,-7822890,75684250,-65012040,16622020,-3955078,-13876950,-29638670
7.270,31937200,12427880,-1745327,56019560,-85253900,-12363280,-20214840
7.280,-7506970,76126180,-65433270,16299190,-6303711,-8540039,-3314209
7.290,32109830,70797080,-69726580,55726100,43701170,-6333008,43296820
7.300,-7352461,12315670,-1598586,16125690,34594730,-66015620,107421900
7.310,-7288584,60542560,46766410,16051460,39868160,-80810540,29418940
7.320,3217888,12198280,-1457027,5538083,25268560,-74365230,5996094
7.330,42593860,73307090,-62555480,44896790,18310550,-49414060,8666992
7.340,42565380,121387200,-13784780,44856230,-13330080,-32958980,11777340
7.350,-7043446,12083480,-1312877,15778700,-18200680,-4309082,12207030
7.360,-7021865,60490780,47301580,15748490,-122558600,-53222660,98339840
7.370,32239300,118685500,-10789600,54957880,-11212160,-42626950,72216800
7.500,-7254058,59679400,49148760,15878830,-96728510,-9436035,6586914
7.510,31479720,10595380,289159,54733440,-11748050,-7865906,77734380
7.520,-11273660,59463600,49416330,12135450,-11943360,-25161740,8120117
7.530,31272560,103036300,5843645,54871560,-11513670,-21276860,71875
7.540,3113447,59118340,49778860,5497516,-12578130,-3383789,59521480
7.550,30996340,58919810,49977390,55095980,-12333980,-18603520,46679690
7.560,-7884173,48083600,-37197340,16491680,-10507810,-3010559,5708008
7.570,-8039541,95155580,13672570,16647050,-8779297,-6903076,7348633
7.580,-8186280,9315302,1564060,16793790,-88427740,-16601560,7885742
7.590,30400760,42035390,-31161210,55691560,-8286133,-8050537,6303711
7.600,30228120,39702250,-28833250,55864200,-53222660,18127440,44213870
7.610,30038230,37281920,-26419830,56054090,-2685547,48388670,35742190
7.620,29856960,34948780,-24091870,56235360,-45288090,828125,40844730
7.630,-9075342,8152616,2697399,17682850,38604740,11210940,28515620
7.640,29485800,56727360,51703730,56606520,33111570,12246090,8526611
7.650,-9436148,28291170,-17456700,18047100,-21072390,14042970,-39978030
7.660,-9625178,74750300,33490900,18237870,-15795900,15195310,-107177700
7.680,-10024830,54148220,53816760,18649600,-42797850,10585940,-76293940
7.690,28614000,68483700,39308640,57720010,-7324219,4321289,-11177060
7.700,28432730,17895180,-7136670,58004850,-9199219,-22131350,-11474610
7.710,28260100,157269100,-49891070,58298340,-9213867,-35839840,27008060
7.720,28061580,61595620,45540710,58617700,-6269531,-34375,10406490
7.740,-11474950,8698138,1965433,20168770,-38909910,-41479490,16381840
7.750,-11745980,62683220,43693540,20450160,3305664,-36743160,1706543
7.760,27224300,3925683,6687820,59921090,68847660,-10241700,171875
7.770,27034410,1755680,8833655,60214560,9873047,88012700,10620120
7.780,26870400,-49096970,59662130,60499400,10556640,-20605470,-19750980
7.790,-12637640,-2066424,12607430,21388430,5810547,-21508790,-33398440
7.800,-16790590,-3978339,14493450,17667050,5600586,-22323610,-2076416
7.810,42147600,4122486,6366721,45636520,69628900,2368164,20828250
7.820,26283450,-7889354,18350940,61621520,83740230,7678223,23095700
7.830,2613674,37245680,67111270,6190639,10771480,51635740,47070310
7.840,26015870,3555384,6852686,62165320,10546880,-15039060,3762207
7.850,2595548,34129640,69692140,6241565,7338867,-26342770,25830080
7.860,42434180,49856550,53689020,46109550,6972656,-31152340,20275880
7.870,-14078260,-15379920,25706850,22951620,7885742,-4099121,44830320
7.880,42606810,29753380,73257020,46333970,76464850,-34936520,-60302740
7.890,-14281970,-17909000,28184140,23196760,7944336,-25854490,-35369870
7.900,25843230,-19044930,29292450,63511860,85058590,-40185550,8262634
7.910,25886390,4858767,5364585,63693120,7709961,-50634770,-14367680
7.920,2593820,-21313330,31512520,6384849,80566410,-4038086,-38989260
7.930,25989970,2334002,7841012,64003870,9794922,-24377440,-60253900
7.940,-14549550,-23493690,33647990,23567920,11484380,-2010498,-7324219
7.950,26102190,21225290,80093300,64288720,10722660,-17468260,-7631836
7.960,-18666170,2034485,8076659,19572150,79296870,-24487300,-79345700
7.970,26257560,-25857050,35945740,64547660,4934082,-4909668,-7910156
7.980,26343870,-26732300,36796820,64685770,113220200,-60839840,-92578130
7.990,-14642770,46930420,53473220,23768180,-803833,-6328125,-11513670
8.000,26456080,-33421590,34423380,64987880,59783940,-39038090,-11044920
8.010,26421560,46421140,53568170,65125990,12646480,15539550,-31347660
8.020,2639568,-32038190,42021580,6523818,18134770,10400390,5151367
8.030,-14876690,-37049390,38046180,24052160,11689450,3623047,62890620
8.040,2655105,-32310950,42266720,6539356,5864258,-47070310,-2255249
8.050,-14691970,-31884540,41829960,23908870,-15637210,-8491211,-11191410
8.060,-14561630,12990670,86359900,23797530,-44921880,-6567383,-18730470
8.070,2715527,-32239300,42165730,6535903,-123413100,-17590330,-19677730
8.080,-14426980,11695920,87482020,23690490,17791750,20401000,-17773440
8.090,-14413170,4567018,5340418,23687040,27130130,9033203,-14160160
8.100,44479020,9796948,89208350,48294220,33496090,20043940,-11865230
8.110,-14499490,839861,9057217,23773360,10703130,38452150,-10332030
8.120,27137990,6922600,92030910,65531680,13486330,6879883,-52441410
8.130,-14626370,5791856,93144400,23888160,76953130,8183594,-14208980
8.140,2698262,483374,9408525,6560073,8666992,27734380,-14794920
8.150,26922200,-40543840,50434010,65626620,-30664060,-32177730,-5229492
8.160,-14760160,44798390,54086070,24013320,-5854492,-6503906,-8730469
8.170,26809980,160546,9724443,65687040,-33544920,-5727539,-1125
8.190,26602820,-45987840,55865920,65773360,43359380,7849121,-4633789
8.200,26490610,-284848,10159480,65816520,34765620,23962400,70373540
8.210,-15146000,44012910,54698920,24369810,24304200,8129883,3388672
8.220,26257560,-512725,10380450,65928730,4494629,-18859860,22314450
8.230,-15297050,43771220,54871560,24512230,36083980,-45458980,-2019043
8.240,-15350570,-7241976,105833000,24562290,15014650,-5805664,-6044922
8.250,-19565160,-855400,10711050,20485810,16296390,-48950200,-7709961
8.260,25903660,-54287190,64139380,66109990,47509770,-25268560,-75878900
8.270,-15593120,43175630,55311770,24785850,69921870,-56915280,-7216797
8.280,-1567594,-12999300,111469400,2485836,6171875,-15821460,-79833980
8.290,2550663,42856260,55613880,6621360,6826172,5090332,-81884770
8.310,2523039,-1776399,11619960,6628262,6743164,-31591800,-7871094
8.320,43634840,42355630,56062720,47757330,4790039,-25073240,-7441406
8.330,24928280,-65341780,75181890,66343040,46044920,-17944340,-5205078
8.340,2474702,-2278762,12118870,6638621,42651370,-123535200,-23046880
8.350,2456575,-2452259,12290640,6642936,4765625,53833010,-52948000
8.360,-20572560,-2615398,12455510,21480960,58691410,14404300,19500730
8.370,24220480,-2770771,12610880,66463900,7519531,105773900,58044430
8.380,2406515,-73453820,83297380,6646386,75,31738280,1517334
8.400,23814790,41164450,57322950,66455270,62890620,3671875,3930664
8.410,2369400,-32558670,131097900,6643799,80859380,2770996,5595703
8.420,42857130,-3330102,13190920,47136710,7055664,19616700,33984380
8.430,-16886140,-7844726,8831671,25875170,9515381,21972660,-20410160
8.460,23340050,-3717665,13597480,66239460,-52685550,-35308840,-73828130
8.470,23227840,40586130,58229280,66230840,-38867190,26416020,-7182617
8.520,22675410,48574750,50482350,66040940,38745120,72509770,-2052002
8.530,2263228,39938760,59239180,6594601,36865230,83862300,-38232420
8.580,-17171850,3968843,6004194,25951990,25610350,32641600,28515620
8.590,2229562,-5224753,15215050,6533314,29248050,3474121,16772460
8.620,-17030290,-5350776,15399770,25731020,6796875,17663570,-38547520
8.630,22062560,-5382715,15454150,64720290,6977539,12585450,15673830
8.660,-16844710,-5361998,15509400,25450490,11035160,14428710,65722660
8.670,21838130,-5347326,15524070,63960700,48120120,18225100,49591060
8.680,-16710060,-5312797,15524070,25257140,88964850,65771480,11193850
8.690,40489460,-5235114,15480910,44670640,11064450,6826172,20874020
8.700,-16594390,-5140163,15420490,25079330,87109380,35180660,38378900
8.710,21484240,-5035723,15352300,63037120,8984375,18786620,6088867
8.720,-16497720,-4923508,15274610,24917050,43017580,20019530,64208980
8.730,39848130,-4810435,15197790,43982700,26904300,21484380,45483400
8.740,21069920,-4722392,15147720,62346580,66259770,103271500,546875
8.750,-20180250,4247646,6219122,21010100,82128900,39043430,53759770
8.760,20724650,42787210,62312060,61811420,9296875,36938480,28759770
8.770,40829980,-4382304,14935380,41239980,10019530,53564450,32006840
8.780,20344860,52036050,53943650,61259000,11113280,66015620,37817380
8.790,-16350120,43814380,62631430,24460440,99609380,6972656,3022461
8.800,38248680,-3932593,14625510,42319370,85009770,4934082,28515620
8.810,37987140,44582600,62847220,42045760,72216800,68603520,8984375
8.820,19507580,45031450,62933540,59955620,40893560,62158200,23254400
8.830,19222740,-8201302,9286472,59601710,12392580,1328125,20422360
8.840,-16278470,-7991637,9081817,24100500,13486330,7636719,37768560
8.850,-19801580,-2851906,13807230,20577390,9633789,9975586,-46569820
8.860,-16354430,46956310,63149330,24041800,8925781,12880860,-9967041
8.870,17824410,-2296028,13361830,58324220,10185550,91015620,23937990
8.880,1741873,-1984422,13103740,5800485,87597660,83984380,3005371
8.890,1695261,-1635702,12813720,5765959,4477539,4350586,11566160
8.900,16460600,49260960,63106170,57305690,85009770,95751950,-56037900
8.910,-16863700,49865180,63088910,24154020,6347656,35351560,1200676
8.920,-17021660,5045213,6307166,24220480,10263670,11035160,-42816160
8.930,-17191700,51056360,63054380,24292120,11884770,13720700,38513180
8.940,32904810,-50974350,62445850,37080810,14482420,12636720,125
8.950,13413630,-47837610,59367790,55484400,12373050,12333980,-9020996
8.970,11920340,-42338360,53991120,54647120,14892580,67089840,-34106440
8.980,30516420,-39459700,51172880,34825350,19169920,6269531,-2467041
8.990,29877680,16486500,101249500,34221140,17578120,-36254880,-59570310
9.000,-18758350,-38768740,39952140,25038760,19150390,-15319820,32055660
9.010,28538910,2329688,9563030,32953140,17822270,-43286130,3540039
9.020,7828932,-2725367,3921024,52282050,12597660,-60302740,440979
9.030,-22079910,2971021,9047722,22666690,14521480,-56689450,-5126953
9.040,6068068,5765093,6317522,51125410,86376950,-7783203,-9951172
9.060,4082786,-16515850,28714130,49986030,78466800,-24572750,-5966797
9.070,23926140,-14157670,26411200,28554440,4580078,-35742190,-76660160
9.080,-20796290,43667640,79402780,25883810,8898926,-7636719,-78564460
9.090,-21073370,45998190,77590120,26003780,-8630371,-11621090,-7597656
9.100,-21315920,47879900,76191790,26089240,-12261960,-12109380,-93408200
9.110,-768218,-6633443,19088950,46930420,-37597660,-9272461,-12246090
9.120,-21774260,-5574337,18076450,26235110,-7573242,-91552740,-13476560
9.130,-2624026,62715330,62737420,45678820,-8520508,-76660160,-12890630
9.150,-4333094,52402900,73809450,44470390,-7758789,-66015620,-10224610
9.160,-5127212,62191210,64383660,43883430,-1109375,-6850586,-96484380
9.170,-22719430,52057630,74845250,26463850,-13662110,-23144530,-9765625
9.180,-6577338,-11275820,12547610,42778580,-14521480,-42663580,-8774414
9.190,-23011180,51289410,76148630,26517370,-16474610,-97839350,-42895510
9.200,14521070,50797400,76865060,19487730,-16923830,-43603520,-8392334
9.210,14023880,5013276,7775412,19000910,-15507810,-57177740,35064700
9.220,-8838830,49537180,78539610,40983190,-15703130,-6567383,4074707
9.230,-9270416,-8864730,21691400,40586130,-15830080,-57128900,84814460
9.240,15037500,-9286818,22132480,15535890,-13583980,-32055660,10380860
9.250,-9978210,48156110,80438580,39878340,-12412110,-3330078,13056640
9.260,14381490,4788853,8086153,14879880,-9658203,-40893560,15517580
9.270,-10513380,4780220,8112048,39222330,-11708980,-48754880,12138670
9.280,-10729170,62855860,66204940,38920220,-15107420,64453120,5698242
9.290,-10962230,64425090,64756550,38669900,-13857420,16235350,10292970
9.300,-23443630,-10367510,23296030,26171240,-13427730,-6513672,47070310
9.310,13200170,47759060,81595220,13696140,-1125,8392334,38989260
9.320,13036160,63063020,66360310,13532140,-3713379,-5805664,11806640
9.330,-11652760,4834600,8114638,37927580,-38208010,-81152340,10566410
9.340,10522010,6312343,6643799,15476590,-16967770,-10976560,11513670
9.350,-11885820,-1017762,2314066,37625470,19238280,-12949220,10859380
9.360,10265650,4809569,8158658,15215050,4645996,-1390625,11601560
9.370,-23459160,47957580,81793740,25983070,6923828,-15029300,14160160
9.380,-12196550,47819470,82000900,37193890,8823242,-16533200,13271480
9.390,-23396150,-10940650,23931320,25873450,10292970,-17949220,12578130
9.400,9817670,47128940,82864070,14730820,85791020,-1515625,88964850
9.410,-12326030,-11967820,24975750,36684620,7265625,-13847660,7607422
9.420,-12343290,63149330,67016320,36529250,90283200,-13505860,7763672
9.430,-12317400,44746600,85488100,36382510,89208980,-9267578,65966800
9.440,-12265610,-14977680,28008060,36261660,11601560,-93408200,78515620
9.450,-12162030,-16181800,29220810,36140820,1125,-8232422,89990230
9.460,-12023920,-17385920,30433560,36019980,11708980,-73876950,10351560
9.470,-11834020,4024949,9031321,35881870,11191410,-70214850,80810540
9.480,-11626860,-19448890,32513790,35778290,11708980,-85253900,9902344
9.490,-11367910,-20394060,33467590,35691980,12949220,-12373050,12011720
9.500,-11074440,3736651,9347241,35588390,11943360,-14853520,11191410
9.510,10057630,-22714250,35808500,14680750,11621090,-15332030,7714844
9.520,-10401170,3478564,9624317,35381240,10048830,-1671875,6513672
9.530,-10012740,33206050,97943620,35269020,7265625,-17177730,3112793
9.540,-9607051,-27359820,40485140,35139550,5175781,-16806640,3414917
9.550,-9184101,-2899468,4213035,35027340,27148440,-16494140,11553960
9.560,-20546830,28432730,103010400,23163960,22497560,-15009770,4013672
9.570,-8338194,-32611330,45764270,34837440,12963870,-15166020,39160160
9.580,11291100,61681950,69933830,15553420,13702390,-16054690,25390620
9.590,-7431872,-36745900,49916110,34638910,15466310,-16650390,2232666
9.600,-6957128,-39073000,52250120,34543960,1920166,-16123050,21972660
9.610,-6456491,-41573600,54755890,34457640,-69885260,-13261720,16931150
9.620,-18733320,-44333140,57520620,21576590,-24353030,-81689460,5317688
9.630,12454650,12092980,119816300,16426940,-5024414,-15197750,-3623047
9.640,12688560,-50286410,63479060,16607340,-9135742,64160160,-58691410
9.660,13120150,59696660,72212590,16952610,-3894043,13173830,-3137207
9.670,-3772039,-58488220,71677420,34172800,-736084,11845700,8428955
9.680,-3461298,-61078590,74266060,34121000,50933840,10703130,27734380
9.690,-3193714,-63581780,76769250,34060580,11065670,1109375,4946289
9.700,-2960664,5866948,7320524,33982900,45440670,14208980,4404297
9.720,-16691930,-1131614,14319090,19802790,-44281010,13291020,56933590
9.730,15329420,-1337910,14527110,15692820,-10269170,10654300,5283203
9.740,13625100,-74800360,87993020,17241770,-3623047,13320310,21679690
9.750,-2701711,57668220,74310080,33326900,-9511719,16435550,-36132810
9.760,13360110,57512850,74517250,16954340,-13759770,17949220,-62939450
9.770,-2934763,-20707380,152789300,32903940,-21015620,21035160,-12050780
9.820,-16402770,5666693,7562211,19228780,-44179690,2609375,-21484380
9.830,12209500,-2991739,16222370,15774390,-43671880,23964840,-18486330
9.860,11866830,-3371532,16602160,15443790,-4109375,11708980,-16992190
9.870,-4333103,5602819,7626085,31471080,-40273440,7241211,-18525390
9.920,-1813051,-4194994,17401460,1815704,-23925780,-80810540,-14755860
9.930,-5023631,55095980,76934110,31402040,-17373050,-14541020,-14306640
9.940,11277280,-4431503,17631060,14928480,-18017580,-11689450,-16464840
9.950,11184930,54837020,77124010,14848210,-15058590,-13417970,-16425780
9.960,-5463849,-4659380,17852030,31272560,-12021480,-14052730,-16552730
9.970,-17132140,54569450,77339800,19690580,-94140620,-13378910,-19199220
9.980,10824980,-4912287,18099760,14517610,-95751950,-10996090,-17226560
9.990,-17261620,54301860,77555590,19768260,-7216797,-10166020,-14931640
10.000,-17319450,54189650,77667810,19796750,-6147461,-78466800,-12421880
10.010,-6352909,64745320,67112130,30815080,-921875,-2388916,-11621090
10.020,10214720,-5309344,18496810,13936700,-12373050,33764650,-99365230
10.030,-6715441,54008380,77900860,30573390,-16845700,64941410,-8520508
10.040,9912618,64756550,67152700,13651860,-18896480,7963867,-53564450
10.050,-7121127,53939330,77969910,30409390,-16523440,7446289,-17102050
10.060,-7293760,53922070,77987180,30340340,-17138670,7128906,-60546880
10.070,-7475026,53896180,78013070,30279920,-17998050,9916992,-22247310
10.080,-7656292,53896180,78013070,30236760,-15566410,10644530,23913570
10.090,-7854820,53913440,77995810,30210860,-14931640,16943360,61328120
10.100,-8079248,5396522,7792677,30228120,-11972660,15478520,10712890
10.110,-18186940,-5299849,18489050,20379380,-5283203,13369140,15751950
10.120,10647430,64777260,67131980,11035340,6665039,10683590,16982420
10.130,-8769780,-5038310,18232690,30210860,44067380,10771480,17929690
10.160,8383947,6594772,6616869,12332070,12285160,17089840,21582030
10.170,-9563891,55329030,76873700,30055490,12744140,19609380,24628910
10.180,-9745160,-3838508,17067410,29995070,15166020,19072270,23925780
10.190,-9952321,5607998,7631264,29926020,19677730,15722660,26015620
10.200,7819438,56494310,76001900,11826260,24375,15517580,29355470
10.210,-19175260,-2752642,16012620,21100130,29902340,18085940,30253910
10.220,-10910440,-2359039,15629370,29641170,31464840,234375,32792970
10.230,-11393810,57806320,74983350,29520330,32949220,25683590,36777340
10.240,66343050,-1548528,14834390,107671500,32988280,25839840,3640625
10.250,6215672,58660860,74249660,10391680,31523440,26796880,31757810
10.260,57711380,59075180,73887130,99902990,26289060,23300780,24511720
10.270,-13896990,-63784620,77084300,28760740,21679690,20546880,17236330
10.280,-14604790,59800240,73213860,28553580,17578120,17675780,10380860
10.300,-16080810,580910,12717050,28130630,14013670,10683590,47509770
10.310,-16797240,897693,12395090,27932100,13740230,46264650,35009770
10.320,28665800,60991410,71901850,73878510,10830080,-25439450,8093262
10.330,-18100620,61233100,71608370,27560940,78271490,-9892578,-26049800
10.340,20543390,1684037,11593200,66636530,5517578,-13955080,-42529300
10.350,17151140,61604260,71116370,63641340,41918940,-18925780,-6796875
10.360,14302690,-38942660,52207820,61138150,41479490,-25,-9501953
10.370,1198077,-4386894,4400152,5914424,45288090,-35410160,-10644530
10.380,10211270,-36187430,49438780,57633690,51416020,-44257810,-11972660
10.390,30243660,24099640,108344800,35011800,63623050,-49882810,-10488280
10.400,7820300,-35330310,48569560,55708820,70996100,-54804690,-89160160
10.410,28931650,-41460870,42784280,33734310,9770508,-58242190,-6147461
10.420,7354188,-36026020,49254920,55484400,10761720,-603125,-73828130
10.430,7932514,22968880,109285600,56114520,14570310,-64921880,-50390620
10.440,-20793700,2218339,11005390,27388300,17431640,-66523440,-14257810
10.450,10099060,2122527,11099470,58263800,18339840,-64726560,32043460
10.460,-20482960,20180860,112021900,27629990,17685550,-57226560,10412600
10.470,13439520,61397100,70805620,61483420,17373050,-503125,45361330
10.480,15476590,17936620,114266100,63416920,18291020,-40898440,68115230
10.490,-19757900,1689218,11529330,28078840,17929690,-29628910,12744140
10.500,19792430,1602036,11614780,67560110,19912110,-15195310,23339840
10.510,21812240,1541615,11675200,69510880,19482420,17773440,28261720
10.520,4517907,-44318470,57535290,4994199,13115230,19150390,30136720
10.530,2576560,15321220,116829700,7332608,13562010,37304690,23261720
10.540,-23251140,1557154,11656220,24292120,-12324220,48242190,16445310
10.550,-18307780,61034570,71047310,29270010,-19658200,51445310,13740230
10.560,-1808335,1663324,11537960,2959801,-2078125,50195310,12578130
10.570,-17927980,-42088050,55277240,29977800,-21855470,5125,13662110
10.580,3844548,1795388,11376550,8671381,-23574220,52109380,18886720
10.590,40396240,1890333,11264330,89078880,-25761720,47421880,20839840
10.600,-17884830,-45004780,46318340,31229400,-27773440,38496100,17832030
10.610,4350365,2122529,10995890,9304946,-32226560,3078125,21923830
10.620,-18048830,22243820,108733200,31980350,-40234380,22363280,-10634770
10.630,45385350,22822140,107930500,96001490,-45898440,15556640,-1984375
10.640,-18480410,-35598750,48646390,32791730,-47890620,7817383,-28535160
10.650,-18773890,-35526240,48546260,33188790,-48945310,22937010,-31875
10.660,-19110520,22735830,107153600,33594480,-49375,-6435547,-32363280
10.670,-25988240,22321510,107257200,27441820,-4453125,-13476560,-2984375
10.680,45972300,-36521480,49450000,100075600,-40078120,-24355470,-27167970
10.690,45963670,2050019,10854330,100602200,-39941410,-35996100,-30703120
10.700,-20189480,-38961660,51843560,34915120,-4015625,-42890620,-35253900
10.710,-20405280,1698712,11159030,35165440,-38359380,-4890625,-32753910
10.720,4597230,1454437,11380860,10197460,-35078120,-53476560,-32089840
10.730,4603275,58842120,69286450,10243210,-32734380,-5515625,-33300780
10.780,4806120,56675570,70054660,10679110,-15810550,-6875,-24511720
10.800,48510010,-66809160,79411400,108413800,-6459961,-7453125,-20957030
10.810,48380540,55147760,70477620,108888600,-48242190,-68398440,-25507810
10.820,75661810,-7392774,8644877,81779940,-39208980,-58320310,-2234375
10.830,47776320,5401697,7076245,109665400,-3935547,-50625,-16796880
10.840,47327470,-80704430,93137490,109941600,23901370,-39511720,-10722660
10.850,46947680,52981220,70900570,110321400,79541020,-32714840,-45874020
10.860,46559250,-3057344,15397180,110709900,13515630,-30488280,5864258
10.870,75219860,-3400020,15693240,81703980,209375,-20957030,1078125
10.880,-24928270,51367100,71133630,40534340,26894530,-9362793,12460940
10.890,4453944,5085782,7121131,11065810,28535160,27539060,16435550
10.900,-25687860,-4276135,16439890,41138560,30371090,55429690,26640620
10.910,-26041760,50167300,71055940,41492460,34492190,71601560,403125
10.920,-26369760,49839290,70969630,41803200,4265625,8625,46914060
10.930,-34276720,49528550,70935100,34431410,56054690,106328100,43242190
10.940,-26775450,-4781950,16797240,42381520,7125,12578130,39414060
10.950,-26844500,49140120,70736580,42726790,88046870,137109400,4953125
10.960,77815400,-4719803,16686750,84805340,105546900,1453125,72421870
10.970,4825972,49278230,70304980,11833170,1175,1521875,99921870
10.980,-26507870,49614860,70037410,43529540,12796880,16453130,112109400
10.990,5160016,-3845412,15834810,12137860,14140630,16890620,10984380
11.000,5298125,50719720,69571300,12224180,15859380,17328120,89140620
11.010,-25472070,-2955488,15032930,43132480,17609380,1753125,734375
11.020,5431050,-2468660,14604790,12212090,2109375,179375,68320310
11.030,53835760,-20301700,142319000,120696700,2509375,18546880,73085940
11.040,5271367,53568170,69156980,11853880,29296880,20015620,73085940
11.050,5027090,60966380,62449300,11511200,3209375,21421880,61601560
11.060,46490200,-8657572,132556600,110778900,3425,23890620,36542970
11.070,-24557110,-202846,12658350,39023800,338125,22203120,10205080
11.080,-30443050,-47492340,60058330,31705000,31125,22515620,-7265625
11.090,-24669320,23892480,103303900,35148180,27578120,19765620,-15078130
11.100,26434500,62562380,65859670,32260880,3309375,1903125,-58984380
11.110,-15019110,74724410,56079990,37979370,131953100,24296880,-28875
11.120,-35873240,9926425,3349091,11704550,-32792970,1846875,-421875
11.130,-2939085,118538800,15821860,1264546,-634375,1209375,-433125
11.160,-36865880,16710920,-2969295,-11644130,-33875,23109380,-49375
11.170,-45583870,80559420,56925900,-25195850,-4696875,1890625,-589375
11.180,-13758890,21100990,-7418061,2831190,-531875,31171880,-868125
11.220,-28881580,8948456,3134163,11894450,-21640620,-2659375,156625
11.230,-16270710,8649801,3893749,-12990670,5284375,-5715625,-766875
11.240,-13013200,82777760,44194170,-12605610,825,695625,3578125
11.250,-12551320,26043490,-12988940,-9597557,120859400,4296875,2734375
11.260,-22226560,67859640,63928770,3754782,-569375,-256875,2890625
11.270,-80602580,27376220,-14211190,-54396820,-2828125,-4734375,113671900
11.280,-14130050,27336510,-14164580,13042460,-21953120,-4046875,4890625
11.290,-18273250,85876530,46550620,9417161,-93828130,-1828125,56875
11.300,-53490490,25541130,-12231080,-26611450,-145703100,-49453120,-1475
11.310,-16987130,68589010,64942990,9805584,-203125,859375,-2990625
11.320,-42493740,24326650,-10959640,-14475320,-11921880,71953130,-2890625
11.330,-16227550,23821700,-10446050,12947510,-20058590,36328120,-25296880
11.340,-26784080,68647700,65298620,2615400,-103359400,59453120,-22078120
11.350,-811376,23064700,-9666612,29123270,-19375,8734375,-149375
11.360,12515930,22359490,-8973489,44107860,-148515600,18109380,-93984380
11.370,26343870,21262400,-7912659,60663410,12587890,2284375,-36210940
11.380,3986107,6659799,6657147,7666654,13578130,20359380,24023440
11.390,4971847,78384230,54750710,8787049,13515630,1646875,-15693360
11.400,74195280,17116610,-3789309,78067460,7375,148046900,-90234380
11.410,64383660,76062310,57245260,103416100,40898440,1296875,-122109400
11.420,-10288960,15275470,-1953348,28916110,30117190,111015600,-113828100
11.430,8375315,14665210,-1372436,12340710,35644530,83203130,-48554690
11.450,-7975669,7342619,-6019212,32472360,45078120,41132810,13632810
11.460,-18921490,71996800,60205930,21526540,26230470,30957030,12255860
11.480,-5446585,108974900,23176050,34138280,54052740,28085940,-36074220
11.490,-4669735,66395700,65686180,34552600,10234380,20898440,-40898440
11.500,-3815200,35170620,-21971060,34958280,13720700,10322270,-26933590
11.510,-17577540,88630030,43227420,20816150,13310550,-29370120,-16875
11.520,-2270130,82846810,48838020,35830080,28554690,-20820310,-1171875
11.530,-1519174,78703620,52808590,36201250,43007810,-26074220,39672850
11.540,15954780,96340710,-83198120,19676770,46210940,-33730470,17919920
11.550,-1642696,55036330,-53722760,2008507,40585940,-24355470,-1194458
11.560,-15934930,9071889,4065520,19679350,35507810,-17890620,-17744140
11.580,2321922,-15867610,29017100,36244400,32402340,-334375,-16513670
11.590,17763990,20034120,111529900,21095810,30800780,-29726560,-12294920
11.600,3055614,58125700,73490080,35942300,27949220,99658200,-10644530
11.610,3185091,55052820,76632010,35812820,29785160,38828120,28735350
11.620,3202353,52575530,79161090,35674710,27871090,54375,178125
11.630,-14331170,50961410,80827000,18192980,23632810,79257810,35292970
11.640,2744874,-9291136,22473430,35527970,29023440,97109380,52890620
11.650,2416867,-1015345,2333746,35510710,22539060,12640630,73320310
11.660,2132026,-16604150,17922550,35536600,17988280,1625,74960940
11.670,1743600,-10330390,23505770,35717870,36425780,1646875,90078130
11.680,1225696,-8781868,21946900,35959560,68359380,131171900,12234380
11.690,16574540,-6023184,19181310,20127340,8796875,81953130,134140600
11.700,-233052,57089900,74525880,36089030,1015625,55273440,11578130
11.710,-1251590,2959799,10210410,35916400,98515620,45351560,8875
11.720,-2425501,25580830,-12398540,35622920,77226560,47929690,53710940
11.730,13821900,73144810,58816220,17718240,52070310,50820310,22558590
11.740,-4971843,78297920,53783970,34837440,26113280,57070310,-84375
11.750,-6163016,23785440,-10568620,34457640,4019165,58085940,-28125
11.760,-7224712,28361090,-15142550,34155540,-11298830,45625,-39257810
11.770,-8148301,32071850,-18855030,33939740,-12880860,28261720,-46523440
11.780,-8933781,94534100,37565050,33827540,-8076172,10712890,-49101560
11.790,-9632946,97054540,34906490,33836170,-7208252,-8574219,-47421880
11.800,-10254430,69182870,62605540,33957010,3071289,-27753910,-35761720
11.810,-10806860,34494150,-33178170,34129640,6171875,-38007810,-24414060
11.820,-21618890,100162000,31281190,23921830,11875,-42148440,-16171880
11.830,9114186,100455400,30884130,13707970,16347660,-50742190,-17978520
11.840,-11704550,100593500,30676970,34457650,13720700,-59609380,-24042970
11.850,-11713190,41347440,-28223850,34535330,13320310,-66132810,-33652340
11.860,9194458,40914140,-27793990,13817590,18984380,-7046875,-41015620
11.870,9335155,40309060,-27190640,13953100,24785160,-73710940,-34707030
11.880,9513834,68872130,62294800,14119700,26933590,-77109380,-22949220
11.890,9703726,37892190,-24773770,14292330,25195310,-75664060,-17666020
11.900,-10642850,35994080,-22873940,35035970,29511720,-68320310,-12705080
11.910,-10297590,9298038,3825559,35105020,32265620,-66015620,-4345703
11.920,10357150,9084836,4043939,14864610,39355470,-67460940,67285150
11.930,-9512105,29615270,-16477870,35130920,490625,-69765620,12451170
11.940,-9097785,27548850,-14401090,35061860,57304690,-75429690,22714840
11.950,10913890,84633570,46999470,15274620,60664060,-75976560,32011720
11.970,11070120,80714790,51367100,15291010,59296880,-41679690,24746090
11.980,-7535452,19565420,-6329607,33844800,58710940,-31054690,18574220
11.990,-7207449,18111840,-4848411,33361420,5625,-28515620,12431640
12.000,-6948499,17177030,-3884253,32860780,5203125,-12939450,8208008
12.010,-6801759,76260840,56925890,32368780,49492190,46801760,14980470
12.020,-6758601,15562910,-2218341,31842250,51835940,24375,20292970
12.030,-6819023,7504376,5864360,31315710,45507810,43164060,28183590
12.060,9248839,6973875,-5628371,12900040,-60498050,104140600,12958980
12.070,-7354187,62822020,-61474100,28743480,-17050780,105859400,17001950
12.080,-7569977,73887140,61112260,28182420,-19580080,953125,16582030
12.090,8132766,74491340,60680670,11685560,-2234375,82421870,14394530
12.110,9063240,14713550,-1168729,9063276,-34667970,703125,9458008
12.120,8640291,76675160,58893910,8640327,-42617190,65273440,5708008
12.130,8217336,16623740,-3056477,8217373,-52148440,57265620,15405270
12.140,76691570,68967080,66774630,80232280,-59375,47695310,-6977539
12.150,-10237170,12763220,-11405460,25273540,-60664060,34941410,-12539060
12.160,-10599700,19909820,-6330469,25066380,-559375,20664060,-13037110
12.170,5191955,81975020,53835760,8774101,-51640620,8876953,-15009770
12.180,49778860,82924500,52886270,85738420,-49101560,-28710940,-16601560
12.190,-11445600,83615030,52195740,24634800,-50742190,-11982420,-23125
12.200,-11661390,8438324,5141026,24557120,-5296875,-16171880,-2296875
12.210,6119425,17942230,-16584470,6482820,-52148440,-31367190,-22128910
12.220,60241320,18891710,-17533960,63882160,-571875,-45429690,-265625
12.230,-12075710,19668560,-18310800,24367220,-60703120,-55273440,-3328125
12.240,-12092980,2629639,-1271877,24332690,-60039060,-62773440,-40703120
12.250,-12058450,26556210,-12976860,24332690,-59335940,-69335940,-45507810
12.260,60161040,69847510,65963260,63789800,-55507810,-75,-4625
12.270,-11808130,25349500,-11766700,24393110,-53710940,-76875,-44375
12.300,49925610,21204570,-7625223,85936950,-38828120,-75351560,-2953125
12.310,52100790,80481740,55277240,88077610,-33867190,-76796870,-23535160
12.340,5902342,74292820,61345320,9496571,-32949220,-60234380,-1265625
12.350,-10073160,72186690,63382380,25955450,-3796875,-50078120,-89990230
12.360,80019940,29216490,-15668220,83636610,-409375,-37441410,-78271490
12.370,82424730,67674060,67670600,86065570,-41679690,-17832030,-8701172
12.380,68423290,65945990,69226020,105246000,-40,2861328,-17687990
12.390,-9710634,3468205,10028280,27612730,-403125,33964840,33569340
12.400,-9796949,-36424800,49891940,28268730,-38085940,60859380,14130860
12.410,7561349,-45073740,58506350,11462860,-22402340,72421870,3375
12.460,8139669,6626018,6627054,12541820,40625,81640620,65742190
12.470,-21450570,88543710,43659010,23520450,51054690,71054690,559375
12.480,7998110,117718800,14138680,12597070,61015620,57695310,42539060
12.490,7850510,73610920,57901280,12554770,63632810,45078120,359375
12.540,-16098080,16878200,-15576890,35122280,40351560,7138672,-10107420
12.550,-16426070,66645160,63296070,35312180,34941410,-35424800,-10478520
12.560,-16676400,23407370,-10428790,35493440,30839840,-15253910,-7441406
12.570,-16857660,17566230,-16269930,35691980,29804690,-22285160,-73291020
12.620,-16840390,82397960,46490200,36969460,36777340,-70898440,95410160
12.630,-16710920,24481150,-11599240,37167990,359375,-76171870,6855469
12.640,7679601,24736650,-11861650,13070950,35234380,-75039060,-16552730
12.650,7806486,25165650,-12295820,13203010,346875,-78476560,-52246100
12.660,-16374290,8373586,4489334,37625470,33808590,-81171870,-5810547
12.670,-25944220,26454350,-13596610,28090060,28867190,-80703130,-8276367
12.680,-16236180,84728510,43814380,37832630,28046880,-75429690,-14931640
12.690,-16210280,85306840,43184270,37910320,26679690,-69179690,-17080080
12.700,-26033130,28087470,-15243540,28208310,21015620,-63554690,-14550780
12.710,-16331130,64187340,64182920,38065690,15478520,-54375,-13701170
12.720,-16443340,6416406,6411989,38143370,8046875,-43867190,-12431640
12.730,-16598710,28162560,-15341080,38212420,9307861,-31113280,-8378906
12.740,-16745450,27468580,-14653990,38255580,-8129883,-14238280,-78125
12.750,-16857660,26344730,-13533600,38298740,-16484380,26098630,-92871100
12.760,10427060,82596500,45480300,10979490,-18466800,1234375,-77001950
12.770,-16935340,81129110,46947680,38324640,-18984380,18652340,-5307617
12.780,-16926710,79834360,48242430,38350530,-20449220,21132810,22741700
12.790,-16978500,78513710,49511280,38419590,-18193360,23378910,14277340
12.800,-17082080,7771095,5026224,38488630,-8857422,28359380,21445310
12.810,-17211560,19600800,-6812117,38566320,-27490230,30234380,24316410
12.820,-17366930,18906820,-6125036,38618110,-1697998,33886720,18730470
12.830,-17513670,18386330,-5609723,38644000,-12634280,44726560,36035160
12.840,7696000,17951290,-5181595,13330760,42333980,565625,-12783200
12.850,-17824400,63816390,63794290,38764850,15576170,55664060,-1484375
12.860,-18014310,17163220,-4415964,38902960,28144530,54648440,-41308590
12.870,-1823007,74275560,53041640,3904973,4125,55429690,13220220
12.880,7474168,16543470,-3827285,13241850,53515620,56015620,80908200
12.890,-18739370,15931480,-3230835,39317280,61523440,59648440,221875
12.900,-18981050,72601020,54301860,39369070,66875,6640625,29648440
12.910,-28252340,96112830,-83426000,30270420,68007810,72695310,31210940
12.920,-19265900,15234900,-2546344,39256860,73789060,84453130,23808590
12.930,7007196,72376590,54595340,12845660,85703130,97890620,14042970
12.940,-19196840,15159810,-2448805,38928850,109296900,107890600,34423830
12.950,-19032840,72549220,54767980,38661270,139375,119453100,-48999020
12.960,6869950,15701880,-2942539,12585840,1628125,130546900,73779300
12.970,-18696210,16064410,-3270540,37789470,195,1296875,38554690
12.980,-18428630,167817000,-39343160,37004000,2203125,1378125,62890620
12.990,-18135150,76416220,52765420,35916400,2375,15875,60507810
13.000,5638212,79152460,50840560,10882820,2659375,19453120,5359375
13.010,4862224,82786390,48087060,9932472,2925,22375,18330080
13.020,37936210,27997700,-14815410,86705170,28921880,2553125,-23964840
13.030,2432406,9106416,4169099,7114227,27484380,29109380,-95234380
13.040,8717990,35591840,-22240370,53775330,22390620,28703120,-20125
13.050,-9486212,10281190,3116898,34345430,111796900,22296880,-28953120
13.060,-28829800,52541860,-39126520,14155950,-23376460,16265630,-281875
13.090,-6911382,141076100,-5144480,-3550201,-13421880,13015630,-31984380
13.100,-19533480,77288020,59454980,8623046,-19578120,-4125,-40125
13.110,-49953220,80576680,55700200,-47412060,-805,-61125,-219375
13.120,-85574420,21543800,-8045580,-60646140,-859375,-251875,141171900
13.130,-18497680,21646510,-8098237,1424227,-41375,-25359380,60234380
13.140,-17686300,82743230,52894910,-2770764,-571875,-64023440,-132890600
13.150,-19775160,82156290,53067540,-2632657,-4190625,-1615625,186875
13.160,-18920630,22210160,-8708495,-3866989,24902340,-4490625,424375
13.170,-18635790,23502320,-10057630,-4169098,12375,-639375,3846875
13.180,-11567310,8413293,5064204,-10288090,2275,-4978125,52875
13.190,-61664680,23930450,-10440870,40534340,-68115230,-5334375,99140620
13.200,-14432160,23410830,-9872908,-6197542,-14234380,-3784375,17675780
13.210,-47560520,83476930,52575540,27362410,-14546880,-31625,38886720
13.220,-12956140,21069060,-7398209,-6810391,-9140625,-2290625,41835940
13.230,-35234500,8173332,5556210,16037650,-1146875,-147890600,-5171875
13.240,-32515520,18745410,-4957169,14268160,-73710940,-7375,-56835940
13.260,-23711210,78979820,59972870,7880723,-74335940,44609380,-32890620
13.270,-84763040,156682100,-17332410,-55933240,-5984375,79296870,-28535160
13.280,-20672860,151649900,-12006660,8329573,-60820310,8265625,-5371094
13.290,-6810389,77659180,62225740,-4048252,-85,55234380,4663086
13.300,-18825680,7722759,6286449,9486212,-1246875,4453125,14628910
13.310,-19619800,71667930,-57634550,11799500,-133203100,64023440,15498050
13.320,-22744460,127058200,13465420,16615980,-771875,81484380,24082030
13.330,-23383210,12039460,2026719,-18394100,-55810550,92734380,43242190
13.340,-3083923,113791400,26956720,3061833,159375,83984380,53320310
13.350,-58609070,10914750,3163511,11998030,14863280,72421870,48984380
13.360,14242260,41823910,-27747380,94516830,-40771480,64492190,30527340
13.370,8295040,7344692,6728390,17254720,-2055664,96015620,65771480
13.380,14751530,99411000,41233510,24781540,28945310,95,6635742
13.390,-51384360,35511570,-21457480,56856840,34472660,6109375,23652340
13.400,-21579180,29445660,-28041290,90977850,-13730470,828125,27050780
13.410,-17263350,10044680,3985244,101335900,-25097660,100390600,1984375
13.420,-1355174,38941800,-24932590,11367920,13242190,83984380,29238280
13.430,-61863210,103778600,36106300,73481450,39277340,69492190,50273440
13.440,64459620,10573800,3392245,65878670,49101560,6375,48984380
13.460,6951949,46755190,-32828850,8481486,4453125,46210940,29902340
13.470,73809450,73705860,65367670,89674460,32441410,50898440,9448242
13.490,302107,52509060,-38641420,17565460,3984375,2359375,-4208374
13.500,8337334,5448399,-4063706,10134450,34316410,18017580,-35864260
13.510,-8452132,69628260,68633900,10347650,30019530,2375,-73535150
13.520,-241687,12124910,1680587,19524850,26796880,25273440,-11455080
13.530,-9424062,12338120,1444943,11378270,25371090,27480470,-68115230
13.540,-1078959,12498660,1260225,20828230,2015625,30878910,-47265620
13.550,-1501908,74430930,62950800,21458350,19306640,36289060,-9946289
13.560,8883721,74387780,62769540,11279870,24277340,33320310,-12441410
13.580,-2624030,127412200,9330841,23219210,4140625,16923830,51171880
13.590,-3012455,65868310,-52213000,23693950,45273440,53271480,12470700
13.600,-3444038,127325800,9071889,24108270,484375,-28515620,15029300
13.610,-3944677,66025400,-52401170,24453530,465625,-9338379,1015625
13.620,-4514368,66190270,-52581570,24798800,43085940,-1619873,4716797
13.630,-5109953,66267960,-52676520,25118170,37910160,-5136719,46411130
13.640,-5662378,127351700,8407249,25411650,30039060,-64501950,-5332031
13.650,-14965600,66252420,-52692060,16919810,26875,-5605469,-21074220
13.670,-7043443,73455550,61837320,26378400,25800780,-2015625,-13613280
13.680,-7371450,12463270,1052201,26689140,19658200,-28925780,-20292970
13.690,-7664925,68060750,66938640,27017140,20351560,-33300780,-23632810
13.700,-7941139,12231940,1252456,27396930,21933590,-36953120,-153125
13.710,-17000080,12042910,1425954,18959470,23007810,-37617190,-6513672
13.760,-8105144,52023960,-38608620,29304540,31835940,-42773440,-8660889
13.770,-7872086,67034020,67033140,29589380,31894530,-41679690,36035160
13.790,9532824,71142260,62804060,13272070,27832030,-30429690,5654297
13.800,9806447,107688800,26205760,13533610,30664060,-19892580,42382810
13.810,-6577337,46657650,-33271650,30487070,29179690,-23867190,-6549072
13.820,-6137119,106109200,27733570,30651080,23105470,-17285160,-4404297
13.830,10761970,105064700,28760740,14408000,20429690,-11621090,-6381836
13.840,11107240,37526290,-36188210,14718730,24082030,-7050781,-56103520
13.850,-4626576,70451730,63321970,31125820,24550780,47088620,-14978030
13.860,-4169102,41041020,-27667110,31289820,26601560,10185550,7504883
13.870,-3772042,10017060,3353406,31462450,27089840,19189450,19414060
13.880,-3435409,39311230,-25944220,31591930,259375,27050780,27832030
13.890,-3167822,98936250,34716590,31669620,22734380,29121090,32871090
13.900,-2943397,98677300,34975540,31686880,18554690,33886720,26328120
13.910,-2736244,38362610,-24993880,31652350,17558590,41640620,15820310
13.920,-15613830,98280250,35441660,18515810,98339840,44960940,7866211
13.930,-2390972,97874560,35899140,31479720,30273440,4515625,21575930
13.940,-2261497,69951090,63891660,31384770,-3310547,440625,-6538086
13.950,12895720,36041560,-22653830,16244810,-81884770,43984380,-7363281
13.960,12872420,35007480,-21616300,16216330,-10400390,47382810,-56640620
13.970,-2209706,69692140,64254180,31194870,-10927730,41367190,-80371100
13.980,-2252867,32853020,-19454930,31134450,-13378910,34023440,-83496100
13.990,-2270129,9213448,4189815,31065400,-146875,30859380,-12636720
14.000,-2287394,30872910,-17464470,30979080,-15634770,29824220,-19667970
14.010,-2287395,29839700,-16426080,30875500,-16582030,25917970,-23105470
14.020,-2270128,69295090,64892930,30771920,-16894530,209375,-2390625
14.030,-2235607,27601500,-14175800,30651080,-17646480,15146480,-26972660
14.040,-2209706,86748320,47560520,30521600,-19960940,10175780,-26914060
14.050,-2201078,24759960,-11320440,30392130,-21875,6801758,-23320310
14.060,-2209706,68898020,65566200,30245390,-21992190,2980957,-18564450
14.070,-2209706,82717340,51815940,30090020,-20371090,-13830570,-15068360
14.080,-2166550,21232190,-7770234,29891490,-19931640,-7915039,-17734380
14.090,-2088865,8099962,5372354,29675700,-18232420,-13925780,-20234380
14.100,-1976655,19345310,-5859181,29408120,-18984380,-18173830,-26191410
14.110,-14112790,7862592,5635621,16840400,-21269530,-22148440,-29179690
14.120,-1691807,77054950,58065270,28829800,-225,-24335940,-29101560
14.130,-1545074,82721650,-69195820,28544950,-21230470,-23710940,-25664060
14.140,-1398331,7330017,6207900,28242840,-20097660,-21992190,-22363280
14.150,-1217066,104874800,30642440,27923470,-23808590,-24453120,-22753910
14.160,-1009906,26635620,-13070080,27629990,-2625,-278125,-19462890
14.180,-1379742,5412923,8175059,1382394,-35234380,-34199220,-15927730
14.190,-353898,3777220,9819393,26853140,-33183590,-33886720,-12724610
14.200,-13412290,63356490,72678700,13414950,-31074220,-32851560,-11904300
14.210,34529,61751000,74353240,26499240,-30683590,-30859380,-10791020
14.220,215795,60309510,75846520,26369770,-33554690,-24589840,-10771480
14.230,362534,-82959890,96578940,26257550,-35097660,-19697270,-7895508
14.240,466113,58263800,77944020,26205770,-36074220,-16347660,-46679690
14.250,535169,-96770560,110389600,26223020,-38574220,-11142580,-40893560
14.260,586959,57461060,78694980,26309350,-4078125,-13330080,14648440
14.270,595586,-4071562,17680260,26490610,-43789060,13798830,5708008
14.280,578326,57115780,78867610,26766830,-45546880,34667970,12841800
14.300,12573760,-2366806,15932340,15306550,-32929690,68046870,41640620
14.310,60422,-391879,13936700,28096100,-15576170,6875,53203120
14.320,-189894,-38121790,51647620,28588100,39672850,63359380,64882810
14.330,12782650,-5330923,18837770,15736410,153125,55898440,72421870
14.340,-880431,30913480,-17423900,29399480,18681640,53398440,709375
14.360,-1924863,7850507,5606273,30064120,22460940,6015625,56640620
14.370,-15062270,22947310,-9507789,17841670,18515620,56171880,46445310
14.380,-3219612,28204000,-14781740,30616550,14072270,48476560,33945310
14.390,-3910148,33459820,-20056560,30875500,11367190,40351560,25371090
14.400,-4592048,98763620,35061860,31125820,8198242,31777340,2109375
14.410,-16999220,103398800,30202230,19616350,72021490,2390625,19199220
14.420,-5765956,70796990,62579640,31660980,6699219,14863280,14570310
14.430,-17782110,51888450,-38571500,20352630,3552246,30908200,75878900
14.440,-18090260,71375310,61587000,20648700,13415530,-10234380,-14427190
14.450,-6853551,11851290,1424226,32420570,13977050,-2234375,-6430664
14.460,-7069340,12126640,1129886,32670890,3996582,-37714840,-10166020
14.480,-7285133,125772100,6482389,33093840,5839844,-75078130,-26679690
14.490,-7336923,72160800,59938350,33335530,12441410,-88828130,-3171875
14.500,-19163180,72134900,59826130,21785490,16337890,-98984380,-3125
14.510,-7362816,6787688,-5469287,33827530,19277340,-108984400,-28515620
14.520,-7354186,71875950,59860660,34077860,221875,-116640600,-28789060
14.530,-7371448,71634270,59998770,34336800,26464840,-120,-28945310
14.540,-7423240,12152530,1000411,34595750,32480470,-121875,-23046880
14.550,11530190,71047310,60395820,15763170,38320310,-117890600,-215625
14.560,-7699457,51928930,-50615360,35010080,38847660,-11609380,-19433590
14.570,-7975666,11465450,1659871,35199970,36386720,-122421900,-5083008
14.580,-8303668,70253200,60913730,35355340,41054690,-118984400,-24328610
14.590,11189240,69976980,61120880,15603480,421875,-10671880,-16821290
14.600,-9080520,69683500,61362570,35493450,37070310,-88125,-5239258
14.610,-9477578,10402890,2703441,35458920,31425780,-57304690,-20878910
14.620,-9831481,41857580,-28749520,35398500,79052740,-23117060,-40546880
14.630,-10176740,9840108,3262774,35433020,-9897461,5984375,-571875
14.640,-10496120,37529660,-24445760,35717870,-11210940,81171870,-44492190
14.650,-10720540,35357930,-22301650,36183980,-6977539,725,-27145390
14.660,10534960,90951950,39334540,15291020,-78515620,66171880,27207030
14.670,-10970860,8751654,4245922,37245680,-17669680,71328130,43320310
14.680,-11100330,2598909,-1302605,37824000,10566410,97109380,47382810
14.690,-11221180,23899380,-10972580,38428220,32636720,124140600,44101560
14.700,11373090,17476290,-16187240,16403630,55703120,13640630,50703120
14.710,-1116939,23778540,-10920800,3960213,6984375,13515630,58671880
14.720,-10988120,82363440,45937770,40076870,69882820,129140600,57734380
14.730,-10772330,8326975,4477250,40551610,71210940,12390630,52070310
14.740,-10530640,84063880,43667640,41069510,73945310,133125,5171875
14.750,13078710,27776730,-15036380,18271530,8546875,155859400,48398440
14.760,-9978216,29226850,-16521020,42226150,119921900,15875,60390620
14.770,-9486210,6582514,6093963,42752680,157109400,14453130,81875
14.780,-8916520,32483580,-19824370,43115210,196875,12421880,77734380
14.790,14882740,92367550,34190060,20041030,23875,103359400,75585940
14.800,-7923876,66645160,59981500,43141110,28625,9515625,93515620
14.810,14880140,44151010,-31462450,19940030,348125,928125,8765625
14.820,-8320935,107101800,20267170,41794570,3909375,1134375,7703125
14.830,-9244524,11348920,1457027,40370340,4134375,134296900,49335940
14.840,-10470220,62987060,-50087880,38350540,375,158359400,-18251950
14.850,9613957,71405520,-58414850,14416630,3228125,17671880,-108984400
14.860,-13776150,7286858,5786675,33404580,22328120,18625,-1996875
14.870,-15890920,93227260,-80096760,30668340,11953130,19078120,-27484380
14.880,-17902090,16453700,-3278310,27724940,16845700,1959375,-2928125
14.890,21544660,77210330,55044180,25929550,-61835940,18859380,-27734380
14.900,-20007360,78850340,54284600,20009090,-94765620,1875,-28984380
14.920,-44073330,20909370,-7402523,-14967320,-26640620,16234380,-5203125
14.930,-52066260,69210500,66134160,-27517780,-31125,118671900,-53125
15.000,-24220480,18339720,-4931274,10858650,31828120,4921875,25328120
15.010,-21294340,78522340,57340220,7552718,2003125,803125,27015620
15.020,-17669040,78185700,59247810,5325748,-325,-105625,72148440
15.030,-15373010,16705740,-2905422,3789307,-3871875,-145234400,-18484380
15.040,-15519750,17594800,-3829010,4384892,-2940625,-15203130,-100390600
15.050,-15778700,18098030,-4361585,5403429,-82265620,-684375,184375
15.100,-13448150,79100660,58850760,7941145,-1028125,148046900,-104453100
15.110,-29563480,16975910,-3187675,-7207448,-59570310,151640600,-31640620
15.120,-21233920,78962560,58885280,1553705,-33027340,133203100,8598633
15.130,-33016150,16727320,-2935631,-10142220,-32402340,126796900,5415039
15.140,-11134860,16331130,-2537712,12256980,-18164060,168125,5097656
15.150,-241688,15721730,-1938674,24583010,3703125,15625,41679690
15.160,3875624,69631720,67974440,30478450,9328125,112265600,65625
15.180,-12567720,7660611,-6288175,17056190,39453120,8609375,13769530
15.200,-13525830,73723130,63123430,19032840,2125,45234380,-25820310
15.210,-13396350,73058500,63632700,19939170,11650390,30664060,-3375
15.220,-13128780,110727100,25791440,20914550,-97021490,10166020,-31894530
15.230,-12869830,44363350,-30732210,21898560,515625,-19882810,-18398440
15.240,33629010,10086970,3526901,68915290,10742190,-35449220,-20488280
15.250,-12058450,3450856,-2090677,23504050,13574220,-46054690,-36484380
15.260,-11557810,9022688,4568746,24194580,-3330078,-46171880,-5390625
15.270,-11074440,84883890,50875090,24936910,-14316410,-36992190,-51210940
15.280,-10591060,79609930,55959140,25679230,-25952150,-43710940,-446875
15.290,-17366930,74612190,60801520,19006950,12963870,-50195310,-3265625
15.300,-9304946,30931600,-17405770,27017140,11480710,-43828120,-29277340
15.310,-8553988,-8779278,22294750,27543670,10283200,-50703120,-30253910
15.320,-7708085,6193225,7315345,27923470,67871100,-54453120,-39472660
15.330,-6793124,57512850,77538340,28234210,-20263670,-50195310,-496875
15.340,-5835011,-8009333,21511000,28484520,-12578130,-40117190,-5046875
15.350,-4911422,-13449010,26947220,28683060,-20917970,-24179690,-45976560
15.360,-4039622,-19408320,32899630,28881580,-2515625,-7553711,-36386720
15.370,-3185086,-31176920,32524840,29131900,-32285160,8466797,-26953120
15.380,-2416868,-30557860,44019820,29468540,-3515625,17246090,-1375
15.390,-1734962,24393110,110019300,29874230,-23847660,19160160,-28076170
15.400,-1130747,-41802340,55217680,30288540,-85302740,25449220,91064460
15.410,13509440,61500680,72393860,16632380,40014650,27949220,22617190
15.430,483373,98400,13235810,31436560,1140625,81328130,6359375
15.450,1061696,-6595119,7923359,32204780,43007810,771875,112578100
15.460,1122120,58945700,73723130,32455100,53046880,64570310,116640600
15.470,1018541,-801883,14061860,32575940,58007810,57382810,112734400
15.480,742324,-758725,14018700,32593200,578125,59375,10484380
15.490,-14455460,65607630,67061200,17740680,48398440,6484375,93828130
15.500,-267579,-64055660,77331180,32446460,32460940,7203125,85390620
15.510,-1009904,-6146272,7474513,32394670,22050780,76679690,80234380
15.520,-1829910,1804024,131106500,32316990,79541020,83671870,69453130
15.530,-2701714,580910,12717050,32273830,-10760500,84609380,53398440
15.540,-3573508,10228540,122785600,32282460,-16540530,74101560,4375
15.550,-4471204,61328050,71686060,32316990,5566406,53007810,36484380
15.560,-17502450,1876525,11423160,20200710,14873050,35097660,28066410
15.570,-6283856,22804880,110157400,32351520,22597660,23027340,2328125
15.580,-7241970,26835880,106074600,32377410,28242190,12783200,18837890
15.590,-8200090,3078054,10207820,32351510,33808590,65527340,9199219
15.600,-9115043,34198690,98590980,32299730,28886720,44517520,75927740
15.610,-20008220,37098940,95621690,22235190,20761720,-50390620,-7128906
15.620,10497070,-20039300,33304450,10926750,15849610,-81689460,-15253910
15.630,-11445600,-17713060,30969580,32178880,12226560,-11806640,-21113280
15.640,-21070780,4388343,8859551,23088870,9189453,-18037110,-2359375
15.650,-12377820,45497560,86929600,32178890,7314453,-24179690,-259375
15.660,-21428130,47198000,85177370,23387520,828125,-28496090,-30214840
15.670,-12714450,48725800,83597770,32273830,80029300,-36503900,-28359380
15.680,7586380,-9699412,22928320,12093840,11484380,-45820310,-2328125
15.690,7724489,50331290,81923220,12231950,12431640,-5265625,-19091800
15.700,-1232602,-9098648,22320650,3267952,14130860,-55078120,-18945310
15.710,-1203254,-9273008,22491550,3285215,1796875,-56679690,-15693360
15.720,8441782,49934240,82216700,12912990,2296875,-61210940,-8125
15.730,-11264330,4940770,8272598,33206050,26484380,-61796880,-4958496
15.740,-20951660,-10656670,23870030,23207980,32597660,-60078120,-71875
15.750,-20755720,-11347200,24560570,23075920,35117190,-57890620,-63427740
15.760,9765878,-12383000,25596370,14109330,39804690,-5640625,-7993164
15.770,-9244523,-13936700,27150070,33758480,475,-56796880,-3166504
15.780,-8726623,4390068,8826751,33827530,5125,-52265620,74365230
15.790,10681700,-17125240,30348970,14885320,471875,-43515620,16210940
15.800,-7768505,65908880,66414690,33715320,44726560,-34589840,21660160
15.810,-7302392,39541700,92885450,33594480,41953120,-24140620,25136720
15.820,-6844913,63468700,69079290,33430480,40703120,-9819336,27128910
15.830,11433520,-22713390,35982000,15393730,37070310,56347660,27558590
15.840,-5947219,63365120,69476340,32981630,33632810,13388670,31171880
15.850,-5507008,-25287360,38587040,32714040,2578125,22304690,37089840
15.860,11822810,3325784,9989436,15574130,16943360,39121100,44140620
15.870,-4617944,-27689550,41018580,32204780,11757810,58125,47109380
15.880,-16736810,-28374910,41714300,19516210,10068360,67304690,58671880
15.890,-16469230,-28369730,41719470,19265900,11025390,7578125,73828130
15.900,-16221500,32619100,100982000,19030250,13193360,78632820,75625
15.910,-3340457,3415552,9958363,31445190,10742190,759375,76445310
15.920,-3185085,63874390,70020140,31186240,10341800,6578125,71835940
15.930,12173260,38635380,95431790,15568950,91259770,59101560,59375
15.940,-3133296,-19182170,32607880,30495700,117004400,58125,45429690
15.950,-3254140,-16238770,29681740,30133170,-7734375,5625,33417970
15.960,-3435404,-13122740,26582970,29762010,-17763670,54726560,21972660
15.970,-15250440,65712940,69044770,17826140,-28339840,4953125,11474610
15.980,-15207280,-6547126,20038430,17731190,-36992190,396875,16064450
15.990,-4022356,57340220,77710970,28760740,-40859380,27519530,-11533200
16.010,-4289940,-41571870,55102880,28113360,-37402340,-15222170,-22128910
16.020,-14894810,67456540,68008970,17232280,-39746100,-12666020,-25
16.030,-4428049,-3577831,17138190,27388300,-446875,-18623050,-259375
16.040,-4453942,67882080,67876900,26999880,-50078120,-22714840,-25585940
16.050,-4471207,8435735,5155700,26602820,-5734375,-27519530,-25195310
16.060,-4462577,35288010,-21681040,26197130,-60039060,-40625,-26835940
16.070,-4419417,10696370,2927864,25791440,-63710940,-515625,-29902340
16.080,-4333099,113938100,22442350,25394390,-66445310,-57070310,-34550780
16.090,-4220889,11833160,1820421,25023220,-64023440,-61914060,-38046880
16.100,-4039623,119263800,17410090,24652070,-60820310,-65351560,-39238280
16.110,-3815201,11588020,2093181,24306800,-59921880,-68125,-3890625
16.120,-3547620,46552350,-32859060,23987430,-5609375,-68671870,-37460940
16.130,-3245511,35337210,-21631840,23702580,-54140620,-67929690,-31191410
16.140,-2926135,83252500,53904810,23435000,-55703120,-6328125,-28320310
16.150,-2598131,68630440,68630440,23193310,-58007810,-60429690,-25097660
16.160,-2270126,53991120,83338820,23037940,-5625,-60234380,-17626950
16.170,-1959389,-25068970,38805420,22934360,-54726560,-59570310,-86279300
16.180,-1657279,63684490,73697230,22891200,-546875,-56835940,-29467770
16.190,-1389697,61871840,75509890,22934360,-5625,-475,31640620
16.200,-1191168,59946980,77382960,23063840,-58828120,-32402340,12226560
16.210,-1061693,58358750,78902130,23279630,-53085940,-17148440,23476560
16.220,10040370,67456540,69683510,12505570,-48515620,6719971,39433590
16.230,-1199804,-11238990,11376000,23970160,-42265620,21210940,50585940
16.240,10203510,67327060,69519500,12791280,-4015625,47773440,58164060
16.250,-1752229,-3353407,17017350,24988700,-34355470,67734380,66601560
16.260,-12644540,-2069877,15711380,14994080,-28066410,76523440,73398440
16.270,-2460025,-269310,13886640,26179870,-20664060,825,8359375
16.280,-13732130,2392700,11197010,16116200,-15996090,93828130,1015625
16.290,-3737513,60024660,75561670,27526410,-5722656,95703130,11453130
16.300,10168110,46468620,-32942790,13448150,-14233400,8578125,1084375
16.310,-5541534,16325950,-2836369,28864320,-42944340,75117180,96953130
16.320,-6542808,22349130,-8897531,29485800,-49560550,6859375,79023440
16.330,9380040,28543220,-15133050,13148630,-8017578,65546880,5703125
16.340,-1956973,9469810,3893749,1979071,-8359375,57109380,37695310
16.350,-9693369,100231000,32903940,31376140,-61279300,46210940,22734380
16.360,8522918,70218670,62398380,12797320,-1784668,33203120,10957030
16.370,-11626860,70468990,61612900,32670890,22631840,23242190,35131840
16.380,-12360560,11490480,1667640,33266470,21228030,11386720,-39892580
16.390,-12869820,70909210,60240460,33793010,-2467041,-5161133,-128125
16.400,-13171940,63163140,-50084430,34267750,-10527340,-25820310,-26835940
16.410,-13310040,71099100,59360020,34751120,-12119140,-49140620,-42460940
16.420,-23219210,124727700,5437957,25411660,-7558594,-71601560,-54101560
16.430,-13361840,66050430,-53066670,35855980,12988280,-9015625,-59101560
16.440,-13361830,70641620,58885280,36442930,12597660,-105234400,-57734380
16.450,-23986560,65192450,64040980,26353370,27402340,-119296900,-49960940
16.470,-13094250,69718030,59066550,37988000,47890620,-13921880,-421875
16.480,10190560,11419700,1441489,15324680,5078125,-139375,-40898440
16.490,10454680,109984800,18489050,15612980,57734380,-135390600,-40078120
16.500,-25928220,68311070,60007400,25930880,65351560,-130625,-32304690
16.510,-1267128,101560300,26637350,3948132,671875,-126875,-18710940
16.520,-12748980,40327180,-27517780,39679810,7375,-121484400,-15429690
16.530,-12930250,67024950,60982780,39826550,71757810,-115859400,-85595700
16.540,-13206460,90218260,37737680,39861080,809375,-102421900,-6142578
16.550,10474540,8591968,4207078,15800280,8984375,-97109380,-25610350
16.560,-13784780,23495420,-10686010,39558960,92265620,-87578130,1048584
16.570,-14104160,7533724,5289491,39256860,8625,-6359375,10803220
16.580,-14380370,10824120,2019812,38842540,70585940,-18310550,-10166020
16.590,-14656580,38402320,90192370,38480010,4453125,43515620,-15996090
16.600,-14915530,-2977930,15839120,38324630,22148440,934375,-48779300
16.610,-15045010,48130210,80412670,38350530,19414060,118984400,12177730
16.620,-15045010,-16969010,29814670,38436850,2890625,107734400,36347660
16.630,-25557520,-24570920,37404500,27924330,36347660,99140620,62070310
16.640,-14717010,2535985,10287230,38695800,50859380,108828100,79335940
16.650,9499163,18230100,109898500,14824900,66640620,12015630,959375
16.660,-25232110,1183402,11627730,27697320,75898440,12671880,105078100
16.670,-13698470,671543,12151670,38592220,85625,13671880,959375
16.680,-13146040,5815158,7030500,38298740,790625,150625,8359375
16.690,-12567710,58073900,70641620,38013900,70117180,16140630,79023440
16.700,-11980760,58091160,70866040,37754950,615625,161875,7859375
16.710,-11428330,58186120,70995520,37513260,7421875,16375,71796870
16.720,10710180,110485,12833570,15530110,104453100,155546900,63671880
16.730,10686880,58609070,71142260,15432570,123828100,14515630,68320310
16.740,-10565170,-5443308,6744618,36218500,139609400,129921900,65898440
16.750,-10625590,59437710,71142260,35467550,15234380,12828130,865625
16.760,-10841380,9244524,121801600,34595750,16671880,1553125,10125
16.770,-11445600,60128240,71263100,33767110,1984375,18984380,64179690
16.780,-12567710,60300880,71263100,33042050,2140625,231875,15878910
16.790,-1421632,14915530,116769300,3223931,21796880,2303125,-28125
16.800,70841880,-36127010,49326560,75551320,18734380,25734380,-74804690
16.810,-18506310,33793000,98530560,29106010,1321875,27046880,-156953100
16.820,7440504,-13391180,26659790,55052820,57421880,25734380,-1859375
16.830,7867773,-45081250,46414500,12502980,-28535160,25375,-19640620
16.840,-29451270,7834970,5590737,14086890,-54921880,228125,-24578120
16.850,-42545520,33101610,-19551600,-3547617,-5609375,2259375,-2840625
16.860,-20224010,72540590,64202400,13111520,-15578130,26890620,-31640620
16.870,-18937890,7455177,6303713,8631674,-23328120,3259375,-37875
16.890,-20396650,13232360,526533,1631387,-1016875,19390620,-343125
16.900,-24919640,16944840,-3512227,10642860,-2425,-995625,-47265620
16.910,-33344160,16556410,-3210118,8139670,-66875,-164875,-40625
16.920,-53024380,74681250,59334130,-11885820,-1309375,-1061875,173125
16.930,-22977520,8248428,5486293,1139382,1728125,-141015600,-999375
16.940,-28648520,43149740,91487120,8312305,17703120,460,-36601560
16.950,-17907270,41975840,93420610,15825310,2209375,4116211,693125
16.960,-23262360,-11440420,25157880,2701714,-71210940,-445625,51171880
16.970,-12123360,-8568664,22332730,11924490,-28046880,-20984380,24628910
16.980,-21734560,16469240,-2693082,1242962,-3425,-8609375,-309375
16.990,-23029310,27836290,-14113650,3159194,-18609380,-149453100,22859380
17.000,-14099840,99678580,37530520,12157720,22109380,-25203120,157421900
17.010,-10935470,72186700,65022410,-8330427,-52929690,-21828120,-65283200
17.020,-22796250,10199190,3518272,3772041,-124453100,-5625,-65390620
17.030,-22753090,23473840,-22101400,4246784,-124609400,69765620,-809375
17.040,-13698550,80490360,56839580,13698380,-112578100,12984380,-92890620
17.050,-22148880,58660860,-44919240,5696907,-8171875,107109400,-60664060
17.060,-21372030,55216820,-41457930,6491021,-79101560,94296870,-14589840
17.070,-79186980,78013070,59713920,-51151300,-72265620,725,20996090
17.080,-19826950,82363440,55432610,8588519,-35585940,50859380,55078120
17.090,-48308370,70322250,67525590,-48021100,-45117190,35,61328120
17.100,-18575370,96666120,-82872700,10288960,-8671875,80615230,17988280
17.110,-48794860,6904478,6901026,-20085910,-9671875,64404300,-26347660
17.120,-26876440,-3792757,17613800,-24050430,-9640625,37539060,-52148440
17.140,-13766920,-22344820,36177940,13768130,-66992190,56757810,-30644530
17.160,18549470,-35647960,49460360,45670190,-48901370,24882810,41601560
17.170,31781830,64021130,73878500,58850760,-16516110,16787110,39902340
17.180,-12846520,-49914380,63678450,13997990,17490230,-78515620,11953130
17.200,-4833735,61992680,75268200,20785080,63964840,11679690,-18681640
17.220,-2641289,-72771750,74139350,22338770,27460940,-9736328,9038086
17.230,-1709069,-840726,14489130,23012040,21074220,24621580,97998050
17.240,-863164,60128240,76079580,23650790,16230470,1375,24160160
17.250,-146735,59705290,76226310,24263640,27558590,19404300,37265620
17.260,12515240,59342760,76347160,12758310,31699220,11386720,42851560
17.270,11887550,-80578410,94126680,14300950,240625,11337890,33613280
17.280,1415599,58669490,76623380,25480710,60546880,30,23789060
17.290,13628730,58298330,76752850,13871790,-50927740,53828120,30644530
17.300,1665916,57884020,76873700,26473350,1529541,62304690,49140620
17.310,1640021,57495580,76968640,27034410,13574220,61484380,66835940
17.320,-11511200,57202100,77037690,14418350,19716800,603125,7921875
17.330,13382550,-9368388,10708890,16016930,23769530,50859380,8640625
17.340,-11870270,65938220,67956310,14836120,21972660,44140620,102734400
17.350,1406967,56874100,76951380,28406840,19521480,37519530,11109380
17.360,-12129230,6590110,6788985,15112340,21171880,30332030,1075
17.370,1096223,-9119278,10457360,28596740,24238280,296875,102578100
17.380,776853,57314320,76528420,28657160,19140620,32792970,97265620
17.390,319373,-2706894,16092890,28769370,10410160,40703120,88203130
17.400,-224422,-2472976,15860700,28898850,1375,44726560,76210940
17.410,-768217,-2169141,15560320,29011060,10439450,53789060,5984375
17.490,-4842365,59972870,73973450,29528960,19824220,-546875,26777340
17.500,-5317112,6011960,7384398,29485800,17177730,-21826170,20996090
17.510,-5740059,-60801520,74197870,29459900,16875,-9213867,23222660
17.520,-6050804,44020,13354060,29373590,16513670,-14599610,18779300
17.530,9732213,-5898456,7238954,13279830,15878910,-17060550,13388670
17.540,9623459,1890332,132228600,13164170,13808590,-21484380,11435550
17.550,-6327010,2097500,132090500,28942010,11582030,-27167970,9604492
17.560,9502614,-58111020,71536730,13008790,11806640,-32753910,39746100
17.570,9485353,2071600,132237200,12974270,15195310,-34980470,6069336
17.580,-6171646,131200,13303140,28579470,23398440,-36308590,17128910
17.600,-15994490,-60864520,74307500,18238730,30566410,-32617190,19316410
17.630,-15030330,-2796656,137554400,17321180,33203120,-4328125,14248050
17.650,10080080,-5498376,140549600,13139140,26582030,-45820310,16914060
17.670,-2805293,-916685,14447700,26162600,31210940,-31953120,29316410
17.680,-2382342,-1057381,14600480,25791440,36210940,-3546875,33984380
17.690,10349380,66996460,68589870,13076990,39726560,-38613280,35605470
17.700,-1424223,59791610,75967370,24816070,4125,-37792970,24570310
17.710,-914957,-1410417,15007030,24220480,34433590,-38671880,19423830
17.720,10383040,59731190,76424850,12784380,28222660,-37089840,19970700
17.730,17267,59679400,76649270,22977520,22871090,-30429690,22207030
17.740,-9868592,-1807473,15455880,12142180,22695310,-25644530,30371090
17.750,647377,-1928318,15593980,21760450,26640620,-15693360,30078120
17.760,10004980,-2023266,15706190,12023060,29042970,-33081060,26464840
17.770,1199804,-2108719,15810640,20379380,18066410,10058590,25058590
17.780,1501914,59549920,77659180,19611170,-24987790,23300780,23613280
17.790,-7475890,59524020,77857700,9545772,-25273440,359375,26367190
17.800,-6992519,-2446218,16198200,9027869,-421875,4734375,37480470
17.810,-74696780,59290980,78315180,76702780,-48632810,53945310,5625
17.820,2727613,59152860,78522340,17073460,-44609380,55078120,72382820
17.830,2917506,5908380,7867771,16590080,-35566410,48710940,8546875
17.840,-55570720,67938180,69909660,74767570,-29902340,38710940,89375
17.850,-61036290,59118340,78850350,62914550,-31621090,34882810,8125
17.860,-50072340,-2944268,16753220,68354220,-35351560,32421880,71015620
17.870,3141933,59265080,78928030,14570270,-42304690,31660160,63007810
17.880,2969297,-2908012,16737680,14138680,-50351560,3140625,53046880
17.890,2736241,-2903697,16742000,13750260,-5390625,30878910,42304690
17.900,2460028,-9095972,10480660,13387730,-55625,31113280,30703120
17.910,75587580,-2808751,16664310,76675160,-57265620,27636720,1765625
17.920,19076000,-2752647,16616840,127317200,-578125,18642580,91015620
17.930,16572810,59696660,79014350,124123500,-6203125,94433590,23022460
17.960,1130753,68430190,70401660,11506030,-62695310,7973633,-49316410
17.970,1044433,-3053024,16937930,11143490,-64492190,26367190,-4140625
17.980,5389618,-3190268,17076900,6366723,-64335940,-5498047,-23510740
17.990,52040370,59152870,79730780,61379840,-64023440,-11103520,-46020510
18.000,5480675,58988870,79912050,5481558,-64921880,-20585940,21118160
18.010,1156648,58798970,80101940,9443055,-63984380,-26855470,45874020
18.020,47508740,58591810,80309100,55208200,-62382810,-31835940,7915039
18.030,4651613,58367380,80516260,5361136,-61835940,-36328120,12011720
18.040,-27733570,-4365040,18249950,37521890,-59179690,-38144530,175
18.050,18299150,-4591191,18472650,78030340,-56171880,-37148440,20410160
18.060,2037079,57650950,81129100,7475033,-56289060,-35507810,24667970
18.070,2226973,-4948540,18823090,7198817,-51992190,-37617190,27988280
18.080,-18100620,68163470,70564800,27474620,-45859380,-41054690,31953120
18.090,-16227540,57262530,81448480,25549760,-421875,-45,31191410
18.100,-14414900,-5244606,19113980,23737110,-44023440,-4578125,30
18.110,-12930250,-5323154,19190800,22286980,-45117190,-42890620,29003910
18.120,3072877,-5385302,19249500,6370176,-44726560,-42851560,30546880
18.130,-10841380,-5429323,19291790,20405280,-4484375,-41445310,31523440
18.140,33490900,56925890,81681540,63701760,-45,-39921880,33085940
18.150,-10064530,56943160,81664270,19973700,-42226560,-39746100,35488280
18.160,-10228530,56986310,81621110,20327600,-4234375,-36875,35410160
18.170,-10901800,57046740,81560690,21208030,-42265620,-32324220,33613280
18.180,-12015290,57124420,81483010,22511410,-43710940,-2578125,29785160
18.190,-13387730,-5153111,19015580,24073740,-47539060,-23515620,28828120
18.200,-15252170,-5066793,18929260,26179870,-44765620,-20390620,325
18.210,-17530930,-4945952,18808420,28734840,-42109380,-15634770,40976560
18.220,-20413910,-4798349,18662540,31894040,-41484380,-10126950,52070310
18.230,2874348,-4617084,18481280,8899255,-44648440,4916382,65117190
18.240,-28942000,-4392661,18256860,40974560,-39726560,16845700,771875
18.250,-34000160,58272430,80386780,46274410,-37636720,34570310,85546870
18.260,16831760,-3803984,17671630,107982200,-33789060,48671880,86953130
18.270,-44953760,5892842,7974806,57590540,-21933590,53046880,87265620
18.280,647376,-3103950,16973320,12058450,-10654300,52421880,86796870
18.290,5704675,-2715525,16584900,6966625,-5395508,51328120,83359380
18.300,-647375,6010234,7859140,13215090,3186035,44765620,83671870
18.310,-69787090,-1895520,15764890,82130380,16955570,4078125,79375
18.320,5187643,-14829220,153488400,6844918,16894530,32988280,76523440
18.330,-3133296,-1078961,14941430,14803320,38513180,2765625,70625
18.340,46921790,-69116410,82973690,66153150,-28759770,24160160,6578125
18.350,-4686999,-282256,14132640,15701020,-87597660,17802730,59570310
18.380,4163060,63123440,75242300,6453905,-3486328,-25756840,16572270
18.390,52511660,1174769,12654900,54866380,-31933590,-21621090,38867190
18.400,-6585967,-4798608,6180884,17565460,-14782720,-34941410,-53271480
18.410,44090600,1623616,12188790,68811710,21069340,-46757810,-13994140
18.420,4547169,-44111300,57915080,7071067,10058590,-59648440,-21777340
18.430,-6862179,1968021,11825400,18860210,16777340,-7484375,-25234380
18.440,49071070,-41359540,55142590,75225040,19453120,-85546870,-2671875
18.450,51272150,-41106630,54877600,77857700,215625,-92890620,-31132810
18.460,5349051,-41717740,55474900,8047308,2265625,-971875,-29003910
18.470,-6741336,63736280,73697230,20655600,234375,-946875,-25292970
18.480,5835015,63477330,73783550,8614414,29140620,-93515620,-17841800
18.490,-6603229,-46747420,60457980,21570550,36914060,-95390620,-99902340
18.500,-6542810,1227423,12465870,21993510,4328125,-9625,-5283203
18.510,-6516912,-58443170,59810770,22364670,48789060,-8953125,-18054200
18.520,-6568701,-55232360,68891120,22727200,57148440,-8265625,40893560
18.530,67016320,-58261220,71904430,96640220,64960940,-753125,7861328
18.540,6743070,319376,136009300,9726171,634375,-64882810,40966800
18.550,-6767229,-63277080,76901320,23219200,52265620,-48125,-12573240
18.560,66627890,-338366,13955690,96856020,41953120,-43320310,58496100
18.570,-7207445,60827410,75276830,23365940,3171875,-35742190,13300780
18.580,-7552712,60741090,75294100,23417740,16513670,-27753910,19414060
18.590,-7984296,-66484620,80081220,23469520,-18463140,-3359375,26210940
18.600,-8433144,67189820,68672740,23521320,-24570310,23710940,30019530
18.610,-8830200,60361300,75397680,23607630,-36054690,48789060,3296875
18.620,56675580,-69521240,83086780,89544990,-39433590,5765625,42851560
18.630,56554740,59964240,75553040,89838460,-475,55117190,54570310
18.640,-16142090,5969666,7563074,17625020,-4984375,6703125,7125
18.650,58609080,-13845210,148948200,92963140,-34921880,79492190,965625
18.660,-9615686,-1593409,15082990,25187230,-11572270,9578125,102578100
18.670,6274365,5886801,7590694,9763287,9736328,129140600,74648440
18.680,-9115044,-80101080,93568220,25739650,23339840,154453100,66601560
18.690,-8735250,58496860,76088210,26033130,53085940,166875,87734380
18.700,7275642,58445070,76088210,10730040,79414060,1596875,108046900
18.710,-7794401,-8105662,9451166,26421560,88125,148046900,11578130
18.720,-7423239,-1929180,15385960,26568290,9265625,13859380,122265600
18.730,-7129763,-1771221,15233180,26585560,112109400,131796900,132109400
18.740,-15638870,-1590818,15068320,17593080,133984400,140078100,13484380
18.750,-6603229,-1354311,14855980,25955440,159296900,1665625,1503125
18.770,-6542809,-1158372,14706650,24841960,2521875,278125,11890630
18.880,-19369480,5242016,8591106,-3970571,-84875,3553125,-18625
18.890,-20526120,-4929550,18721240,-5541535,-86125,-21828120,-4840625
18.900,-19749270,94439150,42994370,10858650,-998125,-168375,-121796900
18.910,-86144110,12634180,1067742,-55242720,2990625,-139125,1410
18.920,-23883840,-19238280,32897040,-7293766,115234400,-16174320,-10775
18.930,-31186240,2075054,11293690,3616673,25796880,27390620,-4359375
18.950,-24039210,21256360,-7573430,-4721526,-280625,-9425,75
18.960,-22848040,87646020,49666650,-2805290,8546875,-6015625,2165625
18.970,-22312880,39409640,-25673190,-3254140,-13203130,-421875,-126171900
18.980,-82736330,82268490,55682940,80229690,-235625,-28515620,65351560
18.990,-19861480,75915580,62277530,-4548889,-18453120,-18765620,-119453100
19.000,-12230220,-6022319,19872700,-10747300,-21953120,76445310,-90546870
19.010,-80921950,61362570,77590120,60464880,-17859380,24042970,-28769530
19.020,-16063550,-6587695,20515770,-2132025,-17453120,-14052730,-63554690
19.030,-7986888,5299848,8648938,6393482,-1240625,48515620,-56640620
19.040,-137675200,49252340,90511740,8027463,-65,77929690,-40976560
19.050,-12092970,43063420,96925070,2252869,-46835940,89453130,-55546880
19.060,-41423400,35096390,105013000,-27112090,-18955080,128046900,-35390620
19.070,-91927330,65937360,74223770,48768960,18232420,14390630,12041020
19.080,-67424420,2409961,11611330,67402330,16679690,116171900,37402340
19.090,-82000900,65134610,75095570,47474220,-9136963,7421875,5546875
