Timestamp,Rotation X,Rotation Y,Rotation Z,Rotation W,Acceleration X,Acceleration Y,Acceleration Z
0.000,28502650,22720300,-31106830,-36131320,11390690,115600600,-70703130
0.010,-5964492,-15148590,-68854860,-70408570,28427120,20324710,-6489258
0.020,28320520,22577010,-30991160,-35968190,16952520,-7977295,-60302740
0.030,-6223440,22501910,-30928150,-70339510,-13801580,-21679690,-5991211
0.050,-6456494,-15675120,-68846230,-70261830,-4940796,-29052730,-61376950
0.060,-6568708,-15787330,-68854860,-70218670,-45776370,-36328120,-60253900
0.070,-35253490,-15899540,-68863500,-41602940,-29792790,-28515620,-5722656
0.080,-6775864,-1601172,-6887213,-70132350,43396000,-8050537,-54248050
0.090,27762050,22136800,-30637270,-35456330,19213870,48754880,-4663086
0.100,27691270,22078100,-30592380,-35389000,32739260,11347660,-4873047
0.110,-7026184,22011640,-30538000,-69985620,2709961,10507810,-5864258
0.120,27566110,-16477870,-68906660,-35272480,1706543,62109380,-6064453
0.130,27511740,21888200,-30437010,-35223280,19384770,84472660,-5834961
0.170,-35561640,21625800,-30198770,-41812690,-10668950,1676941,-40161130
0.180,27373620,-17030290,-68716760,-35119700,-99853520,-28808590,-21655270
0.200,27385710,-17211560,-68587280,-35142140,7446289,-6977539,85510260
0.210,30884640,-17332400,-68535500,-31660460,19055180,-8496094,19177250
0.220,2740208,-17470510,-68500970,-3516027,30395510,-8466797,19995120
0.230,2740208,-17625880,-68466440,-3516027,32128910,-9550781,13342290
0.240,-35645360,-17763980,-68449180,-41901600,31713870,-11162110,13464360
0.250,-7483662,-1791070,-6844055,-70011510,34350580,-11025390,13305660
0.260,-747506,-18048830,-68440540,-6998563,3557129,-9536133,1508789
0.270,27367590,20804060,-29466810,-35108480,3659668,-7363281,17529300
0.280,-744915,20736730,-29413290,-6990793,39501950,-5595703,19543460
0.290,27356360,-18428620,-68475070,-35085170,4230957,-3618164,2154541
0.300,-7414612,-18549470,-68475070,-69838880,45507810,-19750980,22460940
0.310,-7388716,-18661680,-68466440,-69812980,47973630,-56549070,20959470
0.320,27353770,20480380,-29203550,-35070490,45483400,-38146970,20458980
0.330,-35443380,-1887746,-6842327,-41689260,40039060,-6561279,20593260
0.340,30861170,-1898104,-6840604,-31632150,3713379,-8721924,19311520
0.350,-7276504,-41254220,-46184640,-69804350,31884770,-3164673,15710450
0.360,27445270,-1913641,-6833699,-35151630,31933590,9136963,11279300
0.370,27480660,-19196840,-68293810,-35185300,34692380,18762210,8416748
0.380,-7138394,-1923997,-6826792,-69873410,35253900,2548828,30532840
0.390,27560940,-41297380,-46193270,-35260390,33544920,2364502,-28411860
0.400,-35333760,20088500,-28835830,-41626250,35986330,9057617,-38024900
0.420,27722350,24025150,-24899190,-35409720,35131840,-15649410,-7633209
0.430,27786220,-1919683,-6815572,-35466690,36865230,-15124510,49095150
0.440,-6680918,-1913639,-6816434,-70054670,40844730,-10217290,28137210
0.450,-35158540,20186900,-28910070,-41507990,40771480,-66833500,11993410
0.460,-35100700,2024216,-2895839,-41462250,4116211,-10058590,14282230
0.470,28052940,-18877470,-68198860,-35700610,44506840,-16577150,-32672880
0.480,-6240702,20380250,-29079250,-70132350,44262700,-25976560,15113830
0.490,-34933250,-4096333,-4592309,-41336220,4975586,-3305664,8618164
0.500,28284270,-18514940,-68267910,-35900860,54248050,-33520510,1418457
0.510,28359370,20627980,-29297630,-35963870,5698242,-2854004,17651370
0.520,-5722800,20710840,-29370140,-70201410,60595700,-13439940,20056150
0.530,-5593324,-40732870,-45756500,-70210040,62597660,20141600,21142580
0.540,-34602660,20875710,-29516010,-41079860,6376953,111450200,23205570
0.550,-5308482,20958570,-29588520,-70253200,6689453,25976560,29956060
0.560,28778870,-17763980,-68449180,-36321230,7011719,45336910,38256840
0.570,28862590,21097540,-29708500,-36392860,69384770,5966797,4699707
0.580,28954090,-17556820,-68466440,-36474000,7084961,75927740,5136719
0.600,-4592050,-40381560,-45486340,-70382670,6928711,10458980,55859380
0.610,32615810,21243420,-29821570,-33364700,6977539,11757810,57421880
0.620,-430722,21246870,-29818120,-7047762,64404300,12802730,62841800
0.630,29453000,-1729786,-6834561,-36924580,6010742,13330080,5864258
0.640,-33994120,-40228780,-45328380,-40652600,4946289,13574220,56396480
0.660,-3772046,21151920,-29688650,-70805630,3642578,9926758,69384770
0.670,-3390782,21113940,-29640310,-4063533,31640620,74658200,79052740
0.680,-3513092,-17263350,-67896750,-71012780,2775879,5073242,89746100
0.690,-33867240,21002590,-29509970,-40641380,22021480,23376460,9472656
0.700,30249700,-17297880,-67689590,-37698840,15258790,-72021490,97216800
0.710,30345520,20899010,-29389130,-37792920,53375240,-36791990,10166020
0.720,30433560,20858440,-29343380,-37877520,3100586,-49121100,10791020
0.730,-33780060,-39900780,-44914060,-40624980,13336180,-55859380,10742190
0.740,-2891612,20801480,-29279510,-71461630,-680542,-6777344,10195310
0.760,-2744876,-17341030,-67422010,-71487530,-14257810,-7285156,10361330
0.770,34035120,-17323770,-67439270,-34776590,-13061520,-5317383,9926758
0.790,-2520448,20896420,-29374450,-71418480,-17529300,-45947260,99316410
0.800,-2442764,-1721153,-6756875,-71375310,-19580080,-2746582,10673830
0.810,-2356444,-1715111,-6762918,-71340780,-17785640,-12036130,10859380
0.820,30847880,21051790,-29529820,-38205520,-22241210,-2109375,10898440
0.830,30879810,-17021660,-67741380,-38225370,-28125,-32080080,10410160
0.840,30912620,-1692670,-6780182,-38244360,-30004880,-31591800,97021490
0.850,-1985288,-16814500,-67879490,-71194050,-32373050,-26245120,84472660
0.860,30986850,-1666775,-6795719,-38290970,-32739260,-35961910,7548828
0.870,-1769496,21555020,-30010600,-71116370,-35302740,-36572260,7817383
0.880,-1648648,-39632330,-44819970,-71064580,-29711910,-23876950,9760742
0.890,-3278745,-16072180,-68276540,-3973592,-23522950,-97961420,11162110
0.900,-1363804,22062560,-30487080,-70935100,-1697998,-1689148,12402340
0.910,-32554360,22240370,-30654530,-39520120,-140625,-41900640,12783200
0.920,-1053064,22444080,-30847880,-70796990,-10321050,-6323242,11855470
0.930,-897700,22657280,-31049000,-70710670,-20019530,23956300,10703130
0.940,-750952,22888610,-31266510,-70632990,36834720,103637700,10292970
0.950,-32073580,23130300,-31490940,-39068690,97351070,2565918,10078130
0.960,31473670,-14155950,-69260560,-38563740,11639400,36206060,93066410
0.970,-26760,23642160,-31963090,-7039130,8984375,55615230,7470703
0.980,-31705000,-1342223,-6954539,-38729460,99853520,81689460,5888672
0.990,-31584160,-13016560,-69640350,-38625880,6536865,9477539,4650879
1.000,31802540,-12584980,-69726660,-38804560,8660889,10146480,44995120
1.020,32062360,-37842990,-43657280,-39028120,118896500,10009770,50634770
1.030,940852,28908090,-29718250,-70443090,12512210,10146480,5253906
1.050,1398332,25764690,-33759340,-70676140,15039060,10898440,4675293
1.060,-30980810,-9710636,-69631710,-38227960,20214840,97558590,3618164
1.070,1855812,26224760,-34093390,-71030050,1907959,67871100,21777340
1.080,207159,26441410,-34239260,-7126310,8569336,19042970,8874512
1.090,-30923840,-807923,-6913970,-38302190,12794500,-97229010,10699460
1.100,-30935060,26899750,-34540510,-38360020,50720220,-54473880,35302740
1.110,2649920,-6879446,-68682230,-72048590,8514404,-5218506,7080078
1.120,-3440138,27329610,-34801180,-3515266,33966060,-50097660,9970703
1.130,3428585,-5722802,-68164340,-4125855,36987300,-6591797,11669920
1.150,-31264790,-4704260,-67611900,-38893460,-1270752,-9404297,125
1.160,-34816980,-4264050,-67344330,-35582960,-26293940,-12783200,11943360
1.170,3116032,-3875620,-67094000,-73740400,-29296880,-1421875,12216800
1.190,35050640,-3271404,-66731480,-42151060,-72143550,-84277340,9707031
1.210,-31742120,31494820,-32189670,-39469190,16186520,-5253906,40722660
1.220,2969296,28450860,-35389000,-74232400,28979490,-3623047,8026123
1.230,-31778370,-31471950,-37874920,-39484730,37109380,-38500980,-13696290
1.250,34775280,-2477292,-66990430,-41891240,41210940,-546875,-30688480
1.270,264126,-2390970,-67422010,-7352460,4284668,-29434200,-87890620
1.280,37962100,-31756790,-38280610,-37962110,41796880,21972660,-11665340
1.290,2563604,-2425502,-67853590,-73118910,4020996,39575200,-892334
1.300,-31443470,-2477294,-68043490,-38991000,3569336,54052740,-22485350
1.310,2468660,29307130,-36379920,-72799540,23254400,47143560,-2919922
1.340,2278760,29374450,-36485220,-72540590,-24719240,24780270,-43701170
1.350,-31420160,29363230,-36479180,-38893460,-38623050,3086853,54992680
1.360,2132020,-2693080,-68500970,-72514700,-5161133,19500730,13134770
1.380,-31584160,-32323030,-38888280,-39040200,-72753900,748291,46081540
1.400,180399,-2874350,-68267910,-7273912,-8701172,6112671,1394043
1.410,33732580,-32283330,-38807140,-40845090,-8925781,-19042970,20385740
1.420,-31927700,28971350,-36076940,-39387200,-91796870,-71777340,15307620
1.430,-32014020,-3090140,-67948540,-39473510,-88916020,-13085940,60058590
1.460,-3221430,-3340456,-67853590,-3965305,-4555664,-13759770,-2565918
1.490,3342442,-32527600,-38977190,-4061809,17382810,56396480,-12412110
1.510,-32279010,31951090,-32665620,-39674620,27319340,83154300,-12167970
1.520,-32286780,28775410,-35910350,-39684120,34204100,97717290,-80810540
1.530,-32285050,-3254140,-68008960,-39685850,57714840,-103027300,-17321780
1.560,33441690,-3400882,-68086650,-40618070,23886720,19443360,12802730
1.570,33413210,-32634640,-39094580,-40577500,27363280,17167970,115625
1.580,1191172,28663210,-35867200,-72695970,26503910,171875,92041020
1.590,-32007970,28645940,-35884460,-39375970,26132810,-8540039,22802730
1.600,33114560,28706360,-35979410,-40237410,29550780,-13886720,-236969
1.620,32789140,28822890,-36173620,-39872300,25019530,-49453120,-69433590
1.630,-3157382,28964450,-36377330,-3879160,28242190,-53515620,-3491211
1.640,32289370,29178510,-36663900,-39267220,34765620,15166020,-1390625
1.650,-31115460,29345970,-36876240,-38231410,23632810,-90625,-76953130
1.660,932220,-34550000,-41201570,-69864770,12587890,-13115230,54003900
1.680,958108,-4894160,-71547950,-69424560,7011719,690625,68603520
1.690,906328,29374450,-37020380,-69545400,953125,79492190,5
1.700,802740,-5170372,-71099100,-69873400,10107420,45117190,19592280
1.720,-31433970,28664070,-36246130,-38551650,9638672,-13369140,6015625
1.730,49199,28444820,-36016530,-7085741,7446289,-27148440,7680664
1.740,-31750750,28264420,-35834400,-38890870,52246100,-25507810,7158203
1.750,-31864690,-5964486,-69787090,-39001360,33618160,-95947260,1430664
1.760,32110690,-6076698,-69674880,-39221460,-30075070,31414030,-41674800
1.770,-32127090,27929510,-35496030,-39256850,-4326172,-1998291,-62646480
1.790,3205198,27851820,-35383820,-3924562,-72509770,-6279297,2685547
1.810,32037320,-5947222,-69027500,-39277580,-47265620,-25195310,2142334
1.820,-638748,-5904064,-68915290,-71970900,-42016600,-31982420,-36193850
1.830,32025240,-34174520,-40472200,-39306920,-3215332,-47460940,-27416990
1.840,-84592,27781910,-35229320,-7214353,-15527340,-26831060,-39941410
1.850,31974310,-36826610,-37457580,-39288790,-3933716,10467530,-44702150
1.900,-1424228,-33446010,-39802380,-72514700,-19885250,13220220,-34887700
1.910,31840520,-4730154,-68328340,-39249950,-2446289,1878357,-34326170
1.930,31849150,-456614,-6812982,-39293110,-22058100,-8538818,-14038090
1.940,-171772,-33095570,-39445020,-7289451,-28588870,-19897460,-7800293
1.960,-33923340,-449708,-6776726,-41051380,-33007810,-4522705,-11828610
1.970,-34014840,-35756280,-36387260,-41149780,-4099121,-2218628,-1920166
1.980,3194062,-4557524,-67465170,-3947783,-5102539,-513916,-29956060
1.990,31973450,-4592052,-67309790,-39531340,-5878906,-4840088,-40722660
2.010,-214930,27572160,-34731270,-7386123,-68359380,-3256836,-53466800
2.020,-220109,27494470,-34636320,-7401660,-6621094,-48876950,-46679690
2.040,35628360,-4643842,-66446630,-36394340,-59716800,-484375,-19812010
2.050,32225490,30460320,-31169840,-39900780,-56591800,-3671875,-12487790
2.070,-34888370,-4721528,-66023680,-42123440,-51123050,-8807373,-6573486
2.120,-38348460,-5032268,-65436720,-39077660,-43237300,-23535160,58746340
2.130,-35096390,-5101320,-65333140,-42398790,-44458010,-30395510,8094788
2.140,-35117970,-5153110,-65246820,-42429000,-38061520,-18334960,-36590580
2.170,32788280,-32115870,-38094170,-40563690,-22497560,-16494750,-5960083
2.180,-2201076,26342150,-33354510,-75622100,-18017580,-56915280,-5630493
2.190,-218383,26321430,-33323440,-7569115,-16137700,-7757568,-91430660
2.210,-3530615,26307620,-33285460,-4267240,-1619873,-24499510,-2915039
2.220,-35319090,-4997740,-64625350,-42693990,-19946290,-3544922,-45654300
2.230,-35314770,-4885532,-64582190,-42698300,-20031740,-50878900,-60058590
2.240,33070530,-4738788,-64556290,-40868390,-21472170,-5966797,-7651367
2.250,33134410,26540670,-33449470,-40925360,-19873050,-4909668,-84228510
2.260,33200000,-4333100,-64547660,-40980600,-13696290,-27319340,-9550781
2.270,-1657288,-4082780,-64573560,-75993260,-65979000,-10290530,-11914060
2.290,-34858160,-3461304,-64677140,-42326280,21087650,-2939453,-12763670
2.300,-38053780,-3107402,-64772090,-38802660,13183590,-4777832,-95458980
2.310,-67330,-2762132,-64910190,-7578610,27563480,-66308590,-5239258
2.320,-31940,-2442762,-65091460,-7563937,42138670,-73535150,-84228510
2.330,33984630,-30575120,-36890050,-41525260,53466800,-7890625,23278810
2.340,440216,-30557850,-36924580,-75242300,6044922,-8222656,4753418
2.350,3420298,-1683174,-65868300,-4161762,72509770,-64208980,7006836
2.360,1225696,-1493278,-66179040,-74698510,7558594,-34423830,87402340
2.380,1950760,29441780,-36245260,-74077030,80615230,17565920,93310540
2.390,-31941510,-1018534,-67206220,-39546020,78466800,17480470,83984380
2.400,2580868,-863166,-67551480,-73446920,69189460,-58517460,6435547
2.410,2857080,-690532,-67879490,-73118910,6118164,-30334470,37695310
2.420,-31060220,-492004,-68216130,-38649180,52734380,1003418,2746582
2.430,3314560,-30992030,-37819680,-72488800,4091797,22998050,27783200
2.440,-30569080,-25892,-68837600,-38139050,2529297,42285160,35107420
2.450,34392900,233060,-69096560,-41220560,11468510,92871100,42993160
2.460,-30171160,31455550,-38340170,-37725600,-10864260,14160160,5883789
2.470,3961940,-30878950,-37898230,-71547950,-23168940,15712890,68652340
2.500,4376260,-30674380,-37757530,-71375320,-7553711,13447270,7163086
2.510,-29659300,32019200,-38846850,-37253440,-8027344,94873050,4711914
2.520,4652470,1363804,-69484980,-71496160,-77197260,52441410,16760250
2.530,-2958681,-30433560,-37514980,-3722238,-7392578,15148930,-1204834
2.540,-29566940,1510544,-69286450,-37224960,-7138672,-27124020,-36157230
2.560,35144720,-30139220,-37222370,-41815280,-69433590,-60791020,-5546875
2.570,523941,32100340,-38817500,-7187594,-6899414,-5805664,-5600586
2.580,-29402940,2028446,-68992970,-37130010,-69384770,-67626950,-5317383
2.590,35392460,220973,-6896710,-42033660,-69140620,-6723633,-4440918
2.600,-2924068,32336840,-38995310,-3699880,-70410160,-57128900,-32739260
2.610,-29137950,32423160,-39064370,-36911630,-6972656,-31030270,-22460940
2.620,-29025730,-29555710,-36718280,-36816680,-6767578,12023930,-18054200
2.640,35882740,-29388260,-36574990,-42423820,-68603520,42999270,-2487793
2.650,6680916,-29295040,-36495580,-71850060,-6699219,49560550,-296875
2.660,6913968,3262776,-68880760,-71841430,-62402340,16589360,-3737793
2.670,7155658,3452674,-68846230,-71841420,-54248050,30444340,-43701170
2.680,7397344,-28952360,-36199520,-71841420,-5102539,3400879,-46142580
2.690,-28118540,-32074440,-32801220,-36066590,-47509770,35595700,-44360350
2.700,-27984750,4160472,-68725390,-35958700,-47827150,41479490,-4453125
2.710,-27850960,4453946,-68673600,-35850800,-45507810,3034668,-40722660
2.730,8666194,5092692,-68552760,-71850060,-34838870,21606440,-5317383
2.740,8942412,-27825060,-35220680,-71850060,-3017578,105529800,-5527344
2.750,920998,-27593740,-35020430,-7184144,-26879880,-3970337,-54541020
2.770,-26934280,662914,-6832832,-35092940,-18200680,-10632320,-4387207
2.790,-26589010,-26591600,-34158120,-34799460,-115112300,-17993160,-3395996
2.800,10668740,7872094,-68155700,-71711950,-9112549,-33984380,-28955080
2.810,38292690,8286410,-68086650,-44364220,-11462400,-60009770,-23364260
2.820,1128157,8692100,-68043490,-7163427,-66223140,-61279300,-92163090
2.830,11600970,-25606720,-33313090,-71573850,40863040,-47314450,58013920
2.840,-25624850,-25391790,-33130950,-33968230,12371830,-5317383,6896973
2.860,1255906,10142220,-67922650,-7134079,27856440,-7006836,-17227170
2.870,12878450,-24796210,-32638950,-71228580,3552246,-52685550,5718994
2.880,-24734930,36530980,-42241690,-33166340,42211910,-12463380,15893560
2.890,13525830,-24443170,-32353240,-70995520,46875,24414060,26538090
2.900,-2428349,3689091,-4253775,-3275461,4814453,38208010,2956543
2.910,-24058210,11799500,-67957170,-32548320,47021480,44506840,26416020
2.920,-23842410,-23919230,-31927700,-32349790,4736328,5986328,22253420
2.930,-23635250,12438250,-67957170,-32159890,44995120,6791992,2565918
2.940,14984590,1275764,-6794855,-70417200,40966800,66015620,33740230
2.950,15234910,-27017740,-27827910,-70322260,33422850,46948240,41577150
2.960,-23094050,13413620,-67914020,-31665300,28344730,26049800,3828125
2.970,1570099,13724360,-67896750,-7013235,3227539,12463380,28076170
2.980,1590818,1404374,-6788812,-7004604,36083980,36010740,18359380
2.990,16106700,38446340,-43796250,-69933820,38110350,-11207580,5532837
3.000,-22460480,-22438900,-30697680,-31073170,41186520,-4676819,-8618164
3.010,1646923,-22231740,-30525050,-6972668,47265620,42541500,-17932130
3.020,-22169600,-22014220,-30345510,-30794360,48095700,18539430,-2265625
3.030,1680586,-25536810,-26374080,-6949362,49072260,-8331299,-23266600
3.040,1697850,1633976,-6780180,-6937277,51708980,-19018560,-25170900
3.050,-21723340,39736780,-44836370,-30360190,5395508,-26904300,-17797850
3.060,-21566240,1724610,-6777589,-30206540,50390620,-3996582,-8380127
3.070,-25290290,-20748820,-29297630,-26154490,5180664,-64208980,-5532837
3.090,17850300,-24142270,-25006480,-68587280,5761719,-65234380,-32409670
3.100,-2085759,-20014260,-28702910,-2949962,57714840,-38549800,2670288
3.110,-24547970,19542110,-67827700,-25412170,578125,-25195310,23727420
3.130,40732870,20448440,-67853590,-45652930,6176758,-8087158,-51483150
3.140,1876524,20905920,-67862220,-6760327,61865230,8660889,-7702637
3.150,-19911550,21372030,-67862220,-28546670,59228520,32714840,-6915283
3.160,40762220,-18519260,-27487570,-45571790,5932617,46484380,-107177700
3.170,19291790,42781170,-47333510,-67042220,5800781,27514650,-1104126
3.180,19455790,-17984090,-27038720,-66878220,57714840,6542969,-12988280
3.190,-19212380,-17713060,-26809120,-27847510,6254883,-11306760,-15454100
3.200,19835590,2366808,-6768960,-66550210,6425781,-22009280,-18481440
3.210,-1885506,24099630,-67637800,-2749706,6850586,-45117190,-25732420
3.220,-18654780,43915370,-48219120,-27300260,7368164,-47338870,-28955080
3.230,20474330,-16650500,-25903660,-66015040,7475586,-46972660,-2836914
3.240,-18219740,25428910,-67516960,-26872130,68847660,-3996582,-25805660
3.250,20966340,-16143820,-25478110,-65592100,60253900,-48675540,-13183590
3.260,2122528,2628345,-6745653,-6536767,52001950,33203120,-38879400
3.270,2147557,26697770,-67422020,-6515187,44873050,53222660,-48553470
3.280,43123580,27094830,-67370220,-43555680,40234380,59033200,-10443120
3.290,21984870,45413830,-49396480,-64746190,3762207,56884770,-19519040
3.300,22226560,2788897,-6724939,-64573560,35327150,54003900,-27197270
3.310,41329320,28268730,-67180320,-45522590,33496090,50097660,-38208010
3.320,-16429530,45948990,-49793540,-25123350,34887700,4333496,-44702150
3.330,22934360,-14197380,-23799260,-64090180,2866211,29736330,-48706060
3.340,-16041110,29356320,-66904110,-24752190,24072270,16503910,-4584961
3.350,41577910,29692960,-66809160,-45619260,19274900,11218260,-37890620
3.360,-15660450,30003700,-66722850,-24390520,13146970,37750240,-3100586
3.370,-19407200,30279910,-66636530,-20281240,10461430,-3475952,-25854490
3.380,24073730,30530230,-66558840,-63416910,28213500,5517578,-16638180
3.390,24298160,-13013970,-22738420,-63296070,-58776860,2878189,-1171875
3.400,41924040,30935920,-66429370,-45791030,-13977050,-8746338,-12658690
3.410,-14788650,-17164430,-18139120,-23570510,-23303220,-14819340,-9112549
3.420,-14627240,31194870,-66343050,-23421180,-2939453,-2163086,-7897949
3.430,25144060,-12643670,-22400920,-62916270,-3972168,-19995120,-9100342
3.440,42214930,-12608280,-22367260,-45966260,-46069340,3604889,-42266850
3.450,25506590,31298450,-66256730,-62795430,-48217770,47302250,-6365967
3.460,2567059,-12603110,-22355170,-6276954,-40649420,-10925290,-117370600
3.470,-14026470,3122078,-6623083,-22882570,-28442380,-20898440,-21496580
3.480,-13934110,31151710,-66230840,-22802290,-25219730,-15393070,-24914550
3.490,-13841750,-12735170,-22464800,-22722020,-28295900,-17443850,-1850586
3.500,2624891,-12808540,-22529530,-6265734,-32470700,-15014650,-15673830
3.510,26378390,46768140,-50320930,-62631420,-3046875,-42816160,-16271970
3.520,42750960,-17382640,-18352500,-46362450,-27954100,59448240,-19250490
3.530,-13544830,46626580,-50220810,-22466520,-22058100,17468260,-22766110
3.540,26689130,46554940,-50171610,-62596900,-10021970,17272950,-29736330
3.550,42886470,46482430,-50123270,-46468610,21896360,395813,-3659668
3.570,2692218,-13627690,-23264090,-6257102,11828610,-3137207,-39208980
3.580,-13303140,-18085520,-19047950,-22259360,16784670,9411621,-38427740
3.590,43041840,-13881460,-23493690,-46589460,18383790,14477540,-40966800
3.600,27155250,-18319780,-19279800,-62545110,14672850,15979000,-40942380
3.610,-13162440,29028330,-66835060,-22141110,1541748,14477540,-42260740
3.620,27319240,28864320,-66878210,-62553740,20507810,11773680,-48364260
3.630,-13084760,28717580,-66904110,-22080690,28173830,119628900,-56933590
3.640,-13046780,45834190,-49666660,-22049610,31469730,11602780,-58935550
3.650,27535040,45776360,-49620900,-62579640,38427740,-5871582,-62402340
3.660,-12977720,4572803,-4958292,-21997820,47753900,-100097700,-71191410
3.670,43390560,28294630,-66930000,-46879490,5488281,3137207,-7182617
3.680,27768090,45650340,-49522500,-62571000,52783200,7208252,-7133789
3.690,-12829260,28165160,-66938640,-21870070,49951170,7458496,-7236328
3.700,-12755890,28113360,-66938630,-21805330,43579100,45959470,-71484380
3.710,-16767200,-14688520,-24188540,-17673180,3322754,1619873,-6616211
3.720,-12616060,28009780,-66921370,-21686220,22521970,16479490,-61621100
3.730,-12540960,-14730820,-24215300,-21623210,18225100,95336910,-57910160
3.740,-12465000,-14753260,-24227380,-21561060,11352540,48187260,-5419922
3.750,28605370,27802630,-66835060,-62493320,7385254,2684021,-4958496
3.760,-12320850,27724940,-66791900,-21446260,7006836,1737976,-46264650
3.770,-12261300,45241200,-49154800,-21402240,5706787,-22232060,-4140625
3.780,28993800,2753507,-6672285,-62553740,46447750,-15429690,-3552246
3.790,-12143900,2744010,-6669694,-21312470,4748535,-20336910,-28979490
3.800,-16225910,27327880,-66671060,-17144140,8557129,-23706060,-2685547
3.810,-12045500,27215670,-66662420,-21238230,10626220,-26464840,-22839360
3.820,29416740,44901110,-48856140,-62614160,14831540,-15332030,-20959470
3.830,-11949690,26991240,-66662420,-21161410,17480470,-23144530,-16247560
3.840,29572120,-15226270,-24583010,-62614170,2208252,-33569340,-12768560
3.850,-11866830,2677547,-6672284,-21088910,24584960,-30908200,-715332
3.860,29684320,44708620,-48720620,-62571000,22814940,-29077150,-14030460
3.870,44487640,44665460,-48694730,-47767680,2277832,-29345700,57159420
3.880,29762010,26395660,-66895480,-62493320,22583010,-3178711,95214850
3.890,2977926,44584320,-48655020,-6245878,24829100,-3876953,11932370
3.900,29787910,2613674,-6706812,-62415640,2631836,-35229490,10559080
3.910,29770650,2599864,-6717171,-62363850,28295900,-9307861,10913090
3.920,-15836280,44498010,-48637760,-16756930,27368160,31280520,113708500
3.930,29675700,25756920,-67378850,-62286160,32763670,-25222780,11151120
3.940,29606640,25644710,-67491060,-62251630,40429690,-6878662,76171870
3.950,-11762380,-16377740,-25693040,-20934400,5048828,-14697270,-5382538
3.960,29399490,-16489090,-25806120,-62165320,5595703,-9173584,-8050537
3.970,44053480,2535988,-6786225,-47338690,61376950,9680176,-106933600
3.980,29131900,-16683300,-26008960,-62087640,6430664,6317139,-12670900
3.990,28976530,-16774800,-26107370,-62053110,68115230,39093020,-13977050
4.000,-16144510,-16867160,-26204900,-17052910,69384770,18261720,-1394043
4.010,2866576,25075010,-68354220,-6198404,7290039,6015625,-13122560
4.020,28493150,25005960,-68475070,-61949520,7763672,9970703,-11437990
4.030,28337790,-17153720,-26505280,-61932270,7910156,10595700,-13354490
4.040,28182420,-21448070,-22383570,-61915000,7963867,91845700,-19555660
4.050,28018410,24790170,-68794450,-61906360,73291020,609375,-20288090
4.060,-12533190,24703850,-68880760,-21510130,609375,1850586,-15234380
4.070,27716300,44573970,-49010650,-61915000,51123050,16870120,-44708250
4.080,-12692880,-21819230,-22754730,-21643920,41625980,2109375,24337770
4.090,27448720,44501460,-48979570,-61958160,34814450,-6750488,8081055
4.100,-12866380,2419460,-6920013,-21798430,28833010,-24914550,10650640
4.110,-12947510,-17968560,-27295940,-21872660,2775879,-15441900,1451416
4.120,27103460,2381482,-6933825,-62079000,27954100,-15148930,1439209
4.130,-17119810,23607630,-69407300,-18011110,26049800,-2310791,14916990
4.140,26887670,-18402730,-27690410,-62173950,23205570,-29223630,16491700
4.150,26784080,23167420,-69554030,-62225740,19445800,-21362300,20373540
4.160,2668913,-18710880,-27969220,-6226891,17004400,-27441410,26049800
4.170,-13422250,2270995,-6970077,-22312880,1227417,-44213870,2939453
4.180,-13503400,22468250,-69787090,-22387110,64208980,-32910160,34423830
4.190,42581780,22217930,-69864780,-46186360,16326900,-25683590,35839840
4.200,42537750,43556290,-48353780,-46161330,-8508301,-29467770,39648440
4.210,-13782200,-19582680,-28754700,-22643470,-16589360,-22888180,47338870
4.220,25929550,-19764810,-28917840,-62596900,-2097168,28588870,5151367
4.230,25739650,21138970,-70184140,-62683220,-24584960,34228520,55810550
4.240,-14210330,43069460,-48011960,-23043980,-24609380,38867190,6269531
4.250,25325330,-20361250,-29443510,-62907650,-24609380,30151370,7055664
4.260,25083650,2014636,-7038269,-63045750,-3737793,41259770,7709961
4.270,2483331,-20832550,-29852650,-6320977,-31347660,7524414,79833980
4.280,24565740,19334960,-70486260,-63391020,-25927730,5288086,75878900
4.290,2428090,1889474,-7052941,-6358955,-22717280,3239746,6791992
4.300,41900740,-21618890,-30516420,-45883390,-19885250,5,5395508
4.310,-15813230,-21901150,-30752070,-24583010,-38269040,8496094,35839840
4.320,-16110160,17435980,-70572570,-24873030,385437,54003900,32763670
4.330,-16423490,-22444940,-31192280,-25181180,121154800,32739260,3322754
4.340,-16746310,-26625700,-27494900,-25497100,21057130,2409668,2998047
4.350,22269720,1588231,-7048627,-65169140,25854490,1697998,25878910
4.360,2191579,15355750,-70443090,-6547124,30249020,28027340,23779300
4.370,21553290,14829220,-70382670,-65764730,34448240,2565918,22546390
4.380,2119075,1431132,-7031362,-6607546,3330078,1484375,19616700
4.390,-18418270,-24024540,-32426610,-27139710,30981440,16320800,13061520
4.400,-1875751,38864980,-44551520,-2747374,31079100,140625,98083500
4.410,41217970,-24491510,-32771020,-45910150,25683590,4067993,13562010
4.420,-19442850,-24712480,-32929840,-28152210,24975590,-49468990,19274900
4.430,41124740,11764980,-69787090,-45951580,16894530,-10604860,2841797
4.440,-20117850,11272970,-69640350,-28823750,8642578,81970220,3569336
4.450,4104964,-25343460,-33369190,-4600943,-18600460,18457030,4909668
4.460,18411360,10271700,-69312340,-68664970,-4248047,29663090,53564450
4.470,-21107900,-25730160,-33621230,-29818980,-69885260,18661500,47192380
4.480,40984910,9304946,-68932550,-46143200,-36346440,-16467290,18786620
4.490,40952980,-26044350,-33807680,-46175140,52093500,12988280,20275120
4.510,-2241734,-26231660,-33879320,-3113360,-11090090,38989260,3378296
4.520,16495130,-26284310,-33878460,-70702050,-25830080,46166990,769043
4.530,16193020,34685520,-40703520,-71055940,-41333010,5800781,101135300
4.540,-23394430,-26338690,-33824080,-32124500,-54003900,5966797,20227050
4.550,-23726750,-26330920,-33762790,-32465460,-73828130,35375980,34326170
4.560,-24051300,6870814,-66895470,-32796910,-9140625,7519531,58935550
4.570,-24384480,-26325740,-33647130,-33137000,-10810550,-66467280,80371100
4.580,1468245,6370180,-66291260,-7289449,-11464840,-9777832,85595700
4.590,14354470,611126,-6599779,-73239760,-11865230,-33862300,7866211
4.600,14009210,32783970,-38772620,-73585020,-12324220,-828125,70458980
4.610,-25729300,5558802,-65479880,-34485270,-13203130,-12705080,54589840
4.620,1332729,32277280,-38278020,-7414607,-15341800,-15908200,47753900
4.630,-26327470,4980476,-65125980,-35061000,-14042970,-7368164,40234380
4.660,1198075,-26895430,-33767970,-7495748,-14082030,-20263670,6015625
4.670,11652760,33825200,-34434080,-75130100,-13369140,-16137700,56347660
4.680,1133337,30840970,-36952200,-7529408,-12382810,-15368650,57470700
4.710,-28390440,30123680,-36305680,-37003120,-8442383,30639650,6230469
4.720,-28632130,29888040,-36092480,-37227550,-89453130,-7684326,7416992
4.730,-28865180,162277,-6390890,-37443340,-9868164,-4909668,8823242
4.740,39449340,1277494,-63822600,-46125080,-9501953,-3466797,9423828
4.750,9097776,914960,-63736280,-76286740,-9033203,-18554690,9770508
4.760,8778408,31794340,-32425320,-76381690,-80859380,-20056150,96484380
4.770,-33584030,28715850,-35054950,-34433560,-8051758,-30908200,10039060
4.780,-29962270,-164000,-63520490,-38435120,-80615230,-38500980,10195310
4.790,-30155620,-535160,-63477330,-38604300,-8173828,-32885740,10400390
4.800,-30348970,-897694,-63442800,-38773480,-7753906,-2849121,11015630
4.810,7276500,27857870,-34324720,-76726960,-71240230,-30444340,11064450
4.820,-30693370,-159684,-6341690,-39067820,-6020508,-18078610,10976560
4.830,6724072,-1924858,-63416910,-76761490,-50683590,-9588623,10976560
4.850,6188912,27152660,-33752440,-76761480,-3540039,17480470,11923830
4.860,37812780,-32833770,-33440230,-44895930,-3544922,-6762695,10146480
4.870,5671008,-3046976,-63485960,-76761490,-3310547,-2232666,8666992
4.880,-31557400,-3228246,-63511860,-39774750,-2841797,-2607422,6567383
4.890,37369970,-3349088,-63546390,-44527360,-18493650,-9307861,55322260
4.900,37219780,-3418140,-63580910,-44401340,9010315,6040039,60253900
4.910,4652472,26702950,-33408030,-76726950,-6829834,49951170,7260742
4.940,395328,-3478564,-63537760,-7680464,-25341800,6866455,8383789
4.960,36530970,26683100,-33376100,-43864440,-36694340,-31567380,7392578
4.980,-32882370,-3349086,-63494590,-40883920,-38623050,-4416504,53271480
4.990,36206420,-3280034,-63511860,-43602040,-3684082,-39404300,55908200
5.000,274485,-3202350,-63537760,-7687370,-35351560,-41870120,52734380
5.010,2554976,26892850,-33563400,-76839170,-33203120,-49389650,5854492
5.020,35863740,-30314440,-36373880,-43305970,-30810550,-578125,61328120
5.030,35745490,-30305810,-36382510,-43199800,-24157720,-49023440,6298828
5.040,-33389040,-288296,-6382258,-41257680,-17150880,-42358400,7026367
5.050,1829912,-2796660,-63943440,-76580210,-13574220,-38793940,7373047
5.060,35315630,-2718974,-64055660,-42801020,-9094238,-29614260,63720700
5.070,35164580,-2649922,-64193760,-42658600,-859375,-2614746,61376950
5.090,3823380,-2511816,-64452710,-3898513,112976100,25097660,6308594
5.100,845896,-2451392,-64582180,-76062320,16601560,30810550,53564450
5.110,-3383014,27796580,-34506840,-4148986,15063480,20727540,5019531
5.120,44019,-2356448,-64832510,-7586379,18469240,20117190,46191410
5.130,-33954420,30987970,-31660720,-41555470,17944340,8251953,45483400
5.150,33912120,-2235604,-65229560,-41476920,20910640,1270752,3774414
5.170,-500640,-30683880,-37022980,-75250940,16760250,16577150,25708010
5.180,-67330,-2123392,-65704300,-7511284,19763180,23596190,2130127
5.190,33264740,-30784870,-37163680,-40846810,18933100,34106440,21606440
5.200,33117140,-2028444,-66023680,-40700940,19177250,3154297,18688960
5.210,-1165276,-197662,-6617905,-74689870,11566160,31433100,22094730
5.220,36236200,28790950,-35618600,-36994930,7940674,-19555660,27514650
5.230,-34280700,-1890334,-66507050,-41574460,9979248,10513310,27416990
5.240,32538830,-31017060,-37501170,-40122620,103637700,13806150,22827150
5.250,-34281560,29093060,-35955240,-41521800,-9155273,-41168210,21130370
5.260,32283330,-31109420,-37633240,-39860210,-4397583,-12792970,23071290
5.270,32165070,29280370,-36164990,-39736780,-6210327,-9552002,19152830
5.280,32055450,-31192280,-37757530,-39621980,-76171870,-1895752,14440920
5.290,31963950,-1596862,-67439270,-39523580,-11236570,-5493164,1829834
5.300,-34190930,29567800,-36481770,-41318960,-10003660,-7939453,2467041
5.310,31774920,29673970,-36600020,-39315550,-10757450,-58740230,3203125
5.320,-34089070,29780140,-36718280,-41179130,16125490,983429,3642578
5.340,-33969090,30001970,-36962550,-41022900,16711430,40405270,19616700
5.360,-2244240,-1148012,-68613180,-72454270,12200930,5317383,1307373
5.370,31299320,-31519420,-38293560,-38755360,125,7167969,12683110
5.380,-33707550,-914960,-68932550,-40697480,88012700,79541020,17053220
5.390,31167250,-768220,-69079300,-38593940,8428955,81103520,16210940
5.410,31033460,30985990,-37963830,-38434260,-7788086,11375430,-18835450
5.420,30972170,-189892,-69519500,-38357440,-11853030,-37475580,-22167970
5.430,-2261500,60420,-69683500,-71435740,-10748290,-45874020,-21875
5.440,-33311360,328004,-69847500,-40213240,-75927740,-43115230,-17211910
5.450,30765010,612848,-70028780,-38098480,-3161621,-3762207,-16113280
5.460,-2209708,-31082660,-38195160,-70917840,3314972,-30810550,-19226070
5.470,-217520,-30979080,-38143370,-7072795,68603520,-20825200,-22790530
5.480,33843930,1631384,-70563940,-34570720,121398900,-1583252,-25024410
5.520,30352420,-30210000,-37669490,-37527070,34350580,-4345703,-24547580
5.530,-1855816,3815204,-71401220,-69631710,3605957,-48706060,13122560
5.540,-1760864,-29863870,-37445930,-69433180,39501950,-4699707,9063721
5.550,-1631384,-29695550,-37338030,-69234660,40234380,-40014650,-29922480
5.560,30248830,5118586,-71893220,-37302640,40014650,-2758789,-12426760
5.570,-34750170,35473590,-42125160,-35425340,39013670,-14611820,-18481440
5.590,-34387650,6370180,-72333420,-35062810,3317871,18127440,-21411130
5.600,-31156890,6775864,-72445640,-37913760,28295900,16625980,-24060060
5.610,-517900,-28701180,-36675120,-68172960,23950200,9020996,-2915039
5.620,30462910,39786060,-40436720,-37295740,18676760,-32844540,-27270510
5.630,-17268,7967040,-72721860,-67914020,13439940,-5996704,-26464840
5.640,-30374000,8346834,-72790910,-37177480,113708500,118896500,-23461910
5.650,51788,37569360,-43982700,-6768957,10925290,22790530,-20458980
5.660,-29976940,9071888,-72894490,-36814960,113098100,11987310,-31079100
5.680,1346540,-2746337,-3573772,-67396110,36376950,5205078,-2578125
5.690,31181060,-27290760,-35599620,-37751490,-13671880,57714840,-21130370
5.700,1864442,38580140,-44836370,-67258010,-51849360,56152340,-24267580
5.710,-29084430,-30707180,-31544450,-36015660,-6829834,59277340,-33251950
5.720,2347812,11031280,-72972180,-67171690,-7385254,60498050,-40234380
5.730,2563606,-26601960,-35028200,-67145790,-602417,56152340,-48242190
5.740,2779398,-26425870,-34876280,-67137170,-3338623,39819340,-6220703
5.750,31846560,-26250640,-34723500,-38259900,17181400,3227539,-75878900
5.760,3193722,-26083190,-34580210,-67119900,5987549,31762700,-8378906
5.770,3392250,-25900200,-34417940,-67111270,6524658,26879880,-9736328
5.780,-31764560,12705830,-72695960,-31764570,123413100,2902832,-10791020
5.790,32292820,-25540260,-34104610,-38625020,16296390,29760740,-11142580
5.800,3240759,13284150,-72566490,-3871737,18981930,22106930,-11494140
5.810,-27868220,-25164780,-33772290,-35004900,22070310,113586400,-12177730
5.820,32672620,-24981790,-33610010,-38935760,24536130,-6084442,-12548830
5.830,-27592880,14130050,-72359330,-34779610,26879880,-71792600,-12294920
5.840,32966950,14397630,-72281640,-39176580,32226560,-28514860,-12695310
5.850,-27278680,-24425910,-33112830,-34524110,38598630,10546880,-13222660
5.860,5645116,-24235150,-32941060,-67137170,43945310,28955080,-12939450
5.870,-26924780,1520903,-7202268,-34239260,5180664,37231440,-13544920
5.880,33729990,-2382945,-3256991,-39811870,6254883,42333980,-14980470
5.890,-26520820,-23605040,-32362730,-33918170,8095703,5307617,-16679690
5.900,7216076,16141230,-71625630,-67240740,94384770,61572260,-17470700
5.910,7708084,-23067280,-31864690,-67266640,10039060,6591797,-17089840
5.920,8251876,16926720,-71254470,-67309800,11083980,6982422,-16523440
5.930,8838832,17392830,-71030050,-67361590,11796880,78125,-15917970
5.940,-25131990,-22005590,-30872040,-32821080,12607420,88427740,-15292970
5.950,-24801390,-21552420,-30444780,-32564720,13652340,91796870,-14443360
5.960,1081548,-21055240,-29975220,-6757739,14365230,98291020,-12763670
5.970,1154055,1977517,-6971803,-6766370,15244140,9916992,-10449220
5.980,12282870,2050026,-6928646,-67767280,15097660,8173828,-74365230
5.990,1305971,-19268490,-28274780,-6788813,14580080,5678711,-4387207
6.000,38215880,-18608160,-27640350,-43629660,13945310,28955080,-13269040
6.010,-22575280,22822150,-67741380,-30854780,12734380,25115970,84106450
6.020,-22165280,-17247810,-26324880,-30539730,11865230,-14367680,24169920
6.030,16365660,2437588,-6658475,-68328340,10898440,-29223630,32885740
6.040,-21309880,-15866740,-24978340,-29875950,10019530,-41918940,4338379
6.050,1809198,-15169300,-24294710,-6850098,87597660,-41918940,5136719
6.060,-20439810,43791940,-47600230,-29192320,81103520,-33154300,53466800
6.070,19783800,-13774420,-22927450,-68639070,7026367,-25610350,53222660
6.080,42238240,-13078710,-22242100,-47047800,6201172,-29223630,49780270
6.090,42681900,-12373500,-21548980,-47415510,47729490,-3540039,4873047
6.100,-18752310,29649800,-62191210,-27841460,32592770,-46313480,46875
6.110,-18351800,-11001070,-20193800,-27516910,16931150,-43115230,5
6.120,23607630,-10333840,-19531750,-68768540,21331790,-37475580,5830078
6.130,-17598260,31712770,-60300880,-26906650,-11505130,-4116211,6616211
6.140,-17246090,32334250,-59696660,-26620080,-2286377,-49682620,67041020
6.150,-16904270,32903940,-59109700,-26340410,-29296880,-52490230,6665039
6.160,2613671,-7951499,-17149410,-6881171,-28149410,-5493164,6376953
6.170,26680510,-7443952,-16638420,-68820340,-24621580,-5317383,6147461
6.180,-16010030,-6963171,-16152450,-25611900,-18811040,-43945310,62597660
6.190,-20086860,34820180,-57020840,-21051700,-91918940,-5683594,609375
6.200,28113360,44827740,-46961490,-68803070,-6719971,-7939453,5317383
6.210,-15264250,-5683956,-14859430,-24993880,5596924,-7988281,49072260
6.220,-15039830,35976820,-55760620,-24803980,18701170,-72998050,44506840
6.230,-14826630,36347980,-55389450,-24620120,31420900,-6328125,42260740
6.240,-19042420,3671915,-5503555,-20024540,36645510,-4921875,40356440
6.250,-18859950,37090300,-54698920,-19844480,37890620,-30004880,39257810
6.260,3015040,-84131290,-85049530,-6852690,4111328,11077880,40161130
6.270,3039210,37824000,-54034280,-6847506,4099121,15258790,39672850
6.280,30616550,-3156600,-12345890,-68440540,4423828,15319820,36743160
6.290,30823710,-2800976,-11993710,-68406020,5136719,1027832,32495120
6.300,31022240,-65837230,-75031700,-68380130,5722656,47088620,25317380
6.310,3119487,-2090592,-11288500,-6834560,5966797,-49926760,19396970
6.320,-1350514,39671180,-52342470,-2347296,5932617,-7476807,13061520
6.330,3149698,-1379342,-10584160,-6830244,5683594,-5744934,46783450
6.340,-13329900,-55904500,-56825160,-23320200,4699707,4013672,11230470
6.350,3175591,45512230,-46570470,-6826789,4013672,97509770,27807620
6.360,-13205600,-4468358,-5389012,-23220070,3076172,828125,15466310
6.370,-13174530,353896,-91677020,-23199350,16235350,12854000,-18359380
6.380,4836757,-37522750,-46722390,-5200154,59021000,-1743164,-40649420
6.390,-13137410,42122580,-49839290,-23184680,33325200,-8178711,-45458980
6.400,-13124470,10824120,-81085950,-23180360,-14320370,-38879400,-5073242
6.410,-1311067,-27170780,-36358340,-2317692,-49591060,-14953610,-6376953
6.420,-13098570,17435980,-74405030,-23171730,-82214350,-22741700,-70947260
6.430,48588560,2069878,-7110775,-52212140,-1583252,-23291020,-76708980
6.440,32334250,4586392,-4590810,-68535490,-2446289,-48461910,-85253900
6.450,-13027790,2662873,-6512598,-23121670,-32592770,-4987793,-85595700
6.460,-12998440,4420282,-4751737,-23099220,-36035160,-28930660,-72802740
6.470,3250688,-9571665,-18740230,-6855276,-40942380,-4411621,-76464850
6.480,-12931970,-7329154,-16494270,-23044840,-47705080,-4338379,-7114258
6.490,-12902630,35795560,-55821040,-23022400,-49316410,-1685791,-48535160
6.500,3270539,44936500,-46611040,-6857863,-5600586,31799320,-3474121
6.510,-12850840,-2331414,-11479260,-22987880,-6010742,4611206,-24572750
6.520,3281761,39904230,-51470670,-6863906,-62353520,-40527340,-1829834
6.530,3286075,-2701712,-93973040,-6868224,-62646480,-14111330,-1862793
6.540,-17877170,-36010480,-45127260,-17978810,-59277340,-10498050,-10040280
6.550,-12866380,10988120,-80041520,-23041390,-5566406,-90026860,12916570
6.560,-12896580,1523492,-7565662,-23080230,-55810550,-96191410,13342290
6.570,-12943200,45100500,-45652920,-23137200,-61621100,-16296390,2290039
6.580,32912570,-2050192,-2956177,-69113810,-6586914,-20788570,30322270
6.590,-13072670,21052650,-69390030,-23283940,-69873050,-11193850,4243164
6.600,-13172800,21829510,-68440540,-23390970,-7104492,47973630,5517578
6.610,32714040,21743190,-68354220,-69536770,-77197260,17333980,6035156
6.620,-13452470,21656870,-68267910,-23681000,-83935540,2524414,6586914
6.630,49284270,-19681940,-28655430,-53035600,-7636719,27294920,6879883
6.640,32196140,1974067,-6980436,-70123720,-63378900,21643070,6699219
6.650,31963080,18782520,-70572570,-70356780,-5991211,2254486,6015625
6.660,3169548,16098070,-73067130,-7058983,-4958496,-10748290,5551758
6.670,31419290,13422260,-75570310,-70831520,-3095703,-14880370,49902340
6.680,31134440,41043620,-47776320,-71064580,-12841800,-15148930,4248047
6.690,49050350,40698350,-47948960,-53096880,-10017400,-4034424,3569336
6.700,-15405810,40353080,-48121580,-25611900,54016110,9576416,34179690
6.710,3021084,-36152910,-44984840,-7178102,10882570,9075928,18359380
6.720,-20551850,-36160680,-44977070,-21570730,17041020,73913580,4916382
6.740,-16527930,6801760,-81034160,-26699490,13000490,-15551760,-28344730
6.750,-21821840,9304948,-78358340,-21923490,107421900,-24621580,-4020996
6.760,-17035480,11808130,-75682520,-27193230,64331060,-25610350,-44384770
6.770,-17261620,1343953,-7386123,-27415920,17974850,-33618160,-47729490
6.780,28208310,4079333,-4631758,-73300180,-9655762,-4567871,-54248050
6.800,2785439,43089320,-43641740,-7367132,-28125,-40356440,-37939450
6.810,27707680,-25021490,-33673890,-73852610,-30249020,-3203125,-30566410
6.820,-18139470,12084350,-74232400,-28298940,-29541020,-21618650,-20166020
6.830,-23315120,939127,-7671831,-23416770,-32983400,-16564940,-10418700
6.850,-18545150,-33696330,-42262400,-28721900,-21276860,-19604490,22842410
6.860,-18671180,-39278520,-40132880,-28854820,-11633300,-20825200,54595950
6.870,27077560,38471380,-46757780,-74827980,-55847170,-24743650,45959470
6.880,48588560,-38044100,-46546310,-53386050,-736084,-19641110,5343628
6.890,-18979330,-38055320,-46535080,-29185420,-13110350,-53466800,1508789
6.900,-19069100,38143370,-46429780,-29285550,-22473140,9680176,24255370
6.910,26870400,2468664,-81880060,-75397680,-30981440,19628910,32958980
6.920,-23846640,-32911710,-41320690,-24870530,-39404300,2043457,2944336
6.930,-19318550,38549060,-45281760,-29571250,-42871100,13256840,23828120
6.940,-19398830,-25169960,-33525420,-29663620,-4543457,2796936,17077640
6.950,26784080,-19139870,-27471170,-76001900,-5058594,-8294678,11663820
6.960,-19531750,-13110650,-21416040,-29824160,-6035156,-1694336,14868160
6.970,-19586140,31056760,-51772780,-29890620,-72509770,-2220459,17687990
6.980,26801350,41299110,-41306020,-76381680,-9042969,-13867190,21521000
6.990,2682722,41192940,-41187760,-7649388,-10693360,-1083374,29760740
7.000,-19703520,11876320,3660694,-30049450,-11787110,-3414917,38085940
7.010,26870400,42338370,-39576230,-76726950,-13417970,-10015870,30078120
7.020,-19793290,58962970,-22709930,-30166840,-14804690,-19360350,18493650
7.030,26922190,63157960,-18273260,-76968640,-14912110,-58410640,15698240
7.040,26930820,66498420,-14708370,-77080850,-14267580,10559080,16674810
7.050,-19920180,43512270,-37470100,-30333430,-140625,26879880,19836430
7.060,-19974560,38564590,30488800,-30399890,-14609380,31518560,14086910
7.070,49654570,44168280,-36399780,-54702370,-15332030,21582030,4852295
7.080,-20068640,47177280,39139460,-30512960,-16503910,1586914,340271
7.100,-20163590,54927660,46926100,-30625180,-17587890,82214350,-11004640
7.110,2690494,93455140,13577620,-7777999,-18134770,-2855301,-1665039
7.120,26896300,4042217,-3931729,-77857700,-18613280,-46691900,-19909670
7.130,26896300,40378980,-39256860,-77909490,-18349610,8674622,-20336910
7.150,26887660,4535085,-3412965,-77987180,-17246090,16174320,-13171390
7.160,-20322420,4026677,-3916190,-30811620,-16826170,1920166,-13146970
7.170,-20330180,39760950,-39650460,-30821120,-16171880,26220700,-14685060
7.180,2687039,39752320,-39641830,-7803896,-15654300,24304200,-12939450
7.190,2687041,94085250,14673840,-7803893,-15595700,24084470,-14050290
7.200,-20331040,58350980,50408120,-30820250,-15341800,24731440,-13208010
7.210,26870400,93247980,13784780,-78004440,-15351560,22155760,-14025880
7.220,2687040,9240208,1290435,-7798718,-15527340,16296390,-16003420
7.230,26879040,51794030,51786070,-77944020,-15644530,16308590,-14428710
7.240,26887670,54907810,46945950,-77918130,-15869140,17272950,-11810300
7.250,-20250770,44772500,-34932380,-30727900,-15917970,115112300,-14367680
7.260,-20227460,48736330,47938420,-30699410,-14912110,19921880,-12005620
7.280,-20163590,85764320,5731428,-30625180,-14658200,-19485470,-2709961
7.290,2692218,44487650,-35683340,-7762463,-14472660,-8654785,-3232422
7.300,26939460,83330190,2986558,-77521060,-13691410,-7324219,-2697754
7.310,-20002180,4545873,3740537,-30441330,-13457030,-18469240,-25195310
7.320,-19927950,44254600,-36486080,-30360190,-13154300,-24938960,-24377440
7.350,4958639,35143860,27004190,-5454613,-10625,-26757810,-1463623
7.360,2738831,33430470,25264910,-7669242,-92041020,-1920166,-19607540
7.370,-19286620,41233510,-40681080,-29689510,-83251950,-62469480,5670166
7.380,-19116570,4384892,-3832463,-29514290,-82958980,-66833500,7562256
7.390,2782853,32607010,24362040,-7609683,-8364258,-5633545,116882300
7.400,-18750580,31487750,30660310,-29137940,-8691406,-6530762,17736820
7.410,-18545150,44876080,-38143370,-28929050,-8486328,-15136720,16381840
7.420,2837233,42145020,33813720,-7541492,-8652344,-21826170,19140620
7.430,-18109250,46476390,38114020,-28484520,-82373050,-25708010,2536621
7.440,28795260,46628310,-37306100,-74922930,-8129883,-34570310,2442627
7.450,2901108,56002300,47577790,-7465533,-76416020,-34594730,3017578
7.460,2925275,9924700,1469111,-7437914,-7290039,-3088379,35839840
7.470,29503060,10631640,2143244,-74094290,-6855469,-28100590,36987300
7.480,29744750,49692550,-35536600,-73800820,-65771480,-2849121,3408203
7.490,3000369,50633400,-34923760,-7350732,-66259770,-32373050,32128910
7.500,-16294010,13099430,4509188,-26639940,-67822260,-33691410,32104490
7.510,-16011760,13979000,5355955,-26352500,-67578130,-25390620,38720700
7.520,30780550,15032060,6374490,-72575120,-70458980,-14733890,46118160
7.530,3103086,55190920,-31712770,-7225572,-6513672,-7774353,52685550
7.540,31281190,56399360,-30849610,-71953640,-60009770,2775879,625
7.550,3152288,5777180,-2980517,-7164290,-50097660,60253900,77197260
7.560,49559620,59144240,-28760740,-53519830,-46679690,8911133,8647461
7.570,-14401090,6059437,-2762135,-24700400,-4296875,12060550,98046870
7.580,32127090,62130800,-26395660,-70762460,-4296875,14111330,99658200
7.590,3228247,6376219,-2509228,-7048626,-40356440,1375,85839840
7.600,-1376321,65471250,-23693950,-2402624,-3779297,11767580,6376953
7.610,49376630,6726666,-2220932,-53115870,-33154300,90234380,40820310
7.620,32653620,68984340,-20819600,-69666240,-36401370,46020510,16027830
7.630,32765840,30143540,21128610,-69381400,-33740230,-14831540,-8880615
7.640,32878050,31628190,22578730,-69096560,-27319340,-5493164,-19470220
7.650,49103870,32941920,23854490,-52680830,-1348877,-7758789,-10284420
7.660,-12554770,33996710,24871310,-22714250,-53375240,-81640620,48217770
7.670,33318260,48872540,-42795840,-68069380,21408080,-70947260,28344730
7.680,-12048090,31620670,30700020,-22167860,85510260,-60009770,49414060
7.690,-11790870,78177070,-14302680,-21889920,13085940,-47070310,6928711
7.700,33818900,7915249,-1372438,-66981800,19812010,-40893560,8354492
7.710,-11291960,8020553,-1305109,-21353040,24487300,-33007810,9394531
7.720,34129640,39207660,29845740,-66274000,30932620,-17138670,10654300
7.730,34267740,8254474,-1141972,-65945990,31518560,-8868408,11005860
7.740,34397220,83917140,-10375270,-65643880,3154297,83740230,11621090
7.750,34500810,85358630,-9227262,-65367670,2861328,10491940,11123050
7.760,34595750,44189000,34704510,-65100090,25024410,-15701290,96191410
7.770,34664800,88466030,-6637762,-64858400,22729490,-5923462,8666992
7.780,-9981668,90131940,-5196268,-19918450,20043940,8343506,83154300
7.800,-9754652,50534140,40961610,-19662090,55114740,-119384800,51171880
7.830,-9498296,53127960,-43080680,-19366020,-3488159,-21850590,8227539
7.850,-13801790,10123230,476469,-14786320,33416750,-36376950,-25146480
7.860,-9308398,102423400,5817752,-19141600,70373540,-30444340,-38427740
7.870,-9235893,53878920,-42847640,-19058730,1776123,-3725586,-5654297
7.890,-9072750,57281340,56311490,-18876610,23999020,-4333496,-73046870
7.910,-8874228,54422710,-42839000,-18660820,26879880,-32666020,-6455078
7.930,-8659298,54638500,-42916680,-18426900,40478520,-2836914,-5830078
7.940,3535532,54750710,-42959850,-6221709,5048828,-24304200,-54296880
7.950,-12822700,64106580,54319990,-13797380,6035156,-19995120,-5395508
7.960,35484820,64460480,54656620,-61880470,73095700,-29125980,-62402340
7.970,-8214767,55078720,-43115210,-17939210,8881836,-25048830,-6933594
7.980,35614290,55190930,-43175640,-61526580,10097660,-6689453,-65527340
7.990,35674710,55311780,-43227430,-61345310,11162110,5596924,-6425781
8.000,-7878993,11021790,1148876,-17567180,11464840,124572800,-6298828
8.010,35761020,11082210,1192033,-60982780,11416020,2220459,-6274414
8.020,35804190,66930000,57020840,-60801510,10830080,28564450,-60595700
8.030,35821450,11221180,1294749,-60628880,10107420,43579100,-51953120
8.040,-7493157,6824203,5829834,-17124380,97509770,74658200,-38354490
8.050,35847340,50435740,-49156520,-60309510,96533200,8125,-36694340
8.060,-7369723,114525100,14777430,-16971590,10166020,59472660,-48901370
8.070,-7316207,11528470,1539892,-16904270,11035160,3815918,-6230469
8.080,-11571020,11603560,1602903,-12528620,11542970,2890625,-73046870
8.090,-7215215,11678660,1665913,-16780840,11757810,28027340,-7651367
8.100,-7168605,117528900,17297870,-16723870,11171880,25219730,-76708980
8.110,-7111634,72947140,62915420,-16659990,10244140,123291000,-8496094
8.120,3588187,11863370,1826462,-5954992,8876953,-56488040,-8979492
8.130,35933660,7372920,6368707,-59463600,7919922,-2529297,-90478510
8.140,36002710,57115790,-43339640,-59394550,7636719,-3881836,-91015620
8.150,36080400,11903950,1854945,-59316860,6928711,-4255371,-8496094
8.160,-6751699,57107160,-43400060,-16294870,54052740,-4501953,-75390620
8.170,3630482,11836620,1784167,-5916150,4345703,-33496090,-59814450
8.180,-6556618,72440460,62386290,-16110150,3828125,-22546390,-44140620
8.190,-6459082,11690740,1636566,-16017800,33935550,-21948240,-38110350
8.200,3669325,11604420,1550249,-5896297,3779297,-20544430,-30541990
8.210,-6253646,69765510,59709610,-15826170,39086910,-1430664,-2442627
8.220,36952200,11398130,1342223,-58842120,37841800,-859375,-18762210
8.230,37081680,11285920,1230012,-58781710,41137700,-11975100,-20617680
8.240,-5949814,11165070,1109170,-15543060,4477539,-22680660,-22070310
8.250,-584280,56304410,-44271860,-1544290,49975580,-25146480,-22302250
8.280,-5496652,55915980,-44712070,-15115790,5419922,15159610,-51879880
8.310,4721353,5656423,4649797,-4920227,4609375,-2944336,-13134770
8.320,38436850,5492424,4485794,-58065270,38745120,-23522950,-6311035
8.330,-4863946,53197010,43132470,-14522790,40844730,-3864746,-91552740
8.340,-4737929,54949240,-45678820,-14407130,46777340,-41503900,-70129390
8.360,39136010,47583840,37524480,-57780430,5078125,-1953125,47454830
8.370,39308650,45683140,35627230,-57711380,5810547,7952881,8251953
8.380,-4225205,8902710,-1151465,-13935840,6069336,13000490,10321050
8.390,-4107812,41969790,31917340,-13828800,5776367,66467280,94177250
8.400,-3999919,85384530,-15122690,-13729540,60253900,81604000,13745120
8.410,39921500,8355464,-1691810,-57443790,6279297,10266110,13354490
8.420,-81875750,81819650,-18635780,-91620910,6274414,1512146,7110596
8.430,40189080,30367700,29363490,-57348840,55810550,-56854250,59326170
8.440,-3611492,33157710,23120800,-13375640,58740230,-8917236,40618900
8.450,-79184380,31341610,21311610,-88960620,6538086,-3933716,-56152340
8.460,-3426777,52566900,-47664110,-13215090,7636719,-5984497,-27038570
8.470,40767400,72782280,-27379670,-57236620,84765620,-98083500,-9820557
8.480,-32334250,25892440,15884870,-130459100,8496094,-8728027,-14025880
8.490,-3131572,6916562,-3084097,-12957870,7480469,11383060,-6451416
8.500,-3029718,22344820,12354520,-12869830,6459961,21142580,20187380
8.520,-7283668,51211720,-48484120,-8270610,64208980,-11627200,-4437256
8.530,-2748327,61526580,-38048420,-12633320,6333008,-44750980,-84472660
8.540,-70920430,10164660,9170294,-80824420,60498050,-6640625,-7885742
8.550,42139830,56977690,-42303840,-57089890,5605469,-53027340,6969452
8.560,-68570890,54569450,-44556700,-78512850,5644531,-359375,13574220
8.570,-2243372,7451725,-2445354,-12206050,54248050,-2602539,16723630
8.580,42821740,49407710,-49407710,-56994940,47827150,-4006958,26049800
8.590,4306340,46826840,-51833200,-5696040,45874020,23461910,29101560
8.600,43279210,44237330,-54250080,-56934520,35107420,51220700,33642580
8.610,49530280,-2593816,-12425300,-50873360,33032230,6323242,33569340
8.620,-1590819,-4933003,-14747220,-11650170,3725586,50927740,2668457
8.630,4384888,36719140,-61233100,-5693451,40063480,3701172,21569820
8.640,-14250900,-9613090,-19389330,-115224200,4243164,15917970,22668460
8.650,44168270,-11953140,-21710390,-56977680,43847660,-7965088,23693850
8.660,44323640,46775050,-50607510,-57012200,4416504,-27490230,28808590
8.670,-1207575,27017140,-70175510,-11360150,48754880,-45239260,29907230
8.680,-57063140,-23511130,-24480980,-67232980,5107422,-5517578,32592770
8.690,-5627683,21812240,-74983360,-6646561,5053711,-43408200,36621100
8.710,-8519460,-26944630,-36584490,-110770300,47802740,-29663090,44140620
8.720,45350810,-29631670,-39249090,-57089890,4934082,-39111330,515625
8.730,45532080,10875920,-85108310,-57081260,54296880,-41381840,52978520
8.740,-5317112,-35089480,-44667190,-108103100,6328125,-42089840,53125
8.760,46084500,2468660,-92928610,-56994940,7504883,-31420900,5175781
8.780,-46611,4248511,-5260143,-10380450,72558590,61279300,5341797
8.790,-45841100,42157100,-52774050,-56185290,73095700,5209961,48950200
8.800,46757780,41854990,-52955330,-56770520,80566410,9584961,421875
8.810,46869980,46769000,-47920470,-56727360,8457031,10439450,30639650
8.820,-43499330,-12265600,-106851500,-53865960,8510742,11142580,2166748
8.830,3521720,-1395737,-10843970,-100196500,8569336,11601560,14086910
8.840,3633932,40931400,-53464600,-100136100,8515625,10751950,10266110
8.850,3573516,4075881,-5355091,-100248300,8701172,8803711,99365230
8.860,-47990740,-17962510,-112203100,-49029290,8251953,6796875,1159668
8.870,4705123,40482550,-53689020,-5682230,7861328,796875,1986084
8.880,47025360,40361720,-53758080,-56865470,6665039,8730469,31054690
8.890,232187,-20810970,-114879000,-10158620,4584961,7680664,38500980
8.900,189897,4014592,-5387028,-10202640,30541990,6201172,48657230
8.910,51465490,46278720,-47668420,-52477120,20690920,4934082,5498047
8.920,-45987840,-65566200,-74957460,-56383820,14770510,34350580,5654297
8.940,-69056,39792020,-54086070,-10461590,27008060,25170900,64746100
8.950,-48322700,-2495415,-11884950,-58710060,-12374880,41845700,7373047
8.960,-264993,-2500596,-11897040,-10645450,-8135986,7207031,85498050
8.970,46265780,39852440,-54198280,-57435160,-22741700,8696289,9682617
8.980,-569691,-2414279,-11827980,-10927700,-3371582,82910160,10371090
8.990,-7647668,-23227830,-117468500,-111124200,-41601560,6870117,10976560
9.000,51061530,40249500,-54094710,-52294130,-41577150,54003900,11201170
9.010,45212710,-63037110,-72480170,-58039380,-38330080,4194336,10986330
9.020,-1522630,40655180,-53861650,-11839200,-2376709,30859380,10478520
9.030,44565330,40888240,-53697650,-58496850,-5496216,21264650,10019530
9.040,-2110448,-57069180,-66536400,-12408030,9161377,10510250,98535150
9.050,-7029726,-11834020,-106592500,-8058445,9527588,16357420,1015625
9.060,4356404,-51796090,-61278850,-5920468,-37109380,-1496582,10644530
9.070,-2962393,-48857000,-58348400,-13230630,-18273930,-34814450,11083980
9.080,42942580,46985660,-47997300,-59653500,-23461910,-5605469,10810550
9.100,42364260,43106580,-51997210,-60059190,-36547850,-74658200,99072260
9.120,-4158742,-3364799,-4317391,-14382100,-625,-5307617,10087890
9.130,41604670,12282880,-83062600,-60525300,-71777340,-38623050,9916992
9.140,41362980,-27684370,-37225830,-60663400,-81591800,-52197260,88134770
9.150,-4743107,-24832460,-34380820,-14937110,-96435540,-7573242,74853520
9.160,-4920919,-21981420,-31534960,-15104570,-10976560,-80126950,6542969
9.170,-5097007,23702580,-71867320,-15273750,-11933590,-44506840,67626950
9.180,40482550,-16798960,-26359410,-61198580,-13164060,15649410,75341800
9.190,-5466441,-14209460,-23769910,-15629370,-14248050,6098633,8496094
9.200,-5667559,3131573,-6428871,-15825310,-15458980,8408203,81933590
9.210,3980063,46395250,-49174650,-6172508,-16513670,10712890,82910160
9.220,49626080,36365250,-59152870,-51865140,-17216800,13027340,8276367
9.230,-6372766,-4119035,-13662210,-16518440,-17373050,12138670,78125
9.240,-6642074,-1619302,-11155580,-16784290,-17421880,83935540,5991211
9.250,-6929511,7932508,-87343920,-17066550,-17753910,28466800,36621100
9.260,-7209175,3119488,-6399523,-17339310,-17734380,-13708500,18188480
9.270,-7488841,4761233,-4752600,-17612070,-17304690,-6201172,-31677250
9.280,37763570,71720580,-23383210,-63382380,-17402340,-10205080,-19311520
9.300,50459440,5314524,-4192407,-50462090,-20234380,-10957030,-17224120
9.310,36926300,11572490,2065558,-63874390,-20390620,-10839840,-16967770
9.320,36675990,12522840,3014179,-64021130,-19941410,-10888670,-19909670
9.330,36434300,13299690,3791030,-64141970,-19091800,-10771480,-22094730
9.340,36201240,13905630,4393522,-64254180,-17724610,-7944336,-836792
9.350,48748240,57158950,-37996630,-51586340,-16953120,-40527340,12451170
9.360,-9327388,14686800,5166059,-19347040,-16513670,-2208252,27563480
9.370,35545240,10747990,9795395,-64513130,-16601560,-14697270,38598630
9.380,35338080,15382510,5851411,-64582190,-16894530,-14208980,47436520
9.390,-9770192,15557730,6021457,-19750140,-17871090,-18969730,5517578
9.400,-14399880,58574540,-36822720,-15396660,-18652340,-2902832,6567383
9.410,-10049860,15561180,6018005,-20005630,-19033200,-48754880,71875
9.420,48220850,15390280,5843641,-51250570,-19023440,-6459961,7602539
9.430,-10292410,15045870,5497514,-20229190,-19140620,-69921870,8515625
9.440,34267750,57512850,-38005270,-65013770,-19677730,-62158200,98535150
9.450,-14989250,13926340,4372808,-15981200,-20175780,-47802740,10917970
9.460,33957010,13322990,3767725,-65151880,-20722660,-31323240,12119140
9.470,-10766290,12632460,3077192,-20670270,-2109375,-21716310,12773440
9.480,47891980,11854740,2301203,-51061540,-21152340,-31152340,12431640
9.490,33456370,11077890,1524352,-65428090,-20488280,-28686520,12109380
9.500,-11201330,47814300,-47703810,-21081140,-19873050,-25805660,11923830
9.510,-15811760,96096430,578320,-16798700,-18837890,-59521480,10537110
9.520,32826260,88327940,-7190186,-65764720,-18554690,-97558590,9042969
9.530,32601830,8056808,-1496734,-65868300,-18427730,-93603520,10498050
9.540,-11872010,71090470,-24479430,-21705200,-17539060,-6274414,13242190
9.550,32152990,59895190,-35726500,-66023680,-16025390,-23217770,1625
9.560,31919930,4782814,-4782813,-66101360,-14541020,30944820,1875
9.570,-12352790,-8162111,-17732910,-22139380,-13525390,-22021480,18261720
9.580,31462460,-23695670,-33273380,-66248100,-11816410,-7128906,14775390
9.590,47015860,-40955560,-50540180,-50522060,-86621100,-13359380,7841797
9.600,-12793010,-1677133,-11270380,-22527810,-6279297,-19570310,-7775879
9.610,46794040,-3742693,-13348020,-50346840,-38720700,-15332030,-47875980
9.620,46673180,37401050,-58807600,-50243250,-8404541,-21862790,-41796880
9.630,30392120,35415760,-60965520,-66282620,10650640,60253900,-6870117
9.640,30176340,-9933328,-19587000,-66256740,3449707,43481440,-12929690
9.650,-13342840,3168689,-6500513,-22961980,6459961,-45263670,-2140625
9.660,29710220,-13714870,-23401330,-66204940,11064450,-13154300,-30410160
9.670,-13524970,28078840,-68992980,-23090590,15029300,-15371090,-35859380
9.680,-13556910,46403880,-50909620,-23093180,16796880,-7578125,-35429690
9.690,-13579350,4634347,-5122898,-23088000,17128910,54248050,-32851560
9.700,2905420,-21263270,-31044680,-6573885,17294920,12402340,-3375
9.710,28907480,2123395,-7682192,-65609360,16953120,12753910,-37070310
9.720,-13646680,19887380,-78410130,-23072470,17373050,12109380,-39921880
9.730,-13660490,46196720,-52342480,-23058650,18232420,10771480,-42773440
9.740,2851904,-27343420,-37221500,-6520368,17978520,11484380,-44101560
9.750,-13625960,-28797860,-38701840,-22972340,16679690,16181640,-43046880
9.760,2834639,14337210,-84944300,-6485840,14951170,20566410,-41523440
9.770,44652520,-31880220,-41834280,-48293360,14824220,22753910,-41445310
9.780,-13518070,1157509,-8822434,-22786760,15068360,22324220,-42109380
9.790,28121990,-34788240,-44795800,-64305980,14423830,19785160,-42617190
9.800,2805292,46049980,-54284600,-6409879,14628910,15507810,-43046880
9.810,2800975,7587240,-93040820,-6388302,15742190,9003906,-43515620
9.820,27975250,46015460,-54906080,-63641330,15136720,5859375,-41210940
9.830,-13127050,45972300,-55242720,-22262810,14130860,36157230,-37949220
9.840,43796250,-43347410,-53499980,-47302440,13037110,10839840,-34921880
9.850,43692670,50395170,-51406800,-47164320,12539060,-22619630,-32324220
9.880,-12282010,4558388,-5709852,-21295200,14296880,-7192383,-26074220
9.890,-12095570,4549756,-5747831,-21084590,16044920,-79052740,-23945310
9.900,28406840,-56984590,-67311520,-61224470,18173830,-10146480,-22910160
9.910,-15772060,45350820,-58194750,-16665780,19599610,-10878910,-20898440
9.920,-15592000,45290400,-58531380,-16483300,19941410,-10166020,-18320310
9.930,28579470,-67497100,-68538080,-60309510,19433590,-8183594,-14726560
9.940,28614000,45221340,-59135600,-60033290,19267580,-61572260,-12080080
9.950,-11140900,51581160,-53000200,-19984910,21054690,-57177740,-1046875
9.960,28683050,45204080,-59601710,-59549920,23808590,-27148440,-8886719
9.970,2872621,-2025854,-12527150,-5931687,26464840,33666990,-6972656
9.980,28769370,-20413910,-125634000,-59118340,27539060,39013670,-72216800
9.990,28829790,-67668870,-78206420,-58937080,27304690,4878998,-75683590
10.000,42365980,52030010,-53483580,-45349090,26367190,-5697632,-5253906
10.010,2908011,-1952485,-12514200,-5861771,25097660,38085940,-1907959
10.020,-10226810,45670190,-60016030,-19000040,24140620,6557617,10076900
10.030,-10067130,-17910720,-123648700,-18848990,23105470,35864260,23498540
10.040,29658440,-1676268,-12255250,-58246540,21894530,7397461,39672850
10.050,29891490,-6307163,-7365410,-58117060,20039060,-47340390,64404300
10.060,30150440,46231260,-59627610,-57978960,17207030,-55603030,92333980
10.070,-9302356,4640389,-5948950,-18129100,13955080,-17871090,11962890
10.080,-9088293,46576520,-59334130,-17928850,11582030,-20922850,13632810
10.090,-8881996,-56850800,-67445310,-17738090,99072260,-18005370,15214840
10.100,43038390,-744048,-11340300,-45660700,7446289,-12695310,16982420
10.110,31514240,-563646,-11158170,-57357480,38427740,-8886719,18369140
10.120,31790450,-3841092,-109751700,-57271160,-25863650,-28149410,19003910
10.140,-7962722,47543260,-58212010,-16913760,-19750980,-9145508,16640630
10.150,-7787497,121707,-10445190,-16760990,-35107420,-7133789,16787110
10.160,-7620908,47784950,-57797690,-16616830,-68896480,-2861328,17978520
10.170,33136990,4220884,-101240900,-57081260,-10488280,13476560,1921875
10.180,-7292039,543796,-9986847,-16341490,-12861330,7104492,21113280
10.210,-6831971,845041,-9632085,-15972910,-14335940,7993164,20820310
10.220,-6654160,-42635380,-43681360,-15822720,-15498050,11611330,21914060
10.230,34906490,-37159350,-47603690,-57055370,-17412110,16171880,22304690
10.240,-6299397,1046160,-9384356,-15521480,-19082030,21074220,22382810
10.250,35484810,-35706640,-46121630,-56994950,-21386720,24335940,22539060
10.260,-5979163,-34852980,-45248960,-15254760,-23867190,24335940,22324220
10.280,-5725390,1328416,-9027868,-15059680,-24394530,15644530,20390620
10.290,-5607138,-32639810,-42973650,-14970780,-24824220,96875,19238280
10.300,3680544,-32047680,-42357350,-5715897,-25136720,25219730,17763670
10.310,37081670,-31714500,-42000010,-57210740,-24121090,-37939450,16269530
10.320,4631580,14699740,-87896340,-4830458,-22441410,-859375,153125
10.330,37659990,14673850,-87697810,-57271160,-20957030,-11923830,14550780
10.340,37944840,14561640,-87585600,-57279790,-20820310,-15283200,14384770
10.350,38229690,-31414980,-41608990,-57271160,-20820310,-19960940,14414060
10.360,-4593781,14268160,-87464750,-14171480,-20703120,-24609380,14628910
10.370,3876481,14009210,-87551070,-5725390,-19833980,-29121090,15263670
10.380,-4286492,-36609180,-37623220,-13909080,-19091800,-31484380,16289060
10.390,-4130258,-32483580,-42611990,-13771840,-18164060,-3203125,18085940
10.400,39472650,-33092980,-43211030,-57081260,-18251950,-31679690,19667970
10.410,-81829140,1154059,-8957084,-91494880,-18837890,-31640620,20644530
10.420,-3690043,-34911670,-45017630,-13366150,-21328120,-31503910,21425780
10.440,-3448358,7992932,-92928610,-13141720,-30078120,-28476560,22480470
10.450,-3355998,45972300,-54828400,-13061450,-33417970,-25195310,22949220
10.470,40568860,45333560,-55173670,-56744620,-31914060,6640625,27949220
10.480,-3156604,-221834,-10257020,-12898310,-30175780,36816410,3328125
10.490,-3126395,44565330,-55648400,-12876730,-25371090,53203120,3515625
10.500,-3191133,44245960,-55812400,-12950100,-19941410,90478510,22109380
10.510,40706970,4390072,-5605411,-56900000,-12900390,-21914060,10820310
10.520,40758760,-59566320,-69563530,-56779160,-46264650,8754883,93896480
10.530,-74109840,43192900,-56848200,-83849820,-30200200,5921875,82128900
10.540,-78543380,-2079367,-12093840,-78553100,-3334961,87734380,31811520
10.550,40577500,42951220,-57331590,-56442520,-39160160,70859380,-6845703
10.560,-3247236,-6722607,-7726816,-12928520,-41455080,440625,-13330080
10.570,-3431955,-2186403,-12245760,-13089070,-33544920,284375,-16630860
10.580,-3650336,4320154,-5756464,-13285010,-24060060,21269530,-18710940
10.590,-82114850,43339640,-57581900,-91727080,-6335449,17392580,-20742190
10.600,-4148386,-65294300,-75401990,-13736450,12768560,14599610,-23125
10.610,38609480,-1851492,-11976450,-57029470,18432620,11787110,-26015620
10.620,38195160,-67165300,-68179350,-57202110,4977417,86035150,-28085940
10.630,37737680,44185550,-57374750,-57417890,8496094,9057617,-31289060
10.640,37271560,44435860,-57245270,-57659580,22827150,-11142580,-35820310
10.650,-5811710,-56973360,-67150110,-15284110,26098630,-21132810,-378125
10.660,36399770,44858820,-56925900,-58186110,22302250,-27929690,-37363280
10.670,-6504831,-781166,-10957910,-15954790,19482420,-34082030,-35585940
10.680,35683340,45100500,-56580630,-58781700,7305908,-39960940,-32617190
10.690,-7127178,-5498372,-107058700,-16575400,-16525270,-44414060,-29960940
10.700,35122280,45152290,-56235360,-59411810,15945440,-49921880,-28085940
10.720,-7946323,-3608044,-104633200,-17413540,6845703,-61875,-29023440
10.730,-8188009,-53011860,-54020900,-17655230,11513670,-6765625,-29550780
10.740,34198690,49897120,-50955370,-60438980,14169920,-72070310,-29121090
10.750,33982900,45212710,-55657040,-60551190,14814450,-72734380,-26992190
10.760,33784370,-46396970,-56492580,-60611620,14716800,-76210940,-26054690
10.770,45762540,-45786720,-55894410,-48460810,15048830,-80390620,-24765620
10.780,33499530,12950,-10112010,-60551190,165625,-784375,-21601560
10.790,-8815530,30212,-10112010,-18201610,19033200,-77148440,-19443360
10.810,-8619593,-50762710,-51781590,-17965970,18183590,-5640625,-6542969
10.820,33516790,-116525,-10327800,-59774340,178125,-37382810,-40740970
10.830,33594470,45825560,-56494310,-59524020,14912110,-25429690,42907720
10.840,-8151757,45739240,-56753260,-17449790,10263670,-24401860,6230469
10.850,-7982575,-645649,-10903530,-17273710,10917970,45507810,18896480
10.860,33948370,45238610,-57357480,-58945700,21445310,10140630,30039060
10.870,33922480,-11014020,-113627400,-58919810,40039060,11265630,28105470
10.880,-7860868,45005550,-57659580,-17136460,45625,88046870,19296880
10.890,-7792675,-1313740,-11581980,-17066550,4125,86015620,24746090
10.910,34371330,-1753091,-12005800,-58591810,2328125,113671900,36738280
10.920,34682060,43961120,-58358750,-58505490,10419920,137734400,43007810
10.930,3494962,-70597600,-80801970,-5849689,21740720,151953100,44726560
10.940,35139550,-2916640,-13086480,-58565910,-25177000,160,40703120
10.950,-7009783,-3399153,-13536190,-16399320,-13110350,16828120,39199220
10.960,-11346600,41578780,-59463600,-12286930,-43139650,15265630,3390625
10.970,35070490,40879620,-59800240,-59049280,-11464840,1228125,29042970
10.980,-7494884,-5042623,-15069180,-16915490,-23320310,90546870,28632810
10.990,3465617,-5765958,-15744170,-5960172,-34550780,56210940,28242190
11.000,34362690,38022530,-61259000,-59877920,-42421880,37421880,30273440
11.010,33939740,-7645935,-17524030,-60128240,-44453120,25136720,2921875
11.020,-8847467,-8651525,-18486460,-18221460,-50039060,-3725586,22792970
11.030,-9409389,-9662296,-19460970,-18729870,-66523440,-46445310,2234375
11.040,31574660,47267920,-50390860,-60922360,-83046870,-77148440,29628910
11.050,-10775780,-11887540,-21620620,-19935720,-84921870,-8140625,38144530
11.060,-11605290,-17417170,-18387020,-20659910,-68242190,-63320310,34863280
11.070,-12559090,46407330,-50198360,-21501500,-49492190,-43632810,22890620
11.080,42319370,28320530,-67939900,-45930860,-28144530,-34042970,4404297
11.090,-14855980,2759548,-6842328,-23554980,-60595700,-37109380,-16601560
11.100,40771710,45910150,-50056810,-44854490,43847660,-509375,-29589840
11.110,-17438570,-15997080,-25607590,-25857910,50964360,-68789060,-22070310
11.120,1849767,-20260700,-21223130,-6426283,-75,-9140625,5214844
11.130,1653826,27422830,-68785810,-6485839,-4658203,-1296875,37480470
11.140,37546920,27120730,-68742660,-42624070,16162110,-191875,6734375
11.150,-22479470,-16595260,-26131530,-30363640,73007810,-2515625,68085940
11.160,11393810,25489340,-70011510,-65445360,16140630,-27265620,-42578120
11.170,-23192450,-18556370,-28296350,-30513830,16390630,-126953100,-17765620
11.180,7941134,47917880,-52761980,-60490770,90703130,112109400,-142890600
11.190,29539310,2741421,-7614865,-34732130,-44296880,31625,1895752
11.200,4626572,27966630,-76148630,-57987590,-66875,3259375,15109380
11.210,28689960,2791485,-7426694,-34476640,14316410,42148440,47890620
11.220,897694,4783936,-5235715,-62631430,609375,-12421880,-12734380
11.230,-28837560,27448730,-71953640,-35140400,87421870,-909375,-1809375
11.240,-1510542,2808750,-7152206,-63693130,78046870,-23203120,-181875
11.250,27469440,2910602,-7126312,-34022610,46835940,-10771480,-114609400
11.260,-29563490,50376610,-50786610,-35691970,24335940,-19189450,-56875
11.270,27567840,3076330,-7095238,-34027790,-12768560,43603520,-19023440
11.280,-820010,3124669,-7079700,-63054380,-18310550,14238280,-45141600
11.290,28330880,3163511,-7052943,-34663080,-18603520,16660160,-15175780
11.300,353896,-13922020,-24143660,-63365120,96069340,-17028810,-50820310
11.310,845898,32705420,-69787090,-63425540,23261720,-63720700,-81171870
11.320,1493278,3357724,-6957130,-63209750,22304690,31621090,-575
11.330,-27018000,-12225040,-22612390,-33541820,-14428710,63046880,22094730
11.340,-26458670,-11651030,-22081550,-33065360,-26757810,690625,50195310
11.350,30614820,50535860,-53803820,-36505070,-3859375,39550780,4984375
11.360,-25862220,-10657530,-21072510,-32677790,-35117190,87158200,22675780
11.370,31639400,36529250,-67413380,-37465780,-28105470,6767578,37329100
11.380,5938586,50384810,-53385180,-63995230,-22304690,16582030,-6586914
11.390,32424890,-9319616,-19682810,-38216740,-12724610,14160160,-16289060
11.410,-25140620,38428220,-65220930,-32329070,-18334960,-66064450,-24550780
11.420,-24912740,-7639894,-18013440,-32159890,-17907720,-22382810,-25
11.430,-24639980,50680880,-53140900,-31949280,-23718260,-36914060,-25234380
11.440,-24322340,40120020,-63770810,-31697230,-2536621,-51796880,-27285160
11.450,952934,40560240,-63382380,-6489291,-25341800,-61054690,-29980470
11.460,-2695223,5186946,-5209043,-2770353,-2788086,-64296880,-30664060
11.470,-23148430,41250770,-62743640,-30730490,-14343260,-58828120,-26582030
11.480,1169592,-5260142,-15663040,-6478072,16589360,-38164060,-18886720
11.490,12377820,-9638988,-10679970,-64703030,58447260,-20996090,-12294920
11.500,1299065,51112460,-53071850,-6462532,9707031,-20019530,-12148440
11.510,-21575730,51204820,-53083070,-29385670,12949220,-28339840,-14785160
11.520,-21216650,-3737514,-14181840,-29071480,15175780,-39179690,-2078125
11.530,-20816150,43788490,-60844670,-28712400,17480470,-45429690,-23183590
11.540,-23944790,-75978580,-86469530,-24737870,16416020,-27207030,-1484375
11.550,37427800,44867440,-60300880,-42208020,1203125,-9169922,-6035156
11.560,1650371,-20413910,-125806700,-6349461,7182617,-8071289,-3779297
11.570,-19077730,-1663323,-12216410,-27119000,79003900,-11279300,-59521480
11.580,1773809,-1337047,-11903940,-6308891,17832030,-64160160,-8876953
11.590,-18115300,-1050474,-11638090,-26234250,32753910,7841797,-7270508
11.610,-16654820,47551890,-59187390,-24829010,25566410,96015620,42539060
11.620,-15983270,-48853560,-59560280,-24188540,13828130,1171875,578125
11.630,21605080,-43320650,-54044640,-60827420,14023440,5609375,20566410
11.640,2229559,-38049280,-48785360,-6055121,16445310,11308590,-17297360
11.650,-14392450,1488965,-9257470,-22723750,10390630,9741211,44677740
11.660,-13751990,18704840,-88794030,-22138520,-26489260,38398440,26679690
11.670,40498960,-26046070,-36792510,-43970620,-13994140,65507810,46835940
11.680,-12594480,2613672,-8120679,-21103580,-20976560,70039060,54570310
11.690,26464710,29744750,-77391590,-59282340,-22558590,56484380,51953120
11.700,-11648450,-15198650,-25888120,-20288750,-21816410,51328120,52265620
11.710,-11193560,-12448600,-23113900,-19897740,-19833980,53515620,53320310
11.720,-1076632,38177900,-68216130,-1953087,-17373050,4609375,49375
11.730,-10366640,40819190,-65333140,-19188210,-15292970,30,41054690
11.740,-9986849,43210160,-62717750,-18860210,-15400390,16796880,35195310
11.750,30530230,45506190,-60180040,-58704010,-16201170,62402340,3125
11.760,-9298906,1795384,-103649100,-18270660,-16914060,-1538086,28847660
11.770,31583300,2239059,-8281230,-58583180,-16640630,-49829100,28007810
11.790,-8492704,13868510,3394838,-17592220,-13193360,-14550780,25273440
11.800,-8276049,5501831,-4949402,-17411810,-12441410,-19921880,24082030
11.810,-8086155,56891360,-47396520,-17256440,-12900390,-25097660,23203120
11.820,33490900,11764110,1356035,-58522750,-14121090,-31210940,221875
11.830,33784380,6013690,-4373671,-58540020,-15214840,-36542970,20566410
11.840,-7633854,14762750,4399566,-16897370,-15644530,-42578120,178125
11.850,34293640,15959970,5619219,-58652230,-15488280,-48945310,14316410
11.860,34500800,16983690,6667105,-58738540,-14287110,-5625,10146480
11.870,-7382672,17663000,7368862,-16734230,-12617190,-61171880,7607422
11.880,34897860,18084220,7810802,-58876650,-11582030,-6078125,7163086
11.890,-7212627,18249090,7991205,-16610790,-12431640,-58554690,80615230
11.900,3526038,64245560,-38177900,-5892842,-14980470,-58164060,83740230
11.910,35441660,63649970,-38618120,-58954330,-18349610,-59960940,8691406
11.920,-6939003,16672080,6460810,-16401040,-22304690,-58554690,8984375
11.930,35855980,15022570,4830285,-59006130,-25625,-51367190,11240230
11.940,-6732709,58548650,-43184260,-16244810,-28476560,-41171880,1375
11.960,-6596327,68794450,-32541410,-16156770,-27167970,-28339840,72216800
11.970,-6541950,33309630,-67836320,-16124830,-22519530,-24628910,24609380
11.980,-6437503,-1078959,-11178020,-16039380,-21269530,-52783200,6616211
11.990,36986720,39041060,-61828680,-59221910,-21445310,28828120,18427730
12.000,-6196682,48699910,-52049000,-15831350,-16679690,55546880,25078120
12.010,37228420,-16546920,-26611450,-59204660,-55322260,50625,18417970
12.020,3723703,-21035390,-31099920,-5916151,18847660,33320310,34155270
12.030,37228420,1989604,-8083565,-59049290,13317870,4296875,-22375490
12.040,-6018871,15476590,-85393150,-15629370,-2866211,78164060,10235600
12.050,-6004197,11324760,-89700350,-15592260,-19958500,1109375,37036130
12.060,36926300,8200092,-92963130,-58712650,22607420,110625,-359375
12.070,36641460,575735,-9552675,-58755810,5317383,8109375,-16005860
12.080,3634798,349583,-9792635,-5879034,10996090,596875,-23671880
12.100,-6740478,45644300,-56036830,-16202520,14521480,39882810,-3125
12.110,-6864773,-49029640,-59211560,-16302650,11650390,2796875,-33945310
12.130,-7103005,-724197,-10928560,-16495990,5595703,55322260,-40117190
12.140,3494099,45031450,-57098530,-5878169,28857420,9881592,-39550780
12.150,-11590700,-57298780,-67515230,-12526200,10241700,-14733890,-38320310
12.160,-7552716,-1330141,-11548320,-16892190,11853030,-42333980,-36992190
12.170,34207320,-1511404,-11729580,-59032020,36132810,-9267578,-359375
12.180,45271400,-16572820,-118771800,-47795300,6665039,-16083980,-34238280
12.190,33611740,-1776396,-11999760,-59282340,8442383,-23632810,-31464840
12.200,-8408114,-1860126,-12088660,-17676810,9824219,-31347660,-28925780
12.210,-8617870,-19162320,-121534000,-17864110,10742190,-36953120,-26308590
12.220,32714040,-65570520,-75816310,-59541300,10488280,-39980470,-24179690
12.230,-8966586,-65651650,-75907810,-18171400,89746100,-42578120,-22871090
12.240,32213410,-65474700,-75739490,-59644870,6796875,-45664060,-23046880
12.250,-9276466,-18989680,-121706600,-18448480,7138672,-51796880,-24238280
12.260,-9420609,-1854083,-12129230,-18580540,9667969,-56875,-24472660
12.270,-9530231,4445313,-5835011,-18678080,12060550,-56679690,-23125
12.280,31522880,-6382344,-7411071,-59869290,12958980,-54882810,-19980470
12.290,-9660571,-1689219,-11983350,-18789430,10664060,-5234375,-15644530
12.300,31367500,-62520940,-72823710,-59852030,76220700,-471875,-10673830
12.310,31341610,-1543341,-11853020,-59808870,47729490,-38886720,-6303711
12.320,3134161,5151660,-5164918,-5977434,33276370,-31347660,-46704100
12.330,31367510,-1390561,-11712320,-59731190,38989260,-29472660,-47070310
12.340,31436560,-59746720,-70073660,-59662140,8911133,-31660160,-6269531
12.350,3157466,-1280940,-11614780,-5954129,18876950,-33359380,-80908200
12.360,31807720,45316290,-58160220,-59290970,27617190,-20859380,-43286130
12.370,-8809488,-1226561,-11600110,-17914180,28574220,97998050,55810550
12.380,3260181,51392120,-52671340,-5835873,21328120,55625,19462890
12.390,-11949520,-1045296,-11487900,-12857920,94189460,95859380,32070310
12.400,33318260,4636938,-5835013,-57435160,-11886600,91171870,32402340
12.410,44164820,-3953304,-108949000,-46519550,-73339840,63125,26542970
12.420,44164820,47310210,-57909900,-46467750,-13115230,59648440,29160160
12.430,44188120,47733160,-57659580,-46444440,-20585940,68007810,35839840
12.440,-6573886,48104320,-57357470,-15644040,-26894530,6890625,41289060
12.450,-6447002,9745156,-95716640,-15529250,-29394530,5921875,42929690
12.460,3459571,12559080,-92833660,-5639936,-27929690,45,42109380
12.470,-6273503,-32282460,-42813100,-15392000,-24882810,3390625,41210940
12.480,34923750,4904520,-5614043,-56451150,-23105470,26035160,40273440
12.490,35087760,-2832309,-3883133,-56477050,-22421880,20214840,39179690
12.500,-6039584,-26688270,-37186120,-15211600,-21328120,12460940,36777340
12.510,44870900,2215753,-8275188,-46987380,-18642580,18835450,33339840
12.520,-5942048,23607630,-81267220,-15136500,-16376950,-8803711,29824220
12.530,-5904929,2506639,-7979119,-15104570,-15771480,-17841800,26523440
12.540,44957210,-20565820,-31051590,-47056440,-15205080,-31054690,22167970
12.550,35510710,-19098440,-29584200,-56520200,-14667970,-48203120,16757810
12.560,-5919603,-22695000,-23743410,-15124420,-14550780,-596875,13427730
12.570,35510700,50158660,-54647140,-56571990,-13310550,-653125,11513670
12.580,35510710,3037489,-7439642,-56623780,-11865230,-69453130,97265620
12.590,45034900,50158660,-54543560,-47151380,-109375,-72695310,7788086
12.600,35502070,50115500,-54517660,-56753260,-95751950,-78046870,4506836
12.610,35467550,50029190,-54500400,-56856840,-85791020,-87421870,-13952260
12.620,35458910,29071480,-75337260,-56969050,-9199219,-9265625,-13903810
12.630,-6177692,49658020,-54578080,-15436020,-11083980,-8953125,-3665161
12.640,-6212218,-21469560,-31874180,-15487810,-97998050,-8203125,13574220
12.650,35597020,22476880,-81344900,-57366110,-66308590,-70625,27783200
12.660,-6234659,1898970,-8459041,-15551690,-56689450,-49453120,64697260
12.670,35795550,15165860,-88189820,-57564640,-3449707,-24941410,93652340
12.680,45676230,-35152490,-45467350,-47856600,74646000,-46826170,84277340
12.700,35830080,46688730,-56149050,-57875380,41503900,20371090,66064450
12.710,-6456493,110486,-10157750,-15830490,46411130,12158200,949707
12.720,-6611866,45955040,-56589260,-15985860,53271480,-20324710,-47314450
12.730,45735790,-5153100,-107576600,-48021460,7211914,-37573240,-6254883
12.740,35338070,-54616920,-64845460,-58419180,6201172,56347660,-5292969
12.750,-6939867,-1236055,-11452510,-16313860,42895510,27539060,-10638430
12.760,35148180,-1621026,-11827120,-58557280,4741211,565625,55029300
12.770,34984170,-19619790,-121594400,-58669490,77978510,71914060,7211914
12.780,-11573440,-22243830,-124149400,-12508940,11142580,64296880,7647705
12.790,34457640,-70521640,-80705290,-58971600,10478520,5421875,-41552740
12.800,3419006,-2724156,-12899170,-5913561,84716800,56875,-43530270
12.810,33922480,-2989147,-13152080,-59316860,10166020,6578125,-4326172
12.820,-8263105,42416050,-59092440,-17580130,14306640,70507810,-72216800
12.830,33378680,49833250,-51554400,-59688020,16933590,73476560,-9316406
12.840,33093840,-3826419,-13954830,-59852030,18417970,76484380,-8828125
12.850,3283487,49659740,-51503470,-5999012,19726560,76796870,-68847660
12.860,32575940,40957300,-60136880,-60076450,22675780,815625,-30664060
12.870,-9266102,-4951128,-15057090,-18510620,23164060,82734380,-18859860
12.880,-9383494,-5399975,-15505940,-18600400,16982420,79140620,5488281
12.890,-9483623,39541700,-61500680,-18672900,92822260,80,12441410
12.900,-9575981,-6516051,-16616840,-18735910,21942140,82890620,14980470
12.910,-9720130,-7186732,-17275430,-18850710,-10761720,8984375,20136720
12.920,3099634,-12444200,-13450830,-6001604,-13779300,85,20410160
12.930,30538860,-8723168,-18760080,-60145510,-12607420,77265620,17138670
12.940,29986440,-9603598,-19605990,-60300880,-13183590,70625,14189450
12.950,29295900,34319540,-65324510,-60508030,-20761720,4375,10136720
12.960,-11669160,-11511200,-21427270,-20596040,-31152340,7211914,11435550
12.970,2759545,-12611740,-22467380,-6108637,-34765620,-34023440,12363280
12.980,-12995850,-13836570,-23624890,-21789800,-37265620,-7296875,12314450
12.990,-13664800,-20046520,-20056240,-22363800,-48359380,-84453130,23085940
13.000,24280900,2681001,-6972668,-61587000,-4765625,-6234375,26992190
13.010,2289117,25100910,-70710670,-6173373,-3484375,-40664060,13720700
13.020,-19945990,-19196840,-28708950,-20778260,-17822270,-39082030,-5541992
13.030,-17356570,2242511,-7214353,-25525590,39770510,-4578125,-20976560
13.040,1744461,2154467,-7266144,-6257101,23105470,-42890620,-3359375
13.050,15476590,20931820,-73067120,-62829960,38027340,-29394530,-44492190
13.060,13620780,-21703480,-31087840,-63097540,49921880,-20449220,-46679690
13.070,12041190,20189490,-73412390,-63416910,53945310,-41640620,-26542970
13.080,-22791070,-26361990,-27292490,-30259200,62929690,-8515625,-4015625
13.100,9218628,19015580,-73187970,-64495870,50546880,-113203100,-85
13.110,-27585970,-22362080,-31637670,-28312760,42890620,-25507810,-68320310
13.120,-24773770,20258540,-73619550,-31884540,37285160,34746100,-4859375
13.130,31800820,-21385830,-30904850,-37563320,49960940,69453130,-57929690
13.140,31029140,22744460,-73585020,-36902130,61367190,33144530,-8546875
13.150,3608034,24056480,-73205230,-63356490,696875,-38515620,-99609380
13.160,3029714,25247650,-72773640,-63416910,70664060,-10171880,-11609380
13.170,2977924,-18193840,-28071930,-63296070,5625,-10703130,-10890630
13.180,3331820,27146620,-72376590,-63063010,33535160,-44023440,-68359380
13.190,30496570,2785443,-7216945,-36398910,10996090,44018560,-27070310
13.200,-25853590,-16702290,-26715030,-32634640,-38232420,22207030,72509770
13.210,5343006,-16248260,-26236840,-63589540,-85546870,66748050,47192380
13.220,-25579110,29019690,-70555300,-32581120,-113220200,-24140620,-11699220
13.230,-25492790,-15313450,-25255420,-32581120,12050780,-40429690,-31523440
13.240,-25342600,47822060,-51770190,-32489620,20644530,-36523440,-459375
13.250,-25119040,-14105880,-24115170,-32298860,23652340,-25078120,-4625
13.260,33170660,-13373050,-23449670,-38852030,18330080,-20058590,-33007810
13.270,8122404,-12682520,-22828190,-64193760,9423828,-17382810,-13125
13.280,8769778,33784380,-68190220,-63995230,11029050,-16611330,38134770
13.290,-23534260,-11636360,-21871800,-30862550,2487793,-19951170,2998047
13.300,-23076780,-11213410,-21483370,-30456860,11640630,-21992190,-6357422
13.310,-22579600,-15427130,-16458270,-30004560,15761720,-13867190,-11376950
13.320,-22031490,36270300,-67327060,-29499610,9033203,51220700,-57666020
13.330,1239508,-9903983,-20306880,-6280407,-13977050,27363280,6923828
13.340,-20817880,-9481030,-19918450,-28399940,-11943360,515625,19755860
13.350,14276790,-9075340,-19530030,-62337950,-21679690,77539060,3640625
13.360,-19686260,-8654978,-19104480,-27442680,-25878910,840625,44804690
13.370,-19278850,-8200954,-18626290,-27142300,-20820310,52773440,29472660
13.380,-18878340,3904971,-6492745,-26852280,-13691410,23378910,12841800
13.390,38157180,50611820,-53106370,-42652550,-88378900,9760742,36376950
13.400,18877470,-6814704,-17164080,-62968060,-9042969,-4574585,-24108890
13.410,19835590,-6313204,-16647050,-62993960,-15,-10,-3503418
13.420,20819600,-5812567,-16129150,-62993960,-2359375,-19472660,25512700
13.430,-16336310,-5357680,-15651810,-24819520,-33242190,-26640620,10097660
13.440,22891200,-5018452,-15283240,-62976700,-38554690,-14121090,22617190
13.450,2393563,-4759506,-14989770,-6295081,-36503900,14169920,35175780
13.470,2588639,-4266637,-14412310,-6303712,-23867190,27734380,39257810
13.480,26758190,-3993010,-14098980,-63063020,-18183590,12832030,33632810
13.490,-13190060,-3722841,-13799460,-22251590,-15117190,14199220,33242190
13.500,2835501,-79390690,-89444860,-6295084,-17021480,20507810,34570310
13.510,29045580,-3078053,-13114970,-62864480,-20898440,20566410,33300780
13.520,-11933290,42398790,-57832220,-21177810,-24453120,1765625,31503910
13.530,-11581120,-68276550,-78289290,-20873980,-28417970,17226560,31523440
13.540,-11255710,43054800,-56934520,-20595170,-31835940,15605470,31503910
13.550,-10965680,-1576144,-11561260,-20350040,-31679690,10537110,30722660
13.560,-14927540,-12300140,-111996000,-15870280,-27617190,79248050,30332030
13.570,-10407210,43900700,-55674300,-19872700,-22363280,7265625,31523440
13.580,-10124090,-583500,-10534100,-19620660,-19804690,38110350,32382810
13.590,-9845290,44504920,-55018290,-19364300,-19863280,-18200680,32929690
13.600,33335520,4483295,-5477662,-61992680,-2046875,-7626953,3296875
13.610,-9283369,45169550,-54595340,-18821370,-21054690,-14335940,31796880
13.620,-9007152,517901,-9477578,-18545150,-20878910,-19658200,30625
13.630,34164160,7095236,-93066710,-61181300,-19785160,-2046875,30175780
13.640,4763358,875252,-9161659,-4766010,-17919920,-18798830,30039060
13.650,34569850,10237170,-90339100,-60654770,-15839840,-18359380,29394530
13.660,-8104279,1163551,-8914793,-17618110,-13046880,-21328120,27617190
13.670,-7945461,13025200,-87948130,-17448930,-10048830,-24746090,25820310
13.680,46209660,46964940,-54198280,-48721480,-8203125,-26191410,24980470
13.690,-7698592,-29803440,-39940480,-17177900,-8178711,-2734375,24550780
13.700,3501005,47422420,-54137860,-5966212,-92041020,-28574220,24140620
13.710,3503593,18497680,-83235230,-5951539,-8881836,-28359380,24023440
13.720,35044590,19706110,-82199430,-59368660,-7548828,-2515625,23925780
13.730,35061860,2090594,-8115502,-59230550,-7636719,-22167970,24375
13.740,-7314486,22010770,-80188260,-16733360,-10634770,-20117190,23984380
13.750,3507046,23020670,-79299190,-5903202,-14794920,-16689450,25078120
13.760,35070490,-2224294,-3248187,-58980230,-18291020,-13857420,25546880
13.770,-11484700,-21637880,-31878500,-12425040,-21132810,-14453130,24003910
13.780,-11519230,-25814660,-26838550,-12459560,-22011720,-20605470,19541020
13.790,34975540,-20949930,-31185380,-59075180,-22324220,-30488280,13369140
13.800,-11665970,24919640,-77400220,-12606300,-19814450,-33710940,77783200
13.810,3475109,24315420,-78004440,-5923054,-10908200,-27519530,1348877
13.820,-7642485,-2258822,-3282712,-17026840,5050659,-87353520,-22705080
13.830,34388590,-23441900,-33699790,-59196020,8178711,18330080,-22216800
13.840,-7800445,-23861400,-34143450,-17127830,10322270,39179690,-7171631
13.850,-7901439,22528670,-80533520,-17199470,5883789,428125,-35546880
13.860,33689420,22614990,-80619840,-59032020,1210022,37949220,-69140620
13.870,-8175061,-24180770,-34514610,-17426490,72631840,36972660,-9663086
13.880,-8312305,48691280,-54733440,-17548190,4873047,41289060,-11689450
13.890,33042050,20405280,-83071230,-59144230,8774414,46601560,-14160160
13.900,32826250,19309060,-84219250,-59204650,11416020,48164060,-17685550
13.910,-8733530,48440960,-55156400,-17921080,14248050,43945310,-24160160
13.920,32403300,-29517730,-39880930,-59334130,15947270,40390620,-30292970
13.930,-9023552,1601176,-8765465,-18183480,16748050,40507810,-33164060
13.940,-9167704,-31673070,-42041440,-18315550,15849610,41953120,-34199220
13.950,44297750,-32536240,-42904600,-47077150,13994140,37460940,-36347660
13.960,-9524190,1342226,-9024415,-18649600,13964840,28808590,-39960940
13.970,31307080,12636770,-91012370,-59843400,14707030,23300780,-42070310
13.980,-9905711,-34783060,-45146250,-19010400,14121090,20175780,-43046880
13.990,-10099930,11143490,-92453860,-19195980,11572270,16064450,-4375
14.000,30573380,47620950,-55924620,-60283610,10175780,9794922,-446875
14.010,3032305,-37293150,-47642520,-6044764,10097660,46728520,-4578125
14.020,-10736080,-38417860,-48762060,-19802790,10087890,24047850,-44960940
14.060,-11585430,239961,-10080070,-20610710,6796875,-18867190,-41445310
14.070,-11780510,552432,-102578800,-20795430,82910160,-23691410,-39570310
14.080,28562210,46222620,-56856840,-61483420,9379883,-21660160,-34453120
14.090,28346420,-381518,-10684290,-61578370,88427740,-17519530,-27460940
14.100,-12282010,45765140,-57245260,-21260680,87158200,-14873050,-23671880
14.110,27871670,-53977310,-64276620,-61759630,90283200,-15595700,-24433590
14.120,2761272,-910642,-11208230,-6186321,11328130,-23496090,-29023440
14.130,-12841350,-10496110,-113454700,-21771670,15947270,-31386720,-33222660
14.140,2712935,-1178224,-11475810,-6201858,19521480,-34257810,-32988280
14.150,26956720,-13059720,-116070100,-62035840,20507810,-32617190,-29355470
14.160,2683585,44962390,-58099800,-6201856,20019530,-3203125,-24433590
14.170,-13171940,44901970,-58229280,-22045290,19130860,-33710940,-20234380
14.180,-17156840,-62339680,-72659710,-18043140,18857420,-34902340,-15830080
14.190,-13128780,-1655555,-11982490,-21984880,18867190,-34921880,-11152340
14.200,-13062320,44798390,-58557280,-21913230,18339840,-32539060,-6376953
14.210,26844510,-1759133,-12103330,-61630160,19033200,-24804690,-13659670
14.220,2694806,44807020,-58738540,-6149203,21367190,-12138670,3474121
14.230,-17133430,4489335,-5879033,-17134320,23984380,-18286130,73046870
14.240,27181140,-1685764,-12073120,-61120890,23398440,42211910,10078130
14.250,27353770,-67151840,-68192820,-60879200,21035160,12832030,14892580
14.260,-12104200,45532080,-58807600,-20920590,19462890,21367190,19267580
14.270,27845780,-64214570,-65260550,-60283620,17675780,28378910,22558590
14.280,-11476670,-1032348,-11518110,-20287890,12197270,35410160,26132810
14.290,28519050,46524730,-58591810,-59610340,35205080,37207030,28535160
14.300,-14768280,4692179,-5843643,-15649740,-6621094,33339840,28984380
14.320,29589380,86319,-10478850,-58764440,-27890620,42617190,38378900
14.340,42945170,615440,-9954912,-45771180,-32773440,39570310,40351560
14.360,-13339130,-36841710,-47403430,-14230440,-2828125,24355470,34570310
14.370,-9163390,12818040,-92747340,-18095440,-27597660,22128910,33691410
14.380,43414730,-32704550,-43254180,-46113000,-27871090,19443360,32871090
14.390,-8883720,1679724,-8861276,-17857210,-2921875,14521480,31660160
14.400,-8778414,-28484530,-39015170,-17772620,-30292970,5449219,29277340
14.410,31859510,20819600,-84348720,-58306960,-29238280,-6254883,26074220
14.420,-8677427,22804890,-82190810,-17718240,-26679690,-20527340,21367190
14.430,-8682602,2468660,-8010194,-17747580,-24238280,-37207030,15478520
14.440,45453080,-20666820,-31123230,-45455730,-22929690,-53046880,9692383
14.450,32273830,27888940,-76398950,-58928440,-20917970,-67265620,37231440
14.460,32325610,29209590,-74784820,-59170120,-17880860,-79765620,-23242190
14.470,-8944142,-16482180,-26848820,-18124790,-13984380,-89296870,-70996100
14.480,-9050314,30875500,-72480170,-18260310,-99853520,-953125,-11386720
14.490,32403300,31419300,-71642900,-59972870,-76416020,-100546900,-14384770
14.500,-9257471,-14541780,-24818650,-18519260,-66308590,-104140600,-14833980
14.510,-9323072,-14640180,-24892890,-18609030,-7680664,-10015630,-11230470
14.520,-9355010,-15342800,-25571340,-18663410,-10322270,-87578130,-38842770
14.530,-9360189,-16563320,-26767680,-18692760,-13056640,-72265620,3779297
14.540,-13541460,-18473510,-28655430,-14476960,-17861330,-55078120,11220700
14.550,3294709,-21505820,-31665300,-6086195,-26875,-278125,23066410
14.560,-9181512,1991328,-8137079,-18595220,-37304690,16552730,40664060
14.570,-9195324,50045590,-50755110,-18650460,-40429690,565625,51367190
14.580,-13680860,-39463760,-40465550,-14631040,-25605470,43203120,38027340
14.600,33145630,44617130,-54491760,-62493320,27871090,-43359380,-9350586
14.610,-9836660,43952490,-54983770,-19407450,31640620,-21074220,70373540
14.620,-9569076,43305110,-55648410,-19139870,15595700,44492190,2765625
14.630,33827530,4265776,-5638211,-61811420,27905270,12046880,51757810
14.640,34000170,-2473835,-12389910,-61500680,20300290,17265620,62539060
14.650,33931110,48858730,-50422790,-61345310,421875,16125,5046875
14.660,33784370,-81244770,-82239140,-61198580,6015625,13890630,39472660
14.670,-8984710,-3527765,-13493900,-18446750,97509770,138828100,3703125
14.680,33370060,4995065,-4995240,-60870570,16865230,1328125,35019530
14.690,-13307190,4094004,-5925644,-14245110,24375,111015600,29667970
14.700,-9095196,-4458259,-14514160,-18422580,27480470,8578125,25878910
14.710,44968430,40637920,-60387200,-47701220,24589840,71289060,24570310
14.720,32472360,40439400,-61120890,-59489500,13710940,75625,30058590
14.730,-8820708,4018046,-6193226,-17937480,44360350,76523440,32089840
14.740,3178182,3988697,-6279543,-5847097,-4232788,59726560,23183590
14.750,-8958818,39558960,-63675860,-17885690,-10712890,37207030,15664060
14.760,30452550,3912741,-6453905,-57797690,-19648440,5644531,11318360
14.770,-9725308,3857496,-6538493,-18448480,-23886720,-32929690,6748047
14.780,28493160,-13661350,-14702330,-57720010,-27773440,-66796880,24401860
14.790,27448720,36986730,-67128540,-57763160,-39667970,-80546870,328125
14.800,-11557820,35925030,-68017590,-19982330,-48359380,-7515625,79345700
14.810,-12371780,-11868550,-22226560,-20704800,-38691410,-84609380,5341797
14.820,-13284150,33525420,-69605820,-21518760,-18652340,-10734380,-95458980
14.830,-14179250,49494020,-53291960,-22298200,5239868,-11921880,-27949220
14.840,-18599360,49346420,-53318720,-19397270,10751950,-104453100,-37988280
14.850,37150730,-15466230,-25741380,-41086770,38964840,-73046870,-31660160
14.860,-16556420,49330880,-53575940,-24219610,-28564450,-38710940,-23261720
14.870,-17430810,29831070,-73231130,-24933450,8022461,-13330080,-26699220
14.880,14630690,-16842120,-27162160,-58790340,23632810,48486330,-31796880
14.890,12930250,-16985400,-27312340,-59023380,27910160,-12285160,-27363280
14.900,-20459660,29278640,-73852610,-27532450,48242190,-43671880,-15546880
14.910,10064520,28812530,-73904400,-59748440,98125,-76484380,-32402340
14.920,-21934810,48951950,-53540550,-28819430,150625,-9109375,-10640630
14.930,8251874,28363690,-75009250,-58868020,13390630,-10656740,-157265600
14.940,7354186,-18137730,-28628670,-57556010,46015620,10390630,-71289060
14.950,634425,29951910,-75976000,-5704673,12177730,53515620,2458191
14.960,5601950,30305810,-75846520,-57098520,-76904300,-22304690,24238280
14.970,5248058,-17555960,-28122860,-57538740,43017580,-16982420,11914060
14.980,5058158,29485800,-75440830,-58125700,19560550,10576170,-24746090
14.990,4876894,2912330,-7518189,-58652230,20761720,303125,-44960940
15.000,4574782,29131900,-74862510,-59075180,25859380,37402340,-54335940
15.010,31548770,29503070,-74439560,-32101200,27949220,11337890,-56328120
15.020,3910144,30081390,-74033870,-59688030,21875,-17099610,-52695310
15.030,3823832,-16274160,-26711580,-59808870,73291020,-13183590,-38671880
15.050,3996462,31747300,-72954910,-60154130,-190625,58935550,-18056640
15.060,4005094,32239310,-72583750,-60318140,-15146480,15693360,-25878910
15.070,-25006830,-19197960,-20248780,-31444330,-68359380,37265620,-34589840
15.080,-25075880,-13909080,-24450080,-31513380,20617680,42890620,-38203120
15.090,-25075880,-18054870,-19113110,-31513380,45043940,2875,-33496090
15.100,4030994,-12692870,-23318470,-60447620,-14550780,28046880,-16552730
15.110,-24842820,51564760,-55053680,-31314850,-87402340,23710940,-4345703
15.120,-2466158,51760700,-55151220,-3116809,-17275390,2875,5673828
15.130,4989106,51893630,-55190920,-60508030,-24375,42382810,16425780
15.140,30245390,-10656670,-21366850,-35786920,-23066410,35957030,12773440
15.150,5584692,38005260,-69027500,-61034570,-15605470,9477539,-5463867
15.160,5869542,-9672652,-20365570,-61319420,-91552740,-88720700,-18867190
15.170,6197536,38902960,-67957170,-61595620,-5595703,-18193360,-24511720
15.180,6577336,-8696409,-19373790,-61854580,-29858400,-29355470,-30078120
15.190,-24063380,-8215628,-18887830,-30972170,-20739750,-36738280,-31972660
15.200,-23864850,40266760,-66420740,-30842690,-3779297,-42617190,-30976560
15.220,32904800,-6892390,-17552510,-38289240,-10361330,-41640620,-25742190
15.230,-23103540,4143205,-6510008,-30292000,-10810550,-37753900,-23886720
15.240,-22835960,-6148342,-16794650,-30093470,-10107420,-36796880,-23242190
15.250,-22579600,42070780,-64323240,-29900980,-9243164,-31953120,-19238280
15.260,-22324100,42381520,-63943440,-29707630,-8930664,-22265620,-13720700
15.270,1139380,-5123763,-15747630,-6302849,-8876953,-17744140,-11054690
15.280,-21905460,-4773315,-15390270,-29401210,-72802740,-13691410,-10888670
15.290,12213820,43331010,-62769540,-63227010,-27246090,-6352539,-13193360
15.300,-2159214,-4011140,-14616010,-2917938,34057620,-34765620,-19931640
15.310,12843930,-3572647,-14174070,-63425540,6196289,-14013670,-26660160
15.320,-21328870,-79031610,-89631300,-28993800,52734380,-253125,-28925780
15.330,13491310,-2726743,-13328170,-63520490,48461910,-33046880,-28183590
15.340,1384518,45342180,-60689300,-6351184,91064460,-39042970,-30292970
15.350,14242260,-2082821,-12694600,-63408280,18994140,-31386720,-30644530
15.360,-20379380,-1804019,-12438240,-28165150,33808590,-1546875,-30039060
15.370,-19976290,46524730,-60162770,-27774140,41484380,35186770,-26308590
15.380,15606060,-59382470,-70092650,-62458800,39238280,12724610,-16064450
15.390,1618436,47646840,-59834770,-6207035,3734375,12431640,-8652344
15.400,16857660,-340949,-11121910,-61673310,36269530,8208008,-4338379
15.410,-17884830,86320,-107982200,-25774180,32539060,88378900,13684080
15.420,18463150,3314560,-104995700,-60879200,26171880,19316410,11240230
15.430,19352220,641336,-10205230,-60508040,19267580,3609375,22011720
15.440,20232640,49813400,-58721280,-60214560,11132810,465625,27128910
15.450,-15410990,-35489130,-46339140,-23517860,2446289,46523440,27949220
15.460,-18554990,-32041640,-42881300,-19372590,-36083980,54570310,33652340
15.470,22744460,-28771100,-39591760,-59739820,-74316410,75507810,45429690
15.480,-13966050,50935510,-57012210,-22286980,-3642578,8375,47226560
15.490,40156270,27932100,-79722140,-43726330,4963379,58554690,31582030
15.500,-13355790,32627730,-74750300,-21809650,10644530,25390620,16855470
15.510,25316700,3707307,-7004605,-59843400,83251950,33007810,11347660
15.520,26024500,-7172056,-17859800,-59774340,-24279780,-37017820,17597660
15.530,-12119740,44073330,-62545110,-20766950,-13847660,7832031,27441410
15.540,-15575950,46602410,-59722550,-16447570,-20449220,1515625,34003900
15.550,-11213410,-36995360,-47595050,-19998730,-23867190,17441410,359375
15.560,29045590,-18022930,-28588110,-59498140,-23964840,17080080,35859380
15.580,43422500,15608660,5107361,-46329650,-18271480,14140630,34257810
15.590,-9712363,52653220,-52100780,-18737640,-16982420,1046875,33417970
15.600,-9396441,98012660,-6516916,-18466600,-17470700,53271480,31835940
15.610,31894040,11603560,1171317,-59204660,-19101560,-10858150,30039060
15.620,44381480,6026637,-4386619,-47062480,-19501950,-91796870,275
15.630,-8591968,15124420,4728433,-17769160,-19042970,-18369140,24785160
15.640,-8370998,16670350,6289902,-17575820,-17392580,-26523440,22539060
15.650,33387320,18044520,7677873,-58937070,-16181640,-30957030,22519530
15.660,-12122150,53153850,-50374450,-13047810,-1578125,-32597660,23183590
15.670,33982900,66558840,-36865880,-58790330,-15722660,-35429690,23769530
15.680,45257600,20703940,10370090,-47705540,-15107420,-41132810,21933590
15.690,34466280,67594650,-35657450,-58652220,-14248050,-4859375,19658200
15.700,-7274775,21214930,10894900,-16600440,-14414060,-50859380,19550780
15.710,3491511,67214850,-35968180,-5846230,-14052730,-46953120,21660160
15.720,-6953676,20091090,9774510,-16300050,-14492190,-425,23964840
15.730,-11012380,6539357,-3777220,-11947880,-16269530,-37011720,26542970
15.740,-6678326,17501580,7185007,-16040240,-17333980,-31054690,290625
15.750,-6579925,15860700,5545851,-15948750,-15839840,-2875,28652340
15.760,35700610,60197300,-42933960,-58056640,-15087890,-25195310,28046880
15.770,35812820,6816695,5785551,-58013480,-17148440,-20585940,29160160
15.780,-6336515,55165030,-47914420,-15726050,-20410160,-12802730,31035160
15.790,-6280407,5151902,-5150865,-15678570,-23730470,-6328125,31464840
15.800,-6266597,-24200620,-34494760,-15675120,-24804690,-2290039,30175780
15.810,-6261419,44427230,-58410540,-15680300,-21855470,30908200,29296880
15.820,36158080,-6258825,-16528800,-58134330,-13085940,55480960,24804690
15.830,36209870,35070490,-67525590,-58186120,-21850590,-10009770,17128910
15.840,36278930,-16451110,-26707270,-58134330,7446289,-4459381,14638670
15.850,-6081878,-2205824,-3232130,-15514570,91748050,2875,15771480
15.860,-5967942,-27316660,-37593540,-15386820,45654300,6015625,16015630
15.870,45935180,14328580,-88560980,-48063750,-10673830,82265620,14091800
15.880,-6054258,1011633,-9280776,-15438610,-17011720,865625,8598633
15.890,35881870,6214804,-96674750,-57823590,-15068360,83203130,27807620
15.900,-6629129,46498830,-56287150,-15985860,-55615230,71875,-5019531
15.910,35001440,-96672,-10364920,-58410540,37231440,51367190,-15283200
15.930,-12042050,45368080,-57124420,-12972540,10449220,28691410,-26875
15.940,-8252747,-56768800,-67009420,-17538700,10732420,20390620,-32128910
15.950,33067940,-13836570,-116156400,-59601710,10859380,14150390,-3796875
15.960,32619090,-62906780,-73128410,-59860660,10751950,10,-43710940
15.970,44755230,-65674090,-75885360,-47551900,89404300,23608400,-50
15.980,31738660,-68355960,-78555140,-60395830,45654300,-2536621,-51640620
15.990,-10074900,-25290810,-127144600,-19272800,30258180,16210940,-49414060
16.000,-10446060,-73807720,-83979290,-19626700,-9649658,10644530,-4734375
16.010,30374860,-76058860,-86216620,-61241740,9918213,12529300,-48554690
16.020,2983104,42424680,-59014760,-6157835,27734380,13244630,-50273440
16.030,-11754620,-79352710,-89482840,-20873120,28955080,-15361330,-50234380
16.040,-12188790,-3519996,-13639770,-21284850,33325200,-29980470,-48203120
16.050,2823415,-36719140,-137813300,-6248471,37353520,-39316410,-43945310
16.060,-12937150,-3840232,-13941020,-21986600,48583980,-44882810,-39082030
16.070,43367250,41397510,-59524020,-46920050,6064453,-47773440,-34160160
16.080,-13528430,41207610,-59662130,-22534710,77441410,-48359380,-30039060
16.090,-13772700,41052250,-59800240,-22756540,9692383,-45703120,-27382810
16.100,-14000580,40948660,-59921080,-22960250,10576170,-41210940,-25078120
16.120,-14394180,-4586008,-14679890,-23308970,78271490,-45976560,-21660160
16.130,2548933,4076741,-6018867,-6346870,11503910,-46796880,-2140625
16.140,-14644500,4070699,-6030087,-23524770,15136720,-44101560,-20488280
16.150,-14685930,-4812158,-14919850,-23552390,15263670,-41835940,-18144530
16.160,25152700,40637920,-60508030,-63391010,13359380,-409375,-12978520
16.170,-14635870,-4958896,-15083850,-23481610,13232420,-35039060,-66259770
16.180,-14519340,-5040034,-15175350,-23356450,14638670,-23847660,-13952640
16.190,25359860,49736570,-51771920,-62942170,16533200,-11328130,24487300
16.200,-14190470,-5125488,-15297050,-23012040,17724610,-26611330,6254883
16.210,42227020,-5114265,-15308280,-45902380,17353520,25170900,11738280
16.220,25938180,-5091822,-15313450,-62122160,15761720,12421880,18173830
16.230,-13354070,41060880,-61431630,-22156640,13105470,29589840,253125
16.240,26602820,-4986515,-15263390,-61405730,9379883,47578120,31035160
16.250,26948090,-4860493,-15164990,-61060460,625,59882810,33984380
16.260,27276090,-4656786,-14988900,-60732460,1394043,6765625,36132810
16.270,2758681,50842290,-52755060,-6043896,-3737793,70351560,3859375
16.280,27888940,-8733870,-9772438,-60188660,-9423828,70078130,40429690
16.290,-15467450,43132480,-60930990,-16348910,-15830080,64765620,4171875
16.300,28458630,51240210,-52944100,-59843400,-22597660,5484375,42773440
16.310,28752100,-29451280,-133687400,-59774350,-27949220,46523440,43164060
16.320,29054210,44280490,-59886550,-59765710,-31445310,39140620,42265620
16.330,29347700,-2273581,-12676480,-59834770,-35859380,32304690,42617190
16.340,-14726410,-1983559,-12362280,-15622550,-39375,23476560,41445310
16.350,-10670480,-1723745,-12069670,-19678490,-40859380,10029300,37929690
16.360,3005549,-1494143,-11798640,-6052530,-40273440,-70947260,32363280
16.370,30184970,-1311149,-11567310,-60913730,-38125,-26015620,25
16.380,-10963960,44746600,-57279790,-20127340,-32226560,-44023440,17119140
16.390,30297180,-1064283,-11209960,-61837320,-25742190,-61523440,89746100
16.400,-11372230,-997821,-11086520,-20634020,-21425780,-77773440,2052002
16.410,30288540,44159650,-56174940,-62778160,-1859375,-90,-30981440
16.420,-11805540,-1033212,-11016610,-21150190,-13857420,-97890620,-6879883
16.430,-11989400,43615860,-55786510,-21363390,-9145508,-102109400,-95654300
16.440,-12141320,-56937120,-66841100,-21539480,-6464844,-1040625,-10859380
16.450,30124540,-1381066,-11255710,-64047020,-63378900,-10375,-10429690
16.460,3011588,-59984960,-69835420,-6419379,-79003900,-975,-63623050
16.470,-12360560,42441940,-55855560,-21803610,-10263670,-85703130,-4020691
16.480,-12363150,-2060380,-11871140,-21818280,-12275390,-68789060,74316410
16.490,-12349340,-67955450,-77747220,-21814840,-15615230,-45820310,1640625
16.500,-12333800,4119899,-5649430,-21813100,-19082030,-17695310,26230470
16.510,30357600,-3156601,-12898310,-64573550,-20,87402340,33828120
16.520,-12475360,-79133460,-88838920,-21982290,-18173830,30371090,36582030
16.530,30150440,-3909283,-13578490,-65022400,-14902340,3921875,34375
16.540,-12952690,3910150,-5724526,-22471700,-90283200,421875,30390620
16.550,-13251350,-4603271,-14213780,-22760000,10748290,40507810,26054690
16.560,-13539640,-9265152,-10225170,-23024130,8808594,31035160,21855470
16.570,-13747670,37884420,-58151590,-23195900,10595700,24589840,21445310
16.580,28501780,37496000,-58712650,-65566190,5126953,42929690,32617190
16.590,2832052,-6365860,-16007440,-6529862,-27197270,84765620,49375
16.600,44712930,36503350,-60119620,-48405560,29882810,12625,57070310
16.610,-18078010,-7510419,-17193430,-19003670,13525390,12953130,42851560
16.620,27310610,-8005874,-17716510,-64599450,18876950,126953100,34140620
16.630,26827240,-8456448,-18198160,-64375030,22890620,128828100,31523440
16.640,26283450,-8870768,-18647010,-64159230,25644530,120234400,24707030
16.650,-14653130,-9260060,-19069090,-23619710,28496090,1015625,18056640
16.660,25100910,-9668337,-19506720,-63788070,29628910,78671870,12841800
16.670,-15127880,34276380,-64383660,-23939090,28964840,59453120,9589844
16.680,-15341080,-10634220,-20526120,-24071150,24375,48867190,91015620
16.690,4302852,33378690,-65747460,-4342629,16210940,44921880,11484380
16.700,2262361,-11877180,-21803610,-6291628,13408200,35625,84716800
16.710,21769080,3215301,-6721486,-62752270,16318360,13857420,-16503910
16.720,-16728190,-13272930,-23221790,-25066380,20449220,-9458008,-13378910
16.730,19723380,-13997980,-23964120,-62363850,20703120,-35253900,-21230470
16.740,-17735500,-14704920,-24690040,-25802660,153125,-66757810,-25605470
16.750,1735827,29632540,-70425830,-6184594,30444340,-106328100,-284375
16.760,-18755770,47999020,-52231990,-26526000,-13964840,-13421880,-21132810
16.770,1517445,28122000,-72212590,-6106046,-17939450,-109296900,-9316406
16.780,-19534340,-17907270,-27944180,-27007650,-96972660,-64140620,-23085940
16.790,-20004770,-18633190,-28685640,-27314070,7416992,-30898440,-515625
16.800,11540550,-19066500,-29167290,-59722560,22089840,37280270,-8125
16.810,10124950,26697770,-75104200,-59221920,21230470,38496100,-87421870
16.820,8717990,-23439740,-24466050,-58937080,14355470,35683590,-66640620
16.830,7492296,2805297,-7514737,-58937070,14082030,-12687680,-45898440
16.840,6551438,49368860,-54004070,-59187390,19658200,-40234380,-21210940
16.850,6085330,-1789948,-2821091,-59549920,21679690,-4859375,11630860
16.860,-23728480,-18023800,-28276500,-30323080,8296875,-29257810,-32714840
16.870,30214310,-18067820,-28318800,-35628100,100234400,9246826,-112265600
16.880,-23576560,2892476,-7474166,-30060670,321875,106484400,-1071875
16.890,-24005550,30297180,-74353250,-30391260,81884770,38398440,-16101070
16.900,3728880,-15890910,-26404290,-59403180,-81347660,-9875,15976560
16.910,-25229520,-20311450,-21362270,-31497840,29953000,-9921875,84472660
16.920,2546340,31402040,-73231120,-60067820,2578125,-17539060,-34199220
16.930,28411150,49986890,-54180150,-34237530,32558590,63378900,-71328130
16.940,28330010,31143080,-72851330,-34215090,26621090,11035160,-6578125
16.950,-26582110,-15379050,-25776770,-32821080,11992190,-3293457,-30625
16.960,28153930,-15122690,-25515230,-34149500,7513428,-34628900,-17041020
16.970,28159970,31695510,-72074480,-34195240,-47924800,-43085940,-17792970
16.980,966744,31643720,-71953630,-61526570,-65722660,-2046875,-20214840
16.990,975378,-14939700,-25283900,-61673310,-74365230,14355470,-24746090
17.000,31080330,-14786920,-25125940,-31689210,-27124020,35664060,-35566410
17.010,-2741335,-14473590,-24817790,-3369893,60009770,38203120,-51679690
17.020,-27433190,3256733,-7106457,-33730860,11796880,30761720,-528125
17.030,31347910,-1367601,-2406167,-31956790,12255860,30390620,-35292970
17.040,28930780,33465000,-70598460,-34960870,61621100,43984380,-13349610
17.050,-26554480,5027175,-5392983,-33021330,-14245610,60546880,52978520
17.060,3314558,-12749840,-23175180,-62234370,-8251953,63828120,12431640
17.070,3996464,-12329480,-22749640,-62484690,-10341800,45429690,38598630
17.080,-25744830,-11843520,-22251590,-32484440,-44262700,19394530,-16445310
17.090,5135846,-11314400,-21710390,-63157960,609375,-5629883,-36855470
17.100,-25396110,36002710,-67888120,-32315260,13740230,-27070310,-45546880
17.110,-25116450,-14853730,-15892290,-32128820,16074220,-45390620,-4421875
17.130,-24301620,-9115910,-19506720,-31510790,13818360,-6890625,-4328125
17.140,9106416,38160630,-65833780,-63969340,85302740,-60820310,-33242190
17.150,-23226970,-8168153,-18572770,-30634680,20187380,-42226560,-21015620
17.160,-26427150,39084220,-64910190,-26502280,-85253900,-28808590,-10195310
17.170,-22253320,-7274774,-17653500,-29881990,-15527340,-26230470,-2446289
17.180,-21845900,-6888939,-17227960,-29598870,-22324220,-340625,37573240
17.190,1398330,-6589420,-16871470,-6485841,-25878910,-46328120,48388670
17.200,37567640,-6389164,-16605620,-42603360,-23144530,-57382810,-19958500
17.210,15787330,-6247603,-16401910,-65592090,-13154300,-571875,-11923830
17.220,-20471740,39369070,-61725100,-28711540,12524410,-44726560,-17265620
17.230,-20051380,-5935139,-16023840,-28372320,14423830,-20175780,-16533200
17.240,39528750,39783390,-61138150,-44284800,20566410,1270752,-11699220
17.250,18799790,-5180728,-15293600,-65479880,19960940,6386719,-7006836
17.260,40032840,49748660,-51690780,-44609350,1609375,10576170,10241700
17.270,-18159320,41751410,-60050560,-26656330,13876950,21484380,9921875
17.280,20698760,-3427635,-13645820,-64582190,13300780,34316410,16484380
17.290,21285710,-73509060,-83760040,-64288720,10830080,40351560,20546880
17.300,2184677,-2008591,-12285460,-6405566,28955080,27734380,215625
17.310,22442350,-59418720,-69711130,-63874390,-40576170,8017578,20820310
17.330,-15485230,-48539360,-58838670,-24220480,-17871090,20234380,30410160
17.340,24548480,46576520,-56382100,-63356490,-35186770,32558590,34453120
17.350,-14523660,46999470,-55907360,-23369390,-47607420,47109380,39003900
17.360,25989970,11454240,-91383540,-63002590,-21899410,63125,4484375
17.370,-13651860,-29648940,-39922360,-22601180,-6113281,66601560,44960940
17.380,-13317810,22131610,-80481740,-22313740,-9003906,553125,38691410
17.390,-13027790,-18354390,-28601920,-22068610,-10546880,41132810,32675780
17.400,-1275592,33465000,-68854860,-2183985,-15048830,29472660,30195310
17.410,-12510750,-7237659,-17448930,-21636160,-21035160,24199220,31347660
17.420,-12282010,-6913798,-7932681,-21450570,-240625,1859375,29921880
17.430,-12088660,-29296870,-29398520,-21298660,-23300780,10595700,25273440
17.440,29718860,11728210,10714150,-62778170,-21191410,38793940,20371090
17.450,-11714050,55329030,-45834190,-21000000,-19072270,97351070,16865230
17.460,3044392,12988940,2893337,-6277817,-18007810,19787600,16308590
17.470,-15500850,6134532,-3942085,-16436350,-17636720,45922850,18085940
17.480,-11077890,6410746,-3648608,-20462250,-16962890,5263672,18525390
17.490,31488350,5187640,-4856182,-62631430,-16445310,18237300,18017580
17.500,3179909,6939866,-3090139,-6256237,-16904300,-2878418,17744140
17.510,-10461590,22252720,21250920,-19921900,-18955080,-9453125,17441410
17.520,-10268240,74016610,-26024500,-19752720,-21367190,-14941410,17421880
17.530,-10093020,30890170,20899870,-19599940,-23085940,-17587890,18896480
17.540,-9935059,52635950,-47128940,-19464420,-23730470,-19453120,20488280
17.550,33171530,33724820,23762140,-62329320,-22695310,-23261720,20429690
17.560,33352790,34667400,24718520,-62337950,-20703120,-26152340,19960940
17.570,-9622590,8006742,-1930042,-19207200,-19384770,-27597660,20332030
17.580,-13891730,8035226,-1889473,-14851750,-19404300,-28769530,2078125
17.590,-9548358,80464470,-18661680,-19160590,-19482420,-31992190,19980470
17.600,-13873260,52575530,-46429780,-14835690,-19912110,-3625,18564450
17.610,-9562171,52463320,-46421140,-19198570,-21015620,-40351560,17646480
17.620,33793010,34286740,24408650,-62657330,-22382810,-446875,17324220
17.630,-9665748,7730529,-2137202,-19319410,-22207030,-46757810,17285160
17.640,33741220,30996340,21138970,-62881740,-20917970,-45976560,18701170
17.650,-9821984,72972180,-25497960,-19491180,-19580080,-45117190,19169920
17.660,33603110,25981340,16141230,-63123440,-18632810,-42578120,19824220
17.670,-10025690,22956800,13123600,-19701800,-17431640,-37988280,21601560
17.680,-10137040,19587860,9759834,-19814870,-16669920,-34277340,23242190
17.690,-10258750,4922473,-4900374,-19934850,-16523440,-35839840,21875
17.700,-10362330,56088620,-42105310,-20038430,-17197270,-340625,21269530
17.710,46842370,28213490,18397550,-49901430,-18242190,-21875,25761720
17.720,-10554810,48786230,-49338650,-20225740,-18837890,-11291500,30898440
17.730,-10652350,-3554523,-13363560,-20318100,-16279300,27949220,35859380
17.740,32644990,34880600,-63192490,-63908920,-7319336,53164060,37285160
17.750,32334250,47120320,-50952780,-64047020,2626953,47929690,24550780
17.760,46433230,-18829130,-28645080,-49654570,7236328,2359375,6958008
17.770,-11528470,-23480740,-33315670,-21099260,8222656,15566410,-35186770
17.780,3116034,1605492,-8251881,-6413334,44213870,2921875,37548830
17.790,3078916,45557980,-53205640,-6410743,-23181150,47890620,8125
17.800,3034895,-38212420,-48104320,-6413336,-15551760,60390620,41210940
17.810,29848330,169184,-9733077,-64219660,44506840,5875,-88183590
17.820,29313160,44340920,-54767980,-64340500,10390630,47304690,-24355470
17.840,-13524110,-1015084,-10948420,-22797980,18125,33925780,-41757810
17.850,-13842620,4344323,-5606272,-23066420,20976560,28457030,-46835940
17.860,-14129190,-1625343,-11598380,-23297750,23183590,21015620,-53476560
17.870,2662871,-1879116,-11879770,-6448724,21953120,18056640,-56445310
17.880,43371580,-2131159,-12162890,-47191950,18554690,21601560,-5453125
17.890,25765550,-2376298,-12435650,-64280080,15878910,24042970,-51992190
17.900,-14925890,4276996,-5806527,-23882120,15283200,23085940,-51054690
17.910,25005960,-28458640,-129501000,-64107440,14384770,20605470,-50351560
17.920,24660690,-30789180,-132004200,-64038400,13105470,21621090,-47929690
17.930,-15427390,49830660,-51505200,-24261040,13232420,21074220,-459375
17.940,42004320,-3526037,-13668260,-46004240,14082030,15283200,-46328120
17.950,23702580,41941310,-59549920,-64012500,15488280,8598633,-4671875
17.960,-15928890,-3926549,-14079120,-24674500,16582030,18286130,-46015620
17.970,-16061820,41596040,-59964240,-24783260,16425780,-45507810,-43671880
17.980,2299478,-4286490,-14444240,-6404703,15908200,-10449220,-40195310
17.990,-16259490,-4467754,-14625510,-24948130,16386720,-15087890,-36640620
18.000,-16325950,41060880,-60499410,-25002510,15322270,-18476560,-33417970
18.010,22623620,-4797482,-14951790,-64038390,13291020,-21699220,-29042970
18.020,2256319,-4962350,-15114920,-6402977,11728520,-22734380,-24785160
18.030,-16440750,-5111677,-15259070,-25094870,12451170,-22578120,-24023440
18.040,22433720,40404870,-61034570,-64055650,13964840,-24726560,-24160160
18.050,41134240,-9911404,-10925460,-45303340,14902340,-28320310,-23808590
18.060,-16551240,49644210,-51743440,-25191540,15195310,-33320310,-22265620
18.070,2230423,40137290,-61250360,-6406428,14560550,-38691410,-20859380
18.080,-16545200,40085500,-61302150,-25180320,125,-43125,-17978520
18.100,-16449380,-10230780,-11244830,-25086240,87353520,-42773440,-84228510
18.110,-1637777,39886970,-61500680,-2501975,9165039,-4265625,-5917969
18.120,22614990,3980068,-6155248,-63874390,10869140,-44179690,-5024414
18.130,22744460,-5868673,-16003990,-63813970,13652340,-4265625,-5102539
18.140,41263720,-5928232,-16065270,-45346500,16796880,-32402340,-3857422
18.150,-15927170,-5967076,-16112750,-24589910,18798830,-17177730,-12176510
18.160,2321920,-5951540,-16111020,-6340829,18779300,-3955078,14221190
