Timestamp,Rotation X,Rotation Y,Rotation Z,Rotation W,Acceleration X,Acceleration Y,Acceleration Z
0.000,-35743770,-22364660,-60240450,-67508330,52734380,-20153810,-12597660
0.010,-35925030,14645370,-22936950,-67309800,4885254,-16418460,-12314450
0.020,-36071770,18245550,-19077810,-67111260,39282230,-10559080,-12324220
0.030,10200910,-23210570,-60326770,-20510590,27294920,-8105469,-11621090
0.040,-36296190,-40069090,-43761720,-66714210,1217041,-48034670,-11572270
0.050,-36365240,-23668050,-60456240,-66524310,-4421997,-4196167,-11416020
0.060,9828887,-2386657,-6055120,-20105760,-17150880,-5545044,-10800780
0.070,-36425670,-24039210,-60654770,-66187680,-2524414,-103271500,-10253910
0.090,-49659750,-42423040,-42788840,-52608330,-34887700,-35205080,-9345703
0.100,-36339350,-24427630,-61025940,-65738830,-33984380,-42041020,-9345703
0.110,14147140,-24522590,-61172680,-15166030,-328125,-40063480,-9477539
0.120,-36218510,17938520,-18797880,-65462620,-33032230,-26000980,-10429690
0.130,-36114920,17989100,-18850880,-65324510,-32714840,72265620,-12207030
0.140,9544902,-24686590,-61699210,-19664680,-30517580,5180664,-12412110
0.150,9583747,14288870,-22948170,-19677630,-20507810,84716800,-11230470
0.160,14170530,14409720,-23086280,-15177160,-14245610,10341800,-9848633
0.170,9715812,18468760,-19337970,-19752720,-11987310,12167970,-91845700
0.180,9816802,14732540,-23436720,-19824370,-41900640,12939450,-6513672
0.190,-34975540,14906910,-23624890,-64789340,12524410,1140625,-3474121
0.200,10020510,-41714290,-45603720,-19965930,21899410,7519531,-24353030
0.210,-3448355,15238360,-23983970,-6465986,28515620,24682620,23254400
0.220,-34250490,-24039210,-63572280,-64582190,19873050,-27661130,16784670
0.230,-47746110,-23961520,-63805330,-50793090,3390503,-6816406,-4220581
0.240,-47593330,-23866580,-64021130,-50652390,-82214350,-9135742,-23400880
0.250,14883160,-23763000,-64245550,-15862860,-10736080,-10439450,-41210940
0.260,10575530,-2364216,-6446999,-20343130,-3390503,-10517580,-46362300
0.270,-47135850,16185250,-25005090,-50246700,57128900,-9638672,-47387700
0.280,-32886680,-2335729,-6492744,-64202390,20056150,-81152340,-45239260
0.290,-32636360,-42080270,-46273540,-64159240,27368160,-6503906,-42626950
0.300,-46663700,-23055200,-65367660,-49838420,3503418,-5058594,-47485350
0.310,-32127090,-2290844,-6558345,-64081550,3786621,-36694340,-5214844
0.320,11292820,-22761730,-65781990,-20886060,34692380,-24572750,-5834961
0.330,11427470,17253850,-26111680,-20993100,24414060,-11254880,-6567383
0.340,-3135026,17424760,-26286040,-6402976,20837400,-8026123,-6953125
0.350,-45903250,21584890,-22471180,-49200540,20092770,8947754,-7084961
0.360,11899630,21748880,-22635180,-21384110,1895752,16882320,-73339840
0.370,12094700,-2195035,-6666243,-21551570,23864750,18591310,-7138672
0.380,12297550,-21786340,-66809160,-21728520,23999020,19421390,-65283200
0.390,16758660,-2160507,-6695591,-17698990,21704100,15979000,-703125
0.400,-29434010,18406190,-27255370,-64340500,20031740,19946290,-8276367
0.410,13037280,18565870,-27406430,-22387110,23425290,2331543,-9584961
0.420,13318670,-20992230,-67309800,-22640880,29614260,32543940,-99658200
0.430,-28199680,-20750540,-67430640,-64746190,33691410,39672850,-9379883
0.440,-27742200,-2049156,-6753421,-64910190,36035160,3955078,-83154300
0.450,14294050,-20198120,-67637800,-23529940,36621100,34155270,-75097660
0.460,18796940,-1988737,-6774139,-19717590,34350580,2553711,-6352539
0.470,15023430,23705770,-24579810,-24198900,28588870,13842770,-5
0.480,-43724610,-41135980,-46009420,-47719350,22729490,-23284910,-3869629
0.490,15788200,-1883430,-6803487,-24901520,20446780,-16015630,-25585940
0.500,16174900,-1846314,-6812982,-25257140,20654300,-29516600,-9472656
0.510,16562460,-1807471,-6820750,-25611900,18554690,-4255371,6329346
0.520,16957790,-40455800,-45515680,-25976160,1484375,-53222660,22265620
0.530,-2310700,-1730651,-6835423,-6678327,15063480,-55126950,35888670
0.540,-22597720,-16926710,-68406020,-66981790,1262207,-5488281,48535160
0.550,-2211436,21695710,-30197910,-6718894,14050290,-50683590,64501950
0.560,18422580,25721780,-26568900,-27325290,1661377,-46557620,7895508
0.570,-21199400,22105720,-30547490,-67568750,23876950,-3864746,9086914
0.580,-20793710,22292160,-30706320,-67732750,2854004,-25048830,10878910
0.590,-2043120,-15295330,-68587280,-6788813,3701172,-73791500,12832030
0.600,-41668550,-15062270,-68595910,-46460850,43310550,11810300,14492190
0.610,-19809690,-39047970,-44420320,-68147070,4885254,36376950,15820310
0.620,-41484690,22765180,-31096470,-46351230,53271480,5751953,165625
0.630,20083320,22804890,-31125820,-28858280,55615230,73046870,16699220
0.640,20189480,-14587530,-68535500,-28959270,5283203,8911133,16660160
0.650,-1919686,22793660,-31102510,-6850096,54345700,10429690,17177730
0.660,-19162320,22733250,-31042090,-68552760,5517578,11494140,17529300
0.670,-19188210,-14768800,-68354220,-68595920,56347660,11679690,16699220
0.680,-19265900,-1494140,-6826790,-68621820,5366211,11015630,14765630
0.690,20233510,22333600,-30664890,-29036090,49658200,9609375,125
0.700,20147190,-39103210,-44365080,-28967040,49389650,79003900,10947270
0.710,24461720,-15744170,-67914020,-24462610,58154300,6435547,10761720
0.720,19910680,-16106700,-67775900,-28771960,71240230,4724121,12578130
0.730,19734600,21333180,-29749070,-28620040,8574219,25952150,14052730
0.740,1953088,20988780,-29437460,-2844395,9086914,11743160,11708980
0.750,19290930,-1755681,-6727528,-28235070,8339844,4852295,8623047
0.760,19015580,-40158000,-45053890,-27992520,8823242,-39978030,73779300
0.770,-21820870,-1873071,-6687821,-68293810,9584961,-9680176,6538086
0.780,18410500,19359120,-27959720,-27458220,9091797,-16882320,39331060
0.790,-22813510,22804370,-23668570,-68043490,8330078,-22705080,19458010
0.800,17716510,18472650,-27154380,-26840190,8276367,-32421880,-2017212
0.810,-2389250,-21216660,-65980520,-6774139,9501953,-41088870,-14782720
0.820,-24453530,-2183811,-6573882,-67577380,11601560,-47045900,-8343506
0.830,-2506641,-41826500,-46130260,-6739614,11152340,-4711914,-41748050
0.840,-25705130,16671220,-25503140,-67188950,6933594,-53125,-10517580
0.850,15651820,1624137,-2510437,-24986110,12927250,-70166020,-12607420
0.860,-27008510,-42443660,-46497100,-66766000,-32202150,-7817383,-15644530
0.870,-45178190,15418760,-24338730,-49062440,-7216797,-42163090,-17392580
0.880,-45457850,-2521310,-6422827,-49248880,-85058590,-10852050,-16181640
0.890,-45740100,14670400,-23636980,-49432740,-8051758,2915039,-15751950
0.900,13170210,-26084920,-63736290,-22737560,-10253910,6098633,-18691410
0.910,-3064245,14035100,-23029310,-6553166,-10214840,8564453,-18417970
0.920,-31419300,13772700,-22773810,-65255460,-6201172,7885742,-12607420
0.930,-32239300,-2701712,-6306300,-64953350,-105529800,37939450,-63134770
0.940,10843110,-2733651,-6286449,-20610710,18481440,76293940,-18762210
0.950,10119770,17044620,-17948190,-19935710,9063721,-10656740,-21594240
0.960,9354144,12728270,-21781170,-19216700,-2442627,-13171390,-6660156
0.970,-36019980,-28277360,-62407000,-63037120,-15637210,-19384770,-73291020
0.980,7726212,16472520,-17380910,-17668180,51660160,-33666990,-76953130
0.990,-48699040,12281150,-21382380,-51065850,13359380,-35888670,-81933590
1.000,-48939010,-28847050,-62355210,-51119360,234375,-46801760,-7036133
1.010,4876896,12094700,-21240820,-14906900,34414060,-7265625,-6015625
1.020,3753914,11975590,-21152780,-13802910,40585940,-79785150,-8803711
1.030,70667520,11854750,-21066470,-80732050,43789060,-6953125,-11699220
1.040,1248138,-29882860,-62614170,-11319580,4625,-71533200,-15371090
1.050,-45411240,11659670,-20950800,-55268620,47890620,-90625,-20761720
1.060,29757690,-30366230,-62942170,-39813600,50039060,-11796880,-25878910
1.070,-30400760,-30538860,-63166590,-69933830,49609380,-10302730,-32949220
1.080,35568540,-45425920,-48693870,-45569200,56289060,-7216797,-35253900
1.090,-62303430,11620820,-21075960,-37271570,57617190,45166020,-40117190
1.100,-34817580,-3114310,-6382259,24913600,45976560,9472656,-4578125
1.110,-53965230,-31367500,-63977960,-44453130,275,15849610,-49101560
1.120,-114110700,11478400,-21045750,16400180,7373047,17880860,-5203125
1.130,-56727360,11447330,-21042290,-40189080,-11123050,18134770,-47265620
1.140,-58013480,11464590,-21076820,-38074320,-2046875,16728520,-39121100
1.150,-16369970,-31755930,-64452710,6849232,-23222660,17119140,-34003900
1.160,-17896050,-31643720,-64564920,8465081,-31171880,22226560,-26972660
1.170,-61379840,11792590,-21404820,-32032150,-403125,23984380,-17011720
1.180,-20697900,-31203510,-64763460,11446460,-39394530,21425780,-10029300
1.190,-63201120,-30849600,-64892920,-28415480,-30585940,20820310,-44506840
1.200,-63995240,-3044391,-6503964,-26689140,-25273440,21425780,16479490
1.210,-24330960,-29977800,-65195040,15357470,-19140620,24433590,11171880
1.220,-25399570,13177110,-22661600,16515850,-16787110,24375,16347660
1.230,-65980520,-28985160,-65479880,-21976240,-12929690,1890625,21621090
1.240,-66515680,13888360,-23296880,-20560650,-7783203,13476560,23144530
1.250,-6699907,-2788031,-6579062,-1919685,-11553960,13427730,28007810
1.260,-67447900,14637590,-23963250,-17884830,25219730,15722660,35566410
1.270,-29825890,14975950,-24263630,21377210,47680660,15,403125
1.280,-30537140,15278060,-24531220,22167860,59716800,11669920,42304690
1.290,-31181060,-25946810,-66256730,22887750,9584961,52490230,39453120
1.300,-31773200,15800280,-24993010,23555840,15068360,15271000,33789060
1.310,-32296270,-2524766,-6647252,24154880,21152340,-2824707,30898440
1.320,-43185130,20378950,-21294770,-37434710,26171880,-36914060,26855470
1.330,-33224180,-24686590,-66809160,25246780,28203120,-5366211,20605470
1.340,-33621240,16729910,-25876030,25730160,2515625,-87402340,16689450
1.360,-41546840,-23901110,-67663700,-35464960,21328120,-12558590,12353520
1.370,-41058290,17650910,-26819470,-34917710,23789060,-1203125,14375
1.390,-34787380,18456240,-27671420,27412470,32304690,-7973633,2390625
1.410,-66817790,19370340,-28673560,-4376257,33164060,-8569336,34335940
1.420,-38012170,-2227834,-7135804,-31783550,32578120,-98779300,35449220
1.430,-34404130,-2207121,-7225574,27571290,41328120,-98046870,39101560
1.440,-64116080,-21889930,-73265650,-2624031,4875,-7006836,45
1.450,-33651450,-21725920,-74361870,27150070,60820310,-4255371,55234380
1.460,-30267400,22141100,-31858640,29636430,73632820,15429690,73007810
1.470,-32446460,22777260,-32620820,26352500,8765625,359375,89609380
1.480,-29002340,-47039170,-52725720,28415560,6890625,14472660,109140600
1.500,-29577290,-2140655,-8141395,-24232560,79023440,11660160,120625
1.520,-26466440,-21458340,-84763040,21646510,178125,42211910,11234380
1.530,-24856640,-21432450,-86463480,-20373340,-34746100,-10966800,83984380
1.550,-38350530,29166430,-40197710,-1320645,-14015630,-38984380,-22050780
1.560,-34958280,-1904147,-9151299,-2365078,-18390620,-24003910,-9953125
1.570,-31600560,32702830,-43687490,-3910146,-21109380,2758789,-2071875
1.580,-28156520,35106750,-45927410,-5783220,-1990625,34355470,-321875
1.590,-24600280,38008720,-48549720,-7630399,-133203100,96875,-370625
1.600,-74379140,-50561110,-50653910,43874800,-20605470,1734375,-334375
1.610,-49278230,189896,-9755516,20293070,69140620,2165625,-230625
1.620,-23642160,8320932,-97434340,-4652472,-32832030,-696875,9703125
1.630,-2235604,1643472,-9689917,-22433720,3690625,-2515625,1420
1.650,-18126520,-429857,-9745160,-10962230,-459375,616875,-1165625
1.660,-44435860,-792388,-9702001,13741630,-3009375,-3728125,-1375
1.670,-50288140,-294341,-9737390,20318960,-147734400,8640625,-145546900
1.680,-41621070,43930040,-53607880,38480870,-44804690,7734375,24921880
1.690,-64582190,-47181680,-48163790,31402030,-102265600,47304690,-103828100
1.710,-25014590,646513,-9554400,-12930250,18486330,-27978520,1753125
1.730,-75673020,968471,-9410248,71410700,74179690,-53710940,14125
1.740,-30262650,47724530,-56045460,-14242260,9265625,-59375,141953100
1.750,-109933000,1020261,-9296308,63736290,1028125,-6390625,140
1.760,-11792590,954663,-9251428,7024456,89140620,-58945310,13203130
1.770,-34604380,-36798550,-46859630,-14337210,76953130,-51796880,11234380
1.790,-37029880,543796,-9149573,-13862470,55390620,-35859380,64609380
1.800,-38117480,365120,-9117635,-13534470,42265620,-21757810,42421880
1.810,-39187800,186445,-9082245,-13240990,17080080,-13076170,80322260
1.820,-16281070,258952,-90425420,10960500,22485350,-13720700,-10751950
1.830,-41198980,39877470,-48994250,-12731720,13842770,-8779297,-15917970
1.840,-4215710,3894352,-4815007,-1249866,3947754,-38598630,38012700
1.850,-43072060,38020800,-47311940,-12274240,-114746100,-20666500,40130620
1.860,-43926590,-42708660,-51065850,-12041190,-1015625,31298830,2319336
1.870,-44746600,-640470,-8821569,-11790870,-24157720,48583980,14111330
1.880,-19859760,-43724610,-51724440,14149040,-7939453,9902344,-33691410
1.890,-30614830,-9011468,-87197170,-27113810,-21191410,5493164,-70166020
1.900,-4712895,-1019401,-8667064,-1125571,-22265620,-115356400,-6801758
1.910,-47828110,-4496412,-5245294,-11229810,-10585940,-70739740,46142580
1.920,-31703280,-45307660,-52644580,-27976120,70617680,-6008148,12607420
1.930,-49114230,-45615810,-52802540,-11221180,-32348630,14379880,11455080
1.940,-49752970,-1419047,-8460765,-11324760,-10087890,-9320068,7133789
1.950,-50408980,-1503637,-8405522,-11497390,-17050780,-22753910,47631840
1.960,-51073620,-15830500,-83468300,-11747710,-25488280,-19641110,25463870
1.970,-23028440,-1652104,-8286407,16642730,-36191410,-24536130,7006836
1.980,-52454690,-1709934,-8223394,-12576350,-44296880,-48632810,48583980
1.990,-19989580,-17565450,-81612480,19923290,-43046880,-6455078,30444340
2.000,-23285670,-49152640,-49783620,16523610,-38046880,-4663086,6044922
2.010,-5425874,-18204200,-80455840,-1470838,-34375,-33740230,10605470
2.020,-37130880,25820790,-35654000,-33217270,-3734375,-50231940,14824220
2.030,-22874800,-1857537,-7934234,15691520,-41992190,93444820,15595700
2.040,-55613880,25210530,-34952240,-17807140,-43085940,3461914,14970700
2.050,-22175640,-48099490,-48696110,14664350,-4109375,6611328,15126950
2.060,-56295780,-18428630,-77659180,-20612440,-38671880,8930664,14707030
2.070,-56554740,28966350,-29918940,-22217930,-35234380,11064450,12480470
2.080,-56761900,-17850300,-76493900,-23927010,-29570310,13798830,9394531
2.090,-19692300,24594230,-33928520,11433520,-20761720,17011720,6723633
2.100,-18843810,-43228290,-49078840,10400300,-8642578,203125,64453120
2.110,-14025780,-16339760,-74931570,13163990,38085940,24824220,6826172
2.120,-16872340,24861810,-33885360,8090471,10234380,278125,61328120
2.130,-15759710,-15114060,-74068400,6820749,15830080,31425780,20788570
2.140,-55475780,-14423530,-73636810,-35433020,23984380,33242190,-15075680
2.150,-91538900,25389200,-34083030,82303020,36894530,20097660,-12255860
2.160,-54198280,-13051090,-72799540,-39455380,46015620,11972660,-20390620
2.170,-5344735,25787990,-34271200,-4129392,52578120,8408203,-28339840
2.190,-82656910,26280000,-34573310,-13776160,61171880,2915039,-36679690
2.200,-25485020,26560530,-34758890,15774390,68046870,-12310790,-30019530
2.210,-11531060,26784950,-34897000,1761726,77695310,-8696289,-22050780
2.220,2257182,26905790,-34948780,-12071400,8421875,-19453120,-19873050
2.230,15707920,-3995097,-4001286,-25551480,88359380,-30644530,-15449220
2.240,-15631960,26910110,-34875420,-82959020,8734375,-21289060,-13691410
2.260,56950060,-8847462,-70218670,-66828150,7828125,-61279300,-73913580
2.270,26948090,26595920,-34481820,-125659900,728125,-20043940,13662110
2.280,-40180450,-9071886,-69683500,-58410540,68164060,-1265625,3078125
2.290,5617494,-938262,-6933824,-15461050,54179690,-28105470,50078120
2.300,-37271580,-9771054,-69001600,-60974150,31503910,-33945310,66132810
2.310,-47708120,-3656807,-4241171,-50295900,49145510,-35253900,73710940
2.320,-35113660,24860950,-32798630,-62596900,-21894530,-23808590,70742190
2.330,-3439726,-11592340,-68440540,-6295081,-475,-4338379,58007810
2.340,9777960,23908010,-32007980,-19466150,-63085940,9423828,51367190
2.350,9992027,-1371572,-6849234,-19631880,-73320310,22148440,54179690
2.360,-33137000,-1508814,-6841464,-62899010,-89921870,37207030,4375
2.370,-33033420,-16460600,-68181590,-62881740,-115078100,4640625,2078125
2.380,10183650,20703940,-29256200,-19785520,-123125,47109380,14978030
2.390,-32990260,-18998310,-67214850,-63218380,-124375,56171880,-16015630
2.400,-3282626,-2009454,-6661926,-6358955,-99375,61875,-25996090
2.410,10928560,18072140,-26778040,-20594310,-70195310,48164060,-33261720
2.420,-3224796,-22045300,-65272720,-6463399,-41171880,38496100,-35996100
2.430,-3189407,-22822150,-64599450,-6521231,-13486330,30449220,-34570310
2.440,-31583300,19778360,-20652400,-65799260,6557617,11884770,-31464840
2.450,-3130709,15246130,-23976200,-6636893,14228520,90234380,-41210940
2.460,-3105679,-41630560,-45445760,-6693003,35703120,-5698242,-39003900
2.470,13322120,-24893750,-62009950,-23155330,56523440,-25585940,-31542970
2.480,13462820,-25264910,-61517940,-23325380,57382810,-22519530,-39824220
2.490,13460230,13397220,-22061700,-23362490,5984375,-18798830,-54179690
2.500,13395490,13060590,-21707800,-23340910,50585940,-17587890,-6921875
2.510,-49785860,-25989960,-60223190,-50151670,4390625,-22832030,-71679690
2.520,-32014880,-26033130,-59886550,-68371500,37988280,-24824220,-64335940
2.530,-3230837,12559950,-21120840,-6847507,23652340,-209375,-59414060
2.540,12975130,-25756920,-59472240,-23088000,11025390,-15634770,-53398440
2.550,-32644990,12765390,-21243410,-68742660,105651900,-11630860,-45742190
2.560,13072670,13050230,-21476470,-23232150,-10095220,-77441410,-35175780
2.570,13222860,13415350,-21784620,-23392700,-61950680,-29345700,-24003910
2.580,-3236015,-2354721,-5954129,-6940730,22079470,-16589360,-14267580
2.590,-32152990,1431221,-2256232,-69631710,14086910,-25097660,-89941410
2.600,13884910,-22045300,-59852030,-24059930,48828120,28100590,-9033203
2.610,-31609200,-40435340,-40823240,-70071940,-8081055,31469730,-10244140
2.620,14417490,-2037937,-6020594,-24580420,-16796880,15783690,-12558590
2.630,14706650,-19490320,-60387200,-24860950,-2330017,17956540,-14130860
2.640,15006170,17051870,-24967120,-25148380,18933100,16809080,-14091800
2.650,-30271290,17657820,-25500550,-70995520,5102539,-1525116,-11552730
2.660,-29917390,18279300,-26052980,-71176790,8725586,-23840330,-8623047
2.670,-29546220,18918040,-26622670,-71323520,10947270,-3474121,-8359375
2.680,16100660,-14803320,-61587000,-26160010,11972660,-46655270,-6953125
2.690,16350120,-35462370,-40271940,-26376670,14951170,-6118164,-48095700
2.700,16593530,2433684,-2508814,-26582100,17626950,-7055664,-17871090
2.710,16822270,21675860,-29130170,-26767680,19648440,-6899414,9246826
2.720,-2750054,-10893170,-63097540,-7147027,21621090,-61816410,3894043
2.740,17418720,-8951046,-64003860,-27207040,23125,-47216800,8027344
2.750,17586170,-3342960,-3907646,-27315800,21992190,-41723630,98828130
2.770,-25359860,29274070,-29991010,-70676140,1796875,-31201170,12490230
2.780,-45399150,-3264238,-3870700,-49946320,17333980,-21179200,12724610
2.790,-2453125,-4505734,-66515680,-7012373,15400390,-12683110,12900390
2.800,-24125530,31678240,-31678250,-69821620,13779300,-68115230,12919920
2.810,18239590,-2848454,-67551480,-27560070,10126950,1282959,13632810
2.820,-23288260,-31744710,-38344480,-69191500,6088867,20581060,14492190
2.830,18424310,30140080,-37117930,-27599780,29101560,1842041,14130860
2.840,18522710,33894430,-34589280,-27622220,-11810300,1105957,13486330
2.850,18621110,31395130,-38314280,-27644660,-32055660,40664670,12109380
2.860,-4240054,1009904,-69907940,-4704090,-54589840,-5670166,12548830
2.870,22801950,-30723580,-37932760,-23688250,-62353520,-1027832,13769530
2.880,18889550,-30599290,-37918940,-27669700,-52197260,70266720,17353520
2.890,-20172230,-30494840,-37919810,-66783260,-5209961,-11262890,19472660
2.900,19034570,34217680,-41050520,-27645530,-76904300,-184021,17460940
2.910,19103620,4005096,-72264380,-27628260,-87060540,13830570,12421880
2.920,-39833460,35244860,-42060420,-44515280,-91552740,45117190,73535150
2.930,-18230100,-3010121,-3793361,-65186410,-9897461,7734375,6254883
2.940,-17677670,-29971760,-37907720,-64806610,-10039060,98583980,6459961
2.950,23277730,633566,-7402525,-24092900,-10029300,10341800,9506836
2.960,19795880,-29673970,-37808460,-27850960,-10185550,9580078,11201170
2.970,-15813230,-29515150,-37742860,-63770810,-9897461,89208980,11875
2.980,20211920,8079250,-75112830,-28073660,-103125,76464850,10595700
2.990,-14518480,-29192320,-37599570,-63149330,-9921875,6845703,90234380
3.000,-13862480,9184108,-75734310,-62873120,-10136720,5527344,74560540
3.010,-13197830,-28850500,-37423480,-62605530,-10126950,39331060,6542969
3.030,-11851290,1080688,-7645936,-62139420,-11347660,-53100580,43798830
3.040,-1116939,4072165,-4725237,-6194090,-94970700,-31225590,36035160
3.050,22024580,-28038270,-36906450,-29247570,-7607422,-5419922,43432620
3.060,22344810,12377820,-76960010,-29479760,-7128906,-7109375,53222660
3.070,-9063260,1287849,-7708085,-61440260,-6381836,-81152340,5283203
3.080,-8346834,-27392610,-36447240,-61293520,-44750980,-77978510,55566410
3.090,23344360,13819310,-77279380,-30223810,-32104490,-75,60253900
3.100,-6862182,-26958440,-36121830,-61069100,-20227050,-7138672,66796880
3.110,-6093964,42933090,-49201410,-60974140,-105407700,-6567383,7324219
3.120,-5308486,-26520820,-35782600,-60879200,446167,-66064450,7558594
3.130,2488249,15580170,-77486540,-3141325,16430660,-5488281,76171870
3.140,-3668462,-26079740,-35429570,-60723830,9277344,-31835940,7373047
3.150,-2831192,-25844090,-35233630,-60680670,-20004270,-17700200,62841800
3.170,-27883760,1723747,-7741748,-33832710,-674057,-74646000,4194336
3.180,-27400390,1762590,-7733979,-33435650,-41870120,-22155760,71533200
3.190,-26924780,1799706,-7724484,-33048090,-51708980,-44140620,9916992
3.200,1493276,-24634800,-34181430,-60620250,-6503906,-37939450,10332030
3.210,2339180,18618520,-77020430,-60654770,-7519531,-1328125,67089840
3.220,-25573930,-28523630,-29481220,-31964820,-60009770,24856570,21948240
3.230,4039622,1915371,-7672696,-60784250,-46044920,10247800,-11425780
3.240,4902792,45136760,-50847470,-60853300,-4267578,-7972717,-23522950
3.250,-24234290,-23508360,-33115420,-30904850,-4230957,-21862790,-29345700
3.260,6663644,20025490,-76131370,-61008670,-47436520,-49536130,-34521480
3.270,7552714,-27304140,-28266570,-61086360,-4807129,-6665039,-39575200
3.280,8433148,-22683170,-32317850,-61138150,-53515620,-66015620,-5517578
3.290,32666570,21026760,-75423580,-37854210,-6386719,-58203120,-61816410
3.300,10211270,21423820,-75181880,-61224460,-7211914,-4572754,-88623050
3.310,11108970,-21684490,-31365780,-61207200,-7910156,13085940,-97998050
3.320,11998030,-21292610,-30998070,-61181310,-10195310,42504880,-9042969
3.330,-20407010,-20873110,-30606190,-27809530,-14833980,4580078,-6508789
3.340,-19908960,2343501,-7413744,-27392620,-20703120,40942380,-18249510
3.350,14535740,2386661,-7387851,-61025940,-24394530,3413086,-2841797
3.360,-19105350,46453080,-51395580,-26728840,-24785160,18579100,-7373047
3.370,36126150,-19594760,-29381360,-40661230,-24375,22827150,-8652344
3.380,1609807,2454849,-7321387,-6117268,-22695310,14831540,-9667969
3.390,-18612480,24565740,-73041220,-26375810,-18964840,28051760,-128125
3.400,1642607,-19298700,-29038680,-6150069,-13027340,44628900,-15732420
3.410,36802010,-19267620,-28983440,-41331910,-69091800,49267580,-17304690
3.420,16331130,-19244320,-28937690,-61958160,-21044920,5229492,-16464840
3.430,-19064780,2429817,-7239384,-26907520,18664550,58496100,-18320310
3.440,-22757320,2429817,-7222121,-23542980,40844730,5341797,-17480470
3.450,-19362570,-19012120,-28651980,-27231210,56933590,4182129,-16894530
3.460,16020390,-18859340,-28494020,-62804060,61816410,37890620,-13798830
3.470,-19520530,24677960,-71651520,-27418510,40893560,1060791,-7915039
3.480,37206830,-18488180,-28122860,-41911100,14660650,-3564453,-43310550
3.490,37264660,2508366,-7131491,-41974100,-7098389,-43676760,-24166110
3.500,-19606850,25264920,-71185420,-27539360,-4140625,-6064453,5576172
3.510,1607215,25403020,-71099100,-6328743,-66064450,-80078130,10
3.520,-23280150,2546345,-7105593,-24073220,-50097660,-7553711,11904300
3.530,-19812280,-17978050,-27631710,-27730980,-23254400,-5566406,12705080
3.540,15614700,25377130,-71124990,-63382380,8712769,-3642578,14208980
3.550,36976370,-18162770,-27809530,-41779030,1697998,-21447750,12197270
3.560,1508815,-18304330,-27944180,-6340829,37182620,-7269287,10595700
3.570,-20413910,24885120,-71444370,-28234210,4194336,-17028810,90234380
3.580,14449420,-18640960,-28263550,-63442810,5439453,-14453130,5180664
3.590,1413004,-18807560,-28424970,-6343419,7451172,4171753,12963870
3.600,-20943900,24272270,-71815530,-28670970,77441410,-21826170,46691900
3.610,-21087180,24099640,-71936370,-28786630,87402340,-14648440,-32543940
3.620,-21211480,-23550570,-24510590,-28886760,9345703,-1361084,-4765625
3.630,13146040,23857950,-72109010,-63416910,89746100,-25024410,-6381836
3.640,-21375480,23797530,-72169430,-29016240,81884770,-19567870,-94433590
3.650,-21416050,-23731840,-24691850,-29044720,5986328,-21411130,-6640625
3.660,-21464390,-19436800,-29038680,-29082700,28637700,-6503906,-34887700
3.670,35509850,-19452340,-29057670,-40569740,19836430,-57421880,-43188480
3.680,1267130,2375437,-7231617,-6332196,18835450,-50927740,-4140625
3.690,35418340,23745740,-72342060,-40488590,11907960,-55029300,-38476560
3.700,-21586090,-19509310,-29121540,-29168160,7348633,-49072260,-38891600
3.710,12472770,2373713,-7240249,-63261540,24841310,-36108400,-4260254
3.720,-21619760,-19541250,-29158660,-29186280,31158450,-20373540,-3635254
3.730,12403710,23745740,-72462900,-63209750,6732178,-41503900,-45141600
3.740,12386450,23780270,-72480170,-63175230,25939940,15661620,-4650879
3.750,-21599900,2382344,-7248880,-29154340,-17016600,20300290,-39379880
3.760,1242096,48166330,-48214950,-6312342,-3930664,1953125,-18896480
3.770,12464140,2392703,-7248881,-63097540,-49316410,22949220,-18554690
3.780,-21494600,-19440250,-29087010,-29052490,-5444336,2697754,-28515620
3.790,1255907,-19411770,-29063710,-6303713,-64501950,20605470,-34448240
3.800,12610870,2406514,-7250607,-63002590,-80078130,11846920,-2734375
3.810,12654030,45880800,-50724900,-62976690,-8876953,-34576420,-3659668
3.820,12688560,24082370,-72540590,-62942160,-97509770,-11376950,-44628900
3.830,35306130,45886840,-50736120,-40324590,-11025390,-24804690,-43823240
3.840,12731720,24021950,-72601010,-62881740,-11923830,-3461914,-5058594
3.850,-21269310,23961530,-72644170,-28828930,-1171875,-3310547,-5654297
3.860,-21263270,-19580950,-29239800,-28817710,-11152340,-28173830,-76123050
3.870,1270581,-19668130,-29325250,-6276955,-10927730,-19274900,-87646480
3.880,-21252910,-19756170,-29409840,-28793540,-11035160,-1751709,-8515625
3.890,12645400,45782400,-50719720,-62691850,-12226560,-20019530,-7163086
3.900,1258496,47968550,-48464520,-6264867,-13193360,-20837400,-60546880
3.910,-25011550,-20118700,-29755100,-25086690,-12451170,-21960450,-6455078
3.920,12420980,-20268890,-29898390,-62571010,-11904300,-21838380,-7470703
3.930,-21359080,45580420,-50628220,-28842740,-12275390,-30737300,-7680664
3.940,-21410000,4552001,-5060232,-28878130,-12753910,-49365230,-6923828
3.950,-21471290,-25130170,-26090190,-28920430,-12451170,-6660156,-5942383
3.960,11885810,45349960,-50513420,-62398370,-11660160,-6660156,-66552740
3.970,34497350,-21255490,-30828030,-39562420,-9946289,-5620117,-8457031
3.980,11506020,-21486820,-31045540,-62312060,-8203125,-47216800,-95947260
3.990,-21802750,2124256,-7422376,-29158660,-7397461,-32617190,-96777340
4.000,1108304,20949070,-74379140,-6219984,-7319336,-27270510,-85498050
4.010,1086726,-22179950,-31698960,-6215670,-7080078,-32910160,-7402344
4.020,-22102270,44810470,-50241520,-29377040,-7084961,-27172850,-7050781
4.030,-22211030,-22634840,-32124500,-29458180,-66308590,-2770996,-67285150
4.040,10168110,19775170,-74983350,-62027200,-6303711,-21203610,-60595700
4.050,-22437180,1947307,-7513008,-29629090,-6040039,-32440190,-5253906
4.060,-22546800,-23321920,-32766700,-29709360,-53808590,11206060,-47753900
4.070,-22664190,18903370,-75389040,-29799130,-5185547,32861330,-3605957
4.080,9209998,-23733650,-33149080,-61880480,-5600586,49438480,-18408200
4.090,-22905880,18376840,-75622100,-29989030,-67041020,54345700,12890630
4.100,8709360,-24111720,-33496080,-61845940,-7788086,36083980,3413086
4.110,8424516,1785033,-7582063,-61854580,-8876953,1628418,46533200
4.120,8131038,1756548,-7589832,-61871840,-9038086,-7562256,47021480
4.130,7794396,17263350,-75975990,-61897730,-8154297,-33032230,47753900
4.140,-23781130,-24904970,-34204740,-30719270,-7324219,-51220700,43408200
4.150,7069336,16607350,-76114100,-62001320,-5439453,-59228520,39257810
4.160,31611780,-25329650,-34574170,-37148140,-3557129,-5917969,37402340
4.170,-24483750,1592545,-7622630,-31328660,-25976560,-5239258,42041020
4.180,5938588,15580180,-76260840,-62199840,-15466310,-39648440,5498047
4.190,5558798,1523494,-7629538,-62286160,-12915040,-32421880,6484375
4.200,5178998,14889640,-76329900,-62372480,-99853520,-234375,71191410
4.210,30745160,-26349050,-35436480,-36512850,-15344240,-1940918,86279300
4.220,-25739650,1418186,-7634715,-32437830,-21850590,-19299320,10615230
4.230,3996464,-26756460,-35771380,-62691850,-30981440,-24206540,11523440
4.240,3573514,1340502,-7632991,-62804060,-32348630,-2163086,11923830
4.250,3133294,12973410,-76312630,-62950800,-34228520,-21130370,11982420
4.260,-26913560,12533190,-76286740,-33490900,-30395510,-9790039,12285160
4.270,2218338,-27667970,-36499900,-63244280,-24768070,-32806400,11826170
4.280,1743596,40662100,-47122040,-63408280,-17883300,16052250,11455080
4.290,-27918290,-28153930,-36877100,-34402400,-125,26953120,10634770
4.300,768216,10599700,-76062310,-63762180,-16101070,31713870,10185550
4.310,276216,1009046,-7596737,-63960710,-14648440,3215332,953125
4.320,-224424,4237810,-4304098,-64167870,-1328125,32617190,8833008
4.330,-725064,-29122400,-37600440,-64375030,-11187740,3713379,8330078
4.340,28386980,8484936,-75622100,-34969500,-109069800,36987300,76416020
4.360,-2270130,734558,-7532863,-65039670,-93566900,30322270,62109380
4.380,-31323490,6171648,-74983360,-37540020,-13842770,22607420,43896480
4.400,-4462582,5006372,-74577660,-66006420,-19616700,10021970,38916020
4.410,-502365,35888780,-42883890,-6625672,-17907720,8886719,34985350
4.420,26847100,-31260470,-39053150,-34058000,-19934080,8544922,27807620
4.430,-33447740,3219616,-73861240,-39507170,-22216800,8215332,18774410
4.440,-6775866,3456989,-4166509,-67042220,-23083500,36224360,15625
4.500,25234700,-69915,-7170334,-33132680,-23612980,-10394290,2565918
4.510,-10875910,31451230,-38707020,-68932550,8129883,-41412350,34423830
4.520,-11428340,-32890990,-39822230,-69191500,20458980,13208010,44677740
4.530,-40686880,-2175180,-70658880,-40744340,3269043,27612300,50439450
4.540,-1253322,-2649924,-70304990,-6969214,41210940,38256840,5527344
4.550,-38657820,29769780,-37073900,-44344360,5253906,34277340,53564450
4.560,-13586260,-3547616,-69579930,-70175510,6254883,29370120,52783200
4.570,23939940,-3961940,-69217390,-32390360,72998050,25952150,5083008
4.580,27618330,-33390770,-39840360,-28470280,85253900,29101560,49682620
4.590,-40131250,28222120,-35548680,-45719390,94091800,23901370,5107422
4.600,23522170,27867360,-35195650,-32169390,9921875,14807130,515625
4.610,23406510,-33530600,-39769580,-32112420,10546880,9338379,59228520
4.620,-16106710,-5765960,-67534220,-71487530,11523440,50468440,65771480
4.630,-4128533,-6068070,-67232110,-4680957,11416020,-122680700,7871094
4.640,-16719560,26639940,-33971680,-71824160,11201170,-2680664,86376950
4.650,23043120,-33672160,-39679810,-31940650,10683590,-4140625,10009770
4.660,-17254720,26118590,-33457230,-72100370,10126950,-54052740,11669920
4.670,22859260,25873450,-33219000,-31831030,93896480,-6743164,13300780
4.680,-17772620,-7449134,-66092730,-72273020,92089840,-7475586,14394530
4.690,22627930,-33912120,-39733320,-31665300,9399414,-703125,15214840
4.700,22483780,25217440,-32597520,-31550500,9301758,-5996094,16259770
4.720,-18912000,24791900,-32211680,-72307540,93896480,-37304690,17353520
4.730,21925310,-8925152,-65531670,-31073160,91259770,-22399900,17207030
4.740,-19576640,24357730,-31834480,-72160800,90625,-122924800,16298830
4.750,21460070,-9658842,-65436730,-30657980,859375,-71899420,14921880
4.760,-20293070,23899390,-31446920,-71910480,8618164,-44006350,13242190
4.770,20929220,23662880,-31251840,-30170290,83984380,-80078130,11601560
4.780,-21018130,23416010,-31049860,-71582480,80615230,-11767580,10029300
4.790,-21372030,23176910,-30857370,-71401210,7895508,-14367680,80566410
4.800,-2170867,22928320,-30657120,-7120267,7753906,-10772710,6435547
4.810,-2203669,-12300130,-65471250,-7099552,7519531,-10101320,50439450
4.820,-22330140,22474300,-30299770,-70788360,7236328,-9277344,39819340
4.830,19337540,-1317192,-6556621,-28654570,6958008,-33966060,31347660
4.840,19113120,-39350510,-39871000,-28430150,71435540,7067871,24560550
4.850,18915450,-1395741,-6571295,-28230750,76220700,12683110,18823240
4.860,18745410,21733700,-29745620,-28055530,83496100,13842770,17272950
4.870,18584860,25224780,-26030110,-27888070,8857422,13061520,18786620
4.880,18452790,-14950060,-66015050,-27743930,89208980,14282230,20227050
4.890,-44089730,-15243530,-66135880,-48683500,8930664,6933594,22473140
4.900,-2343501,21288300,-29465950,-6914834,8901367,27496340,24682620
4.910,18133420,-38562870,-43627940,-27372770,86865230,12097170,14538570
4.920,18058320,21161410,-29420200,-27275230,84277340,27563480,24307250
4.930,-4370476,-1621891,-6674873,-4822258,7841797,41601560,-16699220
4.940,-43580460,21089770,-29422790,-48087920,7182617,51416020,-32299800
4.950,-43445810,-39302600,-44355580,-47946360,6743164,5229492,-4645996
4.960,-23055210,21093220,-29488380,-68043490,6411133,44873050,-62597660
4.970,17972010,-16779980,-67447900,-27050810,6074219,36547850,-87939460
4.980,-22675410,-41972040,-42480270,-67767270,54003900,26293940,-13544920
4.990,-22433720,21283990,-29746480,-67663700,3935547,15905760,-19082030
5.000,18241320,-1669365,-6803487,-27213080,18286130,44525140,-23476560
5.010,18408770,-16521020,-68242020,-27339100,21887210,-15332030,-24082030
5.020,18603840,-16279340,-68466440,-27489290,47558590,-38891600,-17734380
5.030,2322340,-39738500,-45007280,-2323227,91796870,-5727539,-8574219
5.040,18987090,-15787330,-68958450,-27779320,12373050,-5942383,-109436000
5.050,19128650,-15562910,-69200140,-27879450,12685550,-45458980,8430481
5.060,-19990960,-15329850,-69433180,-67137160,10361330,-6286621,-5463867
5.070,-41035840,23056930,-31529780,-45764280,67578130,3388672,-11572270
5.080,-19542110,23312430,-31774920,-66964530,46899420,47094730,-14472660
5.090,-19309060,-14406260,-70046040,-66904100,48168940,37304690,-13623050
5.100,-40569740,23909740,-32334250,-45349960,37109380,39282230,-10683590
5.110,-18782520,-1356034,-7042583,-66843690,3400879,37426760,-81884770
5.120,19911550,24576110,-32945380,-28443090,29882810,38134770,-69873050
5.130,-18152420,-12576350,-70771100,-66835060,17089840,36401370,-44213870
5.140,20271480,-12067080,-70935100,-28739160,21032720,1953125,-55114740
5.150,20442390,25619670,-33887090,-28878990,45385740,15356450,15159610
5.160,-3955640,-38175300,-44188130,-4451616,5732422,23840330,-54138180
5.180,-1674548,-10271690,-71522060,-6680916,7192383,37939450,14477540
5.190,-16546920,30459280,-31274460,-66800530,6772461,31762700,23596190
5.200,21029350,27026640,-35155950,-29345100,8383789,2175293,29882810
5.210,-16270710,-9244520,-71841420,-66731480,11289060,11999510,48608400
5.220,21104440,27452180,-35541780,-29390850,12265630,16003420,6254883
5.230,-1614125,27642070,-35714420,-6661926,10332030,28027340,7260742
5.240,-16158500,-8441778,-72126270,-66550210,7636719,18139650,42773440
5.250,21000860,27985620,-36026880,-29270010,47802740,21643070,-38330080
5.260,20923180,-7932506,-72290270,-29192320,12915040,44580080,-22265620
5.270,-16365660,28351600,-36351430,-66343050,-26733400,47924800,-47753900
5.280,-16426080,28563080,-36537020,-66299890,-20385740,44848630,-52734380
5.290,-16443340,-6983024,-72480170,-66265360,-17504880,2590332,-14785770
5.300,-3884514,28989480,-36904720,-4382904,-27368160,21560670,36401370
5.310,20805780,29212180,-37096350,-29068020,-38427740,-22106930,6040039
5.320,-16313870,29444370,-37295740,-66239470,-25195310,-4387207,67041020
5.330,-1622757,29686060,-37502900,-6623946,-82458500,-5097656,70214850
5.340,20920590,-5092688,-72730490,-29160390,10369870,-54345700,70458980
5.360,-1604629,-3513264,-4198274,-6623084,16821290,-24157720,46826170
5.390,-38580140,31042950,-38649180,-43610670,59521480,6503906,32739260
5.400,-1590819,31232850,-38804560,-6626536,74121100,8310547,41186520
5.410,21105300,-34176250,-41212790,-29320940,8544922,91845700,6171875
5.420,-1579599,-34014840,-41080730,-6632581,9477539,89990230,8076172
5.430,21202840,-1942124,-72859970,-29413290,8989258,83740230,74902340
5.450,-1564061,31976900,-39407040,-6641210,63183590,7919922,16223150
5.460,21327140,-1225696,-72834070,-29530680,4194336,7661133,-33666990
5.490,25200170,-32975590,-40203750,-26020190,-2286377,1887207,-11767580
5.510,-40689630,-32572490,-39847260,-41207700,-4477539,-8618164,-107421900
5.520,-14829220,46614,-7252332,-66964530,-13708500,-9082031,68359380
5.530,-1462208,-32204780,-39524440,-6706812,20031740,-6176758,9135742
5.550,22431130,121708,-7234207,-30584610,5385742,-16967770,7626953
5.560,22572690,1424224,-72273010,-30719260,4423828,-20373540,7861328
5.570,22722020,160551,-7219533,-30863410,38061520,-26635740,87646480
5.580,-1375891,33416670,-40453210,-6760327,48242190,-34179690,9819336
5.590,22987010,1881708,-72057220,-31116320,6591797,-35498050,99121100
5.610,23226110,33500390,-40490320,-31343330,96972660,-3010254,90722660
5.620,-13137410,-31197460,-38598260,-67948540,11103520,-27172850,7109375
5.630,-12964780,2175184,-71884580,-68000330,13056640,-13745120,45703120
5.640,-37640140,2244232,-71867320,-43169590,12871090,-27236940,28125
5.650,-12524560,-31049860,-38469640,-68095280,11484380,-10070800,10650640
5.660,23911460,-30992030,-38423900,-31952730,10126950,-9777832,-1340332
5.670,-12006660,-30915200,-38362610,-68164340,96240230,1838684,-5336914
5.680,-3712399,-30818530,-38286660,-4277083,9448242,12890630,-8588867
5.700,-11014020,-30565620,-38090720,-68224750,6035156,28125,-12412110
5.710,-10591070,3633932,-71979540,-68233380,36767580,39453120,-13525390
5.730,25436680,4497104,-72048580,-33224180,90026860,40625,-12910160
5.740,29228570,-33131300,-33902280,-30001970,-18884280,47094730,-13642580
5.750,26088370,5645118,-72074480,-33763660,-32666020,27270510,-13466800
5.760,-7828932,6335652,-72074480,-68319700,-46923830,12219240,-12919920
5.770,26807390,-28532000,-36447240,-34356660,-43286130,-18005370,-13066410
5.780,-34318680,-28077970,-36072630,-40500680,-30151370,-2512207,-11650390
5.820,-3936048,-26090960,-34434340,-68086650,-30615230,-6611328,-72021490
5.830,-3340462,-25560970,-33997570,-67974430,-20581060,-6245117,-47436520
5.840,-2762140,13344570,-71936370,-67844960,-9716797,-5991211,-4473877
5.860,-1700440,-24019360,-32725270,-67542850,-72998050,-55615230,71875
5.870,-1234334,41149780,-46737930,-67370220,-10908200,-5800781,8305664
5.880,-820008,1679727,-7186733,-67197580,-12236330,-6660156,90478510
5.890,-466112,1751370,-7187596,-67016320,-13378910,-6621094,10107420
5.900,29986440,42336640,-47708990,-36684620,-14570310,-61816410,10449220
5.910,103582,1875666,-7191048,-66636530,-15078130,-58984380,10
5.920,-29730080,-21764760,-30888440,-36405820,-14160160,-6020508,98828130
5.940,-29387400,-21317640,-30541450,-36057960,-12822270,-5986328,11572270
5.960,845900,20828230,-72186690,-65721560,-10292970,-44726560,12871090
5.970,914954,21035390,-72255740,-65566200,-9736328,-3864746,13203130
5.980,-28910070,-20891240,-30242800,-35551280,-79541020,-28955080,13105470
5.990,1053062,21311610,-72393860,-65324510,-4807129,-10559080,10693360
6.000,1130746,-20822180,-30208270,-65229570,-3786621,-20401000,89404300
6.010,29993340,44449670,-49549260,-36384230,-34570310,-9906006,9160156
6.020,1337904,21570560,-72549220,-65056920,-23449710,-24841310,94677740
6.030,-28432740,21622350,-72601020,-35079120,-17456060,-40405270,8720703
6.040,1622752,-20772980,-30205680,-64910190,-692749,-5571289,66845700
6.060,-28021010,21777710,-72756380,-34696740,38720700,-67871100,35864260
6.070,-27839740,-20747090,-30214310,-34532740,6557617,-88427740,62353520
6.080,2580870,-25006820,-25954580,-64556290,45751950,-11357420,12353520
6.100,3210980,21924460,-72954910,-64426810,-41186520,-9633789,13642580
6.110,3504460,2188996,-7300671,-64375030,-26831060,-45751950,7553711
6.120,3789306,-20829950,-30321350,-64314610,9875488,20065310,36102300
6.130,-26662380,-20819600,-30314440,-33500390,3046875,26757810,-38354490
6.140,4471206,-25057400,-26007580,-64236920,55859380,28588870,-5083008
6.150,-26212670,2206257,-7300669,-33121460,69091800,24035640,-3466797
6.160,5325742,-20646100,-30159930,-64193760,5830078,24734500,-88256830
6.170,32073570,45045260,-50110320,-37912040,2854004,-13183590,95703130
6.180,-25426330,45062520,-50110320,-32474950,6262207,-120666500,3540039
6.190,-25159600,-20383700,-29904430,-32258290,20263670,1104126,-3564453
6.200,7285128,45137620,-50138810,-64202390,5649414,34814450,-9897461
6.210,-24580420,-20047060,-29585060,-31784420,80810540,37646480,-13994140
6.230,-23889020,23529950,-72160800,-31215590,62597660,12347410,-12851560
6.240,-23510950,-19227920,-28815980,-30903120,31835940,-45288090,-10537110
6.250,-23114760,-18916310,-28523370,-30574260,7110596,-3161621,-80908200
6.260,34993670,-1859693,-2822128,-40291790,-3774414,-54052740,-4958496
6.270,-22330140,25083650,-71297630,-29926010,-7944336,-62646480,-31689450
6.280,12524560,-17986680,-27640350,-64090180,-95214850,-64208980,-4465332
6.290,1318054,25808710,-70866050,-6405565,-92089840,-60546880,-6928711
6.300,1381068,2617124,-7065889,-6399524,-7783203,-49975580,-10722660
6.310,36704470,-21482680,-22452540,-41653880,-61035160,-41308590,-13261720
6.320,15036380,-16850750,-26566570,-63839860,-44506840,-3322754,-12910160
6.330,-20087630,-16583170,-26316250,-28025320,-40234380,-23266600,-1234375
6.340,-19719060,-16341480,-26091820,-27703360,-35961910,-14086910,-11796880
6.350,16771350,-16099800,-25867400,-63503230,-46899420,37597660,-12617190
6.360,17332400,46848420,-51000250,-63356490,-40527340,1171875,-13037110
6.370,17884830,-15632820,-25436680,-63201120,-2783203,20654300,-12783200
6.380,-18213700,-15397180,-25223480,-26360270,-27075200,33935550,-12177730
6.390,-17807150,-15152040,-25002510,-25989970,-31713870,5258789,-11435550
6.400,-17392830,29546220,-69217390,-25610180,-46118160,5986328,-10107420
6.410,-20683310,-14651400,-24553660,-21508320,-68359380,53808590,-8276367
6.420,2070738,-14414900,-24341320,-6210491,-9692383,38061520,-7207031
6.430,2121665,-14195650,-24146250,-6187185,-12216800,19458010,-6933594
6.440,2169140,3087550,-6885487,-6163879,-12783200,44677740,-6464844
6.450,22131610,31134450,-68803080,-61405730,-11650390,-4714966,-6513672
6.460,39921500,3136752,-6875994,-43788490,-11123050,-18225100,-7597656
6.470,-14857700,-13568130,-23599860,-23242510,-10058590,-33666990,-71875
6.480,-18731910,3175594,-6873402,-18815880,-9394531,-45581060,-66064450
6.490,2351268,-1336960,-2343586,-6055983,-9638672,-5205078,-68896480
6.500,23814790,-13284150,-23365950,-60361300,-10214840,-47314450,-5229492
6.510,-13835710,-13216820,-23312430,-22261950,-11181640,-44995120,-25610350
6.520,-13625960,-13185750,-23291710,-22057380,-11738280,-39648440,14428710
6.530,-13442110,32325620,-68820340,-21878700,-12177730,-23669430,27124020
6.540,2470384,-13213370,-23333140,-5971393,-11904300,-36590580,39648440
6.550,24850590,32273830,-68941180,-59601710,-11230470,25390620,43115230
6.560,-13038150,32222040,-68992980,-21488550,-8520508,44018560,24951170
6.570,-12932840,48763780,-52451230,-21386700,-5888672,48388670,29370120
6.580,25239010,48758610,-52456410,-59334130,-5864258,3227539,35961910
6.590,-12712730,48755150,-52459860,-21175220,-71191410,625,4326172
6.600,25489340,3202354,-6917425,-59204660,-85595700,-17822270,5004883
6.610,25601540,48709400,-52436550,-59144230,-6591797,-3618164,2927246
6.620,-12462410,3185952,-6925192,-20942170,-5053711,-38354490,-27832030
6.630,-12397680,31773190,-69269180,-20886060,-51171880,-42749020,-31933590
6.640,-16165310,-13741630,-23840690,-17014840,-47094730,-45166020,-67626950
6.650,-12296690,-13777880,-23873490,-20797160,-16821290,-42211910,-99365230
6.660,-12250940,48576480,-52345060,-20756590,-116760300,-3857422,-12089840
6.670,-12195690,3160057,-6928645,-20708250,-3232422,-4440918,-9291992
6.680,26214400,-13818450,-23901970,-58997500,-90966800,-46411130,-3305664
6.690,-12082620,31471090,-69277820,-20614160,-14873050,-36108400,19921880
6.700,-12042910,-13940160,-24004690,-20584820,-15615230,-18762210,59814450
6.710,-12022200,31186240,-69320980,-20571010,-15009770,496521,8857422
6.720,26481980,-14179250,-24214440,-59075180,-13115230,20568850,97509770
6.730,-12033420,-18842690,-19844480,-20594310,-11279300,29589840,11171880
6.740,2648197,3049571,-6951087,-5916150,-8354492,2355957,11191410
6.750,26481970,30210870,-69605820,-59213280,-7763672,55511480,12011720
6.760,2645608,-14915530,-24876490,-5925646,-7661133,-21838380,125
6.770,-12148220,-15159810,-25098320,-20721200,-45996100,-33422850,11767580
6.780,-12192240,4754241,-5161827,-20763490,-88012700,-2397461,9082031
6.790,26335230,28838430,-70115100,-59360020,21240230,-28930660,7480469
6.800,26300710,-15960830,-25833740,-59377290,2088623,-42529300,6948242
6.810,-12263890,-16221510,-26073700,-20829960,16455080,-54003900,6484375
6.820,26266180,-16489950,-26323160,-59360020,22229000,-4633789,60058590
6.830,-12250070,-16740270,-26556210,-20809240,35424800,-3149414,47265620
6.840,26274810,27129350,-70874670,-59282340,5800781,-28930660,42456060
6.850,26292080,-17194290,-26982620,-59213290,5546875,-31640620,58935550
6.860,-12143040,-17408360,-27182870,-20691850,46264650,-4675293,78125
6.870,26361130,-17604300,-27366730,-59092440,32666020,-47045900,7944336
6.880,-15886680,2607630,-7142710,-16741050,3388672,-3239746,82666020
6.890,-11991120,2584324,-7155657,-20533030,24230960,-77941900,6503906
6.900,26490610,-18156730,-27884630,-58911180,15515140,2376709,5571289
6.910,26542400,2541167,-7176376,-58859380,11956790,27319340,54785160
6.920,2660282,2521313,-7184143,-5881623,-89904780,28149410,5205078
6.930,-15636360,2500597,-7192773,-16490730,-993042,2770996,6020508
6.940,-11737350,-18760080,-28437920,-20286160,-13452150,25219730,7011719
6.950,-11692470,-18913730,-28577750,-20244730,-7086182,7861328,12001950
6.960,26861770,2433271,-7213492,-58712650,-5517578,20629880,14326170
6.970,26913560,45722840,-50537590,-58712640,-6533203,-8996582,11494140
6.980,-11616510,23745740,-72290270,-20182580,-37109380,82458500,72753900
6.990,26930820,23435000,-72376590,-58747170,-31079100,28759770,49902340
7.000,-11639810,-19881340,-29440050,-20211070,-32910160,2479248,47265620
7.010,-11664850,22822140,-72523330,-20237820,-37451170,2800293,4177246
7.020,26896300,2252870,-7259239,-58850760,-5004883,32104490,38671880
7.030,2686176,-20468290,-29957950,-5890256,-46240230,35302740,21960450
7.040,-11758070,21967610,-72721860,-20334500,-17529300,31225590,15380860
7.050,-11775330,44706030,-49810800,-20351760,-22680660,26367190,7397461
7.060,-11800370,21518760,-72825440,-20378520,-44213870,5316162,17089840
7.070,-11826260,2130298,-7288585,-20404420,-59228520,3933716,3190918
7.080,-11860790,-21220110,-30621730,-20438940,-4428711,16748050,20910640
7.090,-11913440,-21348720,-30734800,-20489870,-24230960,26171880,-9686279
7.100,-11949690,-21458340,-30832340,-20522670,60028080,3996582,-14855960
7.110,26611450,-21550700,-30912620,-59135600,-27124020,27246090,49536130
7.120,-11982490,-21643060,-30992890,-20558920,-63671880,14550780,10380860
7.130,-11998890,20267170,-73093020,-20577050,-80322260,31713870,10195310
7.140,26576920,-21838130,-31160350,-59221920,-80126950,41381840,5131836
7.150,-12066220,19990960,-73127540,-20647830,-671875,35717770,10858150
7.160,-12091250,19887380,-73127540,-20674580,-48413090,24926760,2006836
7.170,-12099880,19792430,-73153440,-20683220,-34643560,22460940,8432617
7.180,26551030,1968024,-7317935,-59299610,-61083980,17102050,15791020
7.190,26559660,1954214,-7321387,-59308230,-8798828,19091800,15078130
7.200,2651649,-22307700,-31571210,-5931688,-5722656,3005371,6171875
7.210,-12154260,-26554310,-27479970,-20732420,18530270,4790039,-35058590
7.220,26395660,19248630,-73351970,-59299600,60595700,5961914,-7470703
7.230,2639564,43630520,-49039130,-5924779,3828125,5541992,-60546880
7.240,-12093840,-26944840,-27037650,-20654730,3317871,5800781,-39575200
7.250,26464720,1956803,-7341241,-59092440,5810547,55322260,-31225590
7.260,-11927250,-22166140,-31488350,-20476060,76123050,61621100,-20043940
7.270,-11798640,20042750,-73438290,-20345720,42456060,6142578,-36315920
7.280,-11651900,-21864030,-31238030,-20198980,-35229490,5126953,53027340
7.290,2695671,-21722470,-31120640,-5853140,-62060550,4477539,8408203
7.300,-11401580,-21591270,-31010150,-19948660,-20446780,5444336,51953120
7.310,-11306630,-21432450,-30875500,-19853720,11755370,64501950,-40985110
7.320,4258072,44756960,-49949770,-4289008,30541990,4165039,-36108400
7.330,-11055450,2178636,-7324839,-19604260,25268560,21984860,-114746100
7.340,-10898350,2221794,-7316207,-19450610,-16906740,19543460,20031740
7.350,27742200,-20427720,-29998520,-57814960,-39208980,19250490,24365230
7.360,-10627320,23063830,-72972180,-19186490,-37280270,25561520,17419430
7.370,-10512520,-19879610,-29510830,-19076860,-37890620,24658200,23022460
7.380,41379380,2384070,-7274778,-44315880,-35205080,19116210,59765620
7.390,28294630,24211850,-72635540,-57452420,-8996582,12017820,89453130
7.400,41454480,-19096710,-28809080,-44344360,-3713379,77209470,12451170
7.410,28605370,4633054,-5106932,-57262530,-96533200,-1541748,14560550
7.420,28726210,46485890,-51172880,-57193470,-11728520,-20861820,12519530
7.430,-9875500,25765550,-72134900,-18470920,-10341800,-25390620,89697260
7.440,2886429,26110820,-72014060,-5712441,-10029300,-24072270,8417969
7.450,28907480,-17811460,-27642940,-57115790,-10859380,-15197750,93652340
7.460,-9783143,26715030,-71755100,-18390650,-11464840,-11206060,11074220
7.470,-9790046,2697399,-7163426,-18401000,-11162110,9490967,12119140
7.480,28933370,47140170,-51571670,-57210730,-94921870,3817749,12509770
7.490,-9889310,-17063100,-26941180,-18508900,-93603520,-60821530,12138670
7.500,2883840,27569570,-71263100,-5739200,-86376950,-33203120,85546870
7.510,-10059360,-16737680,-26627850,-18684120,-47607420,-11126710,44482420
7.520,-10161210,2796664,-7100415,-18789430,-39501950,-19494630,2890625
7.530,-10272560,-16395000,-26297260,-18902510,-41381840,-33276370,3083496
7.540,28475890,-16237040,-26144480,-57858120,-29663090,-34228520,44482420
7.550,-10484900,28510420,-70598460,-19121750,-22058100,-3330078,6035156
7.560,41701340,28665790,-70460360,-44684450,-22241210,-3239746,67089840
7.570,-14595650,28838420,-70339510,-15459850,-16235350,-29248050,7504883
7.580,-14699230,29011060,-70218670,-15563430,-16772460,-4446411,9042969
7.590,2796660,29192330,-70106460,-5843643,12237550,21838380,89990230
7.600,27863050,-15332440,-25270950,-58522760,35766600,49316410,11328130
7.610,-11089110,-15163260,-25112130,-19725970,42700200,7519531,13330080
7.620,4302093,47798760,-51793500,-4333030,36743160,10800780,13525390
7.630,27638620,30038230,-69657620,-58695380,4494629,12919920,13398440
7.640,-11262610,-14656580,-24634800,-19897740,3815918,15048830,13066410
7.650,-11313540,-14497760,-24482880,-19950390,4423828,15117190,11523440
7.660,-11354970,48026640,-51893630,-19995270,62353520,13496090,85595700
7.670,-11386040,3078919,-6916560,-20033250,54589840,93115230,8183594
7.680,-11415390,3093593,-6901886,-20072960,7348633,31054690,640625
7.690,-11443010,31056770,-68863500,-20114390,21942140,-15283200,21948240
7.700,-11480130,-13770970,-23759550,-20163590,93566900,-52001950,9265137
7.710,27621360,-13624230,-23612810,-59334130,24487300,-8354492,-6752014
7.720,27673140,48087930,-51780560,-59403180,10491940,-96533200,13757320
7.730,-11530190,-13333350,-23316740,-20251640,-16430660,-10302730,4819336
7.740,-11550050,-13222860,-23202800,-20283570,-31433100,-10175780,42260740
7.750,27759460,-13120140,-23098360,-59662140,28466800,-98583980,2590332
7.760,-11601840,31876770,-67888120,-20352620,27514650,-9848633,42114260
7.770,-11607020,48091370,-51673520,-20364710,-6542969,-89990230,79589840
7.780,-11621690,32049400,-67715490,-20384560,-24926760,-6816406,93408200
7.790,27776720,48131950,-51684740,-59834760,12817380,-41333010,7104492
7.800,-11650170,-12691150,-22681450,-20407870,57470700,-22570800,28344730
7.810,-11635500,-12608290,-22608940,-20388020,7495117,-20947270,26416020
7.820,27768090,-12515930,-22528670,-59722560,5361328,-8117676,35009770
7.830,42126020,-12414070,-22440630,-45312840,39282230,-45280460,10614010
7.840,-11512930,32860790,-67542860,-20251630,36450200,-4916382,16174320
7.850,27845780,-12226770,-22282670,-59472240,4333496,-12731930,29907230
7.860,27888940,-12123180,-22196350,-59360030,6352539,91308590,18676760
7.870,27966620,48756880,-52164660,-59230550,77978510,28857420,-11047360
7.880,-15075310,-11844390,-21957260,-15946930,7519531,8868408,-30200200
7.890,28208310,33939740,-67396110,-58937080,38916020,-45013430,-28686520
7.900,-14773200,-11461140,-21615440,-15644820,-57647700,-22766110,-37200930
7.910,-14609200,-11286780,-21461790,-15480820,-40698240,-2998047,14367680
7.920,28674430,-11130540,-21324550,-58470970,-4506836,-46728520,-21133420
7.930,-10395990,34949650,-67180320,-19107070,-27490230,-6640625,1340332
7.940,-10251840,35148180,-67171690,-18957750,-209198,-30029300,37902830
7.950,29002420,35381240,-67163060,-57970320,8417969,-8483887,-6723633
7.960,-10027420,-10623000,-20899870,-18716060,15556640,-6903076,-16171880
7.970,-9901395,-10439150,-20738460,-18583130,11103520,-32958980,-19902340
7.980,29304530,-10246660,-20568420,-57478320,21777340,-77246100,-14716800
7.990,29468530,-10073160,-20413910,-57314320,-5253906,-71875,-8222656
8.000,-9411978,-9917793,-20275800,-18088540,-8261719,-5854492,-66552740
8.010,29770640,50384810,-53385180,-56960420,-70947260,-4814453,-6220703
8.020,29882850,37038520,-66904110,-56779150,-15515140,-39746100,-6411133
8.030,29977800,37159360,-66955900,-56580620,3786621,-12646480,-6347656
8.040,-8840564,37280200,-67007690,-17486050,79833980,-14638900,-58935550
8.050,-8716268,37392410,-67068110,-17351390,8652344,41931150,-7314453
8.060,-8610098,37521890,-67111270,-17233140,78271490,8135986,-8378906
8.070,30254020,3765139,-6713718,-55890090,515625,-22628780,-12246090
8.080,-8410706,37789470,-67137160,-17018210,-8465576,-22033690,-14042970
8.090,30418020,3793623,-6712855,-55622510,-41455080,-44384770,-11523440
8.100,30564750,51130590,-54037730,-55475760,-59765620,-26635740,-58251950
8.110,30702860,38169270,-67119900,-55320400,-6904297,10272220,-3840332
8.120,-7862594,-9153026,-19694030,-16461470,-32250980,19763180,-32641600
8.130,30918660,-9112454,-19665540,-55001030,11791990,20532230,-27929690
8.140,-7637305,5139818,-5427079,-16220640,60791020,40600580,-5649414
8.150,3103084,38574950,-67232110,-5469891,8847656,50878900,-8496094
8.160,3107402,3869580,-6724938,-5456945,5722656,2442627,-7661133
8.170,31108560,-14224940,-14225050,-54465870,12915040,-66833500,-5810547
8.180,-7333472,-8873360,-19490320,-15885730,-13916020,-1484375,-50683590
8.190,31186240,38997900,-67275260,-54267330,23986820,-16235350,-5698242
8.200,31212130,39092860,-67283900,-54172380,5830078,-14624020,-77001950
8.210,3122074,51844430,-54653170,-5407742,6640625,-21203610,-10849610
8.220,41469150,-8642894,-19306470,-43742740,74316410,-72265620,-13291020
8.230,-7033953,-8541041,-19218420,-15546510,9194336,19360350,-12451170
8.240,3134160,-8421063,-19113980,-5373218,84277340,35327150,-90234380
8.250,-6831973,52178470,-54906080,-15334170,54345700,5336914,-41503900
8.260,31514240,52253570,-54951830,-53473220,-56610110,28125,-23620600
8.270,31635090,40292660,-67033580,-53352380,-2536621,-53131100,15600590
8.280,31755930,-7877264,-18621980,-53231540,-640625,-6945801,6196289
8.290,3184225,-12591110,-13666450,-5312797,-5727539,-39031980,3793335
8.300,-10166300,-7652843,-18414810,-11015830,-22253420,-17333980,-3815918
8.310,-6285589,40905500,-66817790,-14775700,63378900,-30822750,-6557617
8.320,-6219122,-7478483,-18261170,-14704060,1125,13269040,-75097660
8.330,32023510,-7369722,-18162770,-52791320,86572260,13769530,-4880371
8.340,-6074973,-12113870,-13194210,-14554730,5214844,-6222534,-39819340
8.350,32127090,41501100,-66636530,-52618680,7246094,-2822876,-35083010
8.360,41329320,-11905490,-12988260,-43364670,10791020,93933100,-65185550
8.370,32239300,-6888939,-17728600,-52402900,12041020,-9082031,-9897461
8.380,-5738340,42131210,-66403470,-14200830,85498050,-4050293,-83251950
8.390,-5582968,-6521230,-17388510,-14045460,4008789,-4597168,-49072260
8.400,-5427598,4263185,-6617905,-13890090,18017580,-30541990,-18664550
8.410,32800360,-6144024,-17040650,-51790050,28344730,-14050290,-84106450
8.420,32964360,43167010,-65954620,-51608780,35009770,-1809082,-20800780
8.430,3311110,-5740064,-16667760,-5142752,23486330,-5083008,-25048830
8.440,-4767277,43667640,-65747460,-13221130,-32006840,-75146480,-892334
8.450,-4605001,53677800,-55858160,-13055410,-5805664,-7631836,39123540
8.460,-44599860,-5297252,-16264660,-129069400,-39770510,-72216800,-70495610
8.470,-4314975,-5188501,-16166260,-12758480,-31347660,-71875,-14453130
8.480,-79767030,-5104768,-16094620,-88205350,-36865230,-71972660,-45928960
8.490,-4044806,44444490,-65557570,-12476220,-3166504,-5654297,11505130
8.500,-77183570,-5017588,-16026430,-85609810,-3408203,-37841800,6945801
8.510,-3817793,44573960,-65600720,-12237120,-40014650,-3881836,-12519840
8.520,-3734063,-9979424,-11081860,-12148220,-32861330,-47509770,-7775879
8.530,-74430060,-5050390,-16079940,-82839040,-2097168,-53027340,-12231450
8.540,-3583874,44539440,-65790620,-11987670,-31079100,-5629883,-945282
8.550,-3526042,44461760,-65885570,-11924660,-3942871,-47021480,15600590
8.560,-3477702,-5305891,-16342350,-11869420,-33276370,-30200200,1048584
8.570,-3446629,-5425870,-16464060,-11831440,-15734860,-29785160,-22247310
8.580,-34336810,44116500,-66282630,-118098600,56518560,-34936520,-9118652
8.590,-71774970,-5717618,-16759260,-80142510,23046880,-39697260,-118774400
8.600,-33991540,-5864354,-16906000,-117580700,2947998,-39697260,-1517334
8.610,-33957000,-6027494,-17070860,-117442600,94177250,-39038090,-14465330
8.620,-33931110,43503640,-66947260,-117295800,40698240,-30273440,-13952640
8.630,-7127951,-11847840,-11958320,-7960217,5415039,-11627200,-16174320
8.640,-3363767,43175640,-67344320,-11672610,29345700,-3390503,-41656500
8.650,33991540,-6746515,-17801970,-48958860,20581060,-3112793,-637207
8.660,-3318019,42804470,-67767270,-11597520,13928220,-59387210,-50628660
8.670,33905220,-7150477,-18209380,-48751700,-12988280,-9741211,-1048584
8.680,-3280037,-7365407,-18426040,-11531920,-2788086,-21362300,-22216800
8.690,33784370,42191620,-68431910,-48579060,-18139650,-19470220,-43237300
8.700,33698060,-7803032,-18868840,-48492750,14428710,-1418457,-5571289
8.710,-3295574,-8009331,-19076860,-11499120,41259770,-45043940,-5097656
8.720,-3304208,41587410,-69105190,-11490480,-9777832,-45166020,-4736328
8.730,-3311976,53947970,-56744630,-11482710,-18579100,-48583980,-3623047
8.740,33370060,-8673966,-19741500,-48182010,-18237300,-35620120,-39038090
8.750,-3353407,-8907888,-19973700,-11493080,-29956060,-41674800,-5395508
8.760,-3387070,-9158206,-20224010,-11511200,-20861820,-34155270,-7739258
8.770,-3422462,40370340,-70270460,-11527600,-15917970,-26098630,-72509770
8.780,32921200,40094130,-70529410,-47940320,107543900,-3503418,-5
8.790,-3501871,-9973036,-21031940,-11569030,29858400,-453125,-63720700
8.800,-3502736,39481280,-71090460,-11550910,20593260,-42749020,-5546875
8.810,32644990,-10614370,-21668090,-47629580,84228510,-51464840,-20263670
8.820,32567310,-10978630,-22028900,-47465580,2163086,-36523440,12550350
8.830,-6989758,3834190,-7212627,-7787670,35473630,-36450200,6463623
8.840,-73192620,-11759790,-22801430,-73200580,41430660,-40966800,53863520
8.850,32429200,5518214,-5518249,-46861360,35791020,-7636719,20935060
8.860,3242054,37073040,-73257020,-4661103,37573240,-8676758,37426760
8.870,38682850,-13027790,-24053890,-40072550,50146480,-625,46533200
8.880,-28605370,3610634,-7408565,-107084600,48608400,-39501950,4501953
8.890,32480990,35579760,-74525880,-45704710,6142578,-49487300,5473633
8.900,-2510957,35018700,-74983350,-10298450,41601560,-34204100,57470700
8.910,-23029310,5290790,-5700789,-100576300,68725580,-6689453,9013672
8.920,-20957700,3384484,-7595010,-98159400,20217900,14672850,11728520
8.930,-1882569,3319743,-7645937,-9563032,5888672,44555660,7783203
8.940,32714050,-16723000,-27678330,-43659010,8569336,66259770,71191410
8.950,32765830,52457280,-57009620,-43158370,76708980,5908203,8461914
8.960,32809000,-17863250,-28799580,-42649110,55371100,1003418,11386720
8.980,-6473756,-19047510,-29963130,-80878780,8330078,-41625980,13691410
8.990,-3547620,29390850,-79609930,-77417490,99609380,24993900,13232420
9.000,-466112,28717580,-80162350,-73766290,9453125,-6161499,128125
9.010,2606764,-20890370,-31762830,-70106460,79248050,17541500,11708980
9.020,33016160,-21503230,-32358420,-39127380,7871094,15576170,79248050
9.030,33042050,2665462,-8172471,-38514530,88427740,-14416500,5332031
9.040,-20449300,-22720290,-33540960,-27542810,6855469,45507810,39379880
9.050,14613430,-28177410,-29257750,-55700200,3112793,5800781,21008300
9.060,-16914720,2463481,-8319207,-17611980,-16967770,3737793,3100586
9.070,20517490,2392702,-8364093,-48656750,-6171875,15808110,38256840
9.080,2305517,23236470,-84089780,-4549755,-37139890,10166020,-5859375
9.090,25351230,-25588600,-36300510,-42614580,91308590,6713867,-11767580
9.100,-2758683,5032180,-5660738,-9498294,-4189453,41479490,-10078130
9.110,-6283866,21492870,-85246420,-73127540,-17456060,57128900,-99072260
9.120,14190470,2096636,-8556579,-52169840,-37182620,31884770,-9941406
9.130,32955730,-27379670,-38013890,-32955730,-62158200,13000490,-95458980
9.140,18811000,20008220,-86144110,12263020,-64501950,24560550,-11083980
9.150,61897740,-28115950,-38710470,-3202356,-7583008,7965088,-12226560
9.160,36511980,1916233,-8661023,-28225580,-5854492,-6488037,-12236330
9.170,83986190,-28746070,-39306060,19593900,-90722660,116882300,-11035160
9.180,38091580,-29013650,-39556380,-26007240,-9873047,-18859860,-70458980
9.190,38566320,18100620,-87171280,-25273540,-13095700,-31103520,-50878900
9.200,38851160,17772620,-87343920,-24695220,-17255860,4815674,-67871100
9.210,38644000,-29752520,-40250360,-24660700,-16650390,28759770,-5317383
9.220,38177890,-34675770,-35724170,-24885120,-16660160,-30914310,-43701170
9.230,93567350,1696985,-8774964,30728760,-19550780,21984860,-107177700
9.240,31885400,-35048140,-36094120,-30763290,-26074220,56640620,11114500
9.250,35994080,48656750,-55803770,-26499240,-28984380,10742190,15307620
9.260,34751120,1627935,-8804309,-27673150,-29257810,11103520,12658690
9.270,23835500,48483250,-55683790,17596530,-26542970,8618164,26000980
9.280,3120005,1589955,-8812940,-3118969,-27363280,115625,-15307620
9.290,-8961405,1574418,-8812939,-15207280,-23300780,99365230,15136720
9.300,-647378,48225170,-55475770,-63227010,-19345700,6616211,3540039
9.310,26119440,15467960,-88060340,-36650090,-15410160,69873050,3618164
9.320,-4530770,15373020,-87982660,-10833610,-7788086,70762630,63623050
9.330,21553290,15295320,-87887710,-41751410,-46362300,-51171880,8803711
9.340,19369480,-31146540,-41445850,-44228700,-5596924,-49829100,8588867
9.350,-11478400,-31129270,-41411320,-17869290,11566160,-82910160,95703130
9.360,15191750,47708990,-54956140,-49027900,35327150,-9423828,12773440
9.370,13275510,-31084390,-41335360,-51254890,4611206,-54541020,146875
9.380,-17819230,1500186,-8733527,-24303340,-2319336,-51904300,15878910
9.390,-20135110,1495871,-8722306,-26648570,-12237550,-35229490,16582030
9.400,7077970,47402560,-54623820,-58350120,-36401370,-20129400,16142580
9.410,-24940360,14855110,-86998650,-31510790,-5415039,2088623,15273440
9.420,-27601510,-30952320,-41122160,-34201280,-41552740,1484375,15820310
9.430,-621486,14742900,-86765590,-66878210,-75927740,50878900,15927730
9.440,-33531470,47068520,-54267340,-40183030,-9946289,8413086,15507810
9.450,-6836290,50213300,-50932660,-73610920,-84765620,11230470,10839840
9.460,29123270,14561640,-86411700,-37910310,-42382810,109375,6323242
9.470,28890210,14535740,-86264960,-38419580,-3779297,95996100,53515620
9.480,-17643140,1453578,-8610957,-85246420,-38745120,9511719,5878906
9.490,33893130,1454439,-8594559,-34003620,-4025879,93310540,7138672
9.500,-25126800,14561640,-85772940,-93299770,-4699707,98779300,9482422
9.510,-2904560,-35009810,-36011600,-9749478,-4855957,93066410,10390630
9.520,-33145630,-30423200,-40425580,-101853800,-52001950,10253910,10224610
9.530,27276090,1461344,-8527233,-41656460,-40893560,9838867,5883789
9.540,26922190,-30228120,-40206340,-42200260,34326170,99316410,14538570
9.550,-4633485,-30092610,-40065640,-11559540,5625,6118164,43701170
9.560,-5076292,14915530,-84780300,-12014430,6279297,4790039,30322270
9.570,-8646782,46370220,-53325620,-9341628,75341800,-15914920,43359380
9.580,25325330,-29626500,-39599540,-44211440,8671875,-8538818,45922850
9.590,24893750,-29451270,-39429490,-44643020,88378900,18640140,6743164
9.600,24453530,46506600,-53361880,-45048700,7446289,7084961,63134770
9.610,24021950,1588231,-8408979,-45428500,7626953,13115230,4506836
9.620,23581740,1611536,-8397758,-45782400,91845700,18798830,1505127
9.630,-8023144,46743110,-53487900,-14954370,1390625,18486330,-949707
9.640,-8405526,46852730,-53550910,-15331580,18388670,12910160,-36468500
9.650,22356040,17047560,-83528710,-46852720,24316410,45947260,-9063721
9.660,21984880,-27942450,-38020800,-47189370,31132810,-18115230,-27856440
9.670,21630980,1779853,-8320935,-47474210,35820310,-48364260,-5527344
9.680,-9755520,-27365000,-37493400,-16657410,365625,-45996100,-5878906
9.690,-9993754,-27082740,-37240500,-16885280,34921880,-39648440,-38134770
9.700,33007520,19050100,-82855440,-35735130,33613280,-3947754,-4543457
9.710,-10365780,19481690,-82786390,-17221050,31679690,-6850586,-68310540
9.720,20267170,48192370,-54472770,-48078420,30566410,-7026367,-8647461
9.730,32653620,20379380,-82700070,-35450280,275,-7426758,-10576170
9.740,19913270,5172461,-5178647,-47931690,22617190,-5834961,-11269530
9.750,-10630770,-25523860,-35916400,-17387650,16542970,-44555660,-10644530
9.760,19680220,49125450,-55231500,-47612310,10302730,-19506840,-10449220
9.770,19602530,-25110400,-35587530,-47413790,44091800,20739750,-11455080
9.780,-10498710,22399190,-82769130,-17174440,33203120,52197260,-14042970
9.790,19507580,22761730,-82803660,-46990830,-31591800,40576170,-16308590
9.800,19516210,-24576970,-35171480,-46757780,-7753906,47192380,-15947270
9.810,19568000,23409100,-82864070,-46533360,-14814450,5854492,-11835940
9.820,19654320,23676680,-82889970,-46326190,-19707030,53027340,-90283200
9.830,19766530,-28969020,-30037110,-46127670,-2171875,42285160,-8129883
9.840,19896010,2407376,-8292451,-45963660,-24238280,22766110,-66308590
9.850,20034110,50631680,-56504660,-45808290,-23183590,-15344240,-6254883
9.860,20172220,-23968430,-34692430,-45670190,-21582030,-73095700,-671875
9.870,-9308402,24341320,-82967660,-15896090,-19951170,-13828130,-50634770
9.880,20526120,-23963250,-34697600,-45402610,-1828125,-19990230,-2590332
9.890,-8948458,50724040,-56602200,-15548230,-15595700,-24941410,-21447750
9.900,-8737843,2415143,-8312302,-15344530,-12978520,-28125,-15307620
9.910,21259810,-24256730,-34973820,-44876080,-10351560,-2953125,-17224120
9.920,21553290,-29252660,-30323160,-44668920,-83984380,-29472660,-3190918
9.930,21898560,2346955,-8342515,-44427230,-61083980,-26855470,-53466800
9.940,22269720,-24858360,-35528840,-44176910,-36010740,-24550780,-8413086
9.960,-6919150,-2532705,-3595783,-13589710,28076170,-23554690,-14970700
9.970,32436100,49962720,-56137820,-34407580,5126953,-23242190,-15693360
9.980,-6085331,2183814,-8405524,-12783510,7910156,-21933590,-15927730
9.990,-5639075,-26047800,-36618150,-12349340,8588867,-21035160,-18378910
10.000,32751160,-26289490,-36842580,-34455060,72509770,-1375,-19423830
10.010,25618810,2089730,-8446094,-41690990,41015620,-6088867,-203125
10.020,26162600,2062109,-8458179,-41250770,7684326,24536130,-20742190
10.030,-70096880,20362120,-84685360,-70772050,-44189450,40722660,-21542970
10.040,27241570,-27080150,-37571090,-40361710,-11505130,58447260,-22949220
10.050,27768100,-27215670,-37694520,-39938760,-16052250,67089840,-228125
10.060,-22381930,-27341690,-37810180,-90175100,-8642578,5571289,-22402340
10.070,28760740,-27431460,-37893050,-39118750,-6933594,4423828,-21757810
10.080,29235480,1953350,-8501337,-38730320,-2553711,39868160,-20097660
10.090,-9304944,1944720,-8504788,-77357060,-4580078,27270510,-16855470
10.100,-5472480,1936951,-8507377,-73593660,-63183590,13305660,-13544920
10.110,30504340,-27675740,-38114880,-37685890,-68310540,-4776001,-9477539
10.130,4393520,19188220,-85099670,-63952080,-58251950,-30297850,-36376950
10.140,7198814,1915371,-8509967,-61233100,-6308594,-47070310,10247800
10.150,31807720,19101900,-85082420,-36710510,-5180664,-66845700,79833980
10.160,34291440,-27818160,-38231420,-34295860,-10424810,-8364258,14423830
10.170,14380370,1896382,-8508243,-54258700,3708496,-11650390,21542970
10.180,-14347570,-27930370,-38326360,-21214930,11494140,-13173830,2734375
10.190,18791150,-2803911,-3842477,-49865180,15800780,-9355469,30976560
10.200,20914540,48549720,-55220280,-47672740,20820310,-34301760,33046880
10.210,33111110,-28298080,-38666450,-35355340,26132810,19995120,34707030
10.220,25351230,-33102300,-34138440,-42959840,26972660,8642578,36171880
10.230,-2720707,17988410,-85539890,-9536273,23007810,16298830,40546880
10.240,30702860,1779853,-8566075,-37262940,20898440,21582030,40429690
10.250,33893130,48267460,-55088210,-33900030,15771480,27949220,40273440
10.260,27549710,17349660,-85885160,20787660,14677730,29667970,3515625
10.270,85522620,48123310,-55007940,18057470,12041020,31503910,29003910
10.280,41604670,-29409840,-39712610,-25722390,80859380,32675780,2515625
10.290,13978130,-29517740,-39811880,7255783,71435540,30683590,209375
10.300,46956310,-34236760,-35265480,-20198120,421875,28535160,19277340
10.310,19410040,-29671380,-39951700,12699780,3413086,259375,17978520
10.320,52187100,-29717990,-39991410,-14898270,3269043,21914060,14951170
10.330,54681660,-29736980,-40006950,-12386450,48364260,16777340,11103520
10.340,57107160,4785487,-5482756,-9978216,62646480,10732420,7602539
10.350,59437710,1652103,-8617866,-7647664,7524414,3449707,5385742
10.360,61681940,-29648080,-39923220,-5403432,7480469,-3173828,3557129
10.370,36572400,-29566940,-39848990,-30512970,6772461,-9628906,13928220
10.380,35635000,16866290,-86092320,28929920,3474121,-16445310,9222412
10.410,71237200,17418720,-86006000,4376259,-75878900,-26113280,8569336
10.420,72661430,48379670,-55217680,5886807,-10839840,-28007810,11816410
10.430,73818080,-28907480,-39282750,7147024,-11591800,-31503910,13300780
10.440,37435570,-28830660,-39221460,-29131900,-10761720,-33242190,14492190
10.450,75604830,-28763330,-39167950,9158204,-9941406,-34101560,16132810
10.460,76234940,48690410,-55476630,9909164,-8754883,-340625,17929690
10.470,37461460,-28700320,-39127380,-28691690,-8378906,-28867190,18144530
10.480,37435570,-28694270,-39133420,-28527680,-8276367,-17402340,15634770
10.490,33294090,18325040,-86204530,-32392950,-6694336,8277893,11035160
10.500,48584240,-28740020,-39208520,42048340,-2614746,17490230,49169920
10.510,48478080,1846313,-8644624,41981880,-4095459,34453120,-2310791
10.520,7707218,18601260,-86567060,1252457,-16137700,52734380,-66064450
10.530,36503350,-28639900,-39187800,-27733570,54003900,55546880,-42358400
10.540,74810720,1907600,-8669657,10815490,19082030,50,-12634280
10.550,74197870,-3367164,-3367273,10392530,20800780,50703120,2722168
10.560,32243620,1965434,-8670518,-31406350,22792970,56445310,2614746
10.570,35925030,-28011510,-38676810,-27604100,27226560,52929690,17236330
10.580,7347280,-27805210,-38503310,1008178,23359380,48164060,26220700
10.590,74085660,-32427910,-33500830,10850010,17822270,42851560,14587400
10.600,75026510,21009490,-86592960,11980770,12919920,39140620,-44604490
10.610,35890500,-27214800,-38006120,-26930830,10429690,32539060,-12431640
10.620,3593364,-27024910,-37850760,-2662873,38745120,30058590,-19013670
10.630,79489090,22062560,-86541170,17185660,21472170,23457030,-24726560
10.640,36037240,51298900,-57701880,-25989970,-12585450,15917970,-28867190
10.650,8318341,22942990,-86472110,2143246,-15917970,83740230,-31894530
10.660,36158080,23460890,-86420330,-25264910,-41552740,1105957,-31523440
10.670,87257600,2401331,-8635131,26162600,-71972660,-8623047,-29980470
10.680,36270300,-25296850,-36385100,-24479430,-11015630,-18388670,-26816410
10.690,36296190,-24934320,-36074360,-24091010,-16289060,-24902340,-25234380
10.700,36330720,52944100,-58974190,-23728470,-19511720,-31640620,-23886720
10.710,94439140,26430180,-86006000,34690700,-21992190,-38125,-23476560
10.720,36322080,27060310,-85893790,-23132890,-25800780,-4421875,-21074220
10.730,36313450,-28469760,-29604140,-22899830,-29335940,-50664060,-19365230
10.740,97512020,-22987880,-34378240,38523160,-31269530,-55039060,-18242190
10.750,30085700,-22612400,-34045910,-28713270,-29804690,-5890625,-18691410
10.760,36227140,-22247280,-33720500,-22433720,-2625,-62226560,-18671880
10.770,36192610,29900120,-85211890,-22347400,-22050780,-67226560,-16005860
10.780,7223413,30392120,-85065150,6639054,-19921880,-71679690,-12265630
10.790,9839244,-21262400,-32840930,4005959,-16826170,-74101560,-10820310
10.800,35985450,31246660,-84849360,-22192030,-13964840,-74609380,-8149414
10.810,29680010,31583300,-84806210,-28307580,-10263670,-75429690,-48535160
10.820,35674710,-20640920,-32305770,-22036660,-31982420,-75546870,-3486328
10.830,70711540,-20549430,-32241900,64978380,-33966060,-70273440,-25463870
10.840,96001480,55963460,-61237420,39170540,27416990,-66640620,-43725580
10.850,67867140,-20522670,-32268660,67304870,12976070,-5484375,-8466797
10.860,95604420,32394670,-85324100,40085500,-67333980,-32070310,-16660160
10.870,34190060,-20659910,-32459410,-20569280,-95654300,-90527340,-20449220
10.880,33810270,-20741050,-32568170,-20172220,-41796880,76416020,-23691410
10.890,33387310,32506880,-86040530,-19749270,-58935550,34101560,-30214840
10.900,93990300,32532780,-86290850,41699620,-12119140,62695310,-35507810
10.910,9271280,-21008630,-32922070,4125076,-12949220,88828130,-38027340
10.920,9083973,-21062150,-33006660,4018907,-14824220,1065625,-37871100
10.930,6602108,-21088040,-33067080,6103716,-13603520,117734400,-32558590
10.940,8553988,-21113940,-33127500,3651198,-15126950,12546880,-28613280
10.950,29900120,-21165730,-33213820,-18281890,-25527340,137734400,-31035160
10.960,29106000,57676850,-63132070,-18212830,-371875,152265600,-38574220
10.970,28225570,-21322820,-33436520,-18212830,-45585940,163125,-46523440
10.980,27250190,33231940,-88215710,-18290520,-5609375,1671875,-503125
10.990,22673680,-27021110,-28238870,-21900290,-6296875,16625,-5203125
11.000,53188380,58263800,-63822600,9650215,-65195310,16796880,-59023440
11.010,44064700,-21783760,-34028650,1683174,-62890620,17484380,-73046870
11.020,15265120,-21777710,-34069220,11147810,-57070310,16953120,-8359375
11.030,33065350,-21646520,-33993260,29082700,-59453120,151796900,-7703125
11.040,11816760,3440587,-8970037,-26490610,-72109380,1340625,-590625
11.050,-345272,35027330,-89786670,-36943560,-80546870,11859380,-44609380
11.060,14276790,-20720330,-33279420,-20370750,-78242190,990625,-29472660
11.070,-26680510,63226750,-63227280,-59118330,-73984380,7546875,-14130860
11.080,9391259,37772210,-89596780,-20560650,-76601560,54492190,5517578
11.090,6672281,38989270,-89329200,-20500230,-7859375,30839840,30644530
11.100,3858358,4036172,-8892352,-20310330,-90546870,13115230,73789060
11.110,914957,4187227,-8832792,-20180860,-1103125,-16044920,14203130
11.120,-2209710,-15595710,-28684780,-20301700,-115390600,-84375,20171880
11.130,74304900,-14611700,-27735300,-76922020,-118984400,-160625,255
11.140,-8933788,45117760,-86031900,-21156230,-9703125,-2103125,25203120
11.150,31479720,-13363560,-26445730,-65195040,-61484380,-2084375,18484380
11.160,19645690,-12767970,-25815620,-56485680,-18798830,-21390620,148828100
11.170,-1695262,-12249210,-25246780,-2294300,38989260,-22546880,132421900
11.180,2399604,-11890990,-24810890,-45592500,29042970,-2371875,9390625
11.190,-1898970,-11600970,-24410370,-45057340,88828130,-23515620,20097660
11.200,-22986150,45609770,-81068680,-27992520,1778125,-24515620,-1278125
11.210,29759420,-11247070,-23797530,-35150770,25546880,-2534375,-2534375
11.220,37280200,-11435240,-23902830,-42821740,2215625,-18828120,-23296880
11.230,-23314160,44099220,-79955200,-32895310,18625,-124375,-1628125
11.240,53884080,59982370,-63623210,-59536110,20703120,-16828120,-104765600
11.250,-21682770,59818370,-63545520,-34509430,2065625,-19265620,-56445310
11.260,4157874,42329740,-80913320,-9687326,200,-174375,-17646480
11.280,49632140,-14912080,-27227760,-102112700,14203130,-105703100,31601560
11.290,-17427350,-15924580,-28235070,-33292370,11578130,-903125,634375
11.300,5821201,3831601,-8466810,-10699820,80703130,-57539060,95390620
11.310,6195813,58963840,-63830370,-10877630,2703125,34765620,125625
11.320,6502239,-19362570,-31616100,-10985530,-39042970,84609380,155546900
11.330,-12524560,3454398,-8762875,-30582020,-96015620,16234380,1746875
11.340,-11307500,58088580,-63583500,-30400760,-11078130,191875,165
11.350,-10073170,-22261090,-34362700,-30616550,-940625,20265620,119921900
11.360,-8830204,3103089,-8912203,-31324350,-43515620,204375,38183590
11.370,10377860,-23652510,-35578040,-14360520,16435550,1703125,-72382820
11.380,-6085329,-2407459,-3593280,-33119740,43398440,144296900,-11375
11.390,12746390,-24294710,-36109740,-16566780,67734380,115703100,-12140630
11.400,-2675823,28700320,-89260140,-34146900,75898440,81640620,-9984375
11.410,-889064,-24357720,-36150320,-34345440,59648440,66953120,-67929690
11.420,828638,-24216160,-36015660,-34457650,38710940,46484380,-51171880
11.430,2460025,-23966710,-35781740,-34535330,15507810,24570310,-453125
11.440,4013725,29641170,-88733620,-34587120,-9711914,-86242670,-37363280
11.450,-12564270,-23226970,-35088620,-16576270,-30449220,-27128910,-26308590
11.460,6905337,-22791940,-34677750,-34647540,-36132810,-55742190,-22128910
11.470,8303668,56726500,-62390600,-34595750,-41015620,-73203130,-17226560
11.480,9632948,-27889700,-28009020,-34492170,-43085940,-84765620,-8149414
11.490,-9474130,32101200,-87361180,-14004030,-4515625,-89765620,-11450200
11.500,-8768922,32420570,-87110860,-13414480,-45859380,-928125,21142580
11.510,13344570,-21100130,-33055000,-34250480,-41445310,-9671875,75146480
11.520,23404780,3288669,-8661023,-25364180,-40664060,-96484380,15791020
11.530,1584774,-26655370,-26774690,-3416418,-4203125,-9640625,19755860
11.540,-5937730,-20703070,-32606150,-11066670,-4078125,-91796870,19453120
11.550,-52074890,-20741040,-32602700,-104676300,-41289060,-83203130,1578125
11.560,19818320,-2084462,-3265450,-34164170,-4203125,-73710940,13291020
11.570,-37107570,-21005180,-32752890,-92540180,-42109380,-63867190,14394530
11.580,22675410,3133299,-8541905,-34224590,-41679690,-50,15595700
11.590,24116890,30737390,-85237780,-34250480,-42851560,-35410160,17666020
11.600,-40600810,54805090,-60306910,-46579100,-43476560,-13896480,19345700
11.610,-5973124,29295910,-84935680,-67050840,-47773440,2796875,17060550
11.630,29166430,-27982680,-29107220,-34069220,-36503900,10671880,56689450
11.640,12326030,-23301200,-34461960,-51859100,-21308590,139375,-30493160
11.650,16434710,52493530,-58319910,-48717170,-1991272,159453100,-12509770
11.660,31686870,-23765590,-34774430,-34449010,409375,14875,-22519530
11.670,-8470266,25420280,-84046620,-15180530,84609380,116484400,-26132810
11.680,24833320,2521314,-8377041,-43132480,113359400,8421875,-17617190
11.690,34272920,-23769040,-34632870,-34383410,120625,590625,-20300290
11.700,23340050,-23692220,-34537060,-45782400,105859400,48671880,14169920
11.710,72652800,25126800,-83235240,3305934,85546870,47148440,25429690
11.720,43995640,25144070,-83217970,-25351230,628125,53789060,29492190
11.730,49709810,51302360,-57111480,-19498950,38769530,62695310,30019530
11.740,55380820,-23637840,-34487850,-13603520,9614258,70703130,29121090
11.750,29421060,2521311,-8335609,22541620,-13398440,7640625,24863280
11.790,71850060,-23303800,-34183160,3072876,-23027340,12744140,30839840
11.800,38350530,2575693,-8303673,-30599290,-12900390,-28710940,28203120
11.810,43594270,-23107860,-33982040,36680300,-45092770,-17363280,22421880
11.820,76623380,-23024990,-33892270,7276500,-38476560,-28359380,19375
11.830,3478142,-22961120,-33818040,-3477261,-69189460,-32871090,18486330
11.840,8175920,-22915370,-33760210,1198076,-11445310,-35839840,18212890
11.850,39956020,2586051,-8243251,-30046860,-16201170,-37246100,17421880
11.860,35634140,25817340,-82320280,-34593160,-20488280,-39550780,16708980
11.870,57731230,-22817830,-33616060,50682610,-22519530,-41875,14707030
11.880,4099179,25705130,-82087220,-2977064,-21933590,-45507810,11279300
11.890,4128529,-22785890,-33544410,-2977066,-19150390,-50039060,84472660
11.900,9446502,50874230,-56503800,2309838,-15302730,-55039060,61865230
11.910,41811830,-22781580,-33496940,-29848330,-10742190,-590625,53515620
11.920,6445012,2531670,-8161248,5725649,-6743164,-60859380,54296880
11.930,65586050,-22820420,-33492630,58364790,-5966797,-60351560,7290039
11.940,9941960,25083650,-81413950,2694810,-46044920,-59882810,10058590
11.950,10065400,2494554,-8134490,2795799,-47509770,-57226560,11708980
11.960,37097210,-2825956,-2826065,-35788650,-29736330,-53554690,13164060
11.970,10306220,50094790,-55764070,3003825,18737790,-51289060,18017580
11.980,71326980,2435856,-8129314,64017680,45947260,-44453120,21289060
11.990,43425950,24091000,-81353530,-29649800,38745120,-31289060,203125
12.000,106566700,-23584320,-34109790,33611740,37475580,-7109375,14238280
12.010,10749020,23435000,-81664270,3475977,-27490230,23027340,41333010
12.020,10783550,23089730,-81905970,3545030,-3701172,575,-14560550
12.030,10764560,-24427640,-34923750,3564017,-38848880,83203130,-34238280
12.040,42933950,-24625300,-35123150,-28726210,10078130,8796875,-43828120
12.050,73830170,-24778950,-35280250,66693500,15761720,8859375,-5140625
12.060,10486620,22416460,-82682810,3375849,17773440,93515620,-53046880
12.070,71561760,2244233,-8279505,64473430,19130860,95,-50117190
12.080,10179330,49704630,-55739900,3113447,18134770,90859380,-453125
12.090,99842580,-24884260,-35451150,29459900,146875,8671875,-40195310
12.100,41311200,-24870440,-35464960,-28726210,13398440,80859380,-37675780
12.110,9591515,-24873030,-35496900,2630933,13095700,73554690,-36035160
12.120,93765870,2308109,-8350286,24660690,80908200,64179690,-33828120
12.130,39973280,23236470,-83727250,-28544950,57666020,5390625,-32246090
12.140,39420860,2342638,-8396894,-28458630,113708500,4296875,-30351560
12.150,8589378,-24895480,-35681620,1872209,-31567380,28945310,-27226560
12.160,33711860,23875210,-84486830,-32717500,-8574219,16152340,-25722660
12.170,37521890,24108270,-84771670,-28096100,-11474610,40185550,-24414060
12.180,36891780,-24871300,-35809360,-27914840,-15302730,-46435550,-23554690
12.190,74802090,2459164,-8530687,10824120,-19160160,-12626950,-23417970
12.200,35700600,-24856630,-35893090,-27465990,-22695310,-2078125,-22949220
12.210,70891940,2503185,-8579887,8519464,-23691410,-26933590,-24023440
12.220,34664800,25256280,-86006010,-26965350,-25351560,-35097660,-24550780
12.230,68086650,-24781540,-35950920,7181552,-24863280,-42578120,-24257810
12.240,66955900,25696500,-86394430,6758605,-25019530,-48242190,-22929690
12.250,33387320,55940760,-56547220,-26136710,-25078120,-53984380,-20878910
12.260,33007520,-24635660,-35924160,-25877760,-23144530,-59140620,-18134770
12.270,64185130,-24564880,-35891370,5904068,-21289060,-6453125,-1625
12.280,63296060,-24486340,-35849070,5584694,-19130860,-69296870,-13603520
12.290,62510580,-24400020,-35797280,5334374,-16738280,-7390625,-10195310
12.300,31704140,54137860,-60145510,-25005960,-14863280,-76875,-6425781
12.310,2847933,-24242060,-35696290,-2781645,-12050780,-7828125,-35546880
12.320,28017030,-24160920,-35639320,-27950740,-10507810,-79648440,25830080
12.330,36448970,-24091010,-35588400,30878090,-77978510,-78242190,128125
12.340,62372480,-24041800,-35551280,6853553,-2960205,-77773440,20371090
12.350,31289820,27802630,-87361180,-24091000,11230470,-73320310,265625
12.360,65609350,27768100,-87395700,10349380,22324220,-63007810,33027340
12.370,43149740,-29307130,-30458590,37642730,30839840,-39804690,33164060
12.380,70641620,-29393440,-30544910,15847750,30527340,-7651367,26777340
12.390,31868140,54578080,-60585720,-22632250,27324220,23496090,19912110
12.400,7635577,54603970,-60611620,2204532,24140620,45039060,13388670
12.410,32377410,-24198030,-35723050,-21898560,17763670,61484380,9404297
12.420,8288996,-24050440,-35577170,2845862,9223633,75,10498050
12.430,8599736,-23843270,-35370010,3122076,10117190,76445310,18457030
12.440,33741210,54679930,-60552920,-21484240,22207030,69609380,26992190
12.450,34224590,2846728,-8673108,-21466970,31699220,60703120,36972660
12.460,34707960,28674420,-86489380,-21380660,29960940,54960940,44140620
12.470,35122280,28864320,-86299480,-21242550,23105470,54101560,45117190
12.480,35476180,-22777260,-34295370,-21061290,13496090,54023440,40859380
12.490,10289820,-22592540,-34117560,4625714,46661380,52851560,3546875
12.500,36054500,2947718,-8582475,-20724650,-11572270,51953120,29140620
12.510,29266550,29744760,-85643480,-27702500,-16181640,45273440,21953120
12.520,36520610,-21925320,-33472770,-20690130,-18466800,36601560,17216800
12.530,36710510,30366230,-85211890,-20810970,-19316410,259375,17558590
12.540,36883140,-21363390,-32929840,-21000860,-1546875,12841800,19189450
12.550,107947700,55189200,-60561560,49666660,-9916992,22460940,17265620
12.560,37142090,-20776440,-32360150,-21553290,-47192380,-10605470,16279300
12.570,37262940,31695510,-84227880,-21846770,-6591797,-23359380,16289060
12.580,105893400,-20154960,-31755940,46369350,21130370,-35410160,16923830
12.590,37470100,-19847670,-31459000,-22433720,17504880,-45429690,17177730
12.600,37521880,32739940,-83476920,-22709930,51971440,-540625,15712890
12.610,103105400,33059310,-83278400,42597320,13378910,-61367190,13632810
12.620,10182790,-19044930,-30690780,4111266,31176760,-65195310,10673830
12.630,37418300,55841760,-60772170,-23434990,67626950,-69765620,93066410
12.640,37288830,55947930,-60838630,-23633520,10429690,-7390625,93603520
12.650,37176620,3419008,-8275189,-23797520,11513670,-77695310,12744140
12.660,37047140,34397220,-82682810,-23927000,13564450,-77695310,13632810
12.670,6743667,-18177440,-29900980,6134790,14248050,-75429690,12773440
12.680,36727770,34707970,-82665540,-24021950,15302730,-71601560,10888670
12.690,36563770,-18077310,-29828480,-23961530,14052730,-62617190,8901367
12.700,36399770,3483745,-8281231,-23832050,7504883,-49375,5488281
12.710,36209870,-18176580,-29953640,-23659420,-16149900,-33886720,-14831540
12.720,92220800,34768380,-83123020,32765840,-14140630,-12265630,-13076170
12.730,91495740,34707960,-83304290,32455090,-28007810,11044920,-25214840
12.740,6395984,-18468330,-30283370,5809203,-375,28554690,-33769530
12.750,88655930,56710960,-61594770,30288550,-33339840,34804690,-34824220
12.760,8653253,-18521850,-30367960,2844136,-24746090,33496090,-31953120
12.770,34423120,-18539970,-30401620,-23391840,-16308590,40625,-29257810
12.780,33991530,34863340,-83908510,-23495420,-20300290,44882810,-30058590
12.790,29068030,3486335,-8406389,-28073660,3605957,57382810,-35703120
12.800,7542356,-18714330,-30624320,1866167,32641600,6875,-39941410
12.810,32584570,-18755760,-30686470,-23728470,29077150,74960940,-434375
12.820,32058040,3500145,-8454726,-23737100,-22570800,80546870,-45390620
12.830,31462450,57429120,-62395790,-23711210,-48950200,85078130,-45898440
12.850,59299600,-18957750,-31002390,5610589,6347656,88125,-43789060
12.860,55121870,35320820,-85488110,2365081,4477539,88359380,-440625
12.870,28294630,58091170,-63132070,-23391840,25708010,91484380,-45273440
12.880,45342180,-19260720,-31424480,-5118584,-11871340,93515620,-46875
12.890,40007810,-19411770,-31618690,-9106418,-87646480,98515620,-50546880
12.900,10941420,-19569730,-31823260,10465130,-22285160,105703100,-55976560
12.910,77391590,-1972771,-3202786,31367500,-40507810,109375,-59023440
12.920,22163550,-19894280,-32241030,-22168730,-61054690,108984400,-59570310
12.930,-4693905,3570924,-8822435,-8944141,-79335940,1109375,-60273440
12.940,-12212960,-20227460,-32667440,-16271570,-98359380,114296900,-60898440
12.950,17047560,-20378520,-32861650,-21553290,-109140600,11453130,-58710940
12.960,-13232360,3588189,-8938099,-49778860,-1221875,119921900,-57578120
12.970,13111510,36045870,-89648570,-21380660,-139296900,13046880,-58203120
12.980,11031280,-20399240,-33013570,-21458340,-145234400,13296880,-59609380
12.990,8856097,-20132520,-32796910,-21579190,-146171900,130546900,-52460940
13.000,-61474780,37547790,-89665830,-89752140,-146640600,12234380,-35175780
13.010,4134567,38410950,-89424140,-21794980,-138984400,10328130,-10410160
13.020,10678240,-18401870,-31247530,-12713590,-12453130,75429690,20527340
13.030,-1234330,-17587040,-30491390,-21950350,-1075,40351560,52695310
13.040,-4074151,-16690210,-29644620,-21993510,-91796870,14638670,8765625
13.050,61388470,6496582,-6501001,-90529000,-7703125,-26542970,14796880
13.060,-10030010,44315020,-85971480,-22580460,-45742190,-104921900,19890620
13.070,3079781,4559251,-8472852,-6708537,140625,-20359380,220625
13.080,32535360,63173500,-66888570,-36518020,40195310,-26046880,2128125
13.090,-664640,-11453370,-24402610,-42441940,65195310,-25765620,16171880
13.100,-13681200,-10924250,-23809610,-32325620,8125,-26046880,11484380
13.110,-8907889,-10480580,-23286530,-39981920,10703130,-2928125,89296870
13.120,-44824290,-10322620,-23030170,-6844918,13546880,-30046880,28300780
13.130,-42614580,-10481440,-23078500,-11540550,145625,-260625,-39042970
13.140,17035470,-10875050,-23358180,-22670230,1525,-216875,-11265630
13.150,-20897280,-11424880,-23809610,-36952200,1659375,-1965625,-18234380
13.160,12692880,4328785,-7979983,-18553790,15890630,-18578120,-195
13.170,-5645116,-18359830,-19585010,-53119320,141328100,-170,-18265620
13.180,31040790,41345720,-80792470,-31625160,116796900,-16125,-143984400
13.190,8355458,40551610,-81413950,-66049560,100703100,-158046900,-79257810
13.200,1305106,39679810,-82061330,-6998561,875,-14359380,-27695310
13.210,42421220,38704430,-82743230,-48038720,78671870,-1259375,-4482422
13.220,2134612,-16835220,-28947180,-7670970,6875,-1165625,16279300
13.230,-21907190,-17793330,-29870770,-32472360,6046875,-103046900,40742190
13.240,30038230,-18820500,-30863420,-83209340,53398440,-73671870,59921880
13.250,-19861480,3407787,-8595420,-31928560,41054690,-42539060,828125
13.260,-18756630,-21126020,-33080890,-31583300,18759770,29907230,100546900
13.270,-17669040,-22349130,-34240120,-31341610,-72509770,42148440,99609380
13.280,49545820,29606650,-88526450,-97365300,-25722660,68828130,83203130
13.290,-15338490,28061580,-89208350,-31376140,-37011720,89140620,68320310
13.300,6610997,-25794900,-37423490,-11187510,-32832030,103984400,428125
13.310,-12550460,2503187,-9016646,-32420570,-27753910,115234400,9042969
13.320,-11057180,23659420,-90451320,-33171530,-29707030,13765630,-27675780
13.330,-9503475,-28399940,-39703980,-34121010,-17832030,141796900,-58789060
13.340,-7803034,2148425,-9057216,-35182700,10791020,1015625,-77617180
13.350,12931110,-29344240,-40468740,-17141640,25078120,69765620,-759375
13.360,14235350,20154960,-90468580,-18340580,28222660,54960940,-609375
13.370,15406670,19766530,-90390900,-19396240,28027340,41796880,-38964840
13.380,16417440,51390400,-58473550,-20284430,15371090,403125,-13505860
13.390,414318,-30001970,-40967650,-37875790,-22680660,49296880,97998050
13.400,19628000,1920548,-9027869,-19991390,-14248050,55625,24140620
13.410,-17465240,1907601,-9025278,-17872830,-1953125,578125,25117190
13.420,-15140820,18955160,-90218260,-19316820,-19580080,52304690,21972660
13.430,4514364,-35112360,-36202540,-38212420,-14462890,41757810,15078130
13.440,5308480,1878254,-9008016,-38316000,-88916020,29902340,7504883
13.450,-13960010,18773890,-89985200,-18408770,-45507810,22871090,9490967
13.460,6801756,18860210,-89898890,-38480000,40008540,21054690,-93933100
13.470,7561348,1899834,-8981257,-38480000,4025879,17070310,16955570
13.480,8381356,1918823,-8972626,-38402320,54248050,18417970,7290039
13.490,22294750,19395370,-89657200,-25196720,66259770,24824220,9511719
13.500,10116320,19628430,-89596780,-38065680,76171870,3421875,94970700
13.510,-10980350,1987013,-8952772,-15864150,6894531,43671880,80126950
13.520,23467800,51328250,-58259480,-26043490,56396480,51445310,70654300
13.530,12748980,-28942870,-39920630,-37470100,8959961,5578125,56152340
13.540,-9327392,20854120,-89147940,-14426980,19394530,48398440,4326172
13.550,14509850,-2829806,-3932246,-37280200,2828125,37128900,8461914
13.560,15424800,-27903610,-38957340,-37159360,34667970,24941410,18945310
13.570,-7648529,-27508280,-38593080,-12981180,35742190,14472660,31542970
13.580,17237450,-27129350,-38246950,-36745040,33652340,82666020,39960940
13.590,18091990,-26777180,-37925850,-36442930,28105470,62597660,4515625
13.600,18903360,-26441410,-37622880,-36097660,209375,5942383,47617190
13.610,19671580,-26132390,-37344940,-35709240,12421880,71484380,47890620
13.620,20396640,-25850140,-37092030,-35329440,24304200,7011719,46875
13.630,-4137163,-25578240,-36846030,-9742572,-42578120,66015620,4359375
13.640,-3627896,25480700,-87421600,-9267828,-8510742,3852539,38417970
13.650,27790540,53464590,-59610340,-28988610,-75146480,-26342770,33066410
13.660,23029310,-24826420,-36147720,-34146900,-5083008,-87890620,28183590
13.670,-48563520,2643022,-8690368,-54326030,-40576170,-14179690,24042970
13.680,2430679,-2430593,-3564968,-3378438,-18237300,-20175780,20078120
13.690,-14043740,27060310,-86480740,-72618270,19195560,-24960940,1734375
13.700,-36320360,-23752640,-35115380,-42227880,385437,-29648440,15898440
13.710,-5265328,27699040,-86014630,-64823870,-24230960,-35117190,18183590
13.720,-966746,2799255,-8579021,-61008670,-61816410,-39160160,19931640
13.730,3228244,-22966290,-34348020,-57262530,-9790039,-421875,22167970
13.740,7233342,-22748780,-34133960,-53671750,-13779300,-4140625,21953120
13.750,10979490,5410249,-5974932,-50339930,-18427730,-39570310,20214840
13.760,1438900,2889885,-8495294,-4736200,-22675780,-371875,19619140
13.770,-10354560,-22129020,-33510750,-16576270,-2625,-37226560,20683590
13.780,-7565663,5410334,-5962760,-13840890,-29140620,-39082030,22109380
13.790,-4775045,54051540,-59541290,-11107240,-31054690,-39941410,25761720
13.800,-50318340,2939087,-8399480,-56714420,-34609380,-33164060,24082030
13.810,29304530,29399480,-83727240,-35346700,-35644530,-22617190,20507810
13.820,22356030,-21393600,-32675210,-43072060,-34941410,-16503910,190625
13.830,3316287,53525870,-58910310,-3307655,-33007810,-10625,16005860
13.840,35156810,-21242550,-32446470,-31876780,-3328125,5732422,8520508
13.850,55458510,-21210610,-32374820,-12300140,-315625,18085940,9857178
13.860,56641040,-21193350,-32323030,-11756340,-19648440,25917970,-8232422
13.870,57780420,28752110,-82216700,-11169390,-95410160,36152340,-1828125
13.880,29366680,28631270,-82061340,22423360,-5625,50742190,-28261720
13.890,30249700,-21193350,-32236720,23266680,-3955078,68125,-409375
13.900,56658310,-21184720,-32210820,-13499940,-9564209,8453125,-55742190
13.910,44712070,2844138,-8169882,-25722390,8876953,89453130,-66953120
13.920,35311660,5505882,-5506412,-35312700,19892580,85859380,-73242190
13.930,-18042790,-20850670,-31871590,-25115590,28574220,79570310,-7390625
13.940,-37116200,29036960,-81362160,-37116200,30351560,72851560,-67734380
13.950,35231040,2941676,-8129313,-35341530,28378910,63984380,-5921875
13.960,27647260,2983109,-8124134,-42666370,24726560,53710940,-528125
13.970,25636070,-19913270,-31065400,-44280490,17734380,4234375,-48164060
13.980,33577210,3072878,-8132766,-35769660,90234380,34726560,-43945310
13.990,21803610,-19512760,-30775370,-46835460,-9986877,28789060,-40820310
14.000,-10679110,-19353080,-30676110,-17460150,-8491211,21972660,-37675780
14.010,17746720,32006250,-81828270,-49166010,-16318360,15527340,-34589840
14.020,-14052370,3239469,-8206133,-20646970,-2109375,8959961,-328125
14.030,13560360,3276586,-8231166,-51367100,-2515625,18811040,-30898440
14.040,-17264220,33111100,-82587860,-23649920,-29121090,-5957031,-2828125
14.050,29200950,-18915450,-30544040,-33585850,-32167970,-12226560,-25859380
14.060,7466396,-18896460,-30580300,-54250080,-37207030,-18271480,-22226560
14.070,27863040,-24177490,-25351060,-32800360,-41445310,-24472660,-18955080
14.080,3754776,-18916310,-30698550,-55890090,-43359380,-3046875,-17460940
14.090,26620080,3425913,-8397757,-32075300,-42617190,-35566410,-16171880
14.100,431584,5681630,-6180020,-57400640,-41445310,-41054690,-14560550
14.110,-26668420,-19033700,-30926420,-32372240,-41328120,-46953120,-10498050
14.120,25118170,57086440,-62099720,-31212130,-42070310,-51992190,-60498050
14.130,-3547620,57161540,-62197260,-59290960,-39960940,-56054690,-3491211
14.140,-4566160,34423120,-85039260,-59826130,-36269530,-56953120,-3137207
14.170,-6844918,33957010,-85453570,-61345310,-23457030,-60585940,-12670900
14.180,-7492300,33715320,-85574420,-61906360,-19023440,-62695310,12367250
14.190,-32495670,33439110,-85678000,-37938800,-14023440,-628125,10748290
14.200,23702580,-20391460,-32279010,-30815080,-7402344,-60742190,18151860
14.220,23866580,-20867930,-32700240,-30996340,98876950,-5078125,43798830
14.230,-32288510,-21100120,-32899620,-37800690,21074220,-45664060,78564460
14.240,-31238030,31609200,-86057790,-36779560,38808590,-35800780,10068360
14.250,-4531632,-26870570,-28044140,-60205930,54453120,-19707030,10097660
14.260,-238238,30849600,-86230430,-5821200,64023440,52246100,72802740
14.280,-21288300,30357600,-86428960,-26876440,71835940,53515620,9873047
14.290,7897982,5556470,-6118735,-47948950,7375,68632820,13779300
14.300,12300130,-22283530,-33960460,-43546800,69453130,77421870,18544920
14.310,16641870,-22229150,-33911260,-39256860,65195310,7640625,22128910
14.320,20914540,30495710,-86411700,-35070490,6375,67070310,23378910
14.330,-448848,-21952070,-33653170,-56520210,59375,56328120,27675780
14.340,43607220,58298330,-58850760,-12533190,49296880,4546875,34804690
14.350,8937234,-21566240,-33296680,3319741,36210940,38105470,41015620
14.360,38885690,-21377200,-33123190,-17306510,2140625,32675780,44101560
14.370,43460480,-21207160,-32965230,-12731720,6064453,29667970,43828120
14.380,19875030,-21045750,-32815900,19312760,-9003906,25351560,41914060
14.390,51703730,32127090,-85660740,-4574786,-24316410,22617190,37265620
14.400,29750790,-26004910,-27183480,24110850,-37285160,19267580,31699220
14.410,57884000,56311320,-61597360,1329281,-45390620,13339840,24550780
14.420,34171070,-20351770,-32146090,28494880,-49023440,6069336,16855470
14.430,60956880,32895310,-85065150,3953311,-47773440,-15576170,9111328
14.450,61397100,-19848540,-31648040,3858354,-35546880,-23730470,-14465330
14.460,61000040,-19674170,-31477130,3219610,-26757810,-34667970,-18518070
14.470,60413090,58786540,-59294770,2425503,-23925780,-4390625,16003420
14.480,32144360,56542650,-61590450,-26050390,-20664060,-52109380,79785150
14.500,57512840,-19016440,-30840110,-1061696,-63720700,-67421870,13251950
14.510,56459780,34371330,-83934400,-2252864,-8050537,-76796870,17607420
14.520,55570710,34518060,-83839460,-3262770,3161621,-84140620,209375
14.530,29695550,-18662540,-30503480,-29189740,82470700,-9125,23691410
14.550,27105180,34647540,-83830820,21232190,21152340,-100,28007810
14.560,53240170,34587120,-83943040,-5248058,28925780,-99921870,28261720
14.570,53421430,3444902,-8411569,-4738788,32246090,-9578125,29902340
14.580,31376130,34259120,-84340100,-26335240,31542970,-79882820,25898440
14.590,55044180,34008800,-84642210,-2045707,20019530,-43007810,12978520
14.610,56805050,3358585,-8534139,1372438,-55273440,87734380,-28710940
14.620,55717460,-25446350,-26637180,906326,-7375,137890600,-38398440
14.630,29762010,57013940,-62224020,-24755640,-33808590,142734400,-43359380
14.640,48078420,-19948660,-31893180,-6301124,15947270,14125,-44414060
14.650,16585150,34138270,-85565780,16042570,60273440,12125,-38125
14.660,39835170,34449020,-85548530,-14112790,8484375,12484380,-42265620
14.670,13113240,34802910,-85591690,7775414,8734375,15046880,-43164060
14.680,11084800,3526902,-8567800,5833286,73359380,159921900,-45078120
14.690,32161620,-18943930,-31102510,-19214110,43554690,169375,-47421880
14.700,29416750,-1874540,-3097305,-20612440,81396480,17265620,-49804690
14.710,42381520,-24114740,-25344750,-6128492,-225,17578120,-55859380
14.720,7889352,3723706,-8648938,-38963380,-50390620,1809375,-66015620
14.730,-39628020,37703150,-86765590,-84668100,-79335940,189375,-76015620
14.740,-10013610,38212420,-87015910,-14327710,-98125,18640620,-8046875
14.750,18618520,-17956470,-30553540,-22502780,-10484380,1709375,-83125
14.760,16710920,-17755360,-30426650,-22269720,-106328100,146484400,-859375
14.770,-34852980,-17545600,-30291130,-38516260,-111015600,1253125,-92578130
14.780,12420980,6173806,-6647685,-21639610,-128984400,117421900,-103125
14.790,15088170,4112131,-8787046,-16210290,-14890630,106875,-101171900
14.800,7475030,4199311,-8781003,-20819600,-16828120,80703130,-85859380
14.810,4712892,63085460,-67546310,-20370750,-185,5375,-56054690
14.820,-8024869,4416829,-8725760,-10187970,-18765620,23007810,-22636720
14.830,-9543183,45437140,-86713800,-11345470,-18515620,-13203130,18037110
14.840,-4678372,46792300,-85997370,-18886100,-19140620,-45273440,8546875
14.850,-8053355,48147480,-85108300,-18376830,-18859380,-76132820,1628125
14.860,30805580,49416340,-84063880,-33759340,-15203130,-118828100,2228125
14.870,-2900246,50452130,-82907230,-30003700,-10859380,-15046880,25234380
14.880,-58868020,-8458178,-21752680,22269720,-38125,-19078120,24546880
14.900,-25610180,-6430596,-19568000,-18480410,111171900,-2621875,158984400
14.910,-72393860,52963960,-77374330,24971440,155078100,-27875,100625
14.920,-61719920,-5106502,-18043650,56706640,16953120,-27109380,50820310
14.930,-32903950,53162490,-75328620,-19507580,176875,-26546880,25351560
14.940,-34535330,5288628,-7463808,-20085910,17640620,-2565625,-5463867
14.950,-101448100,52325210,-74059770,44254600,1959375,-25359380,-87421870
14.960,-97598340,51522460,-73809450,38091580,21671880,-253125,-181875
14.970,-36503350,-5412922,-17875330,-24401740,196875,-22046880,-18921880
14.980,-8289864,49830660,-74396400,2137205,16484380,-16859380,-147578100
14.990,-34915130,48967490,-75104200,-26594190,147734400,-1425,-10984380
15.000,-59946980,-7790086,-20193800,-1078960,146484400,-13640630,-54609380
15.010,-4698221,-8840561,-21232190,-1349131,147109400,-11734380,-28222660
15.020,-75630730,-16131980,-16133220,15865010,150234400,-105546900,-27285160
15.030,-22856680,-11079610,-23447080,-35804180,140234400,-91484380,-12626950
15.040,-11730440,-12262150,-24629620,-45393980,113984400,-62695310,15126950
15.050,24166100,4219164,-8150028,-29695550,86171870,-36035160,46015620
15.060,34367010,-14732540,-27096550,-39692760,48476560,-44213870,79335940
15.070,-20871390,-21600420,-22835440,-30262650,-5419922,575,111953100
15.080,-18877470,-17293560,-29610960,-30357600,-48203120,123515600,11953130
15.090,-16874930,36805460,-85919680,-30702870,-65976560,178125,88515620
15.100,-14777430,35571130,-86636110,-31229400,-803125,23109380,65703120
15.110,-12645410,-20211930,-32372230,-32049410,-70976560,258125,29414060
15.120,-10496120,3363765,-8736116,-33024790,-23105470,230625,-33535160
15.130,-8381356,-21242550,-33292370,-33862060,12958980,19953120,-69414060
15.140,11991120,-21491140,-33509890,-16079080,28945310,17109380,-79335940
15.150,-4617950,32498260,-87602860,-34828800,36386720,13890630,-78359380
15.160,-3029722,32679520,-87542450,-34966910,34296880,101640600,-68359380
15.170,-1579599,-26561130,-27766630,-34915120,25546880,6125,-50351560
15.180,-250322,33646260,-87335280,-34707960,10595700,26523440,-28457030
15.190,-14957830,-20454480,-32595790,-18498540,-6816406,-3166504,-14228520
15.200,16498580,-20149780,-32330800,-19702660,-25410160,-27070310,-8935547
15.210,3098770,58507220,-63700030,-33758480,-41523440,-4796875,-8408203
15.220,4091411,-19593040,-31851740,-33335530,-53945310,-63554690,-11660160
15.230,-11984220,58933620,-64033220,-15775250,-5921875,-75820310,-18320310
15.240,6111226,3637389,-8697276,-32247930,-64375,-80859380,-19287110
15.250,7147025,-18924950,-31294140,-31660980,-72070310,-8859375,-10732420
15.260,8156931,-24316980,-25556830,-31117190,-72539060,-100234400,-34375
15.270,9123676,37271570,-86903700,-30633810,-71171870,-102109400,-19470220
15.280,19145920,3739242,-8688645,-21164000,-71054690,-99453130,-36621100
15.290,19543830,-18515800,-30943690,-21439350,-690625,-9390625,15649410
15.300,-6797446,-18531340,-30945420,-10983810,-64609380,-88828130,37158200
15.310,20638330,-18585720,-30977350,-22295620,-59609380,-84609380,79248050
15.320,14449420,-18690160,-31045540,-29779280,-56914060,-80625,11835940
15.330,-47336100,36546510,-86523900,-93014920,-55351560,-75742190,16728520
15.340,17306510,-19038020,-31284640,-29995070,-53398440,-6828125,21855470
15.350,-32204780,5832081,-6340309,-81215420,-49570310,-56328120,24570310
15.360,20370750,34716600,-86144110,-30383490,-43242190,-41796880,23222660
15.370,-17341030,-20072090,-32063220,-69838880,-38144530,-23144530,19013670
15.380,-37190180,-20503680,-32391220,-37732760,-40898440,1763916,14384770
15.390,-3841096,-20938710,-32715770,-59860660,-43671880,30664060,1078125
15.400,-24040940,31125820,-85505360,-29820710,-35800780,54882810,3359375
15.410,-19634470,3021088,-8522915,-25595510,-21582030,77851560,-7011719
15.420,11790870,54364880,-59918490,-49597600,-27929690,91953130,-18447270
15.430,16193020,2861402,-8454725,-46921780,29335940,95234380,-35078120
15.440,-8586791,-22490690,-33701510,-15064000,58710940,96484380,-46679690
15.450,-4710306,-22571830,-33689420,-11344610,77226560,86328130,-46835940
15.460,-3262776,52390820,-58008300,-70969630,796875,7453125,-36425780
15.470,12071400,-22528670,-33508160,5191951,74296870,66445310,-23789060
15.480,40681080,51878950,-57467100,-28942000,67578130,64765620,-165625
15.490,36218500,51740850,-57311730,-33991530,52304690,659375,-5732422
15.500,19843350,26689140,-82190800,12784370,35585940,68476560,55810550
15.510,56571990,26715030,-82044060,-14276790,23261720,68671870,12890630
15.520,29271730,26749560,-81957750,22173040,13359380,65351560,19052730
15.530,65384930,51571670,-57083860,-5653744,11201170,5484375,26640620
15.540,69441820,2678409,-8185421,-1596860,14130860,3765625,34980470
15.550,38334130,-22112620,-32974720,37624610,14248050,22421880,41210940
15.560,45664140,26715030,-81888700,38581000,11630860,15517580,44726560
15.570,39956020,-22244690,-33101610,-30685600,68310540,1265625,45078120
15.580,40292660,2645610,-8204409,-30159070,11315920,14755860,42109380
15.590,40655180,26248920,-82113120,-29658430,-6850586,16484380,36601560
15.600,94318300,2599860,-8217359,24108260,-13251950,20507810,26972660
15.610,9828023,53691520,-54256200,2808749,-16962890,23535160,15556640
15.620,41785940,-22978380,-33748980,-28441370,-17626950,24023440,5698242
15.630,42139830,-23086280,-33830980,-28208310,-15449220,21542970,-25805660
15.640,42476470,25092280,-82113120,-28044310,-12255860,15869140,-73876950
15.650,42778580,-23177770,-33877600,-27966630,-5527344,8046875,-94970700
15.660,79162810,-27967750,-29035830,72064120,45135500,19317630,-11220700
15.670,11244480,24885120,-81785120,4119900,46484380,-93603520,-10986330
15.680,43529530,24919640,-81647010,-27975260,85058590,-17929690,-11015630
15.690,82135560,50422790,-56074810,74960920,87158200,-24589840,-10244140
15.700,43900690,-22798840,-33445150,-28070200,62402340,-30253910,-69140620
15.710,8336557,-22660730,-33307040,7614776,26391600,-33242190,-3178711
15.720,11627730,-22513130,-33161170,4392658,1626587,-35683590,-54260260
15.730,11661390,50478030,-56019570,4410789,-17102050,-37675780,25708010
15.740,11651030,-22260230,-32913440,4386616,-124694800,-39609380,52197260
15.750,11613050,-22135930,-32796050,4338279,-826416,-41367190,8046875
15.760,115396800,25989970,-80697530,42562800,88012700,-43007810,11025390
15.780,11393810,-21779440,-32462000,4091413,45825200,-4421875,21875
15.790,44237330,-21681900,-32369650,-28890210,6074219,-42460940,26796880
15.800,112660600,26516500,-80395420,39429490,79833980,-38378900,29199220
15.810,11202190,-21532580,-32225490,3868715,5214844,-31113280,31503910
15.820,11121050,26611450,-80300460,3777222,16796880,-22148440,32324220
15.830,77217230,2661143,-8028324,69866500,-11828610,-10273440,31523440
15.840,44012910,2657694,-8030049,-29528960,-60498050,546875,30078120
15.850,43874800,50737850,-56122280,-29649800,-95996100,25644530,25117190
15.860,43693530,26395660,-80447200,-29779270,-95214850,42265620,209375
15.870,104434600,-21831230,-32513800,31082660,-7758789,55351560,13066410
15.880,43123840,-22029760,-32712320,-30003700,-19824220,68789060,2607422
15.890,42718160,-22242100,-32931570,-30064120,-29248050,84140620,-12792970
15.900,9678693,25722390,-81293100,2440176,-9967041,9125,-26621090
15.910,9379175,50806040,-56399360,2187269,123413100,9015625,-39238280
15.920,9060665,25575650,-81854170,1918823,29556270,89609380,-49765620
15.930,8723168,51007160,-56664360,1634842,2633667,8390625,-55976560
15.940,83753140,51139220,-56825770,13439510,2607422,74960940,-5890625
15.950,7997243,25584280,-82725970,1031486,65722660,65351560,-59882810
15.970,37884420,25782810,-83390610,-30184960,6113281,47421880,-55390620
15.980,68777180,51964400,-57744180,1657286,-17626950,36464840,-5015625
16.000,32336840,26343870,-84521360,25840640,-20527340,16005860,-39746100
16.010,29429690,26525130,-84927050,23050890,-30429690,59521480,-34589840
16.020,54681660,-23719840,-34923760,-7897984,-40039060,-16186520,-31074220
16.030,51142670,2684451,-8574707,-10228530,-47695310,-8671875,-2953125
16.040,47448310,-23925270,-35236220,-12748990,-528125,-16582030,-28613280
16.050,43684900,-24031440,-35389000,-15373010,-54179690,-25273440,-27363280
16.060,39878340,-24121210,-35523660,-18126520,-53359380,-34960940,-25625
16.070,36278920,27284720,-87136750,-20741910,-52421880,-4484375,-19892580
16.080,51143530,27362410,-87404340,45531220,-50898440,-53945310,-1203125
16.090,47508730,27396940,-87663290,-7803032,-48515620,-61171880,-49291990
16.100,27284030,27388300,-87896340,-27285410,-44179690,-66835940,3326416
16.110,-31831030,-24620120,-36164120,-37222370,-378125,-71210940,50390620
16.120,-3462166,-24770320,-36324680,-8794814,-2953125,-7421875,80126950
16.130,17781250,-24931720,-36491260,-35044600,-20625,-77109380,99658200
16.140,-8083564,-25104360,-36663900,-13322990,-11494140,-77773440,12529300
16.150,13586250,-25295980,-36852070,-38445480,47821040,-77226560,15195310
16.160,24479430,-25498820,-37046280,-27241570,146875,-7703125,16679690
16.170,-12187060,2622303,-8914793,-17333270,2984375,-746875,17705080
16.180,-12629870,-25888980,-37415720,-17753630,51601560,-72148440,18271480
16.190,10832750,25739660,-89424140,-40180440,75859380,-67773440,21035160
16.200,-10581570,25497970,-89562260,-15658720,90625,-55625,25273440
16.210,14725630,-26473340,-37970740,-35786920,96171870,-34335940,271875
16.220,18204200,25092280,-89847100,-32014880,86015620,-4206543,23671880
16.230,-24261050,54221590,-60717780,-29255330,65078120,25351560,23789060
16.240,43883430,-26766820,-38264210,-5904068,47460940,43671880,27148440
16.250,31971720,-26739200,-38240040,-17815780,32949220,52890620,31953120
16.260,37495990,-26652880,-38153730,-12464140,20761720,634375,37617190
16.270,42864900,2520449,-8975217,-7475032,16337890,66054690,41953120
16.280,27664510,25316700,-89553620,-23176050,22890620,59492190,421875
16.290,52705000,2543754,-8934649,1329280,27871090,55703120,38984380
16.300,57538740,25558390,-89139300,5645117,24726560,5203125,40742190
16.310,6242425,-25895890,-37357020,1008178,17451170,49492190,39042970
16.320,43464800,2580869,-8873363,38190840,60253900,50742190,31210940
16.330,31065390,2596409,-8852647,-22071190,-6767578,50507810,21875
16.340,51273860,26171230,-88302030,45918780,-221875,48515620,11953130
16.350,78461920,-25073290,-36522340,24427630,-32265620,42929690,50683590
16.360,32619090,-24759950,-36214190,-21950350,-36015620,32539060,-118774400
16.370,32998890,-24402600,-35863740,-22140240,-36992190,20410160,-3972168
16.380,56994950,-24017640,-35489130,51418890,-334375,9111328,-49609380
16.390,33525420,-23614530,-35098110,-22856680,-27363280,-35546880,-42822260
16.400,3369804,-23201940,-34699330,-2328827,-21992190,-18212890,-8068848
16.410,33810260,2901107,-8611823,-23745730,-16074220,-31054690,48876950
16.420,77460650,-22401780,-33928520,19386740,-90478510,-43515620,8984375
16.430,33913850,-22013360,-33557360,-24626170,-51708980,-51992190,11113280
16.440,33913840,30409390,-85220520,-25023220,-42578120,-58476560,1390625
16.450,72100370,3087549,-8496160,12835300,-29541020,-67226560,18232420
16.460,70071940,-20894700,-32500850,10547910,-46173100,-70976560,20292970
16.480,33525420,-20304290,-31951870,-26292080,41723630,-79101560,253125
16.490,64107440,32429210,-84253780,4255421,9711914,-83515620,27441410
16.500,62363850,-25155290,-26324020,2546344,14980470,-8859375,31992190
16.510,60853300,32886680,-84141570,1122117,19677730,-92265620,3453125
16.520,32791730,-19717330,-31433970,-26766820,26757810,-92578130,34765620
16.540,32506890,-1983731,-3157296,-26447450,12617190,-54726560,25019530
16.550,60508030,32843520,-84581780,1985285,-62597660,-12861330,11005860
16.560,35443380,3265361,-8480621,29639440,-29199220,45859380,-10449220
16.570,62441530,-20399240,-32150400,4885533,-54296880,1125,-32148440
16.580,62432900,56161990,-61435940,5239425,-625,16203130,-4640625
16.590,60956880,32506890,-85211890,3953311,-43085940,17265620,-53359380
16.600,31453820,32679520,-85211890,-25428910,-13730470,16921880,-55585940
16.610,3114306,56426980,-61654330,-2561879,16162110,154375,-61835940
16.630,26188500,59100990,-59619060,20595180,43046880,1503125,-67578130
16.640,23731060,-19821780,-31743840,18218870,42070310,145234400,-7375
16.650,21083730,3425911,-8560032,15687200,26152340,142734400,-78554690
16.660,41854990,-19571460,-31631640,-10608330,-22290040,14015630,-81171870
16.670,37590940,58139500,-63256360,-13076980,-35722660,144453100,-83125
16.680,7792813,-19490320,-31712770,7744200,-59648440,148671900,-87109380
16.700,16072180,-1944542,-3184398,-27811250,-8015625,13703130,-909375
16.710,5921326,59879650,-65003410,-35269020,-865625,12125,-91875
16.720,-5023638,37357900,-88457400,-43313740,-1028125,108125,-85625
16.730,-16736820,6081535,-6589765,-51971310,-1240625,953125,-75078130
16.740,-29226850,-18833450,-31592790,-61233100,-149296900,92734380,-66875
16.750,-42536900,39282750,-89139300,-71228580,-1753125,871875,-56640620
16.760,5740063,-18071280,-30991160,-19533480,-2046875,78515620,-34980470
16.770,2718975,62571870,-67369350,-19101890,-24265620,67734380,-52856440
16.780,-448848,-16660860,-29725760,-18782520,-25234380,49179690,47539060
16.790,-3737519,43520900,-87801390,-18601260,-22875,17050780,110703100
16.800,-7112501,-14231900,-27424560,-18558100,-17125,-30390620,180
16.810,25584280,46921790,-85453580,-54862920,-915625,-86171870,23828120
16.820,7293762,-11008840,-24260190,-40525710,-16845700,-14140630,25921880
16.830,-17876200,64516590,-67737930,-19533480,5796875,-16890620,23171880
16.840,-26818620,51099520,-80516260,-14906900,125703100,-19390620,186875
16.870,-29969180,53205640,-75803370,-22148880,23734380,-21421880,-3015625
16.880,-31626460,53818490,-74551780,-22597720,246875,-24875,-52265620
16.890,-76286740,-3424187,-16186980,20042740,23765620,-2509375,-110625
16.900,-33542690,62558060,-64465660,-24289530,24140620,-2646875,-15140630
16.910,-4436598,53749430,-72929020,3849816,20765620,-2428125,-16234380
16.920,-63684490,-3412964,-16077360,4851005,1603125,-20453120,-112578100
16.930,-53628590,-3717662,-16394140,-4945948,13734380,-1965625,-74335940
16.940,-41742780,-4256279,-16943110,-16365660,119765600,-20140620,-38828120
16.950,-28735540,52066260,-74853880,-28734150,106328100,-17796880,-26835940
16.960,-17772620,-11699980,-12969350,-38833900,100390600,-13546880,-3328125
16.970,-7172922,-6968348,-19669000,-48259690,100390600,-104453100,-36738280
16.980,2373706,49260970,-77883590,-56321670,89765620,-9109375,-19970700
16.990,11342020,4832878,-7897120,-63580910,62617190,-67539060,20195310
17.000,20431170,47327470,-80058780,-70891940,29746090,-35390620,49570310
17.010,29891490,-11057170,-23797530,-78522350,-62646480,-69970700,74570310
17.020,-17073450,-12132680,-24862670,-29779280,-37890620,18388670,9421875
17.030,-15226280,-13171940,-25877760,-29969170,-51054690,38632810,84140620
17.040,-13301410,-1421722,-2688680,-30271280,-68789060,61171880,78476560
17.050,-11298860,-15244400,-27862180,-30754660,-80390620,78710940,7328125
17.060,-9184106,40232240,-85289580,-31419290,-6703125,7484375,53632810
17.070,10673930,-22854520,-24101790,-14582350,-63554690,825,42929690
17.080,-4583423,37513260,-86264960,-33067950,-54882810,85,30625
17.090,14128330,-19078590,-31347650,-17757080,-35253900,7546875,72314460
17.100,207162,3479429,-8672243,-35113650,-22617190,61328120,-73535150
17.110,-14835260,33525420,-86765590,-18707430,-21972660,47460940,-8618164
17.120,4911420,32299730,-86713800,-37107560,-29550780,33574220,-12249760
17.130,22539090,31151710,-86584330,-22570030,-3765625,25722660,-19445800
17.140,9115045,-22312880,-33965640,-38842540,-39863280,11904300,-10166020
17.150,11014010,29200950,-86204530,-39481280,-43632810,11682130,-17236330
17.160,12766240,-23110440,-34549140,-39956020,-4328125,-2680664,-23144530
17.170,-10228530,-28556080,-29690460,-15701020,-34667970,-10761720,-30175780
17.180,15890910,26879040,-85678000,-40594760,-25,-19833980,-35703120
17.190,17306500,26223030,-85522630,-40767400,-19628910,-25078120,-38027340
17.200,18644420,-24314560,-35416620,-40862350,-15791020,-25996090,-37929690
17.210,19913270,2515272,-8522916,-40870980,-12421880,-21308590,-3875
17.220,21113080,2474703,-8509968,-40793300,-62109380,-11455080,-40546880
17.230,-6055120,2442765,-8497020,-12347610,-39624020,98083500,-40585940
17.240,23409100,51470670,-57530100,-40482550,-39892580,10800780,-35605470
17.250,-45937770,-24856630,-35720460,-110813400,12870790,18212890,-2984375
17.260,-3827286,-29712640,-30795400,-10414980,46289060,24785160,-24785160
17.270,-3069424,2378890,-8414156,-9757245,86572260,3328125,-24804690
17.280,28242840,23771630,-83830820,-39653910,13212890,39570310,-24453120
17.290,-1569238,2387522,-8348556,-8460767,13535160,371875,-20527340
17.300,-8234616,2408241,-8310576,-78082130,13837890,28125,-13730470
17.310,31764560,-23845860,-34556050,-38928860,11777340,23925780,16906740
17.320,-24913610,24626170,-82406590,-32055450,12519530,22226560,14208980
17.330,14950060,24911010,-82104490,-57072630,10693360,23476560,2453125
17.340,34871960,25152700,-81862800,-37616830,8330078,25449220,340625
17.350,-2832917,-22832500,-33532330,-10114600,86279300,26171880,39101560
17.360,12282870,-22729790,-33427880,4980475,36450200,33535160,40234380
17.370,37401040,25411650,-81500270,-35726500,-80810540,48671880,37460940
17.380,19283160,2535122,-8147438,11963500,-21113280,62070310,32695310
17.390,38859790,25239020,-81448480,-34388580,-31464840,72695310,25136720
17.400,31892310,2508364,-8143123,24558840,-38730470,78945310,15830080
17.410,40033700,5032182,-5596866,-33439100,-38417970,79609380,6118164
17.420,73507340,-28294570,-28294690,-138108,-29960940,71953130,-18408200
17.430,43224830,-23045710,-33629870,35841300,-17099610,5875,-6113281
17.440,45652060,24462160,-81172270,38247820,-67871100,46015620,-6254883
