Timestamp,Rotation X,Rotation Y,Rotation Z,Rotation W,Acceleration X,Acceleration Y,Acceleration Z
0.000,30057130,15860700,25381440,30796170,16611330,-15844730,-21328120
0.010,-628385,15924580,25455670,6727528,15185550,-1541748,-19648440
0.020,26886800,15977230,25523860,34208190,14033200,-1381836,-18261720
0.030,26929960,16010890,25576510,34216820,12822270,-7696533,-16972660
0.050,26999880,16030740,25642980,34215960,11044920,39642340,-15361330
0.060,-5282588,-2735381,6904477,66498420,9741211,4232788,-14765630
0.070,-5092684,-2750054,6919150,66291260,86328130,9056091,-14697270
0.080,27032680,15986720,25687000,34131370,7597656,-10571290,-1390625
0.090,-32230670,-46600680,50764600,38341890,65185550,-18115230,-13203130
0.100,-4548890,-2808750,6965762,65592100,5859375,-22375490,-12099610
0.110,-4367626,15833940,25649880,65324510,50390620,-18151860,-10859380
0.120,-4194992,-28605370,69985620,65031030,46069340,-27923580,-95703130
0.130,-4039622,-28907480,70149620,64737560,4165039,32177730,-8623047
0.140,26837600,-2921824,7032224,33670440,39501950,65625,-80029300
0.150,-30933330,-2954624,7047764,36963420,36669920,9921875,-69628900
0.160,29683380,-4822432,5230017,30358550,37768560,12578130,-6542969
0.170,26507010,-30236760,70788350,33224180,35009770,14277340,-60595700
0.180,-375477,15087300,25239880,6312345,33740230,14833980,-5234375
0.190,-3832464,-49009780,53016600,62786800,21521000,13476560,-43359380
0.220,-30163380,-32239310,71306260,35920710,4180908,-27801510,-3326416
0.230,-4419416,-3268818,7135806,61509310,-29006960,-48486330,14672850
0.240,-4548894,-3314566,7140122,61207210,-8734131,-81640620,27001950
0.250,-4661098,-33603110,71444370,60905090,-20202640,-9892578,30078120
0.260,24655520,13436930,23990010,31191420,-2800293,-10214840,2849121
0.270,24485470,13215090,23814790,30998930,-33422850,-9946289,28955080
0.280,-488552,13001890,23648200,6000741,-3635254,-88134770,30078120
0.290,24146250,-35303550,71608370,30613100,-3461914,-85595700,32861330
0.300,-5023634,-3567474,7166880,59420450,-31835940,-84228510,34545900
0.310,-31839740,12471900,23245960,32379910,-25854490,-8378906,36938480
0.330,-5325742,12209500,23059520,58548650,-27783200,-72558590,49194340
0.340,23200220,12096430,22982690,29573840,-30615230,-6791992,51708980
0.350,-5662376,11993710,22912780,57970330,-3474121,-6538086,55371100
0.360,-2919143,-37392420,72126270,3437217,-36328120,-6245117,54541020
0.370,-6137118,11796910,22781580,57409260,-39575200,-63671880,54589840
0.380,22181680,-3785854,7228163,28538040,-38208010,-63623050,5698242
0.390,21876980,11612190,22655550,28238520,-375,-60498050,5991211
0.400,-7103862,-38290120,72402490,56615150,-39575200,-62158200,57666020
0.410,21234780,-3849728,7245426,27620490,-40942380,-5605469,54833980
0.420,-29613550,11342020,22459620,34433480,-45996100,-45361330,4716797
0.430,-8398614,-38859800,72523330,55890090,-4765625,-33984380,3876953
0.440,-29953640,11175430,22332730,34628550,-4958496,-24902340,2734375
0.450,-30164250,-39196430,72549220,34763200,-42138670,-18396000,18933100
0.460,-32436370,11004520,22192900,32888150,-37329100,-13781740,14770510
0.470,-10729170,10903530,22103990,55061450,-31420900,-17163090,1439209
0.480,-11411070,10803400,22014220,54862920,-2980957,-20385740,12487790
0.490,17936620,-39809280,72402490,24617530,-2915039,-22509770,748291
0.500,-31607470,-3998194,7231619,35771390,-2685547,-25341800,7720947
0.510,-31947550,-40171810,72195330,36018240,-27954100,-2836914,9234619
0.520,-3407747,-40361700,72074480,3447523,-25585940,-2788086,107666000
0.530,-1514858,10049860,21300380,5399113,-26879880,-24963380,925293
0.540,1546885,-40793290,71763740,2244147,-3203125,-21472170,10559080
0.550,14991500,-54774880,57833940,22021130,-35766600,-14001470,13464360
0.560,-17358290,-41233510,71427100,53490480,-41625980,-3086853,17919920
0.570,14083440,14334790,15461750,21220110,-46264650,58288580,1932373
0.580,-18661680,-41656460,71073200,53188370,-5239258,1965332,22033690
0.590,-19257260,-4183775,7090921,53058900,-55615230,37719730,26464840
0.600,-3470795,8743024,20017720,3802253,-6196289,5917969,35107420
0.610,12633320,8604916,19879610,19942620,-65185550,78271490,42285160
0.620,-20655590,-42226150,70503510,52765420,-65625,9111328,52246100
0.630,-20992230,8427102,19694890,52722270,-6459961,10185550,5883789
0.640,12037730,8386535,19649140,19433350,-70166020,11552730,6508789
0.650,15287130,-42260680,70279100,16028590,-75341800,12539060,6538086
0.670,-21501500,8504786,19738050,52851740,-72509770,11796880,72802740
0.680,15398130,-41854990,70339510,16142010,-66503900,10273440,6816406
0.690,12198280,8795676,19999590,19635330,-58691410,87158200,6176758
0.700,12400270,9010604,20198980,19830410,-5292969,71972660,42333980
0.710,-20741910,9261784,20431170,53438700,-52246100,6098633,26391600
0.720,12924210,-40637920,70866050,20325000,-53808590,5288086,12445070
0.730,13246170,9851330,20981010,20624520,-46923830,36987300,21533200
0.740,13605250,10190550,21297790,20955980,-4116211,21325680,25805660
0.750,-3659811,10556540,21639610,3659848,-33935550,9222412,23535160
0.760,14466690,10950140,22005590,21751820,-33447270,87890620,1730957
0.770,14969910,11353240,22379340,22215340,-31225590,11791990,57006840
0.780,-16900820,-37685900,72247120,55121870,-28393560,40985110,-10076900
0.790,16084260,12216410,23173460,23241650,-30664060,12954710,-3137207
0.800,-15303960,12649720,23568790,55786510,-46484380,24368290,-49829100
0.810,17307370,-3588188,7292901,24366350,-62353520,-44647220,-72265620
0.820,-13568990,-3526905,7312756,56468420,-6386719,-85632320,-8515625
0.830,18634060,-34621650,73326070,25577380,-6767578,-3942871,-95410160
0.840,-11566440,-33957010,73524600,57193470,-8076172,40374760,-14365230
0.850,-31650620,14893950,25588600,36366970,-8886719,11999510,-18945310
0.860,-9149572,-3242060,7393893,57970320,-87158200,4819336,-225
0.870,-7733976,-31540140,74197870,58350120,-10419920,10820310,-26289060
0.880,-6163010,-30590660,74456820,58695380,-14335940,16787110,-27207030
0.890,-4410780,-29606650,74750300,58997490,-1515625,20117190,-28417970
0.900,25315840,-28588110,75061040,31480580,-12236330,22460940,-31757810
0.910,-233056,-2756959,7537179,59360020,-8652344,26464840,-35722660
0.920,-25543710,19437670,29659300,31701550,-45239260,31855470,-39355470
0.930,-24103950,-25601550,75889680,30517280,20800780,35449220,-4265625
0.940,-22520030,-24695220,76053680,29200950,81396480,39726560,-428125
0.950,10547910,21129470,31126680,59075180,15380860,428125,-4578125
0.960,-18892140,-23046570,76062320,26147930,18359380,4640625,-49375
0.970,-16850750,-46407340,51769330,24408650,18457030,48242190,-51640620
0.980,37442480,22192900,31910440,41157550,15019530,50078120,-53671880
0.990,24436270,-20810970,75276830,57167580,12998050,50078120,-51914060
1.000,-9775369,22589090,32083930,18225780,21445310,72382820,-590625
1.010,-7336920,-19369480,74163340,16072180,5698242,33476560,-4484375
1.020,35847340,-1874802,7347280,54129230,14433590,528125,-48476560
1.030,-1827322,-18195570,72661430,11068400,17685550,515625,-471875
1.040,10547910,-17738090,71720580,84089780,17851560,60859380,-43789060
1.050,39619380,22237780,31036910,57055370,14892580,65,-3890625
1.060,24520000,21859720,30500020,-14667800,8276367,69804690,-38164060
1.080,81116160,-1646058,6659334,-70973940,-6171875,58164060,-23476560
1.090,15543920,-1634839,6513461,-5310207,-8276367,42421880,-23691410
1.100,64659880,19618930,27630850,38177900,-14833980,53632810,-12529300
1.110,53133140,-1665915,6218256,49946320,-79589840,49609380,29296880
1.120,7000289,17961650,25731880,3302479,-97998050,42617190,18369140
1.130,26035720,17028570,24696950,-15758850,-17041020,40742190,23261720
1.140,28281680,16027300,23609350,-18053150,-17558590,31816410,35976560
1.150,7609687,-18799790,56295780,2549796,-10771480,23964840,44023440
1.160,7766782,13918570,21367710,2311563,-6826172,16220700,46484380
1.170,79031620,12819760,20222280,20785070,61920170,7680664,54804690
1.180,80222780,11717500,19080310,18540830,-8105469,421875,58476560
1.190,81241320,10601420,17934890,16417450,28051760,-39746100,59804690
1.200,3866905,9481895,16792920,-2902055,8911133,-97265620,62265620
1.210,51178920,-24462170,48492740,44149290,12490230,-14492190,59921880
1.220,83416510,-25523860,47310200,10755060,21542970,-19267580,59375
1.240,43014230,83547700,90812120,-33824940,32597660,-29121090,5625
1.250,49311030,4071559,11327340,41442400,38359380,-35039060,52460940
1.260,44703450,63704350,70949780,-35743760,4140625,-38222660,46796880
1.270,48317520,2209707,9443050,40105350,46679690,-38457030,41171880
1.280,85453580,1377615,8600597,1743596,52695310,-37617190,33789060
1.290,4692871,38430800,45641700,-3833498,525,-38242190,28574220
1.300,46659380,-1225700,70796990,37982820,5609375,-38769530,2328125
1.310,48257100,2445614,3164974,-39924080,50585940,-38183590,14335940
1.320,85772950,-14371740,57530110,-3754782,52539060,-36367190,70751950
1.330,44882980,12029100,19217560,35805910,56640620,-33085940,-10168460
1.340,44268410,-26050390,45903240,35073940,575,-31738280,-7397461
1.350,50407260,42145880,49349860,-42607670,58007810,-29726560,-10830080
1.360,4301769,-36101110,36094210,3361432,62734380,-27617190,-16533200
1.380,48351790,-4456531,2816513,-47615170,81015620,-26796880,-18134770
1.390,40858900,-14527970,-7223851,31163800,88125,-25097660,-18037110
1.400,8411568,-49131490,24272270,-1387112,9875,-19521480,-16933590
1.410,39066090,-16467510,-9082249,29158660,100078100,-21308590,-12529300
1.420,8309714,-48993380,25342590,-1709937,104609400,-15878910,-7651367
1.430,82458380,-13499080,-6008511,-18929260,109296900,-13691410,-51483150
1.440,5433380,-10420160,-2872622,-4824502,118515600,-11210940,9013672
1.450,54786960,-2883754,-2122618,-48983030,13359380,-98046870,23183590
1.460,7998976,-11600970,65117350,-2497144,154140600,-3930664,34707030
1.470,7896256,5371490,13100290,-2720703,1675,69433590,56015620
1.480,56102440,-21734550,56088620,-51275600,184375,11865230,75429690
1.490,27663660,-12481400,65825150,16806730,1896875,19179690,896875
1.500,25673190,-1950756,76873700,14705780,20265620,30605470,10984380
1.510,73300180,969339,8905296,-37323360,20328120,35332030,131640600
1.520,71289010,58230140,66238600,-39973280,19625,4125,15359380
1.530,68932550,3488061,11600100,-42519620,19109380,38496100,1715625
1.540,6615316,4748284,13015700,-4486744,185625,28867190,19546880
1.550,62873120,-32316980,52618680,-46887250,16109380,6616211,2228125
1.560,59066550,6888078,15692380,-48432320,113984400,-27558590,24734380
1.570,26674470,-33818900,58212010,25633480,62304690,-67421870,25734380
1.580,35087760,-47118580,49677010,-64435450,54052740,-122578100,2471875
1.590,1657282,-3802252,6407292,-7716717,-61875,-1821875,230
1.600,-1752227,-52515970,55086480,-10435700,-14953130,-2478125,1975
1.610,-4771587,-43244690,68673600,-12802500,-640,-3084375,-17734380
1.620,-55284140,-44349540,65359040,-63832960,-1100,-19609380,-138625
1.640,-9066708,45949850,56939700,-17864110,1139375,5734375,31328120
1.650,-3270962,-778577,10169840,-3271847,175625,-69921870,86484380
1.660,-4074152,-4879482,6001604,-92773240,-73359380,-11046880,-2003125
1.670,-5940577,5478611,6571208,-6817037,-1375,69677740,-130
1.680,-30003700,1104856,111624800,-115871600,-43789060,-865625,-1121875
1.690,34966920,-10064540,101905600,-49312760,-40703120,-12275390,-144921900
1.700,-2158779,-28424100,85047890,-10443460,-1153125,-6689453,-147578100
1.710,-44001680,48637760,60121340,-52155160,-54296880,69970700,-7703125
1.720,9037362,-22709070,-11127090,-71358060,-15615230,-20390620,-42617190
1.730,-11217720,-92056800,24384480,-19165770,5,-26289060,-16259770
1.740,-17636240,-48651570,-36974640,-25522140,26054690,-44882810,12231450
1.750,11443010,-49089200,-37400180,3576100,24550780,-53554690,14775390
1.760,54569450,-42954660,-31277740,-24358590,46166990,-42226560,2328125
1.770,21842110,-8573843,3066833,21834160,-21484380,-40507810,24296880
1.780,33198280,-23138930,-11560400,25151840,-36308590,-36640620,19755860
1.790,41885200,-14379510,-2883844,33728260,-38574220,-33554690,22851560
1.800,89553620,-57245260,56692840,6775858,-29648440,-3265625,39238280
1.810,10224220,-56416620,56416620,1825597,-25742190,-31523440,4546875
1.820,11643270,-55838300,55838300,3134159,-25761720,-30566410,4640625
1.830,51876360,-21062150,-10011880,-34164170,-11357420,-29882810,41210940
1.840,53758070,-9352418,1583910,-33093840,42114260,-33378910,39902340
1.850,5553622,-54655760,53533640,-3204080,18779300,-33046880,38417970
1.860,17456700,-59549920,47465580,8628220,28144530,-27265620,34570310
1.870,18629740,-57083850,-46496240,9733938,33183590,-19404300,35898440
1.880,59990140,-55743350,49010650,-29641170,40898440,-97558590,4515625
1.890,20593450,-14678160,-4311523,11568170,36230470,-12529300,4515625
1.900,17415440,-36624200,65971880,16507040,18486330,-14111330,37792970
1.910,22423360,-1539891,8617863,13294500,11484380,-15253910,24628910
1.930,6567846,4531628,104227500,-2607629,12480470,-21054690,18496090
1.940,66722840,-4381437,5503553,-25014590,15380860,-24375,18154300
1.950,6768962,-43365540,54759340,-2384071,2359375,-24609380,16484380
1.960,27534180,907188,10659250,18420860,36210940,-18359380,18417970
1.970,69286450,1189446,10894900,-21277080,4609375,-13466800,20332030
1.980,69899300,-41725510,55018290,-19921910,49570310,-14824220,21679690
1.990,7039131,2939085,12597930,-1851494,43476560,-19541020,1890625
2.000,70762460,4320154,13978990,-17021660,33964840,-22929690,11474610
2.010,28234730,5778905,15455010,27370520,27480470,-31347660,5498047
2.020,32982490,7056393,16767030,24504460,23554690,-38554690,6279297
2.030,33868100,8066299,17828720,25586870,20527340,-428125,8618164
2.040,70995520,-3541576,6286446,-9503476,22480470,-42851560,12333980
2.050,42100990,9288547,19195980,-35739450,2375,-37480470,19042970
2.060,36611250,-35407130,64582190,29127580,26816410,-32832030,27519530
2.070,69683500,9623454,19724240,-1804020,28574220,-33554690,28515620
2.080,37394140,-36304820,65825150,-30399030,27929690,-37695310,240625
2.090,3549087,9680423,20012540,-2829722,22148440,-4234375,19912110
2.100,6663654,9790908,20247320,714703,18291020,-50351560,17666020
2.110,31275150,-37280200,68526860,-23725880,16972660,-56523440,18486330
2.120,63684500,-36675980,70339510,13344570,18808590,-55039060,20703120
2.130,61949530,13236670,24052160,16460600,20234380,-503125,25722660
2.140,60059200,-33723950,75501260,19576640,25078120,-45039060,28867190
2.150,21669820,-31462460,78764030,-13599200,24023440,-40898440,29003910
2.160,55700200,-28734850,82423860,25851870,20546880,-45078120,26171880
2.170,53222910,-52946690,59075180,28967900,13154300,-49257810,25136720
2.180,50555720,-21346130,91435330,31997620,78125,-4984375,27734380
2.190,47681370,33687700,45033170,34975540,-993042,-33398440,32011720
2.200,37786890,37887870,49292040,-29540180,-5800781,-33769530,33144530
2.220,38108850,-1070328,113800000,43028900,-14960940,-22890620,41367190
2.230,-13465410,-51159940,63883030,93567340,-13623050,-7133789,44804690
2.240,31134450,-50383090,64659870,47690000,-12880860,-41259770,52421880
2.250,27448730,-49459500,65410820,49856550,-13896480,8178711,58828120
2.260,23633520,3147968,14598750,51876360,-22871090,30761720,62734380
2.270,-13338530,-47146210,66791900,20687530,-27070310,6015625,6703125
2.280,-16271570,5174688,16490820,23399610,-26660160,7890625,75507810
2.290,34214490,6260552,17476550,34666270,-15947270,101171900,72773440
2.300,7811666,7345553,18428630,58565910,-54138180,126953100,89609380
2.310,3875620,8276049,19189940,60136880,15488280,135234400,96875
2.320,-27684370,9033045,19744960,33876730,28886720,13671880,91796870
2.330,-30303220,9569074,20054830,36316050,28203120,12625,71601560
2.340,-634426,-49765920,52778380,6490154,12636720,1075,49921880
2.350,24837640,10233710,20270620,32355830,-18603520,90703130,29316410
2.360,27618170,-33793000,64694400,28401400,-1265625,78242190,765625
2.370,-1280940,-3268816,6426282,6782770,-23007810,7203125,-8798828
2.380,-40824110,1146544,2104145,41366700,-34414060,66757810,-22636720
2.390,-14630680,-30616550,64314600,68388750,-4640625,60117190,-31054690
2.400,-14863740,12817170,22261950,68328340,-44414060,50820310,-37675780
2.410,22568380,-28795270,65445360,30844430,-37460940,50195310,-41054690
2.420,22707350,-45192860,49030500,30895350,-26835940,4734375,-471875
2.430,22957670,19640420,20583180,31024830,-11777340,403125,-52382810
2.440,-1238644,20572650,21515400,6693865,7578125,39570310,-53984380
2.450,23912330,-2523903,6884622,31710180,-1842041,66054690,-77148440
2.460,-9745160,-24410380,69174240,66990420,-11972660,69023440,-103125
2.470,-8346824,-23607640,69234660,67404750,-17871090,42929690,-113984400
2.480,26641660,18559820,27757740,34142590,-21855470,18886720,-1165625
2.490,27436640,18924940,28031360,34884050,-2453125,6976318,-114921900
2.500,28097830,19296110,28316210,35500350,-24726560,-8847656,-114140600
2.520,28987760,20053970,28922150,36336760,-22363280,-72753900,-102265600
2.530,29202690,-19222740,68785810,36553420,12089840,-23278810,-93203130
2.540,29303670,-18722100,68699500,36676850,25449220,29510500,-8265625
2.560,29213040,-1831643,6832832,36681160,44726560,6220703,-67109380
2.570,-34411900,-40778620,45728020,40977140,48867190,5595703,-64101560
2.580,28825480,-18955160,67603270,36447250,47617190,6611328,-5890625
2.590,-6197536,-19680220,67119900,70935100,4453125,62158200,-525
2.600,28147030,-41325010,45923960,35951790,41484380,31640620,-46953120
2.610,27741340,17782110,26567430,35632420,38242190,-24093630,-40703120
2.620,-36689800,16889600,25750880,42946040,35839840,-21887210,-3421875
2.630,-9244520,-2427230,6520367,70978260,33671880,-4033203,-28808590
2.640,26422420,15115790,24158330,34482680,34179690,-3305664,-240625
2.650,-1034938,-2686177,6454766,7047762,33457030,-15722660,-20605470
2.660,-1076369,13468870,22715120,7013236,35136720,-29516600,-18867190
2.670,-1111757,-29390850,64141970,6972666,35996100,-88378900,-13242190
2.680,-1139380,11960910,21426400,6926056,36894530,-68115230,-11113280
2.690,24551940,-31859510,63934810,32589750,38144530,11047360,-7529297
2.700,24225660,10543590,20236960,32225490,38515620,20410160,-3930664
2.710,2784056,-34285010,63788080,2792007,39375,30493160,-109375
2.720,-11972130,-35493450,63736280,67076740,38632810,46728520,26342770
2.730,23298620,8455588,18492500,31149990,39023440,58984380,4921875
2.740,-12084340,-37927580,63580910,65859670,38847660,66845700,8041992
2.750,-1213613,11666140,12692450,6522094,36210940,5800781,103125
2.760,-1218790,-40335810,63382380,6458217,3515625,78515620,13544920
2.770,-1223107,5645115,16123970,6393482,31601560,52001950,18291020
2.780,-35205140,-42692270,63166600,40304740,28203120,61621100,19423830
2.790,21401370,4262320,14951790,28886760,24941410,44506840,24375
2.800,21100990,-4497967,6295079,28513870,20976560,4958496,24179690
2.810,-1223104,78451560,89348180,6113819,20996090,4658203,27226560
2.820,-12179290,-47189360,62812690,60361300,19306640,2512207,28417970
2.830,23352740,-48276960,62760900,24069680,18310550,5839844,30820310
2.840,19782070,-49347280,62726380,26863490,17070310,3876953,33945310
2.850,19439400,-50383080,62691850,26429320,15625,44213870,3390625
2.860,-11980760,50661020,62068640,57003580,11875,40966800,33984380
2.870,-31818940,45604590,57112340,36233180,8886719,6123047,33164060
2.880,18241320,-1168730,10439150,24951580,39990230,5727539,3546875
2.890,-11989400,-1709937,9996342,54163760,7446289,5786133,3734375
2.900,17301330,30695960,42500640,23819970,-12261960,42626950,40273440
2.910,-12101600,-27742200,91271330,52118050,-34936520,34350580,43046880
2.920,-29681730,-33042050,86903700,33571170,-5932617,2939453,43515620
2.930,-29264830,-3823833,8260514,33038600,-75439460,38842770,43125
2.940,-12429610,11436970,23607630,48958860,-99902340,4152832,41523440
2.950,-12602240,6820748,19074280,47905790,-11982420,44140620,40078120
2.960,-12835290,-53197010,70115090,46861360,-13730470,35498050,39277340
2.970,-13120140,33503850,45907560,45816930,-15615230,16967770,38984380
2.980,12744670,-62355740,62354700,18571050,-17958980,75645450,38789060
2.990,-13879730,-67939910,57409260,43762580,-18955080,-31103520,37363280
3.000,-14345840,-16395870,-3802252,42744050,-19550780,-65527340,36660160
3.010,-26960170,-21429000,-8781865,29646350,-20761720,-93310540,365625
3.020,-15424800,-26632170,-13936700,40732870,-21894530,-11054690,34902340
3.030,-16029020,-89329200,38057050,39748860,-24375,-12226560,32050780
3.040,-27713890,-95138320,32645000,27735980,-27519530,-14892580,29296880
3.050,-17332400,-101094200,27034410,37806720,-28652340,-18701170,25800780
3.060,6667104,-49321380,-36477460,12149940,-28847660,-21503910,23378910
3.070,-18687570,-69234660,59480870,35830080,-29648440,-24375,21601560
3.080,-27026120,-69925190,59032020,27180800,-29628910,-25859380,19443360
3.090,-20068640,-70589830,58591800,33862060,-28828120,-27109380,17724610
3.110,-21466970,-71729220,57745900,31997610,-29375,-29726560,16796880
3.130,10694650,-14283700,-1322373,63883020,-29882810,-32011720,14970700
3.140,-23564470,-81785900,-80489590,29572110,-3078125,-3109375,140625
3.150,20561510,-9003614,-7707309,25876900,-31523440,-29804690,12910160
3.160,-24954170,-73326070,56252620,28285990,-30644530,-29121090,95703130
3.170,-16521030,-15133050,-2182085,36891780,-30136720,-2640625,48632810
3.180,34435200,-151977900,-22554570,39797190,-29414060,-23476560,32592770
3.190,-28590700,-7339512,5589011,-23199350,-28945310,-20839840,36499020
3.200,-9420866,-65440180,63689670,-8878284,-2890625,-18105470,53759770
3.210,-42873520,-73213860,55726100,11799500,-29355470,-15849610,7128906
3.220,-49330020,-93787460,-80917630,5826376,-29335940,-13798830,7529297
3.230,-30633810,-9385911,-8101861,25057750,-28847660,-12402340,61035160
3.240,-61992680,-72816810,55259980,-5679641,-27363280,-11064450,45483400
3.250,-68190230,-15215050,-2445350,-11221180,-25429690,-10292970,15686040
3.260,-48459080,-15272020,-2543752,-42691400,-234375,-84716800,-13146970
3.270,-80654360,-7242837,5440549,-22235190,-21640620,-72753900,-45288090
3.280,-35338070,-72307540,54025650,23840680,-20019530,-5410156,-61621100
3.290,-36356610,-72186700,53611330,23616260,-19492190,-3310547,-55371100
3.300,-73213860,-72074480,53153860,-67137160,-19980470,26641850,-59033200
3.310,-10752480,-15889190,-3428501,-4594642,-19423830,4946289,-72509770
3.320,-11474950,-71867320,52083520,-5235977,-1859375,10048830,-83447260
3.330,-12223310,-71789630,51470670,-5903205,-18544920,14462890,-92578130
3.340,-32968680,-16596980,-4343457,31009290,-17939450,17734380,-99609380
3.350,-13783920,-16920670,-4744831,-7311892,-15546880,209375,-12705080
3.360,-44038800,-17294420,-5199720,21389290,-13173830,2296875,-16142580
3.370,-15422210,-71772370,48346010,-8815533,-12597660,22832030,-18046880
3.380,-46248510,-18176580,-6251055,20405280,-13144530,21679690,-20136720
3.390,-17074310,-71936380,46438410,-10357150,-13808590,19121090,-22695310
3.400,-48285580,-19169220,-7416333,19300420,-14052730,16523440,-26367190
3.410,-4919192,-19663820,-7992067,1872209,-13076170,14238280,-30234380
3.420,-35679890,-20134250,-8540179,32493080,-11474610,12236330,-31289060
3.430,-34347160,-20557200,-9032183,34015700,-10839840,10029300,-30566410
3.440,-2055030,-20922320,-9461180,-1370020,-10566410,83154300,-30214840
3.450,-36078670,-21232190,-9824568,32560400,-10478520,6484375,-29277340
3.460,-21390150,-58409680,55252220,-14517610,-97021490,45458980,-27109380
3.470,-52566900,-21629250,-10290680,16193020,-45361330,7915039,-27890620
3.480,-52653220,-72695960,40603390,16089440,2734375,12324220,-27480470
3.490,-36171030,-21721610,-10388220,32519830,7861328,11728520,-26796880
3.500,-52428790,-21661190,-10310530,16175760,10478520,90283200,-24023440
3.510,-52187100,-58467510,55297960,16348390,12070310,6958008,-21269530
3.520,-21074230,-21362530,-9953184,-14229320,1140625,5961914,-18330080
3.530,-51522460,-21146740,-9702863,16874920,95410160,49487300,-15654300
3.540,-51142670,-72583750,42234780,17220190,7182617,25878910,-12246090
3.550,-34347160,-20649560,-9129721,34015700,49267580,18661500,-93115230
3.560,-50357180,-7237660,4318429,18040200,29467770,-66223140,-68603520
3.570,-49968760,-14864870,-13705980,18514940,16796880,-8135986,-5053711
3.580,-35831810,-7208313,4411651,32772740,3945923,-22802730,-26586910
3.590,-49252340,-19505000,-7857411,19524850,-13928220,-3996582,11459350
3.600,-35919850,-19231370,-7561345,33029970,-24646000,-47021480,16296390
3.610,-17492090,-71608370,45299030,-10578120,-3635254,-5595703,2890625
3.620,-4829422,-7148753,4560977,2101812,-32495120,-6176758,37353520
3.630,-13597040,-71383950,45868720,-12902200,-2578125,-59716800,41601560
3.640,-16369970,-71297630,46075880,-9404213,-2006836,-5883789,4897461
3.650,-4744832,-18363890,-6616179,2238192,-9698486,-64208980,5102539
3.660,-47215260,-71176790,46369360,22787620,-13130190,-625,49853520
3.670,-47016730,-18230960,-6472890,23158780,4522705,-6015625,49536130
3.680,-46852730,-7111638,4646433,23495420,8654785,-6015625,53222660
3.690,-36423070,-71090480,46455680,34132220,6750488,-5698242,5439453
3.700,-14811090,-71081840,46412510,-7734848,20217900,-5004883,53808590
3.710,-46602410,-18230960,-6490154,24367220,-106933600,-4416504,5834961
3.720,-46585140,-18268940,-6538492,24608900,-2800293,-35668940,6113281
3.730,-14455470,-18314690,-6596326,-7313619,-35913090,-23303220,6660156
3.740,-14380370,-18369070,-6662790,-7216082,-34545900,-109191900,703125
3.750,-36997940,-18431220,-6738748,34852110,-40771480,6390381,7421875
3.760,-46714620,-18492500,-6815569,25359860,-47875980,17980960,83740230
3.770,-46783680,-71038680,45592500,25515230,-48168940,2409668,9038086
3.780,-14216370,-7103004,4544577,-6965762,-43798830,2685547,9199219
3.790,-14201690,-71021420,45299020,-6928649,-39135740,28027340,92285150
3.800,-10903880,-18730730,-7112500,-10174670,-3293457,2626953,8730469
3.810,-14176660,-71004150,45040080,-6867364,-27929690,25927730,8022461
3.820,-47137570,-71004160,44919240,26110810,-25439450,24365230,6826172
3.830,-14181840,-18886100,-7302397,-6844919,-2775879,26635740,5673828
3.840,-14202560,-71021420,44729340,-6858733,-35595700,23498540,5029297
3.850,-47284310,-18966380,-7394753,26188500,-4621582,17956540,51660160
3.860,-14245720,-18992270,-7420651,-6901889,-53466800,1928711,5263672
3.870,-14259520,-71090470,44660280,-6922606,-5498047,23925780,4716797
3.880,-47223890,-19006080,-7424102,26007240,-54345700,3034668,37182620
3.890,-47154840,-18994870,-7400797,25903650,-5683594,39233400,25390620
3.900,-14276790,-71202690,44893340,-6991660,-63916020,43408200,2006836
3.910,-46921780,-71237210,45031440,25670600,-6621094,42114260,16210940
3.920,-46766410,-71280370,45212710,25532490,-66259770,3972168,68359380
3.930,-46585140,-71323530,45411240,25385750,-66796880,32470700,-107055700
3.940,-46369360,-18711740,-7010644,25239020,-6689453,1932373,-21008300
3.950,-46127660,-71409840,45911880,25066380,-7324219,51208500,-24475100
3.960,-45860080,-71461640,46205360,24885120,-89160160,-5303955,-24536130
3.970,-45557980,-18391510,-6588556,24703850,-10107420,-124939000,-26831060
3.980,-45238600,-71556580,46869990,24505320,-10507810,-10852050,-30810550
3.990,-44893340,-71599740,47223890,24332690,-10351560,-25497440,-40966800
4.000,-13627690,-71634260,47603680,-6760332,-10732420,-12512210,-515625
4.010,-44159650,-17834770,-5867811,23961530,-11113280,-116539,-56591800
4.020,-43779850,-17682850,-5674461,23771630,-1171875,-49316410,-66552740
4.030,-13258250,-7176374,4873444,-6560073,-12246090,-12200930,-7480469
4.040,-43028900,-17395410,-5305889,23400470,-13144530,-22998050,-70654300
4.050,-4264911,-11784480,-10571560,2322783,-15126950,-19616700,-65966800
4.060,-42269300,-71850060,49822020,23072460,-16923830,-16137700,-61035160
4.070,-4189815,-16952610,-4747421,2294299,-18271480,-871582,-59033200
4.080,-41526980,-16805870,-4566155,22830780,-18916020,-4949951,-5864258
4.090,-12396810,-71893220,50831930,-6005922,-19345700,-59021000,-5986328
4.100,-40793290,-16535700,-4232110,22718570,-1953125,-20178220,-5834961
4.110,-12013560,-71901850,51410260,-5698634,-19248050,-41503900,-5444336
4.120,-40076860,-16286240,-3929137,22761720,-19267580,-71777340,-48339840
4.130,-115621300,-16151590,-3770310,-53041640,-19384770,-10449220,-44482420
4.140,-39369070,-16016070,-3612355,22986150,-20175780,-13632810,-43847660
4.150,-11032140,-71789630,52454680,-4815615,-20722660,-15947270,-45092770
4.160,-38644010,-15726050,-3280898,23365940,-21386720,-17578120,-42871100
4.170,-104313800,-71642900,52998490,-42424680,-21582030,-18066410,-35205080
4.180,-73180200,-71530680,53283330,-66998200,-21347660,-18037110,-28442380
4.190,-37547780,-9532736,-8283040,24237740,-21464840,-17158200,-18786620
4.200,-9374865,-93002840,-80493820,-3192861,-20859380,-15966800,-9851074
4.210,-36848620,-90418510,-77899140,25057750,-20390620,-14804690,45837400
4.220,-36520620,-87746150,-75219860,25558380,-20019530,-13603520,16955570
4.230,-36201240,-141274600,-15994490,26119440,-2015625,-12929690,29223630
4.240,-49052080,-82049250,-69522960,-42788940,-20742190,-12373050,44482420
4.250,-35614290,-69890670,55337670,27379670,-21386720,-11953130,5488281
4.280,-58004850,-63072510,61810560,6387438,-23339840,-9375,8964844
4.290,-52748170,-60182190,-58934910,12179290,-22734380,-8666992,10244140
4.300,-47249780,-67844960,56675570,18247360,-22207030,-7192383,11015630
4.310,-41682350,-67335700,56960420,24419010,-21269530,-56640620,12216800
4.320,-35873240,-10974310,1427680,30866870,-20585940,-43530270,13642580
4.330,3400880,-49517320,-37144680,70831520,-18984380,-27905270,14560550
4.340,-23970160,-6555759,5782360,44168280,-18173830,-15856930,15292970
4.350,-32765830,-34451170,-33221150,36097660,-16777340,-8868408,16103520
4.360,19825230,-34959140,-22700440,26785810,-15478520,-2458191,16601560
4.370,-514446,-84728510,37426940,6522090,-13583980,50994870,17197270
4.380,33215550,-79135190,42536890,40326320,-11865230,770874,17626950
4.390,39996590,-18919770,-6802624,47183320,-10107420,16149900,18007810
4.400,-31263920,-67655070,52981220,41328450,-82421870,24194340,18251950
4.410,2039667,-78177070,41924040,9371405,-6611328,2927246,18671880
4.420,2660286,-22649520,96881920,10062810,-45532230,34960940,18759770
4.430,32826260,-50150040,68794450,107524800,-23815920,3647461,1859375
4.440,3888573,-44332280,74025240,11424020,-84106450,36938480,18291020
4.450,-37159360,14396770,26172100,38816640,16479490,34399420,17617190
4.460,5070249,-32852150,84296930,12728270,34301760,31396480,16894530
4.470,-29071480,25247650,36900410,48061160,5288086,30981440,16523440
4.480,-28769370,-57598300,58325090,48898430,7001953,32470700,15839840
4.490,6717169,-1622756,9909162,14534010,8310547,34228520,15351560
4.500,-28173780,-1091909,10379590,50478030,10117190,39868160,15029300
4.510,7714995,-5878176,108249800,15625060,11728520,47875980,14980470
4.520,-39635960,-91498,11260880,39879030,1328125,5986328,15195310
4.530,-27336510,-50443510,62510590,52592790,1484375,7167969,15039060
4.540,9052904,8381356,120748500,17083810,1671875,7573242,14267580
4.550,-26844510,-49027910,62769540,53844380,18144530,7192383,13789060
4.560,9852194,6703099,7815376,17959060,19667970,67871100,12871090
4.570,-26421560,2105263,13172800,55009660,21308590,6347656,12226560
4.580,10567760,2495417,13507710,18745410,22246090,5991211,11347660
4.590,-2605902,2868305,13825350,5606273,23515620,56689450,10029300
4.600,11206510,81296560,92200100,19453210,24746090,52001950,89160160
4.610,11492210,3569197,14419210,19771710,26054690,48413090,74121100
4.620,-25644700,3897199,14695430,57478320,2703125,48999020,6459961
4.630,12011840,4207941,14954380,20356940,28125,39746100,5180664
4.640,-25446180,4499690,15197790,58315590,29667970,32177730,40527340
4.650,-2537710,-43149740,63347860,5869537,30742190,24658200,31958010
4.660,-25299440,5029674,15634550,59049290,31621090,16125490,27148440
4.670,12850840,5258415,15820130,21313330,32148440,11004640,24597170
4.680,13038150,-51537140,53682970,21523080,31992190,11016850,26635740
4.690,13226310,5667557,16153320,21731970,31621090,17028810,3173828
4.710,-2476427,6017141,16442480,6053394,30859380,26293940,4272461
4.720,13843480,-40629290,63382380,22375030,30703120,30615230,48217770
4.730,-24289530,6350320,16730780,60991410,30429690,32983400,5566406
4.740,-40719060,-40120020,63529120,44441030,29941410,28442380,57910160
4.750,-2359037,6710264,17061370,6137985,2890625,22399900,57470700
4.760,18773290,-39619380,63805340,19620400,28027340,13000490,55322260
4.770,-22658140,-39377700,63995240,61690580,26894530,17623900,49926760
4.780,15657860,-50421930,52933740,24047840,25957030,-1015625,46948240
4.790,16019530,-38868430,64504500,24359450,25722660,-15466310,42211910
4.800,16394140,-38618110,64806610,24675370,25839840,-20800780,35473630
4.810,-2020672,-38393690,65134620,6196678,259375,-20532230,32836910
4.820,17133880,-50458180,53190960,25282170,26152340,-17358400,2861328
4.830,21123520,8759422,19138150,21931270,2625,-9625244,2467041
4.840,-18195570,9027003,19422990,61837320,26054690,-447464,19958500
4.850,21691920,9285090,19700070,22484990,2546875,57891850,20056150
4.860,1840190,-37444200,66912740,2625840,24433590,109375,17089840
4.870,-36666490,14435700,15481690,41173950,23476560,11578370,12573240
4.880,-3630395,9914342,20400100,4084595,22539060,16357420,58441160
4.890,19025070,10073160,20586540,26671010,21679690,16760250,-1133728
4.900,19160590,10205230,20747960,26742650,20644530,18396000,-24108890
4.910,-14587530,10311390,20883470,60628880,19169920,2421875,21255490
4.920,-14276790,10389940,20994820,60369930,17607420,29541020,90026860
4.930,-14009200,-37418310,68958450,60102340,15654300,3408203,12390140
4.940,19340130,10485760,21157960,26701220,1375,30932620,13671880
4.950,-13603520,10511650,21218380,59524020,11611330,23461910,7171631
4.960,22510550,-37832630,69597180,23237330,94970700,16442870,-12878420
4.970,-1337045,10500430,21281390,5889392,79589840,-17730710,-22277830
4.980,19012990,-3822970,6997698,26199720,6542969,-19250490,-50341800
4.990,-33510750,-3846276,7015827,37994040,57666020,-32250980,-8232422
5.000,-33378680,-38721700,70330880,37815360,47680660,-19458010,-128125
5.010,21526530,15179400,16274420,22236060,28173830,7122803,-20976560
5.020,-13896990,10107690,21104440,56900000,30288700,36669920,-28261720
5.030,17488640,9901392,20948210,24564880,-12902830,60546880,-32675780
5.040,16933620,-40309920,70658890,24015040,20095820,76660160,-30820310
5.050,16306100,-40879610,70624360,23399610,2052002,7753906,-24707030
5.060,-1637428,8916520,20120430,5475072,3815918,5708008,-17412110
5.070,14930210,8492704,19750130,22065150,47753900,6894531,-1125
5.080,14218960,-55171080,57903860,21378070,21240230,77783200,-74121100
5.090,-18817050,7501785,18859350,53033010,-4901123,49658200,-6245117
5.100,12847390,-44375440,69683500,20056560,-32250980,8515625,-4675293
5.110,12213820,6377081,17826130,19447160,-60595700,68603520,-24499510
5.120,11641540,5787537,17276300,18897330,-7519531,5727539,-21862790
5.130,-2159644,5234247,16759260,5113404,-70166020,34716800,-34228520
5.140,-22114350,-4728434,6827656,50771510,-88183590,43554690,-37597660
5.150,10297590,4247646,15829630,17599980,-11289060,41259770,-27856440
5.160,9974764,3838505,15444650,17284060,-12675780,10614010,-34960940
5.170,-23184670,-48820750,67447900,49942860,-11894530,-107543900,-3935547
5.180,9525055,-49174650,67266640,16836080,-11005860,-11633300,-65722660
5.190,-2349539,-49459500,67154420,4954579,-10498050,2055664,-8823242
5.200,9248844,28441370,145227900,16542610,-9379883,19470220,-13876950
5.210,-2361624,-49934240,67024950,4920053,-12412110,5576172,-15820310
5.220,-23659410,25670600,142819700,49002020,-9790039,15014650,-15722660
5.230,-23728470,2445352,14179250,48760330,-44384770,3852539,-10439450
5.240,8724038,75865500,87618400,15962560,-22167970,73876950,-60791020
5.250,8528094,2151876,13920300,15761440,36450200,3408203,8465576
5.260,8311444,19999590,137787400,15546510,48291020,3100586,10087890
5.270,-2454848,1797115,13584530,4792306,11142580,23071290,1109375
5.280,-2486785,1544207,13336800,4777632,55126950,36938480,15039060
5.290,7543223,-51850470,66110000,14830080,9682617,15258790,12763670
5.300,-25644700,61687120,73484900,47482840,74853520,14233400,11416020
5.310,-26093550,-5260145,6539358,47327470,7246094,-27252200,8046875
5.320,-2655103,-5299848,6497924,4719800,17834470,-16491700,9501953
5.330,6334788,-53447330,64513140,13742490,1439209,-3137207,87402340
5.350,-27863040,39422580,51210000,46887260,18444820,-8647461,8876953
5.360,5506148,34592300,46372810,13017430,-4937744,-9902344,11679690
5.370,-36827900,-55242720,62476060,38630200,-770874,-1078125,13417970
5.380,-29131900,-26525140,91090060,46671460,-13366700,-88427740,16103520
5.390,4737067,-29917380,87576970,12353650,-19226070,-7055664,17890620
5.400,4521273,19941760,31675660,12172390,-2364502,-4182129,16669920
5.410,77724780,17188250,28904880,85413870,-32226560,-9222412,1328125
5.420,4112132,14693700,26393070,11839210,-2998047,82458500,11025390
5.430,-31022230,-40189080,76614740,46628300,-16430660,9686279,94628900
5.440,72402500,-42165730,74448190,80205530,-3842163,-17807010,7792969
5.450,-31755930,8680873,20321550,46654200,85876460,-2841797,7910156
5.460,-38659540,-44988290,71228580,40113120,7409668,-5439453,97558590
5.470,66738380,-46024090,70020140,74648450,-6311035,-7294922,96240230
5.480,2901969,-4673189,6917424,10839660,-1586914,-9746094,57714840
5.490,2719841,5084920,16666900,10676520,24267580,-6357422,-87768550
5.500,-39189530,-4692180,6884625,40498090,49975580,-20678710,-3725586
5.510,-39264620,5521681,17093310,40543840,5786133,-21789550,-23266600
5.520,22468250,-46110410,69588550,102345800,5888672,-38989260,19885250
5.530,2090592,6298533,17870160,10080070,5395508,-4182129,67626950
5.540,19455790,6295075,17873610,99316050,34521480,-22692870,8666992
5.550,1820423,-46024080,69847500,9797811,25756840,-21862790,79589840
5.560,1750504,5939455,17538700,9712361,23876950,-15771480,61083980
5.570,1733241,5933413,17544740,9677834,28271480,-14282230,44506840
5.580,-33896580,6271773,17896920,45342180,46435550,-19555660,42944340
5.590,1832508,-45419870,70969630,9733937,6586914,-17565920,37402340
5.600,1938676,-56891370,59618980,9817663,7919922,-10424810,3125
5.610,2071603,8668790,20333640,9926426,84033200,4562378,4633789
5.620,-33016160,9353282,21030210,45290400,103125,52246100,36767580
5.630,2378891,9778825,21467840,10188830,12255860,70251460,3152466
5.640,-32515520,-42519630,74456820,45376710,13105470,87646480,-27685550
5.660,2808748,16246190,17417340,10570350,14931640,-15185550,-4807129
5.670,63882160,-41224880,75924210,71635130,15810550,-6994629,-37817380
5.680,-31919930,12009250,23725890,45557980,17226560,31402590,-34423830
5.690,2937360,12353650,24072010,10683430,18476560,6713867,-19348140
5.700,28674420,12526280,24244650,106152300,20585940,13903810,-3088379
5.710,2726747,12267340,23985700,10479720,2171875,4555664,-27661130
5.720,-32411940,11490480,23208850,45186820,22617190,74609380,-22021480
5.730,2217478,10109420,21827780,9987711,2625,86816410,-18347170
5.740,-33180160,-4495378,7222987,44643020,265625,11083980,-1328125
5.750,-33698050,-48156120,69044770,44263220,27089840,12197270,-32104490
5.790,-1199801,-73162070,43987010,6655018,17734380,72021490,-97473140
5.800,-37392410,-81931860,35148180,41259400,12539060,49267580,-14416500
5.810,-39340760,-38477420,-26778040,39362850,70947260,31982420,-7080078
5.820,22822150,-10022240,1666776,30694230,12097170,-12792970,12988280
5.830,-3988697,-109147500,7639036,3878207,-3647461,-17407230,30908200
5.840,-52817220,-117727400,-1044426,25713750,-8466797,-15600590,39746100
5.850,-60214570,-73243210,-61583540,18091990,-11201170,-15612790,44091800
5.860,-41803200,-65773360,50788770,36209870,-13916020,-23895260,47558590
5.870,-73179340,-140023000,-23460890,4471202,-15888670,10992430,5205078
5.880,-78556860,-67102640,49511290,-1372439,-17255860,42388920,64208980
5.890,-42830370,-15183120,-3513090,33836160,-19042970,7800293,7504883
5.900,-42977100,-68267910,48587700,33119730,-20527340,91796870,765625
5.910,-38249540,-16133460,-4427184,37191300,-20039060,-16067510,75
5.920,-9323071,-16516710,-4786264,-1846316,-19707030,-11315920,79052740
5.930,-42847630,-69769820,47828100,31212130,-1953125,-22875980,88427740
5.940,-4265772,-70192780,47715900,3067694,-19208980,-39526370,9682617
5.950,-42424680,-17374700,-5551029,30184960,-20605470,-44384770,9628906
5.960,-65741420,-70943730,47655480,-58554690,-21308590,-65185550,9394531
5.970,-9831478,-17739820,-5841917,-2718978,-21289060,-9946289,10029300
5.980,-41492460,-17854620,-5917012,28907480,-21914060,-9921875,10292970
5.990,-41121300,-17934900,-5957581,28553580,-21308590,-90771490,9082031
6.000,-96821490,-72048580,48121590,-27819890,-19140620,-109375,765625
6.010,-95984220,-12540350,-11334850,-27621360,-175,-12167970,6533203
6.020,-40016440,-72324800,48587700,27776720,-15400390,-16601560,7050781
6.030,-39705700,-17818370,-5694315,27586830,-13710940,-20683590,9238281
6.040,-39429490,-17687160,-5532039,27431460,-13574220,-2265625,125
6.050,-92548820,-7236795,4945954,-26050390,-13486330,-22871090,14091800
6.060,-38946120,-17410950,-5204036,27241570,-12207030,-21152340,13408200
6.070,-9063258,-17324630,-5100456,-2468660,-10332030,-15839840,8300781
6.080,-89760780,-72342060,50037820,-24004690,-7714844,-14130860,20373540
6.090,-89173820,-72333430,50150030,-23555840,-49389650,-17304690,10253910
6.100,-59555100,-72307540,50244980,-53001940,-48950200,-18896480,42773440
6.110,-89380990,-17100210,-4841503,-23866580,-68408200,-17792970,9189453
6.120,-38505900,-17038930,-4781947,27060300,-89404300,-16953120,13398440
6.130,-38652640,-72109010,50391720,27068930,-10595700,-15644530,15810550
6.140,-38825270,-72014060,50365820,27103450,-10859380,-12539060,13476560
6.150,-92574700,-71927740,50279510,-26369770,-10175780,-6791992,8251953
6.160,-39308640,-16984550,-4784535,27224300,-8930664,-3322754,25634770
6.170,-65146700,-71850060,49891080,-58458880,-57470700,-72998050,-21166990
6.180,-6706550,-71806900,49640760,-6033802,-4050293,-10869140,-22827150
6.190,-10004970,-17242630,-5130668,-3236016,-5175781,-10439450,-60333250
6.200,-40983190,-17328950,-5251509,27137980,-58203120,-8300781,19689940
6.210,-41561510,-17421310,-5383574,27043040,-5966797,-68603520,41455080
6.220,-110770300,-7149614,4846690,-41665100,-54833980,-63134770,5571289
6.230,-42830370,-17618980,-5669283,26809980,-5,-31152340,50341800
6.240,-119238000,-17751040,-5847954,-49079700,-33154300,13659670,22021480
6.250,-35320900,-71254480,47275680,35320720,-8508301,39404300,-8880615
6.260,-44815660,-18116160,-6311478,26274820,14013670,5620117,-3383789
6.270,-13292780,-18333680,-6577336,-6145754,18640140,74658200,-43676760
6.280,-46075880,-18586590,-6876854,25705130,11993410,81591800,-41845700
6.290,-14251760,-7135805,4530767,-7051216,91552740,7402344,-38183590
6.300,-11487120,-19148510,-7523368,-10765340,8331299,67333980,-33496090
6.310,-15206420,-59290970,56563360,-7978260,11383060,6513672,-38378900
6.320,-4823380,-19722510,-8175059,2409963,15820310,6323242,-38476560
6.330,-16167120,-71815530,43296480,-8933787,14892580,77001950,-47485350
6.340,-49183280,-71953640,42813110,23115620,16918940,8808594,-6142578
6.350,-49640760,-20602940,-9159067,22554560,19482420,8959961,-6171875
6.360,-17663860,-72255750,41854990,-10458140,619812,10322270,-5913086
6.370,-18181760,-21208890,-9830612,-10993300,-16369630,11699220,-5595703
6.380,-18704840,-72592380,40879610,-11540550,-37768560,13203130,-67578130
6.390,-19216690,-58208560,54969960,-12081760,-48657230,12695310,-7597656
6.400,-5166921,-22158370,-10866420,1933494,-5830078,11748050,-7519531
6.410,-36986720,-22448400,-11180610,33654900,-6816406,12373050,-8442383
6.420,-20628840,-22722880,-11475810,-13604380,-8491211,12675780,-11113280
6.430,-21031070,-22957660,-11724400,-14048050,-8955078,87939460,-11767580
6.440,-21397060,-7365408,3859223,-14458920,-8852539,6381836,-12519530
6.450,-21727650,-23263230,-12040320,-14836120,-96435540,32885740,-12490230
6.460,-5283446,-73843970,38419580,1561467,-97265620,113708500,-13330080
6.470,-5288625,-73869870,38497260,1509677,-9472656,-66467280,-14130860
6.480,-52903530,-73843980,38695800,14630680,-77441410,-32983400,-13515630
6.490,-35502080,-73757660,39023800,31635080,-7988281,-36206060,-11347660
6.500,-35344120,-22742740,-11438700,31447780,-11191410,-23937990,-6347656
6.510,-22925730,-22447530,-11112420,-16279340,-11914060,-3317871,-16955570
6.520,-52782690,-73282910,40361710,13370460,-12519530,-8404541,-2770996
6.530,-52713630,-73110280,40827820,13128770,-14433590,-18481440,-37768560
6.540,-23146700,-21517900,-10091290,-16593530,-14150390,-51483150,-23937990
6.550,-52541000,-57303890,57272950,12662660,-15390630,-33721920,-317688
6.560,-52437420,-20875700,-9386944,12472770,-16318360,-17181400,18737790
6.580,-34152940,-72342060,43236060,30170290,-14033200,-5291748,-2305603
6.590,-34006210,-59389380,56534020,30040820,-10507810,-50634770,45074460
6.600,-51608780,-72160790,44107860,12162030,-12988280,-42138670,-42541500
6.610,-51358460,-72074480,44556700,12153400,-12080080,-67529300,-97961420
6.620,-51082250,-19323730,-7624356,12170660,-8847656,-11728520,-10473630
6.630,-5082328,-71815540,45557980,1220515,-13691410,-13359380,-59783940
6.640,-22276630,-18570180,-6789674,-15996220,-13779300,-14853520,10424810
6.650,-33185340,-18041060,-6213942,29394300,-12373050,-14853520,51708980
6.660,-49951500,-70857420,47914420,12420980,-11923830,-68066410,74902340
6.670,-49614860,-70391300,48898430,12533190,-7524414,9039307,79003900
6.680,-49252330,-69899300,49925610,12636770,-23693850,3935547,72216800
6.690,-48872540,-15211600,-3173864,12723090,-54840090,64404300,7128906
6.700,-48458220,-144442400,-23529940,12792140,20751950,10595700,9355469
6.710,-2063578,-82204620,-70058120,-1454700,17425540,11025390,10068360
6.730,-47146210,-67301170,55182300,12912980,70495610,94384770,10566410
6.750,-46205360,-52093020,-39748000,12956140,5708008,7919922,98046870
6.760,-30996340,-65851040,58030750,27716300,7714844,16601560,9711914
6.770,-45324920,-38582720,-26154840,12921620,61035160,24145510,10341800
6.790,-44496280,-82700070,42303830,12766240,11132810,49438480,6533203
6.800,-44151020,-20853260,-8321797,12628140,1140625,117248500,57666020
6.810,-18489910,-15860700,-3301615,-12860330,7836914,41918940,60839840
6.820,-43503640,-58082540,-45497560,12308770,53222660,10687260,6567383
6.830,-43236060,-73403760,52687740,12110240,32958980,2722168,76123050
6.840,-42968470,-3811748,8818120,11911710,41577150,-2211914,68408200
6.860,-42502360,-54707550,71970900,11497390,37353520,-5761719,11608890
6.870,-42277940,-52118050,74733040,11307490,4272461,-6088867,-15368650
6.880,-26626920,-4960625,7740024,26595980,-33081060,-33666990,26992800
6.890,-41854990,1004122,2275916,10988120,-13244630,-6328125,44750980
6.900,-41656460,-44755240,82561970,10824120,-22949220,-69189460,3256836
6.910,-27605820,15120100,27865640,24529490,-75097660,-37890620,3466797
6.920,-1791157,17875340,30634680,-1273085,-88964850,-2578125,43041990
6.930,-17819220,-61138150,66593370,-12667850,-5996094,-47460940,4338379
6.940,-17693210,-3355131,9431831,-12569440,-75,-46289060,970459
6.950,-40473920,-60646140,67361580,10504750,30859380,-9980469,-115722700
6.960,-40258130,30970450,43779850,10530650,-29077150,-91308590,-11669920
6.970,-39990540,-59955610,68242020,10642850,-13613280,-3659668,27905270
6.980,-17007850,39506310,52334700,-11960050,5942383,-12597660,20861820
6.990,-39524430,-13146040,115172400,10815490,-39648440,-20605470,4465332
7.000,-39308640,-815694,12019610,10893180,-38842770,24609380,3486328
7.010,-16538290,5443307,6727355,-11531920,-24108890,68408200,7402344
7.030,-38644010,-63542080,64931780,11057170,12634280,90234380,84521490
7.040,-38436840,66771180,79622020,11039920,-32836910,81347660,640625
7.050,-38229680,1228287,14084310,11005380,4650116,61083980,66748050
7.060,-38031160,1553702,14414900,10962230,5831909,2529297,7529297
7.070,-37841260,-56019570,72644180,10875910,-49926760,124572800,9067383
7.080,-3762546,2222656,15092480,1081549,-9511719,17248540,11318360
7.090,-15717420,2591230,15466240,-10902670,-81689460,19396970,12529300
7.100,-15616420,-54975140,73809450,-10831030,-24682620,34228520,10302730
7.110,-36926300,-5460398,7419789,10668750,29022220,29736330,56591800
7.120,-36727780,3709894,16591810,10625590,7867432,43359380,70654300
7.130,-36511980,-53930700,74905670,10547900,12298580,7392578,8828125
7.140,-24659830,4346047,17233140,22072050,-19104000,11630860,10654300
7.150,-13136370,4585147,17477420,-12672330,-24914550,13164060,12851560
7.160,-35890500,-63382390,65626620,10150850,14660650,10400390,89453130
7.170,-35709240,4905380,17813190,9986848,76708980,3581543,30029300
7.180,-35562500,-5312796,7603644,9771057,9375,20397950,79956060
7.190,-35458920,-63465250,65768180,9512102,5751953,6435547,43017580
7.200,-35407120,-53127950,76174530,9218626,22143560,12216800,9848633
7.210,-15461920,-53266060,76140000,-11037330,17712400,15537110,1125
7.220,-15640590,4788854,17739820,-11255710,3876953,18125,11025390
7.230,-35398500,4487608,17454110,8053351,-13842770,20039060,11005860
7.240,-22891200,4037897,17023390,20111800,31036380,11826170,6870117
7.250,-35433020,-55044190,75017890,7121128,-4638672,49804690,5175781
7.260,-16537420,2869170,15896090,-12326890,-17285160,-2557373,3293457
7.270,-16818820,-5646841,7397346,-12649720,-12042240,-8453369,32055660
7.280,-35717860,-57184840,73395130,5610585,-42651370,57525640,6098633
7.310,-18064370,-770808,12319990,-14028200,-76660160,-21838380,82177740
7.320,-36468820,-1644334,11449920,3633936,-99072260,-54345700,41845700
7.330,-36701880,33416660,46512640,3141932,-11152340,-10136720,48242190
7.340,-36960830,24785850,37880100,2675820,-13330080,-11582030,64160160
7.350,-37193880,-42131200,88742240,2270127,-14560550,-12255860,7265625
7.360,-21482510,9342924,22421640,17929710,-15136720,-10771480,8359375
7.370,-37763580,2358174,15423080,1683176,-16191410,-10615230,10126950
7.380,-19932180,14191340,27240700,19566370,-12578130,-11728520,39013670
7.390,-38350530,-11522420,1509682,1234330,-43823240,-11484380,-45263670
7.400,-38652640,-13425530,-12124220,984010,-15307620,-18339840,-5522461
7.410,-21731100,-27125040,-14134370,17905540,-32714840,-18925780,-118652300
7.450,-22221380,-54691150,-41810970,-18209380,-12373050,-12236330,-7763672
7.500,-23122530,-74304050,-61558520,18965510,-37329100,-140625,-21362300
7.520,-23666330,-76527560,-63823460,19509310,-56689450,-50390620,53027340
7.530,-42640470,-133860000,-7008919,1104847,-4411621,-45874020,5683594
7.540,-24222200,-133773700,-7095239,20075540,-25317380,58380130,58984380
7.560,-43348270,-76924620,-64289570,1985282,5024414,524292,58935550
7.570,-43589950,-70184140,55976410,2209705,4572754,21606440,6870117
7.590,-44064700,-79484780,-66908420,2580866,46362300,4814453,10273440
7.600,-44315020,-13760620,-1206706,2762136,3395996,5209961,10195310
7.620,-44919230,-70477620,54509020,3021085,55615230,5263672,12744140
7.630,-45273130,-70598460,54042920,3150559,12609860,12636720,10625
7.640,-45652930,-14827490,-2401330,3271406,19055180,86572260,13310550
7.650,-46075880,-15169300,-2784576,3383616,31347660,8696289,11835940
7.660,-23993460,-71030050,52385630,-18992280,21496580,11162110,59814450
7.670,-27453900,-15790790,-3492374,23127710,41992190,74316410,37524420
7.680,-47310210,-16064410,-3805703,3841094,40942380,3215332,49468990
7.690,-47655480,-16296600,-4074148,4013728,48120120,50634770,25219730
7.700,-47948950,-71340790,50572980,4238150,6274414,28466800,18554690
7.710,-48182000,-71349420,50322660,4522994,79003900,-3062439,-3564453
7.720,-48363270,-16647910,-4499690,4825108,10,-5441284,-25009160
7.730,-48510010,-71237210,50089610,5144476,11845700,-32348630,3947754
7.740,-24292120,-71133630,50089610,-18883510,12490230,28152470,40234380
7.750,-24199760,-71038680,50115500,-18751450,14228520,3894043,44702150
7.760,-48768960,-61592170,59510210,6076696,16972660,19519040,3017578
7.770,-48820750,-70917840,50115500,6335648,16123050,43920900,6479492
7.780,-48872540,-16500310,-4405605,6560072,13974610,57421880,7524414
7.790,-29945000,-70986890,49873820,25729290,12382810,45654300,10341800
7.800,-48976120,-71055940,49683920,6922602,11015630,3010254,82714850
7.810,-49036540,-16880970,-4819062,7069342,90527340,4802246,65722660
7.820,-23755230,-17064820,-5015002,-18125650,11855470,5175781,7182617
7.830,-2372932,-71418480,48924330,-1808253,11357420,56640620,7519531
7.840,-23720700,-17498130,-5479387,-18056600,95947260,6826172,765625
7.850,-23729330,-61176130,58821410,-18047970,5415039,-63964840,8535156
7.860,-49407700,-7196228,4782813,7561348,11993410,-42871100,8745117
7.870,-23838960,-7216079,4738790,-18128240,-18432620,49658200,8828125
7.880,-49649390,-18722960,-6792263,7561348,20812990,69091800,10371090
7.890,-49744340,-19115710,-7210899,7552714,16357420,-1270752,1628418
7.900,-49873820,-19532620,-7657156,7509556,5830078,45263670,6645508
7.910,-49977390,-19958160,-8112045,7492294,59021000,-95458980,-65527340
7.920,-50063710,-73550500,44634390,7526818,16259770,12333980,-55908200
7.930,-50124130,-73835340,44073330,7587238,21643070,-10722660,-75097660
7.940,-50219080,-21133790,-9370544,7613138,-31420900,-18681640,-4949951
7.950,-50331300,-74258300,43115220,7621766,-13935550,-7558594,-34576420
7.960,-50417610,-74413660,42735420,7639030,-7524414,-5341797,12408450
7.970,-5050393,-21927910,-10233710,763902,48950200,18017580,38745120
7.980,-31260470,-22160100,-10484890,26968800,8477783,3779297,-6699219
7.990,-29355370,-22384520,-10726580,28925690,59228520,68603520,-50878900
8.000,-50642030,-22618440,-10976040,7656294,61083980,7133789,-8022461
8.010,-29364010,-22844590,-11216000,28934320,7919922,5566406,-9453125
8.020,-50616140,-23037940,-11419700,7682188,5678711,-61798100,-94628900
8.030,-50598870,-75440840,40655190,7716714,41552740,-37402340,-35131840
8.040,-50607500,-23314160,-11713180,7759874,4095459,-3425293,-5908203
8.050,-50624770,-7556168,4037899,7794402,-8100586,-14677730,-5888672
8.060,-50659300,-18205330,-17046430,7811666,-9135742,-6777344,-4423828
8.070,-50676560,-75578940,40292660,7777138,-42114260,56933590,2944336
8.080,-50667930,-75622100,40232230,7733978,56549070,7866211,-27816770
8.090,-50642030,-7569978,4012004,7656294,3383789,9086914,-35742190
8.100,-5059023,-75829260,39973280,755268,5629883,75,-36450200
8.110,-50529820,-23863990,-12285460,7423242,48583980,4970703,-3671875
8.120,-3103344,-76114100,39636650,2671241,9954834,19934080,-45239260
8.130,-50426240,-76269470,39429490,7095236,-27905270,-81726070,-18945310
8.140,-24607180,-19162230,-18005760,-18879200,-31518560,-2154541,-2993164
8.150,-50339930,-24494100,-12932840,6715444,-13952640,-25805660,-6088867
8.160,-30613090,-7661476,3899792,26235110,-11924740,-16455080,-94384770
8.170,-30498290,-19438450,-18281970,26108220,36206060,-106933600,-1296875
8.190,-30260060,-76804640,38877060,25828560,-10070800,-4375,-5883789
8.200,-25100910,-24807430,-13240990,-19524850,9785156,65966800,-19763180
8.210,-25232980,-24867850,-13301410,-19686260,-1234375,-28881840,-6201172
8.220,-50193190,-7696001,3870445,4963212,3605957,-72265620,85253900
8.230,-50227710,-76968640,38661270,4652470,-16875,-24853520,-13293460
8.240,-50253610,-19714660,-18558180,4384894,-15576170,-19946290,34179690
8.250,-50270870,-24902380,-13335930,4125940,-6850586,7470703,11435550
8.260,-50270870,-2494468,-1337994,3884254,-10888670,5288086,15551760
8.270,-29270870,-77046330,38583580,24608040,3994751,-15350340,-51123050
8.280,-50236340,-7711538,3849729,3331824,31518560,-3137207,-6308594
8.290,-50210450,-25150110,-13588840,3012454,52124020,40771480,-2685547
8.300,-50201820,-25184640,-13623370,2727612,-59277340,-66467280,-44311520
8.310,-50184550,-77227590,38402320,2468658,-6459961,-34423830,16748050
8.320,-28610550,-5977177,5589270,23818240,-50927740,-56884770,-1005249
8.330,-50158660,-25138030,-13566400,2045708,7305908,-4140625,-34155270
8.340,-26776320,-77167170,38583580,-21578330,-1222229,-40014650,32470700
8.350,-50219080,-77115380,38635380,1519172,-24551390,-62158200,11437990
8.360,-27130220,-24992150,-13418800,-21984010,30297850,26464840,79541020
8.380,-27587690,-77046320,38531800,-22510540,55615230,44750980,94628900
8.400,-28159110,-77115380,38117480,-23164830,-16552730,16326900,10742190
8.410,-24989990,-77184430,37806730,24469500,-15075680,-31225590,85546870
8.420,-50883720,-25640390,-14168890,-1942126,6866455,13175960,6015625
8.430,-51021830,-25857040,-14418350,-2615398,1973877,21789550,34057620
8.440,-26633890,-77426120,36632820,21185580,32666020,-47088620,15271000
8.450,-30016650,-26308480,-14933660,-25295120,4189453,26000980,10272220
8.460,-51358460,-58817960,54654040,-4747425,34814450,16540530,859375
8.470,-51436140,-26644250,-15322950,-5412058,24060060,7067871,-55725100
8.480,-3105764,-26762510,-15463650,-2651566,15795900,-15060430,-45532230
8.490,-51548360,-7760739,3520863,-6698180,5319214,11993410,-6611328
8.500,-31646310,-7758148,3513093,-27221710,1295166,10748290,-5180664
8.510,-24784130,-77546960,35113650,18840350,10284420,32080080,-20654300
8.520,-24499280,-58446800,54213820,18503720,29174800,24694820,-18286130
8.530,-51410250,-26705540,-15434300,-9028732,3762207,67871100,-30371090
8.540,-51298040,-26581240,-15299640,-9555262,4963379,6533203,-27148440
8.550,-51151300,-26425870,-15127010,-10064530,55126950,5932617,-13623050
8.560,-23277040,-26253240,-14937110,17119200,3918457,5786133,-22888180
8.570,-50806040,-26065930,-14727360,-11100330,28295900,5756836,-12036130
8.580,-50581610,-76985900,36658720,-11600970,6660156,76660160,-3984375
8.590,-33116280,-5718518,5678746,-29290720,88916020,10849610,-2319336
8.600,-50029180,-25302030,-13868510,-12567720,9296875,12548830,2619629
8.610,-49718450,-5928492,5543005,-13051090,7558594,1125,20935060
8.620,-33262160,-24718520,-13209050,-29680010,5810547,12382810,23815920
8.630,-49027910,-59595670,55861610,-14086890,3544922,12578130,27539060
8.640,-20161860,-76295370,39507180,13829660,23095700,13320310,29345700
8.650,-48259690,-18733060,-17571760,-15269430,3088379,13886720,-18798830
8.660,-47836740,-23750910,-12105060,-15882280,5493164,15175780,-37719730
8.670,-47387890,-23567060,-11891860,-16538290,46411130,15488280,-2602539
8.680,-18044520,-23392700,-11686420,11631180,14123540,14375,-4177246
8.690,-46395250,-76027790,41345720,-17927990,25863650,18261720,-36645510
8.700,-45851460,-75993260,41725520,-18627160,-13903810,15927730,-46948240
8.710,-16186120,-22829050,-11024370,9726170,-110839800,15117190,-41918940
8.720,-15527520,-7591558,4247648,9055489,-97961420,14345700,-5908203
8.730,-33572030,-22431990,-10558260,-31251840,-19018560,15058590,-8442383
8.740,-33542690,-22217070,-10307080,-31367510,-16748050,16591800,-9013672
8.750,-42623210,-75725680,43736700,-22356040,-4111328,2015625,-9243164
8.760,-41880880,-75639370,44185540,-23167420,-6152344,24941410,-6230469
8.770,-41086770,-21451440,-9432694,-23996050,-7548828,21992190,-8486328
8.780,-40258130,-15742710,-14537210,-24859220,-6879883,21191410,-9536133
8.790,-10067120,-75276830,45635660,3553657,-7783203,26386720,-6669922
8.800,-38454110,-20589130,-8465082,-26697770,-92822260,26445310,-7553711
8.810,-37478730,-20337090,-8181963,-27673150,-91259770,25800780,-94433590
8.820,-7140985,-20116980,-7935962,627522,-8730469,22304690,-94384770
8.830,-60697930,-74836620,47198000,-4419419,-8725586,22539060,-11582030
8.840,-49528550,-19732870,-7508693,-15519750,-10449220,24433590,-11904300
8.850,-32518970,-74655340,47776320,-32408490,-10732420,21464840,-13652340
8.860,2803567,-19396240,-7137533,-9280777,-98828130,15517580,-15634770
8.870,-14423530,-74430930,48294220,-50158660,-11826170,13554690,-15869140
8.880,-2304654,-74266920,48579060,-62035850,-12539060,11572270,-19296880
8.890,9917796,-74059770,48907070,-73982080,-11210940,1234375,-20097660
8.900,2242511,-73800820,49269600,-8616141,-12998050,17431640,-19091800
8.910,-25014590,-18104070,-5788401,-38341900,-12666020,12978520,-18476560
8.920,47586420,-73205220,49986020,-110545900,-13808590,10576170,-18515620
8.930,6049943,-72868590,50322660,-12301000,-14365230,82177740,-18427730
8.940,-20560650,-17102800,-4787126,-41466560,-13398440,6245117,-17294920
8.950,-29571250,-72160800,50909620,-31920800,-13564450,5,-14501950
8.960,-17401460,-16478730,-4185498,-43503640,-13007810,-3929138,-15458980
8.970,-15778700,-16193020,-3918779,-44487650,-11552730,-5126953,-14277340
8.980,-14138680,-7106456,5147069,-45454400,-8408203,-11728520,-12988280
8.990,-1247277,-10166650,-8943882,-4637799,-63134770,-15449220,-11591800
9.000,-27213940,-15429980,-3231698,-30859960,-7416992,-18144530,-10546880
9.010,-9140946,-15214190,-3050433,-48121580,-71875,-23886720,-10195310
9.020,-7483658,-69579920,51695100,-48932960,-75634770,-25507810,-97753900
9.040,-25010280,-14603930,-2555838,-29628220,-4333496,-30175780,-5654297
9.050,21525670,-144183500,-24134160,-26898030,-39526370,-296875,-65771480
9.060,22650370,-14241400,-2279627,-27931230,-37768560,-31640620,-5600586
9.070,23732790,-140722200,-21553300,-28920430,-43554690,-33964840,-31591800
9.080,24763410,-67352950,51367090,-29857830,-6689453,-34433590,-122924800
9.100,26703810,-13676020,-1895517,-31611780,-5410156,-35195310,99243170
9.110,5929962,-13557770,-1823873,-54094700,-21472170,-33007810,-45806880
9.130,8372726,-13304860,-1662460,-54811140,-64941410,-32109380,15783690
9.140,30034780,-65350400,50624770,-34599210,-12719730,-34648440,41625980
9.150,30746020,-13001890,-1447534,-35234490,-6976318,-34902340,65234380
9.160,3358962,-76363560,-64850630,-3363387,1171875,-33203120,83447260
9.170,1241237,-64262820,50486660,-5596781,39379880,-303125,9248047
9.180,13249620,-12442560,-1005591,-56200830,46777340,-27910160,9350586
9.200,-17376420,-6324427,5045215,-24504460,31323240,-26699220,13886720
9.210,33967360,-119117100,-5696906,-38107120,3022461,-26386720,17353520
9.220,1590820,-62683220,50512560,-5683961,22216800,-24179690,20410160
9.230,16434710,-115975200,-2969302,-56917270,61706540,-18457030,20214840
9.240,-16332850,-62234370,50616140,-23718120,55847170,-14189450,19902340
9.250,-16104980,-62520080,-51245390,-23531670,-9423828,-13085940,23144530
9.260,-15890050,-6139536,-5012585,-23349540,-24987790,-14042970,25175780
9.270,-15688070,-6027325,-4900374,-23171730,-3955078,-13017580,25429690
9.280,18255990,-109967500,2762130,-56736000,-51123050,-10585940,24257810
9.300,35658310,-5743688,-4614323,-39437260,-27148440,-10439450,22480470
9.310,-14994080,-56407130,-45101360,-22501910,18249510,-12441410,21328120
9.320,-14867190,-61561100,51634680,-22369850,5234375,-13671880,21601560
9.330,-14767930,-54091250,-42756140,-22261950,7363281,-13349610,20839840
9.340,35565960,-61440260,52049000,-39253400,7006836,-13203130,19394530
9.350,-14634140,-102319900,11342020,-22102270,85546870,-13691410,18847660
9.360,18955160,-61319420,52515110,-55570720,11728520,-11816410,19199220
9.370,35342390,-99471410,14535740,-38993590,13720700,-10976560,20507810
9.380,35235360,-9818528,1601174,-38876200,12705080,-11347660,21328120
9.390,18782520,-96916440,17505030,-55087360,11210940,-11142580,21425780
9.400,18704840,-61164040,53481860,-54888820,11572270,-984375,21269530
9.410,-14368290,-37208260,-37196770,-21694850,1171875,-87939460,20214840
9.420,18480420,-9367954,2151876,-54405450,13291020,-68603520,17373050
9.430,-14279380,-92894080,22632250,-21524810,15234380,-54345700,16083980
9.440,18135140,-34760880,-33601990,-53818490,14931640,-67089840,19326170
9.450,1791073,-9137490,2491101,-5349049,12519530,-95166020,23378910
9.460,-14208600,-38031160,-26361130,-21284850,9614258,-9560547,23476560
9.470,17332400,-37018660,-25302030,-52722270,7709961,-7128906,20761720
9.480,17004400,-61854580,55812410,-52290680,6459961,-55322260,18017580
9.490,16633240,-88526450,29658430,-51833210,5048828,-40893560,14472660
9.500,16244810,-88008550,30694230,-51358470,5527344,-15197750,10380860
9.510,15847760,-62415640,56822320,-50875090,43041990,13586430,9560547
9.520,15407540,-8733526,3243782,-50383080,8557129,1730957,13173830
9.530,-14219820,-27705000,-26501920,-20703940,-3515625,6964111,16425780
9.540,14509850,-33059310,-20974970,-49364550,-6816406,2331543,15595700
9.550,14061000,-63408280,57970330,-48846650,-94091800,62109380,11503910
9.560,29243250,-8881992,3305930,-32714910,-10556640,10566410,6699219
9.570,-14279380,-90080150,32247930,-20385430,-9790039,13115230,40771480
9.580,12792140,-3634883,-2407288,-47405160,-7841797,11660160,26342770
9.590,12420980,-37663450,-25347780,-46982210,-38061520,15820310,29492190
9.600,27594600,-3906177,-2671159,-31049000,-14440920,18271480,70166020
9.610,-14367420,-96269060,27560940,-20159280,-20812990,18144530,12128910
9.620,26869540,-9806444,2607628,-30323940,-30126950,19882810,14101560
9.630,10962230,-44114760,-31671340,-45523460,-19873050,19443360,11054690
9.640,26176420,-102319900,22390560,-29636000,53527830,19453120,5209961
9.650,10280330,-104848900,20085910,-44927870,5756836,18056640,-31204220
9.660,-14642770,-67068110,58039380,-20108350,10732420,16484380,-18115230
9.690,9080522,-116795200,8553987,-44349550,14648440,16416020,-17138670
9.700,8821572,-68414650,56934520,-44315020,13261720,15283200,-3815918
9.740,-15619010,-69718030,55285870,-20875710,-4852295,14648440,-11015630
9.750,24454390,-82286610,-69803490,-28129770,-2902832,16425780,-13476560
9.760,7811666,-14224130,-1761725,-44824290,-6201172,15087890,-13779300
9.780,24563160,-62962890,61212380,-28314480,-16699220,11445310,-97021490
9.790,24638250,-15311730,-2918370,-28412020,-21054690,10644530,-10644530
9.800,-16300920,-15644050,-3276583,-21626660,-23417970,11640630,-12333980
9.810,24854040,-62687530,60728140,-28662340,-25625,12978520,-12832030
9.820,-16420900,-62581360,60558100,-21800160,-26425780,11699220,-13466800
9.830,7897982,-16562460,-4274405,-46205350,-26425780,10205080,-13115230
9.840,25288210,-16825720,-4563568,-29125860,-26269530,57714840,-12089840
9.850,8182830,-72134900,50244980,-46576520,-2625,-14534000,-103125
9.870,25843230,-72281640,49632130,-29675700,-24296880,-5239258,-11972660
9.880,8856098,-7230752,4939907,-47094420,-23085940,-7158203,-12607420
9.890,9158206,-17597390,-5449177,-47275680,-21894530,-9951172,-13994140
9.900,9503476,-72186690,49088330,-47465580,-2015625,-11445310,-14160160
9.910,26888530,-17585310,-5478525,-30667470,-17744140,-13144530,-13466800
9.920,10280330,-61575770,59284930,-47879900,-15380860,-15136720,-11943360
9.930,27547130,-71660160,48976120,-31286370,-14179690,-17246090,-10087890
9.940,11160760,-7140982,4901927,-48346010,-14306640,-18535160,-79541020
9.950,11600970,-17024250,-5003783,-48613590,-12177730,-19941410,-6855469
9.960,-15381650,-7079699,4916603,-21475610,-1203125,-18720700,-7236328
9.970,12481400,-16592670,-4623989,-49200540,-13046880,-16572270,-9267578
9.980,12912990,-7010644,4928686,-49528540,-78027340,-15087890,-9345703
9.990,13344570,-69752560,49312760,-49891080,-10859380,-15615230,-9946289
10.000,-15037240,-69407300,49312760,-21440220,-66259770,-14570310,-71435540
10.010,14190470,-69062020,49312760,-50616140,-7158203,-109375,-5864258
10.020,14578900,-68734020,49278230,-50970040,-7348633,-7783203,-57666020
10.030,14941430,-68449180,49217810,-51315310,-74121100,-5703125,-63378900
10.040,-14840440,-68181600,49140120,-21533440,-86621100,-5131836,-80029300
10.050,-14817130,-67931280,49027910,-21574010,-68847660,-60546880,-10566410
10.060,15873650,-59246080,57367840,-52299320,-6142578,-44921880,-11816410
10.070,16132600,-15153760,-3525177,-52627320,-6977539,-42211910,-12900390
10.080,16365650,-15093340,-3499282,-52929420,-46655270,-6611328,-13525390
10.090,33074850,-58739410,56890500,-36738130,-5644531,-62597660,-14550780
10.100,-14836120,-66860950,48475480,-21865760,-43408200,-6899414,-13632810
10.110,16978510,-66653790,48389170,-53766710,-1538086,-10039060,-10878910
10.120,1715114,-14793830,-3315427,-5402566,-25878910,-13085940,-66015620
10.130,-14892230,-66222210,48302860,-22051340,12097170,-15341800,-43139650
10.140,17487770,-57150400,57150230,-54483130,34594730,-12539060,-26489260
10.150,-14897410,-144149000,-30038220,-22132480,94384770,-11728520,13330080
10.160,-1488964,-9132225,-7993017,-2215751,11738280,-9951172,4050293
10.170,-14863750,-89846230,-78471420,-22166140,16171880,-9555664,7446289
10.180,-14837850,-65048300,48544540,-22174770,20234380,-4819336,10810550
10.190,-14792960,-13766660,-2426363,-22167870,22910160,17321780,16484380
10.200,-18075160,-13619060,-2297751,-18816620,23925780,6323242,21875
10.210,35448560,-84025030,-72726170,-39129110,25957030,1140625,26933590
10.220,35687660,-13354060,-2079372,-39356120,28300780,18183590,29667970
10.230,-14505530,-81584000,-70333470,-22058250,30410160,24003910,32304690
10.240,-14438200,-13052820,-1828188,-22039250,28222660,2796875,32480470
10.250,36426520,-78450700,-67251970,-40067370,25546880,28164060,32910160
10.260,3667167,-7688319,-6571208,-4030561,22109380,27539060,31953120
10.270,-14279380,-62700480,48734430,-22025450,18759770,24570310,32636720
10.280,-14230180,-12393360,-1279214,-22022850,14277340,21777340,32382810
10.290,-14180980,-12242300,-1154054,-22020260,11083980,21132810,31035160
10.300,21337500,-12116280,-1055654,-57486950,10107420,20019530,28828120
10.310,2157055,-119997500,-9650212,-5768554,10595700,16777340,27617190
10.320,-14066180,-6143162,4863949,-22031480,13007810,10722660,26640620
10.330,-14073940,-55537060,54275110,-22075510,13466800,3425293,27011720
10.340,-14117110,-67625720,-56670400,-22153190,15410160,-44384770,2640625
10.350,2208848,-60758350,48535900,-5854868,15703130,-10234380,23769530
10.360,-14314770,-60533930,48518640,-22404380,13681640,-15205080,19335940
10.370,-14450290,-64739280,-53859920,-22562340,9897461,-20585940,16171880
10.400,38915040,-113273500,-5153106,-42706080,46972660,-31542970,15048830
10.410,21769080,-65041390,-54248340,-59955620,57373050,-34648440,14492190
10.420,21665510,-59903820,47871270,-60128240,8129883,-37167970,14208980
10.440,2140655,-6622998,-5547664,-6042173,57470700,-3875,12402340
10.460,21164870,-59800240,47577790,-60628880,7409668,-29003910,4885254
10.470,21078550,-59782970,47526000,-60715200,-120910600,-19794920,5361328
10.480,40876990,-59782980,47474210,-40916760,-33081060,-8613281,85546870
10.490,2095770,-115491800,-8286408,-6085336,-34887700,6689453,12861330
10.500,20880020,-116061500,-8925154,-60913730,-8660889,19501950,12666020
10.520,-16102390,-70001150,-59301330,-24276590,-4091797,41835940,8720703
10.530,-16191290,-11992850,-1299930,-24360310,-95458980,48085940,75439460
10.540,20474330,-12194830,-1512270,-61198570,5678711,51601560,79052740
10.550,-16363930,-124037200,-17349670,-24532950,82470700,55351560,1046875
10.560,20318960,-78349710,-67698220,-61405740,82714850,55351560,12851560
10.570,-16575400,-60672040,45652920,-24753050,6904297,54375,11494140
10.580,20120430,-12996710,-2384933,-61725100,42211910,54804690,7104492
10.590,-16887010,-83755730,-73168110,-25080200,-51818850,5046875,19628910
10.600,38889140,-13264290,-2704306,-43129020,-78808590,4328125,-27563480
10.610,-17317730,-133782300,-28493160,-25529910,-15917970,35292970,-7036133
10.620,19455790,-13490440,-2996055,-62786800,-24042970,28671880,-11044920
10.630,-17777800,-89214400,-78757980,-26019320,-29667970,20703120,-12734380
10.640,-18000490,-6068066,4346912,-26262730,-33632810,9604492,-11738280
10.650,-18221460,-14005750,-3637387,-26507870,-321875,-32421880,-98535150
10.660,18955160,-60637510,42545520,-64167870,-34570310,-9794922,-11347660
10.670,-18695340,-14420080,-4155287,-27035270,-30195310,-19013670,-1265625
10.680,-18965510,-6056845,4149247,-27334790,-30,-29296880,-153125
10.690,-23401640,-14853380,-4705988,-23485610,-26660160,-37441410,-146875
10.700,39738510,-51437870,49431870,-44489380,-23574220,-4671875,-12900390
10.710,18178310,-60421720,39861080,-66291260,-19726560,-54375,-1234375
10.720,-20116120,-15516300,-5544987,-28583790,-18681640,-5828125,-13974610
10.730,1779851,-11285570,-10293620,-6705085,-14179690,-60664060,-13867190
10.740,1760000,-60395830,38316000,-6737025,-11796880,-6515625,-13251950
10.750,17375560,-16186980,-6358956,-67663700,-10048830,-69765620,-13017580
10.760,-21150190,-60438980,37461460,-29655850,-93652340,-72382820,-14345700
10.770,1684039,-16540010,-6782770,-6818160,-8251953,-72382820,-15751950
10.780,39874020,-16672080,-6944185,-45061660,-9121094,-7171875,-19091800
10.790,-21946030,-60447620,36572410,-30430970,-97802740,-68085940,-20566410
10.800,39738500,-60447620,36347980,-45024540,-11455080,-63359380,-22207030
10.810,-26196530,-16999220,-7342102,-27043640,-12089840,-56796880,-234375
10.820,-26343260,-60482140,35847340,-27190380,-14482420,-51367190,-26054690
10.830,-22613260,-17284930,-7677874,-31093020,-18095700,-44648440,-284375
10.840,15614700,-17468780,-7891077,-69372770,-20097660,-38398440,-29023440
10.850,-22589950,-60620240,34828800,-31116320,-2171875,-29648440,-28769530
10.860,16003130,-17876190,-8364094,-69571300,-23046880,-14003910,-2859375
10.870,40290930,-13827080,-12879320,-45628760,-21542970,3959961,-25820310
10.880,-22280080,-60818780,33594480,-30908300,-18310550,19492190,-26621090
10.890,-22176500,-14349900,-13409560,-30839250,-12724610,38496100,-20410160
10.900,-22074640,-18848120,-9481030,-30768470,-953125,55664060,-16591800
10.910,17271980,-19151090,-9816804,-69925190,-89501950,77695310,-13486330
10.920,-2185282,-15320360,-14389860,-3059325,-7578125,984375,-125
10.930,17686300,-61673310,31099920,-69856140,-38012700,11515630,-178125
10.940,-25474050,-62053110,30495710,-26350520,1899414,127421900,-25410160
10.950,-21294340,-20924900,-11685560,-30064120,22790530,140859400,-2640625
10.960,-24956160,-21483370,-12249210,-25832620,6329346,1484375,-28339840
10.970,-20701340,-22099670,-12858600,-29448680,-35717770,156171900,-34941410
10.980,41104040,-22766900,-13503390,-46041360,-11025390,1665625,-43828120
10.990,19110530,-23509230,-14211190,-67568740,-19453120,1646875,-49023440
11.000,-19398820,-66360310,27068930,-28006330,-27832030,150078100,-43671880
11.010,-18884380,-25205350,-15812360,-27415920,-3421875,127265600,-28320310
11.020,39912000,-26148790,-16698840,-44436730,-40195310,1109375,-17128910
11.030,19429900,-27118990,-17610340,-63762180,-52539060,100234400,-61376950
11.040,-17694930,-7118541,2448807,-25877760,-6953125,89921870,8925781
11.050,-17460150,-29219080,-19601670,-25491060,-8453125,6921875,30429690
11.060,-17274570,-30428380,-20774720,-25141480,-97578130,43007810,49921880
11.070,-17074320,-31806860,-22141110,-24772040,-1040625,16914060,659375
11.080,17082080,-33408890,-23767320,-58203380,-9796875,-12490230,90234380
11.090,34813270,-3528368,-2570773,-38832180,-78632820,-434375,118046900
11.100,16477860,-79981090,14725630,-55475770,-43515620,-71796870,142421900
11.110,16262070,-8158657,1175634,-53896180,31347660,-92890620,153359400
11.120,15968600,-49641620,42199390,-52169840,57890620,-11328130,1428125
11.130,15545650,-49163420,41279260,-50244980,108203100,-140859400,1109375
11.140,14975960,-48820740,40534340,-48104320,13953130,-1625,63125
11.150,-12752440,-47574340,-38690620,-18753180,135625,-17875,6772461
11.160,1343090,-48919150,40021620,-4326198,9671875,-17640620,-49414060
11.170,25215710,-50014510,-41066920,-28024460,42109380,-157421900,-79023440
11.180,11825390,-4558178,4465372,-38031160,-19785160,-14703130,-100546900
11.190,11298860,-51638130,-42533440,-35467550,-67851560,-156875,-12671880
11.200,11091700,-5213444,-4295208,-33240580,-77695310,-17515620,-1684375
11.210,11195280,-51103830,41565830,-31566040,-35214840,-17546880,-189375
11.230,-6967490,-47534980,-46584800,-11107240,553125,-90,-63632810
11.240,11868550,-94646320,1804019,-29390860,7765625,-60351560,-37246100
11.250,12110240,-46065090,-45085390,-29425380,821875,-53320310,-16191410
11.260,-65488510,-4954576,-3960209,-107835500,6796875,-45859380,17646480
11.270,-84909780,-48524680,-38448060,-89277410,47382810,-37011720,50976560
11.290,-63244270,-55435200,47178140,-110942900,21796880,-14384770,58085940
11.300,-6145753,-45331830,-35011800,-11169390,27773440,-36547850,553125
11.310,-5942907,-90831100,12887090,-11234130,47578120,17011720,65898440
11.320,-5765958,-89847100,14509840,-11307500,753125,51679690,96328130
11.330,20189490,-8888897,1636565,-37245670,9203125,77421870,11140630
11.340,20862760,-40106210,-29465090,-38057060,9140625,83046870,10296880
11.350,21199390,-38627600,-27853550,-38738960,69257810,75703130,79726560
11.360,21311600,-86239060,22830780,-39386330,46132810,73203130,5484375
11.370,21242550,-35799000,-24778090,-40076860,28535160,86640620,33964840
11.380,-9897436,-84555890,26533770,-9903628,20214840,89140620,14169920
11.390,30136630,-33459820,-22283530,-32235850,14736330,815625,8408203
11.400,-10889640,-32438700,-21215790,-11518190,13603520,64492190,29125980
11.410,-8831926,-82139020,30400760,-15164130,47094730,4625,22595220
11.420,19015580,-25560800,-24433850,-44737970,-15751950,27949220,29174800
11.430,-10543590,-80602580,32127090,-16956930,-30078120,40673830,-9698486
11.440,17565460,-29189730,-17921950,-46878620,-41523440,-20449220,-87890620
11.450,-12346750,-28545810,-17288380,-18813600,-4890625,-41757810,-12490230
11.460,15934070,-22857880,-21733350,-48924330,-53398440,-62460940,-16464840
11.470,-14142140,-27256240,-16022980,-20643510,-54375,-73945310,-15839840
11.480,-15025150,-77054960,35156810,-21538620,-56835940,-79296870,-20039060
11.490,13525840,-76286740,35804190,-51764160,-54921880,-77109380,-1515625
11.500,12835300,-2513973,-1394448,-52627320,-53007810,-7609375,-11904300
11.510,12231080,-74724400,37073040,-53438700,-48671880,-7234375,-12314450
11.520,11721810,-23683580,-12517650,-54189650,-44492190,-63671880,-11386720
11.530,-18474370,-73127540,38376420,-25098320,-40820310,-57265620,-11308590
11.540,11048550,-22200660,-11065810,-55570720,-36796880,-571875,-15273440
11.550,10884550,-71461630,39748860,-56200840,-34238280,-5453125,-16933590
11.560,31493530,-70572570,40517080,-36092490,-31386720,-478125,-14873050
11.570,10789590,-19697480,-8597147,-57331580,-28242190,-39082030,-10800780
11.580,10824120,-18753170,-7659749,-57832220,-24140620,-29882810,-9682617
11.590,34350180,-67672320,43244690,-34824060,-15097660,-18925780,-63183590
11.600,-20375070,-16697110,-5607135,-27340830,-86865230,-9712219,83740230
11.610,11048540,-15619880,-4526451,-59040660,-22888180,29316410,11943360
11.620,-20596040,-64513140,46472940,-27637760,-5734253,6640625,175
11.630,32892730,-63615440,47474210,-37731640,24475100,965625,16738280
11.640,-24237740,-62864480,48346010,-24237750,75439460,117421900,13212890
11.650,-20727240,-55672300,55659040,-27800040,13730470,124921900,45947260
11.660,11108970,-56333760,55101160,-59636240,25390620,120859400,-6274414
11.670,11108970,-61535200,49916970,-59688030,35175780,113203100,-13476560
11.680,33051540,-5623535,5513050,-37918080,43085940,1025,-17402340
11.720,-21311610,-9891034,1086728,-28596740,35800780,7703125,40014650
11.730,-21451430,-58781700,50443510,-28802170,25878910,71914060,12001950
11.740,11834030,-45484610,-34617330,-62346580,18095700,6078125,21777340
11.750,1206708,-9317892,1497595,-6276954,10693360,44257810,26875
11.760,12274240,-9235026,1535575,-63114800,75634770,29257810,29023440
11.770,-2167845,-91642490,15683750,-2926573,10820310,16289060,29667970
11.780,-21719880,-42811380,-32111560,-29345110,14160160,23510740,31445310
11.790,-21763900,-41934400,-31262200,-29421930,153125,-94873050,32167970
11.800,12748980,-5677913,4968392,-64107450,14960940,-19208980,31738280
11.810,12774880,-39407040,-28783180,-64305980,14111330,-27910160,28730470
11.820,-21996960,-37928440,-27327010,-29724040,11074220,-34023440,26796880
11.830,-22074650,-31689470,-30631220,-29818980,5839844,-37558590,25820310
11.840,38539130,-8286406,2278760,-39059620,12347410,-40859380,25214840
11.850,1279213,-34449880,-23900250,-6494473,-11529540,-43984380,22734380
11.860,1282666,-33839620,-23302070,-6504831,-23168940,-47226560,19150390
11.870,-22246410,-55441240,49830660,-30044270,-34448240,-48671880,14853520
11.880,12869830,-5535490,4983065,-65195040,-54248050,-53320310,9526367
11.890,12887090,-32360150,-21846770,-65246830,-42236330,-56132810,5058594
11.900,-22297340,-78789920,26309350,-30114190,-5761719,-58359380,-29678340
11.910,12852560,-7756420,2750051,-65333140,-5073242,-56679690,-13000490
11.920,36464510,-28642480,-18141190,-41721200,-5361328,-56132810,-265625
11.930,-22425090,-26569160,-16071310,-30245390,-5463867,-52890620,-16357420
11.940,-22467380,-71539310,33387320,-30289410,-44677740,-50585940,-107910200
11.950,-22507950,-54103330,50771510,-30335160,-42138670,-4859375,-6414795
11.960,-22520040,-19654320,-9175468,-30357600,-45214840,-44570310,4663086
11.970,-22485510,-64694400,40007820,-30340340,-45043940,-36074220,4034424
11.980,-22387110,-11312590,-10266600,-30266100,-20263670,-23789060,-16418460
11.990,1337046,-14978540,-4529040,-6576473,13586430,-71777340,-14978030
12.000,-26003250,-61414360,42942580,-26011210,24975590,13144530,-31567380
12.010,-21801880,-14534880,-4109540,-29798270,113220200,39453120,-35888670
12.020,1462204,-155672200,-51487930,-6573891,-17712400,57617190,-79296870
12.030,-21254630,-17378150,-6963171,-29326980,-28710940,6484375,-16328130
12.040,-24618140,-66930000,37237040,-25428310,18652340,678125,-25546880
12.050,15873650,-22905010,-12484850,-65402200,7709961,7015625,-32714840
12.060,1619304,-72661440,31574670,-6527276,11875,74960940,-34257810
12.070,16400180,-28175510,-17745000,-65151880,12880860,79882820,-34179690
12.080,16503760,-7731388,2707756,-65048300,12314450,81796870,-29667970
12.090,38302190,-32155570,-21706070,-43146290,9086914,78710940,-25917970
12.100,1646059,-33715320,-23253730,-6484979,9875488,74101560,-27773440
12.110,16408820,-8275184,2198487,-64746190,-83740230,71640620,-31484380
12.120,-23711810,-8540178,1945580,-24521980,-171875,66484380,-328125
12.130,-19974560,-41672860,-31178470,-28069340,-25996090,56328120,-31816410
12.140,-19836450,-45905830,-35404540,-27931240,-32480470,4375,-29726560
12.150,-19652600,-98098980,6948500,-27752560,-35585940,30761720,-25644530
12.160,17082090,-103623200,1424226,-64055660,-37734380,17763670,-20683590
12.170,-19179580,-109294300,-4298568,-27310620,-38808590,58154300,-15234380
12.180,-18926670,-114956600,-10030000,-27080160,-3796875,-36767580,-10351560
12.190,-18683260,-120342800,-15519750,-26857460,-36855470,-13701170,-70947260
12.200,18411350,-78258220,-67789720,-63555020,-34589840,-23867190,-41577150
12.210,-18300010,-13004480,-2549796,-26515640,-3328125,-34179690,35705570
12.220,-18170540,-13436060,-2998643,-26403430,-34199220,-44960940,15563970
12.230,19041470,-13833120,-3412965,-63442810,-33964840,-52578120,24230960
12.240,19162310,-61025930,42985740,-63442810,-33789060,-58320310,22424320
12.250,41360780,-14616010,-4235564,-41365200,-31972660,-64257810,2890625
12.260,-17911590,-61638780,41958570,-26196270,-2921875,-69140620,31689450
12.270,-17853760,-61975420,41397510,-26150520,-27832030,-72773440,22241210
12.280,19593900,-15912490,-5597642,-63477330,-24726560,-753125,-11383060
12.290,19723380,-52575530,50331300,-63468710,-21679690,-77304690,-38256840
12.300,1985287,-63002590,39662540,-6346010,-14443360,-784375,-42919920
12.310,-17570630,-63287440,39136020,-25915740,-10341800,-78789060,-49682620
12.320,-17530070,-52338160,49860870,-25887260,-39892580,-74609380,-13684080
12.330,39685850,-17702700,-7501791,-44024130,-25222780,-69453130,10748290
12.340,-17507630,-17814050,-7632126,-25892430,27416990,-62617190,16320800
12.350,39826540,-17830450,-7667518,-44176910,6743164,-51953120,3269043
12.360,-17608620,-13204220,-12190170,-26033130,10742190,-36796880,90527340
12.370,-17670760,-6317521,3793621,-26126350,11533200,-14179690,13925780
12.380,-21551480,-62899010,37849900,-22401010,12900390,8852539,18300780
12.390,20655600,-17473100,-7437915,-64746190,13486330,275,17763670
12.400,20819600,-62363840,37556420,-65048300,19111330,39765620,20390620
12.410,-17877060,-17352260,-7403387,-26507010,2703125,45507810,2265625
12.420,-17980640,-61871840,37237040,-26645120,36152340,509375,26171880
12.430,20966340,-17170120,-7292040,-65937360,44140620,55,30292970
12.440,43311060,-61336680,37150720,-43765270,49453120,58515620,3078125
12.450,-18644420,-12376870,-11394760,-27362410,52617190,61523440,30410160
12.460,-18995730,-60611620,37340620,-27718900,49453120,61171880,30761720
12.470,1990463,-16243950,-6474619,-6736159,42382810,56640620,29179690
12.480,-19744960,-15947020,-6201857,-28471580,32285160,51132810,30761720
12.490,-20100580,-15694970,-5970528,-28823750,23730470,43398440,35117190
12.500,-24345720,-59170130,37901680,-25217350,17607420,31484380,36542970
12.510,1845452,-15335030,-5639936,-6858729,15439450,19335940,34257810
12.520,18091990,-15228000,-5539811,-68759920,15068360,10634770,325
12.530,-21272760,-5875580,3810885,-29930330,15185550,32495120,30683590
12.540,1724609,-15141680,-5453492,-6900161,14814450,-66015620,27636720
12.550,16779970,-15135640,-5442272,-69087920,13876950,-17080080,24453120
12.560,-26011640,-15139090,-5438817,-26866000,13017580,-265625,20410160
12.570,15778700,-58833490,38255580,-69208770,10800780,-34648440,15234380
12.580,1528671,-58876650,38316000,-6925195,96240230,-41015620,98779300
12.590,14768800,-15136500,-5406881,-69286450,80029300,-45507810,4807129
12.600,-23337460,-15150310,-5410333,-31698100,5932617,-50507810,-6881714
12.610,-23601590,-15172760,-5422417,-31917340,44726560,-56757810,-30297850
12.620,-27561540,-15220230,-5461260,-28388970,2980957,-61367190,-48632810
12.630,38364340,-49870360,47788400,-43999100,2265625,-64570310,-68603520
12.640,-24227380,-59342760,38367800,-32430930,33398440,-64140620,-6777344
12.650,-28049840,-5945496,3829012,-28867430,30029300,-6265625,-63720700
12.660,12205190,-15565500,-5789266,-69346870,24768070,-58945310,-98583980
12.670,-24577830,-15668210,-5893706,-32719220,31176760,-53632810,-1078125
12.680,37793790,-5972254,3797072,-43533850,21289060,-46132810,-7866211
12.690,-24669320,-5978296,3785853,-32800360,-60943600,-39140620,-9692383
12.700,11903080,-48788640,48766540,-69424560,-35009770,-28007810,-9536133
12.710,-24709890,-11613570,-10638880,-32846110,-74316410,-14560550,-13544920
12.720,-24707300,-49813390,47569160,-32848700,-12294920,-40795900,-15
12.730,37849030,-16199930,-6466853,-43599450,-19140620,24938960,-1625
12.740,-24639110,-49828060,47537220,-32778780,-22246090,10869140,-18642580
12.760,-24541580,-60559820,37047140,-32651900,-13212890,33515620,-25371090
12.770,-24491510,-16817090,-7040855,-32581120,-10,42578120,-27324220
12.780,11859920,-61051830,36848620,-68828980,-10351560,53789060,-30703120
12.790,-24400020,-17194290,-7388712,-32448190,-11767580,609375,-31972660
12.800,37302650,-12998350,-12016240,-42971930,-14873050,66953120,-33984380
12.810,3721028,-17692340,-7857413,-4285713,-19033200,759375,-39335940
12.820,1185992,-18028110,-8177648,-6803487,-21328120,8484375,-41523440
12.830,1198939,-18448480,-8585928,-6775002,-23320310,903125,-44257810
12.840,3704715,-18963790,-9089153,-4257143,-24746090,93125,-47773440
12.850,-23342640,-64012500,34802910,-31295870,-24414060,95390620,-503125
12.860,-22990460,-64668500,34164170,-30940240,-23085940,9953125,-52070310
12.870,1317195,-65359040,33456370,-6632582,-24453120,101796900,-51484380
12.880,-26150000,-21638740,-11765830,-26157950,-27578120,104140600,-4765625
12.890,1409552,-22419050,-12556500,-6550579,-35644530,104609400,-4578125
12.900,14596160,-23233010,-13382550,-65039670,-43828120,10515630,-45820310
12.910,1512272,-51102100,47264460,-6449590,-5296875,10859380,-484375
12.920,1568376,-6925192,2901106,-6388303,-61992190,10765630,-47304690
12.930,16244810,-70210030,27966630,-63149340,-671875,1021875,-40390620
12.940,16805870,-7125444,2688766,-62312060,-74257810,97421870,-30410160
12.950,-18067820,-28203990,-18389780,-25936460,-82421870,93984380,-17480470
12.960,-17314270,-73559130,24634800,-25119040,-87734380,8578125,-9094238
12.970,18135150,-74810720,23486780,-59049290,-88671870,6953125,20136720
12.980,-15964280,-76105470,22364670,-23568790,-87265620,51796880,36894530
12.990,-15468830,-28563680,-27576730,-22924870,-86484380,43828120,47617190
13.000,-15136500,-7876402,2020676,-22411280,-86953130,39296880,56210940
13.010,16831760,-80162350,19015580,-53792600,-8671875,24121090,64648440
13.020,15916810,-81612480,17617250,-52342480,-7921875,26171880,78632820
13.030,-14613430,-83105760,15899550,-21190770,-65234380,-28671880,10390630
13.040,14130050,-8465081,1375025,-49088330,-39785160,-6671875,126015600
13.050,13422260,-86213170,11169390,-47189370,-10693360,-10015630,139375
13.060,12938880,-51957500,44009460,-45083240,32597660,-116875,121484400
13.070,1258496,-42438580,-41495820,-4288218,70820310,-123515600,99765620
13.090,12187920,-50651530,-41603810,-38307370,93359380,-163125,16572270
13.100,12127500,-92246700,-3374985,-36002720,8625,-170625,-37265620
13.120,12343290,-54223320,-45472520,-31833620,58046880,-17515620,-123125
13.140,12714460,-49532000,39529620,-28890210,21914060,-158046900,-13828130
13.150,-55225450,-94836210,-4272677,-96174110,-72216800,-15328130,-1340625
13.160,13197830,-53443880,-44214890,-27612730,-19072270,-14796880,-11796880
13.170,-4933000,-51826300,42241690,-9050312,-20410160,-140859400,-107421900
13.180,14104160,-52596240,43215340,-27845780,-56591800,-122734400,-75546870
13.190,-67630110,-53270380,44094910,-68059800,10878910,-100078100,-4234375
13.200,-4491060,-94231980,4428052,-8905302,16083980,-8484375,-23164060
13.220,-3948989,-54623820,46004230,-8653256,31582030,-77421870,-12451170
13.240,-30970450,-46270950,-36040690,-81586580,61015620,-546875,5258789
13.250,20992230,-9161658,1160096,-31540140,69257810,-359375,23320310
13.260,22217930,-56014380,48273500,-32196150,6484375,-13710940,56875
13.270,23340050,-42620620,-32077890,-32748570,52460940,8120117,63632810
13.280,24315430,-56883590,49683050,-33206050,38710940,25351560,5359375
13.290,-12636770,-88509190,19145050,-71435740,33242190,30917970,42460940
13.300,-9909164,-38821820,-27952810,-69847510,31738280,29316410,31015620
13.310,-7673562,-86955490,22735830,-68630450,38964840,32617190,28242190
13.320,-6387440,-58428670,52263930,-68190230,46328120,4359375,2078125
13.330,-6499652,-58824000,52921660,-68941180,44648440,49921880,9448242
13.340,-8424510,-84590400,28260100,-71332160,43984380,48515620,47683720
13.350,27232940,-59655230,54300140,-35985460,41757810,384375,-9844971
13.360,-1730651,-8286407,3221341,-8074933,34257810,29179690,4560547
13.370,26292080,-24429970,-23268670,-37306100,24121090,32949220,15419920
13.380,25696490,-2824628,-1653485,-37988000,17070310,44453120,26152340
13.390,-64834230,-26885070,-15082120,-71200950,-53466800,57265620,3671875
13.400,24341320,-61379830,57443790,-39205070,-15371090,65117190,41796880
13.410,23650790,-78272020,41259410,-39705710,-30488280,66054690,434375
13.420,-5422416,-77521070,42580050,-11737360,-40117190,6171875,40234380
13.440,-6434914,-21846770,-9762424,-12727410,-46875,46757810,32929690
13.450,-6872540,-21207160,-9107280,-13170210,-41992190,41640620,3265625
13.460,21138970,-75147360,45903240,-41993100,-34707030,4109375,30058590
13.470,20854120,-20224010,-8122406,-42502360,-22207030,39609380,29707030
13.480,30702870,-19820910,-7731392,-32947100,-13837890,36621100,30644530
13.490,-8437462,-19458380,-7386123,-14833530,-5136719,34960940,31933590
13.500,20051380,-73334700,47180740,-44237340,5205078,35234380,30332030
13.510,-9363642,-13341890,-12138810,-15823590,9707031,3625,2609375
13.530,18808420,-71927740,47897170,-46291680,12851560,36992190,22089840
13.540,18238730,-12233330,-11037670,-47033990,16650390,34257810,19912110
13.550,31205230,-17212420,-5281724,-34222860,21601560,30839840,18310550
13.560,16995770,-16816230,-4918329,-48587700,2453125,28847660,16416020
13.570,-13232360,-16435570,-4573924,-19809690,2546875,27382810,15722660
13.580,-13928930,-16078220,-4258005,-20528710,24433590,25097660,18203120
13.590,15234900,-15753670,-3978340,-51039090,20332030,23164060,19472660
13.600,31448640,-59588770,57663900,-35153360,17089840,20136720,19433590
13.610,14397630,-15254760,-3579557,-52566900,12822270,17763670,17412110
13.620,31721400,-15074360,-3449219,-35640180,9760742,12041020,15517580
13.630,31884540,-6702494,4870853,-35891360,81396480,51708980,13330080
13.640,-17012170,-66696950,48535910,-23832920,7055664,-14465330,11699220
13.650,32252250,-66403470,48346010,-36404090,7163086,-8671875,10341800
13.660,1346541,-14690250,-3263636,-5562252,77197260,-153125,10175780
13.670,32631180,-6582514,4797484,-36905590,9746094,-22402340,1109375
13.680,1331867,-14522790,-3189404,-5663242,109375,-29785160,121875
13.690,13206460,-57326400,55575900,-57124420,13818360,-353125,14560550
13.700,13051090,-9176675,-8052145,-57625060,13408200,-40,13046880
13.710,-19091540,-90020590,-78814960,-26190230,11796880,-428125,12548830
13.720,1261951,-13808950,-2643019,-5860907,9868164,-44179690,12861330
13.730,-1980190,-63632700,47646840,-2694725,76171870,-4609375,14443360
13.740,-20164450,-63201120,47715900,-27327020,49829100,-4703125,15751950
13.750,11773610,-62769530,47802210,-60007400,18444820,-47851560,14824220
13.760,-20876570,-12711870,-1685765,-28065030,-7348633,-45,12626950
13.770,35728830,-61906370,48095690,-36224810,-3762207,-40898440,98828130
13.780,-21501500,-12092110,-1114349,-28700320,-44433590,-37226560,93115230
13.790,-21768220,-61094990,48492750,-28968760,-36865230,-36835940,12001950
13.810,-25449030,-61746680,-50810350,-26168390,-56933590,-32324220,16679690
13.840,9486212,-50957090,-40020760,-62070380,-27246090,-84106450,56152340
13.850,9235892,-47681370,-36736410,-62079010,-3347168,178125,-16845700
13.860,8985572,-94154300,15433430,-62035850,-4736328,31914060,-8276367
13.870,32686430,-37751230,-36653800,-38006990,-69970700,409375,-14697270
13.880,32507750,-58531380,51401620,-37840400,-7607422,47734380,-23242190
13.890,-23217480,-40206340,-29192320,-30212590,-7416992,55546880,-33769530
13.900,32073570,-39785980,-28749520,-37428670,-11347660,65390620,-45898440
13.910,7664930,-40056150,-28997250,-61371210,-13535160,69921870,-559375
13.920,7319660,-90623950,20189490,-61198580,-16054690,73710940,-6328125
13.930,31295860,-5914422,5187635,-36704470,-16240230,76210940,-67421870
13.940,6577336,-43365530,-32247940,-60922360,-15585940,75625,-67734380
13.950,-23958080,-45011590,-33881910,-30663160,-17978520,73984380,-65820310
13.960,5869540,-9693368,1441489,-60801520,-21855470,70273440,-61953120
13.970,5576060,-48984750,-37849900,-60801520,-26894530,64570310,-5703125
13.990,30259200,-60516670,50693820,-35824910,-39082030,51289060,-509375
14.000,30262650,-6082740,5024497,-35838710,-44453120,44140620,-46992190
14.020,5403428,-117753300,-7060706,-61077730,-50742190,25898440,-35214840
14.030,-24401740,-12351060,-1304245,-31082660,-51289060,14433590,-27871090
14.050,-24021090,-86977940,-75988080,-30790050,-4828125,-70654300,-16435550
14.060,-23779400,-63641330,45946400,-30600150,-45507810,-15136720,-13203130
14.070,7405976,-10092930,-9000334,-61302150,-41523440,-240625,-96191410
14.080,7906614,-64694400,44254600,-61302160,-37988280,-3546875,-63671880
14.090,8398618,-65186400,43469120,-61276260,-34121100,-45195310,-36328120
14.100,8856100,-16839530,-5999877,-61233100,-28886720,-51835940,-2487793
14.110,9270418,-66006410,42182990,-61164050,-25175780,-54492190,-20397950
14.120,9658848,-12857570,-11777230,-61086360,-22207030,-56640620,-8203125
14.130,-21957250,-18041920,-7248878,-29055940,-2109375,-60078120,15136720
14.140,-21749230,-18288790,-7502650,-28866910,-20664060,-62929690,28564450
14.150,33145630,-18470060,-7683919,-38169260,-19814450,-64726560,37475580
14.160,-24579640,-18600390,-7812528,-25294170,-18544920,-64179690,15124510
14.170,11014020,-18680670,-7887624,-60542570,-17089840,-60546880,-30371090
14.180,11255700,-6733567,4064655,-60421720,-15302730,-56445310,-5683594
14.190,1151465,-18781660,-7976530,-6030088,-12871090,-55351560,-7709961
14.200,33565990,-67473800,40646560,-38404910,-88964850,-53007810,-77734380
14.210,-20370750,-18830860,-8013646,-27586830,-3713379,-509375,-18566900
14.220,-20116980,-18833450,-8011056,-27357230,22509770,-45234380,-33398440
14.230,-19869250,-18792020,-7966171,-27138850,11601560,-35371100,34423830
14.240,1322372,-18705700,-7879856,-5980025,22480470,-2265625,640625
14.250,-19455790,-18590900,-7770232,-26792720,32265620,-4416504,87060540
14.260,-19333220,-18464880,-7654568,-26708130,43359380,18847660,12148440
14.270,-22615420,-18326770,-7533724,-23356880,49492190,41445310,19101560
14.280,14225000,-66645160,41026350,-60300880,5375,56054690,25957030
14.290,-22784340,-66386210,40991820,-23533230,5390625,62890620,29101560
14.300,-19577500,-66118620,40896870,-27102600,51757810,62578120,2609375
14.310,14242260,-17853750,-7195364,-61371200,48320310,5984375,21523440
14.320,-20023760,-17761400,-7149615,-27623080,44492190,55625,15449220
14.330,-20261130,-17675080,-7115088,-27903610,42265620,51523440,12119140
14.340,-20505400,-64858400,40189080,-28194500,39628900,47929690,11591800
14.350,1410418,-64504500,39956020,-6330474,36152340,4125,13691410
14.360,36488680,-17398860,-7011511,-41455340,32910160,32675780,17949220
14.370,14190470,-63762170,39541700,-64288720,29453120,23613280,22714840
14.380,-21298660,-63382380,39403590,-29196640,26347660,15371090,27128910
14.390,14259530,-52343330,49976530,-65151880,23027340,5722656,29941410
14.400,-21666360,-62631430,39325910,-29640310,19003910,-41088870,3234375
14.410,1407829,-51983400,49697730,-6583380,14023440,-14130860,33007810
14.420,-22122120,-61958160,39550330,-30116780,8432617,-23261720,30566410
14.430,1355175,-61699210,39740220,-6629129,18139650,-30800780,26699220
14.440,13206460,-61526570,39912860,-66429370,-57958980,-39140620,21640620
14.450,-22860990,-15776970,-5629577,-30793500,-9682617,-46171880,14472660
14.460,39228460,-61466160,40094130,-39768630,-11279300,-48945310,9238281
14.470,36610380,-10788620,-10686980,-42041430,-10625,-52148440,7441406
14.480,-26858580,-61716470,40016440,-27641820,-8852539,-56445310,9199219
14.490,36273750,-61915000,39938760,-41739330,-61572260,-62226560,10625
14.500,-23485920,-62096270,39878340,-31256160,-17553710,-671875,7441406
14.510,11290230,-6224297,3985243,-66135890,23083500,-68203130,40185550
14.520,11108960,-62346580,39852440,-66075470,36694340,-6640625,-93444820
14.530,-23694810,-16378600,-6150067,-31392540,31298830,-64140620,-6254883
14.540,10841380,-62432900,39886970,-66015050,20239260,-62421880,-70703130
14.550,35660040,-52288090,50031770,-41179140,-11212160,-6015625,-10537110
14.560,1092770,-16410540,-6187185,-6604958,4800415,-58242190,-10214840
14.570,-23602450,-16446790,-6237247,-31329530,11529540,-55117190,-82421870
14.580,1156646,-62355220,39550330,-6617044,3466797,-4734375,-49194340
14.590,12058450,-16571950,-6405566,-66230840,65283200,-27421880,13574220
14.600,12567720,-16682430,-6536768,-66256730,11132810,12536620,11767580
14.610,36921980,-16849890,-6714582,-42247730,13027340,35273440,20742190
14.620,-22513990,-62709110,38678540,-30432690,10595700,64804690,17890620
14.630,13042460,-63097540,38462740,-65833790,20546880,83984380,44604490
14.640,12705830,-63537750,38264210,-65583470,44101560,98515620,-98339840
14.650,36110610,-63943440,38082940,-41436360,5546875,111953100,-23417970
14.660,-23075060,-18306920,-8088742,-30752070,4859375,126875,-3234375
14.670,10780960,-6460806,3762546,-65246830,28476560,14953130,-47578120
14.680,-2374056,-18999180,-8777548,-3127775,26635740,178125,-65078120
14.700,9572524,-66213570,35640180,-64953350,-43398440,20765620,-89453130
14.710,-23781990,-67111260,34397220,-31219040,-64921880,19828120,-9015625
14.720,-23367670,-22696990,-12589290,-30804720,-76328130,18625,-7921875
14.730,10729170,-6942453,3122076,-63675860,-86953130,170,-7140625
14.740,1145424,-70753840,29477170,-6291631,-84921870,159765600,-6640625
14.750,3461560,-27216530,-17236590,-3959955,-91796870,153515600,-58554690
14.760,-20429450,-7349869,2581734,-27821610,-990625,12953130,-52304690
14.770,-19719920,-30360190,-20480370,-27063750,-1065625,909375,-38808590
14.780,-22415600,-31855190,-22023720,-23142390,-11328130,58007810,-26738280
14.790,13491310,-33292370,-23504050,-58117070,-120859400,30976560,-19492190
14.800,13171940,-51728760,45757370,-57055370,-13296880,11201170,-76953130
14.810,34051700,-79912040,17177030,-34483800,-136015600,-13476560,9941406
14.820,31184520,-81267220,15407540,-35434760,-127109400,-32988280,34414060
14.830,11471490,-39427760,-29815530,-53058900,-116171900,-52070310,71445310
14.840,10988120,-8417607,1113486,-51315300,-9375,-78242190,11703130
14.850,10668750,-85738420,8484935,-49269600,-59414060,-10265630,1646875
14.860,10496120,-50478030,42295200,-46939050,-14082030,-129453100,1915625
14.870,25673190,-88794030,2132023,-29068890,34941410,-15703130,1815625
14.880,-13061450,-90131940,-1363800,-18254270,66679690,-17234380,154296900
14.910,-9765013,-5590390,-4772798,-14161990,1078125,-1878125,20136720
14.920,9943688,-4529729,3466653,-31902670,1184375,-193125,-22089840
14.930,9848741,-9349828,-1465659,-30167700,9609375,-190,-59609380
14.940,9762423,-58564180,-50730070,-28769370,55195310,-1765625,-92890620
14.950,-8832273,-39753780,38656350,-9207927,50683590,-166875,-1559375
14.960,-68060750,-9427510,-1508813,-105435900,17617190,-1625,-1884375
14.970,10435700,-45721120,34898720,-27388310,46523440,-14734380,-161875
14.980,-6447859,-46568740,35915540,-10314850,70664060,-126875,-1215625
14.990,11531920,-94525470,-9952317,-28225580,834375,-115546900,-9765625
15.000,12162030,-94465040,-7733981,-28855690,86015620,-109375,-93515620
15.010,-6230341,-49422380,39449340,-10480580,101171900,-9125,-73046870
15.020,-61845940,-94024830,-3116033,-105953800,105234400,-62851560,-44648440
15.030,-61328050,-51897940,-42618890,-107162200,10140630,-40039060,-24882810
15.040,-84352260,-5186683,4268453,-84828550,9375,-28183590,-11650390
15.050,16270700,-49286000,-39654770,-33257840,8796875,-15527340,7861328
15.070,-84176950,-54194820,45967120,-89492340,77578130,29082030,44296880
15.080,18445890,-9038225,1192034,-36227140,63828120,62421880,7671875
15.090,18756630,-89493200,15036380,-37107570,51015620,91875,9046875
15.100,18817050,-40495500,-29818120,-37910320,4046875,125390600,93359380
15.110,1858401,-87576970,21372030,-3864405,21582030,1515625,865625
15.120,18074720,-36663900,-25570470,-39343170,36694340,1534375,578125
15.130,-1108065,-5926076,5341712,-1165518,-6015625,146328100,39277340
15.140,-9343785,-84504100,29623910,-15083850,-15566410,132265600,284375
15.150,1549387,-83442400,31790460,-4183776,-35273440,11671880,24980470
15.160,-11309220,-30244520,-18645280,-17037200,-57890620,100859400,23066410
15.170,13517210,-60526160,55863340,-43831650,-69726560,8171875,17373050
15.180,-13210780,-8068025,3579556,-18968100,-75117180,53203120,9819336
15.190,27278680,-27583380,-15954790,-30674380,-85703130,2578125,48828120
15.200,27465130,-7920424,3670187,-31023100,-92734380,26293940,31884770
15.210,11039910,-26639940,-15102840,-48121580,-95859380,-19140620,6245117
15.220,1072055,-77961280,36805460,-4916605,-93046870,-459375,23156740
15.230,10487490,-26040900,-14631550,-50175920,-86640620,-66679690,-2578125
15.240,-17358300,-76821900,36598300,-23504050,-809375,-80234380,-12080080
15.250,29029190,-76269470,36460190,-33222450,-76992190,-87421870,-16982420
15.260,10073160,-25291670,-14086030,-53007110,-71289060,-92578130,-20898440
15.270,10030010,-25034440,-13894410,-53861650,-62578120,-96171870,-21855470
15.280,-19085500,-24743560,-13667390,-25557520,-53007810,-95390620,-20273440
15.290,10090430,-24421590,-13402400,-55458500,-44335940,-928125,-16113280
15.300,-19668990,-56709230,52999340,-26303300,-37070310,-86328130,-10732420
15.310,10314850,-23574830,-12643680,-56805050,-32558590,-77109380,-76904300
15.320,1047022,-18119180,-17029000,-5739201,-24726560,-65820310,-93310540
15.330,-20205880,-71358050,37470100,-27061160,-17939450,-55976560,-1234375
15.340,10858650,-21638740,-10764560,-58384640,-10761720,-46484380,-11826170
15.350,11065810,-20791970,-9919520,-58816230,-81689460,-36601560,-8339844
15.360,1128162,-68803070,39973280,-5920469,-7109375,-25742190,-5913086
15.370,11480130,-6783631,4102635,-59558550,-68115230,-14130860,-57128900
15.380,11687290,-17783840,-6885488,-59869300,-35986330,72753900,-2524414
15.390,-20526120,-16687620,-5772000,-27724940,-27807620,16777340,12939450
15.400,12015300,-55684650,53661390,-60300880,1809082,34082030,3046875
15.410,12092970,-14471860,-3516545,-60447620,9248047,51054690,39868160
15.420,1207568,-84382380,-73404620,-6056850,15136720,64726560,6311035
15.430,1195487,-12333800,-1338773,-6068931,20332030,70898440,-7084961
15.450,-21157960,-59981500,50124140,-28405120,28183590,79101560,-20078120
15.460,1113486,-9619138,1384521,-6126763,25429690,82265620,-23691410
15.470,-21740600,-89372350,20491600,-28979120,20976560,80859380,-22167970
15.480,10565170,-34397220,-23435000,-61871850,18300780,78945310,-19072270
15.490,-22300790,-7916970,3014181,-29558300,15205080,79414060,-17080080
15.500,33774020,-26768550,-15871930,-39008260,14150390,81328130,-15722660
15.510,10150850,-73205220,35398500,-62907640,13251950,81484380,-13359380
15.520,1015087,-71297630,36943570,-6323568,11982420,76445310,-11777340
15.530,1021127,-21189040,-10402900,-6353777,11279300,6671875,-9248047
15.540,1034940,-68328340,39153270,-6384853,14169920,53632810,-5395508
15.550,1055653,-13741710,-12671210,-6417651,15361330,40859380,13293460
15.560,-26467650,-16895640,-6237248,-27221370,15175780,31015620,8544922
15.570,11195280,-62717740,43382800,-64884300,12626950,24589840,1265625
15.580,1160096,-128750100,-23167420,-6522100,97314460,21113280,15673830
15.590,12058450,-106929200,-1829914,-65540310,91308590,15859380,16845700
15.600,-22737550,-55596620,49036540,-30571670,9536133,80566410,17705080
15.610,-22608080,-15568950,-5147067,-30511240,10361330,56396480,18544920
15.620,-22492410,5166059,15549960,-30454270,12001950,-58984380,19960940
15.630,-22415590,-19826950,83701350,-30427520,14033200,-11943360,19814450
15.640,1383662,1890332,105142400,-6664517,15791020,-17392580,18916020
15.650,37727320,2271859,12574620,-43013360,16992190,-22363280,18945310
15.660,-22463930,4353818,14635870,-30551810,17011720,-29179690,18251950
15.670,1383658,6261416,16526200,-6709400,15898440,-35292970,14755860
15.680,-22748780,8080975,18331950,-30836660,15664060,-39570310,11220700
15.690,-2294385,14248220,15272110,-3102137,15214840,-415625,80126950
15.700,13137410,10768020,20996550,-67482430,14199220,-43203120,6489258
15.710,-23349540,-4945948,5277407,-31392540,12636720,-44570310,6513672
15.720,1254186,-34181430,68017590,-6766371,1109375,-46875,7285156
15.730,-23744870,11720950,21942580,-31739530,10185550,-4875,6459961
15.740,-23922680,-49476760,52774060,-31889720,9741211,-484375,421875
15.750,11644130,-35363960,66955900,-67750020,9550781,-47226560,12298580
15.760,36741580,9726172,19966790,-42376340,11669920,-44609380,1081543
15.770,-24335280,-49865180,52627320,-32219450,13212890,-41328120,21899410
15.780,10944970,-38523160,64072920,-67655060,14648440,-37441410,36083980
15.790,-24496690,-39446750,63270180,-32334260,15888670,-34042970,5463867
15.800,10642850,-4018905,6263143,-67542850,17470700,-28515620,7783203
15.810,36159810,5470757,15763160,-41853260,19130860,-2171875,8076172
15.820,1047023,5033130,15337620,-6740474,19873050,-12236330,68847660
15.830,1044434,4595504,14912080,-6730979,19873050,13708500,78125
15.840,-24490650,4241606,14575450,-32253980,19208980,17011720,9189453
15.850,-24401740,-42873530,60654780,-32152990,16699220,34335940,11396480
15.860,-24288670,-4360721,6018005,-32024380,13359380,50898440,7451172
15.870,-24134160,6730118,7771098,-31850880,10810550,64804690,-8502197
15.880,-23962390,-4661103,5783223,-31660120,83251950,7859375,-10234380
15.890,10789600,-48863910,55941880,-65997790,-44482420,87421870,-24199220
15.900,35571130,2509230,13027780,-41043610,-15654300,9140625,-36796880
15.910,-23282220,-75233670,30348970,-30924700,-24433590,903125,-48242190
15.930,11436970,-9767426,-8704354,-64659870,-33496090,82421870,-64570310
15.940,11600970,-18104930,-7444820,-64375030,-38183590,7859375,-65585940
15.950,35336350,-55070080,51772780,-40570600,-44414060,74101560,-63242190
15.960,35357060,-74051130,32964360,-40549880,-4734375,6515625,-56875
15.970,-21939990,-56054090,51082250,-29539320,-50664060,55703120,-50585940
15.980,1258497,-35138680,-24419870,-6358092,-5328125,45234380,-44375
15.990,12999300,-40662960,-29944140,-63442810,-54296880,34355470,-365625
16.000,13482680,-9509513,1205844,-63304700,-565625,22792970,-30039060
16.010,36135640,-53690740,-42984010,-41048790,-57421880,10488280,-24238280
16.040,15873650,-6048212,4629167,-62536480,-50703120,-30761720,-5678711
16.050,-18954300,-83797160,-73126680,-26828110,-4671875,-41367190,-12695310
16.060,-18508900,-13912530,-3247235,-26410340,-43125,-50703120,13342290
16.070,17582720,-62571000,44047430,-61638790,-38691410,-58046880,31713870
16.080,-17654360,-63201120,43417320,-25590330,-34140620,-63632810,50341800
16.090,1849768,-15794240,-5128941,-6094826,-29160160,-68476560,6855469
16.100,-16880100,-16289700,-5617493,-24828150,-25839840,-72265620,8286133
16.110,-16533970,-11910590,-10842500,-24483740,-21777340,-74140620,96435540
16.120,19533480,-17068270,-6375356,-59929710,-18134770,-74140620,1078125
16.140,20103170,-17606890,-6889802,-59308240,-10205080,-73945310,11279300
16.150,2040527,-17810600,-7083153,-5902340,-61865230,-70585940,91552740
16.160,20750540,-17995310,-7260967,-58764440,-15106200,-65,75390620
16.170,2111308,-6647253,4088824,-5855728,53515620,-58945310,68408200
16.180,-14450290,-18311230,-7583789,-22441490,14472660,-50351560,8129883
16.190,2195037,-66619260,40465290,-5835879,2515625,-38554690,10917970
16.200,2239920,-6655884,4021497,-5844507,36210940,-24980470,16044920
16.210,38959060,-66368940,39956020,-42541210,45195310,-10820310,21367190
16.220,23253730,-18444160,-7865183,-59006130,48515620,5810547,24570310
16.230,-13776150,-18302600,-7782317,-22079820,48671880,24140620,265625
16.240,-13859880,-13410080,-12364100,-22237780,50078120,37519530,28808590
16.250,40411780,-17890010,-7487116,-44057800,51835940,4171875,32714840
16.260,2406511,-17612930,-7263555,-6099142,5484375,41523440,3640625
16.270,40911550,-63624070,39386330,-44662880,56171880,4203125,37558590
16.280,41101450,-52446920,50097380,-44921820,55742190,44882810,34472660
16.290,-19066850,-16438160,-6228616,-19931050,525,48984380,3140625
16.300,23469520,-10961260,-10859620,-63313330,45742190,49140620,29179690
16.310,2319333,-61094990,40120020,-6390031,37792970,4609375,284375
16.320,22908460,-60508040,40292660,-64461350,27929690,38671880,27480470
16.330,22623620,-59964240,40439400,-64970620,20957030,29414060,27265620
16.340,2232151,-5952403,4056887,-6541083,15917970,20097660,2703125
16.350,-17519710,-14227590,-4244193,-26294670,11044920,88916020,22988280
16.360,-17879650,-58893910,40801930,-26642530,91064460,-24230960,18681640
16.370,-18262900,-13871960,-3909285,-27001600,95947260,-14248050,16621090
16.380,-18659950,-58583170,41060880,-27364140,98779300,-23945310,16728520
16.390,19861480,-13634590,-3663284,-66696950,9121094,-31464840,13720700
16.400,-19532620,-13563810,-3578692,-28131490,64160160,-37402340,9638672
16.410,-19970240,-5852274,4148384,-28505240,37109380,-43515620,75683590
16.420,39884380,-58609060,41604670,-44809620,23474120,-5140625,6357422
16.440,-21087180,-13603520,-3538986,-29425380,-13842770,-63242190,41674800
16.450,1589956,-59083810,41785940,-6689550,-4020996,-61875,2265625
16.460,1540754,-13797730,-3690041,-6681780,-4296875,-59726560,11199950
16.470,14975960,-59498130,41768680,-66748740,-33911130,-56640620,8288574
16.480,14587530,-14065310,-3923097,-66671050,-34545900,-55820310,55999760
16.490,1424226,-14192200,-4037897,-6663653,-25146480,-596875,-75805660
16.500,-22305970,-6001602,4157879,-30364500,-41137700,-5859375,-3088379
16.510,1377615,-14393320,-4233837,-6663653,-625,-54101560,-41552740
16.520,13715730,-60154140,41354350,-66679690,-3894043,-4765625,-5102539
16.530,-22454440,-14554730,-4417690,-30509520,-1665039,-37773440,-6801758
16.540,-22397470,-6012823,4105225,-30480170,-3701172,-20097660,-44140620
16.550,14216370,-60059190,40914140,-66938640,-22094730,60302740,55078120
16.560,-22230880,-14640180,-4556660,-30370550,48828120,41171880,159375
16.570,1438900,-14630690,-4548893,-6700769,35858150,78710940,18544920
16.580,-22322370,-14647950,-4548892,-30434420,-3017578,113515600,5732422
16.590,-22497600,-14712690,-4587734,-30552680,-11456300,139375,-12822270
16.600,13163300,-51759840,49800450,-66645160,-390625,14921880,-37675780
16.610,12628140,-61000040,40853720,-66438000,-17314450,149375,-58242190
16.620,12265610,-15616420,-5410334,-66213580,-23476560,150390600,-70234380
16.630,36336760,-62165320,39981920,-41728110,-32832030,155234400,-8640625
16.640,12067080,-6288172,3921369,-65773360,-44335940,16546880,-9859375
16.650,12265610,-17877060,-7689959,-65557570,-5359375,1725,-107421900
16.660,12679930,-19007810,-8855236,-65281350,-6078125,17125,-11296880
16.670,-21889930,-20339680,-10233710,-29710220,-67148440,160625,-110078100
16.680,-21238230,-6707673,3346501,-29084430,-74179690,145546900,-97265620
16.690,-20452750,-23455710,-13453330,-28316210,-75234380,1259375,-80625
16.700,15813230,-6995106,2953758,-62838590,-728125,103203100,-64648440
16.710,3696343,-71496160,27457360,-4148127,-71484380,82265620,-503125
16.720,-17780390,-7304122,2535987,-25585150,-73632820,64648440,-3328125
16.730,-16967280,-51480170,46351230,-24706440,-79726560,48359380,-9941406
16.740,18091990,-76079580,21233920,-58298340,-91953130,32636720,13847660
16.750,-15721730,-34025200,-24342180,-23224390,-104296900,10048830,32675780
16.760,17720830,-51290270,45091010,-55527560,-11140630,-12880860,50507810
16.770,17159770,-37635820,-28033950,-53878910,-114296900,-36699220,69375
16.780,16426070,-82596500,13025200,-51988580,-10171880,-56601560,98515620
16.790,-13828800,-84426420,10556540,-20369890,-77695310,-72421870,1446875
16.800,-13162440,-86273580,7673560,-19378980,-35410160,-9875,17859380
16.810,14078260,-50372720,42003450,-44686180,13779300,-130078100,19328120
16.820,-11486170,-49535450,40631020,-17015620,59570310,-16375,181875
16.830,-12921530,-90891540,-3452668,-13439610,98671870,-17921880,1296875
16.840,-9794358,-47166920,37233590,-14633280,116796900,-17375,70195310
16.850,1113488,-45816930,35441660,-3399156,131015600,-1553125,-4572754
16.860,-8756834,-9288544,-1450984,-12977720,128671900,-134375,-63125
16.870,9356737,-43543340,32536240,-30400760,128125,-125390600,-9734375
16.880,-8479757,-9322208,-1860989,-12253530,107265600,-127578100,-13328130
16.890,-8569529,-60034160,-52626460,-12198290,6515625,-126484400,-18828120
16.900,7207449,-42938260,31691190,-28337790,7390625,-137734400,-2090625
16.910,6801760,-9378312,-1756546,-28519050,8375,-129296900,-169375
16.920,16609930,-9404209,-1552839,-18848990,68046870,-112734400,-120
16.930,6447863,-45936910,35200830,-29442650,61289060,-103515600,-82265620
16.940,-11556170,-9437872,-1058243,-11921980,4890625,-103984400,-6171875
16.950,-11706620,-55537920,-46902790,-12082270,44023440,-100234400,-50898440
16.960,7345556,-49352460,39363890,-31410660,39707030,-82265620,-24550780
16.970,19955740,-94085250,-3280037,-20198810,22597660,-53867190,-4611206
16.980,-10177610,-5210251,-4284590,-14353610,13535160,-31132810,81689460
16.990,9417160,-47496820,46571160,-34155540,11123050,-25546880,22402340
17.000,10288950,-49854820,-40311650,-35199970,14326170,-18349610,35839840
17.010,11195290,-52756790,43987010,-36244400,15527340,-2709961,42421880
17.020,12067080,-47425010,-37614250,-37271570,10585940,15410160,46953120
17.030,12869820,-46049980,-36089030,-38264220,5629883,27246090,4421875
17.040,13551730,-54578940,46687860,-39239600,3581543,33222660,34746100
17.050,-12771170,-4281569,-3250429,-13313750,-3491211,43515620,32773440
17.060,27784030,-8825886,1671954,-27786680,-84472660,4734375,24394530
17.070,14863740,-87197170,19662950,-41880890,-6074219,43164060,16972660
17.080,15139960,-86040530,22614990,-42675000,-6147461,33710940,14150390
17.090,27995110,-84780300,25549760,-30803860,-76416020,22675780,9375
17.100,-11360150,-33086070,-21897700,-17331540,21325680,11308590,85546870
17.110,28794400,-59182210,54117140,-31730900,-440979,17956540,13408200
17.120,15554280,-28863450,-17402320,-45661560,-1203125,-42037960,26367190
17.130,15424800,-26763370,-15186570,-46308940,-24414060,-2824707,32089840
17.140,29454730,-77279380,39524440,-32624280,-32246090,-10625,29316410
17.150,14898270,-22750500,-10982080,-47422420,-38867190,-14921880,26601560
17.160,14553010,-20886920,-9047721,-47923060,-46875,-18115230,24628910
17.170,14190470,-19135560,-7242839,-48406430,-5734375,-16865230,17392580
17.180,13845200,-17514530,-5583832,-48872540,-5921875,-17392580,10517580
17.190,13525830,-16022980,-4071561,-49364540,-57929690,-18076170,6899414
17.200,-18018190,-92642030,-80681980,-18649170,-56875,-16074220,8857422
17.210,12904360,-67163060,52368370,-50434880,-60625,-6894531,1140625
17.220,12584980,-68462120,-56524520,-51013200,-52460940,-7519531,8930664
17.240,11903080,-48579930,-36701020,-52247530,-39550780,18955080,-56396480
17.250,30152170,-93282500,25092280,-34291920,-34140620,28828120,-23742680
17.260,30252300,-85272300,32619100,-34502540,-2890625,33066410,-54833980
17.270,30357600,-24856630,-13122740,-34725230,-21328120,32011720,-8095703
17.280,-19189070,-70451720,46283040,-25730160,-16074220,32539060,-15283200
17.300,30643310,-57695840,57692390,-35389010,-21203610,34492190,-24472660
17.310,30755520,-52601420,62096270,-35622060,5463867,31425780,-20585940
17.320,30872910,3709031,15108020,-35849930,13271480,34296880,-15595700
17.330,8165564,-55277240,58022110,-58954340,17822270,41054690,-12089840
17.340,-22464800,12065360,23324510,-29221670,21054690,47773440,-7817383
17.350,31400310,-34371320,77529700,-36651820,19277340,53164060,-5107422
17.360,7690824,-5306751,5812569,-60913730,16923830,5703125,-2006836
17.370,7673564,-26430180,84089780,-61483420,11269530,615625,-3701172
17.380,34600670,26442270,37432120,-35143260,78271490,65,-78271490
17.390,-23769900,29144850,40081180,-30799540,60839840,63867190,-11943360
17.400,32688150,31325210,42216660,-38160630,31274410,59023440,-13388670
17.410,-23812200,-50408980,58125700,-30947150,22131350,51757810,-12792970
17.420,8519464,34726090,45548480,-63261540,12023930,44804690,-13232420
17.430,-26992880,-49830660,58134330,-27714670,8865356,375,-13115230
17.440,33537510,37339760,48113820,-39003080,21972660,30117190,-11826170
17.450,33712730,-982283,9769328,-39173130,40966800,24804690,-7988281
17.460,-23606770,3977908,5050825,-30928150,7753906,19365230,-24841310
17.470,9538002,-48898430,58186120,-64003870,10205080,14287110,1661377
17.490,-23466070,-48449590,58237910,-30878950,12958980,5102539,828125
17.500,34486990,-328002,10323480,-39918040,12548830,14123540,1015625
17.510,10185380,45523450,56157680,-64461340,11347660,-25390620,11337890
17.520,-23378020,46049120,56667810,-30863410,84228510,-6621094,10048830
17.530,-23359040,5153058,5153164,-30865140,69873050,-99560540,1015625
17.540,1052204,45887700,56483950,-6471164,546875,-1484375,86572260
17.550,34987630,-245138,10344200,-40401410,5258789,-18154300,98583980
17.560,35050640,-337497,10246660,-40459250,52441410,-20351560,9428711
17.570,-23237330,43045300,53629460,-30796950,35473630,-22480470,8457031
17.580,10815490,-48242430,57616430,-64815240,3737793,-24296880,84375
17.590,10806860,40107940,50697280,-64806610,3852539,-28847660,67529300
17.600,10763700,-48587700,57340220,-64797990,39379880,-32265620,24414060
17.610,-23277900,36736400,47336100,-30825430,5419922,-32558590,5126953
17.620,-26709330,34748530,45353400,-27463050,6254883,-33144530,66185000
17.630,37362810,32673480,43285260,-37905390,6303711,-32519530,19824220
17.640,1041846,-49528550,56675570,-6472895,5732422,-31992190,35986330
17.650,10349380,-1974061,8654979,-64694400,4645996,-315625,6923828
17.660,1028899,-22295620,84098410,-6465126,49121100,-31855470,78759770
17.670,-23447940,22987880,33635910,-30931600,70751950,-31894530,74560540
17.680,-23461750,-27819880,78746770,-30935060,99853520,-31699220,6489258
17.690,-23465210,-3079780,7585517,-30931610,12265630,-30585940,43164060
17.700,34605240,-3384478,7285995,-40041480,16181640,-26386720,3984375
17.710,34607840,-51720990,55018290,-40038890,18212890,-20839840,49121100
17.720,-23376300,7954953,18630610,-30847880,15849610,-12060550,6879883
17.730,1038391,4502282,15177940,-6446998,16044920,-5629883,61035160
17.740,-23195040,965022,11637230,-30701140,15722660,28466800,59521480
