gyrx(deg/s),gyry(deg/s),gyrz(deg/s),accx(g),accy(g),accz(g)
51.098,-1.159,-39.817,-1.013,0.245,0.053
50.183,-0.854,-40.366,-1.012,0.248,0.06
49.085,-0.976,-40.793,-1.009,0.245,0.06
47.622,-1.341,-41.402,-1.009,0.247,0.055
45.793,-2.195,-41.951,-0.999,0.246,0.055
43.659,-3.354,-42.5,-0.997,0.242,0.055
41.707,-4.512,-43.049,-0.996,0.242,0.051
39.268,-5.671,-43.476,-0.993,0.238,0.053
36.768,-6.768,-43.598,-0.997,0.236,0.054
33.902,-7.927,-43.78,-0.997,0.231,0.055
51.098,-1.159,-39.817,-1.013,0.245,0.053
50.183,-0.854,-40.366,-1.012,0.248,0.06
49.085,-0.976,-40.793,-1.009,0.245,0.06
47.622,-1.341,-41.402,-1.009,0.247,0.055
45.793,-2.195,-41.951,-0.999,0.246,0.055
43.659,-3.354,-42.5,-0.997,0.242,0.055
41.707,-4.512,-43.049,-0.996,0.242,0.051
39.268,-5.671,-43.476,-0.993,0.238,0.053
36.768,-6.768,-43.598,-0.997,0.236,0.054
33.902,-7.927,-43.78,-0.997,0.231,0.055
30.854,-9.085,-43.841,-0.992,0.23,0.054
27.683,-10.366,-43.841,-0.988,0.229,0.057
24.39,-11.829,-43.72,-0.984,0.227,0.052
21.22,-13.232,-43.72,-0.982,0.223,0.047
18.049,-14.146,-43.78,-0.982,0.222,0.047
14.817,-15.122,-43.537,-0.981,0.217,0.042
11.951,-15.854,-43.293,-0.982,0.215,0.04
9.329,-16.22,-43.171,-0.982,0.215,0.046
6.89,-16.524,-43.11,-0.982,0.209,0.046
4.512,-16.646,-43.11,-0.981,0.21,0.048
2.439,-16.768,-43.049,-0.984,0.212,0.054
0.732,-16.646,-43.049,-0.99,0.215,0.064
-0.793,-16.524,-43.11,-0.99,0.216,0.065
-2.256,-15.976,-42.927,-0.99,0.216,0.067
-3.293,-15.488,-42.744,-0.984,0.217,0.06
-3.963,-14.756,-42.744,-0.984,0.218,0.067
-4.329,-13.72,-42.439,-0.986,0.221,0.073
-4.39,-12.561,-42.073,-0.984,0.224,0.076
-4.39,-11.341,-41.585,-0.981,0.227,0.063
-3.841,-10.366,-41.098,-0.985,0.225,0.055
-3.171,-9.146,-40.427,-0.987,0.228,0.05
-2.439,-7.988,-39.756,-0.989,0.236,0.055
-1.707,-6.768,-38.902,-0.998,0.242,0.071
-0.854,-5.671,-37.988,-0.997,0.249,0.088
-0.061,-4.695,-37.073,-0.995,0.258,0.09
0.854,-3.537,-36.159,-1,0.263,0.099
1.829,-2.195,-35.122,-0.999,0.265,0.103
2.927,-0.732,-34.085,-0.994,0.264,0.102
4.268,0.61,-33.293,-1.001,0.264,0.109
5.427,1.524,-32.439,-0.996,0.262,0.113
6.402,2.317,-31.707,-0.997,0.264,0.116
7.622,3.354,-30.854,-1.006,0.27,0.115
9.024,4.634,-30.061,-1.005,0.277,0.121
10.488,5.366,-29.39,-1.005,0.287,0.124
11.768,5.549,-28.537,-1.009,0.294,0.128
12.988,5.61,-27.439,-1.007,0.307,0.129
14.39,5.61,-26.22,-1.003,0.319,0.125
16.098,5.793,-24.695,-1.001,0.33,0.125
17.927,6.402,-23.171,-1,0.341,0.124
19.817,7.195,-21.341,-0.999,0.353,0.126
21.646,8.11,-19.329,-1.001,0.36,0.133
23.415,8.902,-17.134,-0.999,0.366,0.134
25.061,9.39,-14.817,-0.994,0.367,0.125
26.89,10.061,-12.073,-0.995,0.375,0.135
28.902,10.671,-9.024,-0.997,0.382,0.125
30.854,11.098,-5.793,-0.992,0.398,0.116
32.683,11.402,-2.622,-1,0.416,0.11
34.39,11.585,0.61,-1.005,0.437,0.113
35.793,11.951,3.72,-1.009,0.462,0.117
37.195,12.195,6.646,-1.012,0.5,0.111
38.659,12.317,9.329,-1.021,0.513,0.128
39.939,12.256,11.646,-1.028,0.54,0.126
41.28,12.073,13.598,-1.035,0.571,0.127
42.256,11.829,15.183,-1.041,0.593,0.132
42.744,11.707,16.89,-1.048,0.618,0.124
43.354,11.89,18.354,-1.051,0.639,0.113
43.841,12.134,19.756,-1.064,0.663,0.121
43.78,11.89,20.976,-1.076,0.696,0.133
43.354,11.341,22.012,-1.085,0.725,0.132
42.927,11.037,23.171,-1.094,0.757,0.131
41.829,10.671,24.573,-1.101,0.783,0.125
40.061,9.695,26.037,-1.11,0.811,0.11
37.927,8.72,27.622,-1.116,0.833,0.093
36.159,7.988,29.817,-1.121,0.859,0.073
33.354,6.951,32.378,-1.135,0.888,0.054
31.829,7.927,35.183,-1.149,0.913,0.048
28.72,8.11,38.232,-1.165,0.941,0.052
25.366,8.11,41.89,-1.173,0.972,0.05
22.012,8.72,46.037,-1.186,1.005,0.042
18.293,8.963,50.671,-1.185,1.043,0.047
14.024,8.476,55.854,-1.188,1.083,0.051
9.695,8.049,61.341,-1.187,1.12,0.047
5.61,8.354,67.195,-1.179,1.157,0.041
2.195,8.963,73.476,-1.176,1.201,0.033
-1.098,9.634,79.817,-1.14,1.248,0.051
-4.451,9.817,86.341,-1.117,1.27,0.042
-7.134,9.146,92.866,-1.109,1.316,0.058
-9.146,8.049,99.451,-1.023,1.343,0.085
-10.732,6.707,106.1,-1.039,1.382,0.066
-12.256,5.122,112.93,-0.996,1.419,0.076
-13.78,2.988,120.12,-1.047,1.441,0.055
-14.939,1.22,127.62,-1.143,1.465,0.03
-15.732,-0.061,135.24,-1.058,1.468,0.027
-15.427,-0.488,143.23,-1.026,1.464,0.012
-15.366,-0.305,151.4,-0.911,1.475,0.015
-15.976,0.61,159.82,-0.877,1.487,-0.005
-16.646,2.134,168.84,-0.888,1.445,-0.039
-16.829,3.598,177.81,-0.837,1.436,-0.063
-19.207,3.902,186.16,-0.794,1.441,-0.076
-22.561,7.683,195.06,-0.752,1.446,-0.088
-27.5,9.573,204.27,-0.746,1.443,-0.103
-31.951,15.061,213.72,-0.73,1.438,-0.108
-37.073,22.927,226.52,-0.676,1.475,-0.102
-43.78,28.293,236.52,-0.639,1.54,-0.096
-50,33.963,244.27,-0.632,1.576,-0.106
-53.659,32.561,246.46,-0.618,1.591,-0.111
-56.646,28.659,249.69,-0.593,1.661,-0.109
-58.049,26.707,253.9,-0.586,1.689,-0.112
-57.317,27.317,256.58,-0.57,1.644,-0.121
-55.122,30.915,262.26,-0.531,1.671,-0.126
-49.817,33.78,267.19,-0.495,1.665,-0.15
-42.866,35.793,273.11,-0.427,1.718,-0.162
-34.146,37.805,279.57,-0.393,1.739,-0.176
-26.098,41.89,289.15,-0.372,1.723,-0.194
-17.439,45.793,298.54,-0.351,1.711,-0.211
-8.354,48.354,305.24,-0.337,1.657,-0.224
-0.976,51.951,314.82,-0.319,1.612,-0.216
5.549,56.89,324.82,-0.301,1.613,-0.218
12.439,61.646,334.15,-0.284,1.616,-0.237
19.451,66.22,342.81,-0.284,1.565,-0.236
25.366,71.341,351.58,-0.283,1.482,-0.221
30.122,77.561,360.55,-0.269,1.403,-0.214
36.098,81.89,366.46,-0.252,1.345,-0.217
40,87.195,374.69,-0.237,1.254,-0.219
42.744,91.159,382.74,-0.22,1.162,-0.198
44.085,95.671,390.24,-0.204,1.072,-0.174
42.927,101.71,396.89,-0.183,0.987,-0.167
40.915,107.26,402.56,-0.164,0.946,-0.147
37.256,112.44,408.42,-0.159,0.859,-0.122
33.902,117.99,413.78,-0.153,0.756,-0.112
30.732,122.62,419.88,-0.138,0.713,-0.082
25.427,128.23,426.04,-0.119,0.644,-0.07
17.622,133.78,431.77,-0.106,0.588,-0.056
10.183,139.21,436.34,-0.095,0.489,-0.048
4.207,143.96,442.07,-0.097,0.378,-0.042
-2.195,147.81,449.02,-0.065,0.326,-0.021
-10.061,151.65,455.73,-0.078,0.348,-0.02
-16.402,154.27,461.95,-0.045,0.453,-0.01
-21.524,155.37,467.44,-0.043,0.349,0
-25.915,155.79,472.62,-0.054,0.208,-0.009
-29.939,155.18,477.68,-0.058,0.152,-0.021
-32.683,153.17,480.98,-0.028,0.089,-0.022
-32.439,152.93,479.94,0.033,0.183,-0.017
-31.28,150.37,479.51,0.071,0.205,-0.017
-28.841,146.65,478.84,0.08,0.166,-0.022
-25.183,146.59,473.66,0.106,0.3,-0.017
-20.061,146.22,467.68,0.099,0.252,-0.031
-13.537,144.57,461.34,0.089,0.144,-0.061
-4.024,141.04,455.55,0.092,0.171,-0.06
8.415,138.05,448.42,0.097,0.179,-0.052
19.512,137.62,438.84,0.091,0.168,-0.062
27.988,135.73,430.18,0.081,0.161,-0.069
35.854,134.88,422.19,0.074,0.159,-0.092
45.183,133.84,411.46,0.064,0.14,-0.11
56.159,132.13,400.79,0.047,0.127,-0.126
69.268,128.84,390.85,0.042,0.125,-0.142
81.159,127.01,380.92,0.025,0.116,-0.145
90.488,125.49,367.74,0.007,0.103,-0.133
97.805,124.02,354.15,0.015,0.109,-0.139
102.13,123.05,340.92,0.019,0.106,-0.126
103.54,122.62,328.35,0.025,0.116,-0.105
106.1,120.67,313.6,0.041,0.12,-0.099
109.15,117.26,299.82,0.048,0.12,-0.095
113.9,115.31,285.85,0.057,0.131,-0.067
117.56,114.69,270.92,0.058,0.123,-0.053
119.76,113.29,256.46,0.072,0.125,-0.059
120.12,111.46,241.95,0.081,0.137,-0.044
118.6,109.02,227.87,0.077,0.137,-0.023
115.92,105.31,214.51,0.092,0.143,-0.009
110.98,100.37,201.46,0.107,0.158,0.011
104.57,95.061,188.17,0.124,0.175,0.053
100.37,90.793,175.61,0.157,0.193,0.09
95.915,86.646,164.09,0.19,0.214,0.119
89.207,81.159,151.77,0.206,0.237,0.141
84.451,76.524,139.09,0.234,0.271,0.136
81.524,72.439,126.52,0.361,0.231,0.143
77.561,67.744,113.96,0.403,0.244,0.143
72.683,62.561,100.98,0.409,0.315,0.145
69.573,58.049,88.354,0.46,0.347,0.143
67.134,53.963,76.28,0.632,0.313,0.165
63.902,49.146,64.451,0.654,0.376,0.16
60.793,44.512,53.293,0.673,0.472,0.181
56.646,40.183,43.415,0.765,0.484,0.218
52.866,35.549,34.329,0.817,0.522,0.238
48.72,30.61,26.098,0.778,0.605,0.244
44.451,26.768,18.537,0.992,0.549,0.273
40.122,23.476,12.134,0.943,0.576,0.25
35.366,19.207,5.61,0.909,0.634,0.256
29.939,12.805,-1.402,0.893,0.675,0.251
25,7.195,-7.378,0.895,0.699,0.234
20.793,2.561,-8.659,0.891,0.728,0.216
15.915,-4.878,-9.39,0.881,0.761,0.204
10.61,-13.963,-14.634,0.876,0.785,0.193
6.28,-20.244,-18.72,0.877,0.802,0.193
3.963,-23.659,-18.354,0.869,0.814,0.181
2.073,-28.293,-20.671,0.857,0.817,0.153
0.305,-31.22,-24.268,0.836,0.815,0.126
-0.732,-32.012,-23.11,0.816,0.81,0.104
-2.195,-34.878,-23.598,0.794,0.789,0.085
-2.561,-34.695,-25.549,0.779,0.761,0.07
-2.378,-29.634,-19.939,0.766,0.733,0.065
-2.561,-27.744,-13.598,0.75,0.713,0.068
-2.439,-26.524,-9.39,0.733,0.691,0.077
-2.317,-25.915,-6.098,0.726,0.669,0.083
-1.585,-25.976,-3.232,0.714,0.645,0.082
-0.732,-25.976,-0.793,0.71,0.623,0.083
-0.061,-25.671,1.28,0.71,0.605,0.087
0.732,-25.061,2.988,0.713,0.587,0.092
0.915,-23.476,4.451,0.707,0.574,0.085
0.854,-21.463,5.854,0.712,0.564,0.071
0.427,-19.756,6.89,0.715,0.56,0.053
0.244,-17.866,8.232,0.72,0.557,0.028
0.244,-15.732,9.329,0.728,0.553,0.015
0.366,-14.329,10.183,0.739,0.552,0.003
-0.183,-13.354,11.159,0.752,0.549,-0.013
-0.61,-12.988,11.646,0.766,0.551,-0.022
-0.427,-12.744,11.585,0.778,0.557,-0.025
-0.427,-12.012,10.427,0.8,0.567,-0.025
-0.488,-11.463,8.659,0.813,0.572,-0.026
-0.671,-11.22,6.341,0.824,0.574,-0.022
-1.28,-11.28,3.598,0.841,0.578,-0.013
-2.561,-10.854,0.61,0.85,0.576,0
-4.573,-10.183,-2.805,0.86,0.573,0.008
-6.707,-9.573,-6.585,0.86,0.567,0.023
-9.207,-8.963,-10.549,0.859,0.557,0.039
-11.89,-8.659,-14.39,0.855,0.551,0.058
-14.329,-8.354,-18.049,0.853,0.543,0.075
-16.524,-8.171,-21.951,0.856,0.53,0.093
-18.659,-8.293,-25.61,0.866,0.516,0.11
-20.183,-8.902,-28.963,0.869,0.502,0.121
-21.646,-9.329,-31.829,0.869,0.484,0.138
-22.744,-9.573,-34.329,0.869,0.458,0.155
-23.293,-9.207,-36.585,0.87,0.439,0.169
-23.841,-8.72,-38.354,0.867,0.418,0.177
-24.695,-8.049,-39.512,0.86,0.388,0.201
-25.854,-6.707,-40.183,0.863,0.374,0.208
-26.829,-5.244,-40.183,0.857,0.355,0.21
-28.171,-3.72,-39.878,0.849,0.34,0.228
-29.939,-2.317,-38.72,0.851,0.334,0.239
-31.768,-0.976,-37.134,0.848,0.327,0.245
-33.415,0.549,-35.366,0.842,0.313,0.241
-34.756,1.89,-33.78,0.843,0.297,0.235
-36.037,2.378,-32.5,0.846,0.287,0.228
-36.829,2.134,-31.341,0.847,0.281,0.218
-37.134,1.159,-30,0.852,0.269,0.201
-37.256,-0.183,-28.72,0.852,0.257,0.174
-36.829,-1.524,-27.378,0.855,0.251,0.148
-36.098,-3.11,-26.037,0.862,0.254,0.135
-35.305,-5.671,-24.634,0.862,0.251,0.125
-33.963,-8.11,-23.293,0.876,0.251,0.115
-33.049,-10.244,-22.073,0.892,0.257,0.118
-32.256,-12.561,-20.671,0.892,0.245,0.12
-31.646,-14.268,-19.817,0.896,0.229,0.111
-31.463,-15.427,-19.512,0.904,0.226,0.117
-31.402,-16.402,-19.695,0.9,0.21,0.117
-32.073,-17.256,-19.878,0.9,0.208,0.124
-33.354,-18.171,-20.061,0.892,0.191,0.127
-35.305,-18.415,-20.183,0.896,0.18,0.133
-37.378,-18.659,-20.305,0.899,0.186,0.143
-39.695,-19.451,-20.427,0.914,0.182,0.15
-42.073,-20.915,-19.817,0.91,0.164,0.153
-44.634,-22.744,-19.634,0.9,0.149,0.152
-47.073,-24.146,-19.634,0.897,0.139,0.154
-49.207,-25.427,-19.329,0.901,0.127,0.16
-51.159,-25.793,-19.207,0.903,0.121,0.161
-52.866,-25.854,-19.939,0.901,0.109,0.165
-54.207,-25.671,-19.39,0.904,0.099,0.169
-55,-25.366,-18.78,0.907,0.084,0.173
-55.122,-24.634,-18.476,0.897,0.069,0.187
-55,-23.902,-17.561,0.894,0.06,0.197
-53.841,-22.927,-17.744,0.891,0.049,0.203
-52.256,-22.134,-17.073,0.891,0.033,0.215
-50.671,-20.427,-15.915,0.896,0.029,0.224
-49.085,-18.354,-15.366,0.921,0.042,0.242
-46.89,-16.098,-14.634,0.905,0.017,0.248
-43.963,-14.329,-13.72,0.896,0,0.243
-40.793,-13.841,-12.5,0.897,-0.01,0.24
-37.5,-13.598,-11.098,0.891,-0.025,0.238
-34.024,-13.293,-9.817,0.895,-0.037,0.231
-30.488,-13.232,-8.537,0.892,-0.055,0.21
-26.768,-13.171,-6.829,0.908,-0.058,0.197
-23.415,-13.659,-5.61,0.932,-0.05,0.193
-20.366,-14.268,-3.963,0.935,-0.079,0.177
-17.195,-14.878,-1.951,0.977,-0.052,0.182
-14.512,-14.756,0.244,0.998,-0.058,0.165
-11.89,-14.756,1.707,1.014,-0.079,0.145
-8.78,-14.756,2.744,1.058,-0.076,0.153
-6.524,-13.232,2.988,1.084,-0.097,0.162
-5.244,-10.976,4.817,1.117,-0.118,0.182
-4.085,-8.72,6.159,1.165,-0.131,0.212
-2.805,-6.707,6.89,1.202,-0.154,0.261
-1.768,-4.817,8.415,1.225,-0.165,0.33
-1.037,-2.561,10.244,1.277,-0.195,0.424
-0.244,-0.305,11.768,1.333,-0.217,0.514
0.427,1.524,13.293,1.363,-0.253,0.613
0,4.451,14.756,1.458,-0.325,0.72
-0.244,6.89,16.463,1.771,-0.407,0.861
-0.671,9.939,17.805,1.848,-0.456,0.925
-1.585,13.78,18.354,1.94,-0.54,1.016
-1.89,16.768,17.866,2.229,-0.636,1.085
-2.439,18.11,17.622,2.271,-0.714,1.128
-3.841,19.512,15.671,2.43,-0.876,1.162
-6.159,21.037,14.146,2.988,-1.014,1.311
-7.927,22.866,13.11,3.211,-1.07,1.284
-9.573,26.585,9.817,3.016,-1.06,1.241
-10,30.061,7.195,3.164,-1.14,1.316
-9.024,32.5,2.378,3.244,-1.266,1.316
-12.683,37.988,-2.622,3.413,-1.345,1.298
-17.988,42.073,-8.841,3.653,-1.421,1.191
-27.134,47.5,-14.329,3.291,-1.409,1.002
-35.183,58.963,-15.976,3.258,-1.343,0.854
-42.622,77.683,-18.963,3.255,-1.382,0.685
-52.927,85.61,-22.5,3.163,-1.332,0.561
-68.415,97.378,-30.793,3.053,-1.248,0.447
-89.634,107.44,-41.402,2.892,-1.164,0.361
-112.07,104.76,-47.439,2.704,-1.046,0.241
-132.74,107.93,-42.866,2.506,-0.915,0.106
-154.63,125.12,-48.72,2.289,-0.8,0.009
-183.11,122.87,-68.415,2.032,-0.643,-0.051
-213.78,114.33,-93.11,1.74,-0.509,-0.122
-244.27,112.99,-117.74,1.419,-0.391,-0.195
-275.79,116.16,-134.09,1.061,-0.302,-0.292
-307.99,131.4,-143.84,0.686,-0.241,-0.321
-336.46,139.63,-154.15,0.23,-0.167,-0.287
-365.12,139.45,-168.84,-0.27,-0.033,-0.323
-395.12,141.65,-189.15,-0.792,0.009,-0.41
-423.6,144.88,-209.09,-1.359,-0.053,-0.365
-447.68,146.71,-229.51,-1.92,-0.095,-0.218
-469.57,146.95,-251.04,-2.31,-0.211,0.001
-488.11,151.71,-272.5,-2.52,-0.241,0.32
-507.01,158.41,-295.49,-2.55,-0.417,0.681
-522.01,164.27,-319.82,-2.609,-0.354,0.871
-532.44,171.4,-342.99,-3.506,-0.396,0.768
-539.39,180.91,-365.18,-4.905,-0.168,0.46
-542.2,192.19,-386.71,-5.758,0.334,0.353
-540.37,207.01,-407.26,-4.974,0.088,0.579
-538.05,223.9,-424.76,-4.334,0.071,0.64
-536.65,238.17,-440.31,-4.588,-0.008,0.459
-530.43,249.94,-451.95,-4.52,0.279,0.535
-516.52,261.22,-461.52,-4.302,0.521,0.694
-500.92,268.54,-466.1,-3.994,0.636,0.693
-484.76,268.6,-466.1,-3.577,0.636,-0.057
-466.58,264.02,-458.72,-3.139,0.682,-0.409
-438.72,262.62,-454.39,-2.618,0.586,-0.19
-408.48,291.16,-463.05,-2.012,0.496,0.266
-383.9,361.22,-479.63,-1.463,0.604,0.807
-336.95,434.88,-507.81,-1.065,0.731,1.28
-270.37,450.06,-500.18,-0.807,0.798,1.459
-213.54,407.93,-473.17,-0.653,0.729,1.435
-159.94,347.87,-440.18,-0.667,0.507,1.149
-120.55,335.37,-414.27,-0.774,0.201,0.856
-87.561,316.58,-402.01,-0.906,-0.206,0.667
-42.622,263.54,-374.94,-0.992,-0.576,0.595
-18.598,210,-340.31,-1.011,-0.851,0.603
6.646,161.28,-292.5,-0.928,-0.966,0.632
54.268,107.01,-234.15,-0.871,-1.004,0.683
67.134,27.683,-165.12,-0.814,-0.993,0.717
45.549,-38.841,-89.451,-0.8,-0.964,0.773
15.915,-78.841,-19.207,-0.836,-0.908,0.852
-16.402,-97.561,42.866,-0.916,-0.868,0.917
-45.305,-96.585,92.988,-1.022,-0.813,0.958
-74.329,-78.354,118.29,-1.144,-0.719,0.972
-102.07,-47.744,122.07,-1.254,-0.588,0.957
-130.55,-18.537,108.29,-1.341,-0.45,0.949
-159.45,-5.732,92.256,-1.416,-0.306,0.967
-177.87,2.439,77.683,-1.482,-0.157,0.996
-181.34,9.207,67.256,-1.546,-0.024,1.01
-174.76,13.537,60.976,-1.616,0.092,0.996
-162.74,13.841,54.39,-1.684,0.196,0.963
-139.27,12.134,45,-1.755,0.272,0.946
-110.06,11.951,37.744,-1.825,0.341,0.925
-82.317,10.732,35.549,-1.896,0.408,0.902
-54.024,9.024,34.573,-1.954,0.475,0.854
-23.232,7.622,34.024,-2.002,0.532,0.814
9.146,7.622,37.439,-2.045,0.594,0.787
41.28,7.561,46.585,-2.075,0.634,0.769
72.256,5.732,59.146,-2.098,0.673,0.736
101.89,1.829,73.537,-2.099,0.722,0.684
129.09,-3.659,89.451,-2.071,0.757,0.634
154.15,-10.61,106.4,-1.992,0.786,0.601
178.54,-18.476,124.63,-1.863,0.832,0.562
202.07,-27.073,145.37,-1.706,0.857,0.461
222.32,-37.378,167.93,-1.541,0.871,0.385
240.73,-48.598,191.04,-1.382,0.852,0.304
259.02,-58.78,215,-1.226,0.831,0.174
277.38,-69.695,239.45,-1.043,0.815,0.055
295.49,-80.427,262.74,-0.863,0.787,-0.001
312.74,-90.549,284.15,-0.676,0.716,-0.063
329.94,-99.39,304.45,-0.468,0.656,-0.157
348.11,-106.34,323.6,-0.265,0.588,-0.259
368.17,-112.07,341.83,-0.037,0.513,-0.321
389.63,-115.98,358.6,0.165,0.458,-0.325
412.19,-118.23,373.9,0.389,0.385,-0.332
435,-118.23,388.05,0.603,0.272,-0.311
459.57,-115.31,400,0.852,0.048,-0.225
482.99,-111.71,410,1.05,-0.142,-0.168
502.01,-110.24,418.9,1.21,-0.328,-0.098
521.1,-109.27,425.73,1.215,-0.42,0.031
540.3,-107.81,430.73,1.293,-0.415,0.231
552.68,-107.87,434.39,1.784,-0.342,0.477
563.72,-110,436.89,2.06,-0.455,0.633
573.41,-110.73,439.63,2.202,-0.418,0.645
581.16,-112.01,442.13,2.427,-0.509,0.65
583.48,-115.55,443.23,2.271,-0.468,0.539
580.55,-121.22,441.4,2.193,-0.315,0.556
573.54,-129.09,435.37,2.259,-0.303,0.637
559.82,-136.16,425.85,2.44,-0.374,0.807
542.74,-142.32,414.69,2.556,-0.403,0.995
525.3,-145.73,399.88,2.574,-0.351,1.167
499.39,-145.55,387.99,2.656,-0.379,1.324
462.01,-146.77,372.74,2.511,-0.388,1.348
420,-148.78,357.07,2.374,-0.371,1.343
393.11,-158.23,343.66,2.277,-0.358,1.378
370.31,-159.27,316.1,2.181,-0.377,1.387
334.27,-143.05,277.68,2.094,-0.411,1.358
298.35,-123.6,253.6,2.016,-0.413,1.312
264.21,-94.207,236.22,1.933,-0.407,1.25
227.93,-68.11,228.96,1.84,-0.395,1.159
188.96,-63.476,223.72,1.738,-0.358,1.051
148.17,-66.951,210.37,1.601,-0.328,0.943
108.78,-68.659,197.26,1.569,-0.364,0.884
72.012,-64.268,192.38,1.474,-0.34,0.811
34.512,-60.366,182.56,1.373,-0.241,0.797
1.159,-56.037,163.96,1.264,-0.262,0.758
-25.061,-50.671,149.76,1.138,-0.239,0.687
-46.402,-51.768,136.71,1.046,-0.196,0.642
-65.183,-53.293,121.4,1.028,-0.208,0.589
-80.976,-52.5,108.35,1.011,-0.182,0.512
-92.073,-51.524,96.22,1.022,-0.127,0.412
-99.634,-51.89,84.634,1.058,-0.124,0.28
-104.57,-52.439,73.841,1.061,-0.091,0.16
-106.83,-52.866,63.598,1.07,-0.058,0.063
-106.16,-53.659,53.11,1.073,-0.027,0.003
-104.51,-54.634,41.402,1.057,0.038,-0.028
-103.96,-54.695,29.268,1.052,0.076,-0.05
-104.39,-53.537,16.707,1.057,0.114,-0.066
-106.04,-53.659,5,1.046,0.133,-0.086
-104.51,-50.183,-6.829,1.028,0.191,-0.035
-104.57,-43.659,-15.61,1.017,0.213,-0.029
-105.37,-39.146,-24.451,1.017,0.215,-0.025
-104.63,-35.183,-34.695,1.007,0.233,-0.015
-101.46,-29.695,-40.854,0.987,0.252,-0.023
-98.171,-26.524,-46.402,0.966,0.262,-0.031
-93.049,-24.39,-51.646,0.941,0.252,-0.035
-87.012,-25.305,-54.024,0.925,0.258,-0.021
-80.244,-27.988,-55.305,0.911,0.265,-0.001
-71.768,-30,-54.695,0.907,0.269,0.019
-62.927,-31.646,-53.476,0.904,0.268,0.042
-54.207,-33.476,-53.049,0.903,0.265,0.054
-45.549,-34.939,-52.439,0.897,0.262,0.066
-34.939,-34.512,-50.976,0.888,0.263,0.083
-25.732,-33.659,-47.927,0.88,0.256,0.083
-21.098,-32.439,-44.756,0.876,0.255,0.085
-16.402,-29.329,-41.098,0.873,0.256,0.089
-10.732,-25.244,-35.976,0.876,0.259,0.095
-5.61,-21.28,-30.549,0.871,0.265,0.11
-1.707,-18.598,-25.305,0.871,0.276,0.125
0.915,-16.463,-20.671,0.867,0.286,0.135
3.049,-15.183,-15.976,0.863,0.297,0.133
5.854,-14.573,-11.22,0.86,0.31,0.12
8.78,-13.415,-6.829,0.851,0.318,0.107
11.646,-12.195,-2.744,0.843,0.33,0.104
14.634,-11.22,1.037,0.833,0.323,0.097
17.866,-10.854,4.329,0.822,0.324,0.078
21.159,-10.305,7.439,0.814,0.334,0.076
24.329,-9.085,10.549,0.804,0.344,0.077
27.378,-7.439,13.171,0.798,0.352,0.077
30.122,-5.61,15.061,0.798,0.366,0.078
32.378,-3.415,16.646,0.795,0.379,0.084
33.598,-1.037,17.439,0.792,0.392,0.094
33.659,1.829,17.744,0.802,0.4,0.106
32.5,5.549,17.439,0.815,0.407,0.113
30.061,9.268,16.585,0.818,0.413,0.12
26.646,12.683,15,0.821,0.413,0.125
22.683,15.061,13.415,0.823,0.417,0.115
18.659,16.341,11.951,0.824,0.422,0.114
14.939,17.134,10.549,0.828,0.418,0.102
11.159,17.195,9.512,0.823,0.417,0.091
6.951,16.098,9.268,0.825,0.423,0.085
3.659,14.085,8.963,0.827,0.432,0.078
0.976,11.768,8.659,0.832,0.438,0.073
-1.159,9.756,8.232,0.834,0.448,0.072
-2.317,7.683,7.5,0.843,0.451,0.06
-2.561,5.549,6.768,0.847,0.448,0.042
-2.439,3.72,6.098,0.851,0.453,0.015
-1.829,2.561,5.427,0.851,0.462,0.001
-0.854,1.524,4.695,0.853,0.473,-0.003
0.427,0.549,3.72,0.852,0.478,-0.007
2.012,-0.244,2.927,0.855,0.478,-0.008
3.171,-0.976,2.256,0.864,0.47,-0.011
3.963,-1.89,1.524,0.872,0.461,-0.014
4.756,-3.171,0.976,0.876,0.449,-0.018
4.817,-4.695,0.61,0.875,0.438,-0.016
4.634,-6.098,0.061,0.881,0.428,-0.024
4.451,-7.195,-0.244,0.877,0.415,-0.028
4.085,-7.927,-0.427,0.876,0.403,-0.024
3.293,-8.232,-0.793,0.876,0.396,-0.02
2.683,-8.659,-0.976,0.875,0.385,-0.016
2.012,-9.939,-1.402,0.866,0.376,-0.003
0.976,-11.646,-1.89,0.86,0.368,0.008
0.366,-13.598,-2.134,0.856,0.362,0.008
-0.488,-15,-2.256,0.846,0.357,0.008
-1.28,-15.427,-2.073,0.837,0.357,0.014
-1.89,-15.427,-1.585,0.834,0.353,0.017
-2.622,-15.122,-0.915,0.838,0.352,0.017
-3.415,-14.268,-0.305,0.848,0.353,0.022
-4.207,-13.171,0.366,0.858,0.354,0.036
-4.695,-11.829,1.037,0.864,0.35,0.039
-5.305,-10,1.341,0.867,0.346,0.046
-5.854,-8.293,1.463,0.873,0.339,0.055
-6.463,-7.073,1.159,0.869,0.326,0.051
-6.951,-5.854,0.549,0.864,0.31,0.049
-7.683,-4.756,-0.427,0.853,0.302,0.058
-8.476,-3.415,-1.402,0.851,0.292,0.06
-9.207,-2.317,-2.5,0.839,0.282,0.066
-10.244,-1.829,-3.537,0.834,0.272,0.073
-11.28,-1.707,-4.329,0.831,0.264,0.079
-12.012,-1.585,-4.573,0.828,0.26,0.082
-12.683,-1.402,-4.817,0.828,0.252,0.082
-13.354,-1.524,-4.817,0.837,0.243,0.095
-13.598,-1.768,-4.573,0.839,0.234,0.105
-13.354,-1.951,-4.146,0.844,0.227,0.115
-12.561,-1.829,-3.659,0.846,0.216,0.13
-11.646,-1.646,-3.293,0.839,0.207,0.139
-10.427,-1.28,-2.561,0.834,0.19,0.149
-8.902,-0.854,-1.768,0.831,0.167,0.158
-7.256,-0.122,-1.037,0.827,0.149,0.16
-5.671,0.549,-0.244,0.82,0.133,0.168
-4.268,1.585,0.488,0.816,0.111,0.169
-2.927,2.256,0.915,0.821,0.088,0.172
-1.646,2.622,1.098,0.829,0.062,0.174
-0.366,2.866,1.524,0.843,0.041,0.178
0.915,2.744,1.646,0.862,0.023,0.178
1.768,2.866,1.829,0.879,-0.001,0.178
2.744,3.049,1.707,0.895,-0.022,0.174
3.537,3.049,1.829,0.917,-0.036,0.17
4.451,3.049,2.012,0.945,-0.051,0.164
5.244,3.476,2.195,0.979,-0.065,0.149
6.463,4.024,2.622,1.02,-0.091,0.135
7.378,5.122,3.11,1.068,-0.098,0.114
8.293,6.402,3.902,1.108,-0.099,0.107
9.634,7.561,4.695,1.15,-0.107,0.106
11.037,8.963,5.427,1.192,-0.111,0.108
12.5,10.732,6.22,1.221,-0.125,0.13
13.963,12.5,6.951,1.253,-0.13,0.157
15.671,14.207,7.866,1.27,-0.136,0.2
17.378,15.915,8.72,1.315,-0.134,0.236
19.085,17.805,9.39,1.375,-0.125,0.31
20.793,19.451,10,1.455,-0.147,0.342
22.378,21.22,10.549,1.545,-0.165,0.429
24.146,23.171,11.159,1.633,-0.218,0.52
25.915,25.549,11.951,1.774,-0.244,0.616
27.317,27.988,13.11,1.918,-0.261,0.736
29.39,30.244,14.085,2.056,-0.29,0.926
30.549,31.22,13.963,2.203,-0.357,1.112
31.707,32.744,13.415,2.362,-0.409,1.248
32.439,34.573,12.561,2.583,-0.512,1.408
32.073,36.585,11.646,3.015,-0.765,1.604
31.159,39.024,10.976,3.096,-0.801,1.647
30.366,42.622,10.732,3.204,-0.923,1.754
30.366,47.866,12.622,3.42,-1.094,1.772
32.378,54.024,12.927,3.559,-1.165,1.777
34.39,61.707,9.695,3.587,-1.329,1.729
26.951,69.512,4.329,3.693,-1.429,1.63
21.159,80.305,0.854,3.645,-1.465,1.461
16.646,92.317,-0.793,3.561,-1.449,1.254
9.878,103.54,-7.256,3.71,-1.496,1.086
-5.549,115.92,-17.866,3.445,-1.438,0.849
-21.28,129.57,-31.768,3.22,-1.378,0.597
-37.012,137.5,-44.878,3.067,-1.257,0.483
-62.256,139.33,-58.537,2.945,-1.109,0.347
-98.415,147.19,-71.707,2.7,-0.987,0.215
-120.18,161.59,-71.28,2.385,-0.925,0.096
-149.02,156.95,-88.293,2.053,-0.836,-0.024
-183.66,163.23,-101.71,1.722,-0.715,-0.099
-216.1,167.5,-116.16,1.4,-0.602,-0.178
-243.78,173.35,-135.98,1.074,-0.524,-0.263
-277.93,175.61,-153.78,0.724,-0.486,-0.328
-309.39,179.02,-166.1,0.317,-0.463,-0.334
-337.74,178.9,-182.74,-0.165,-0.458,-0.327
-365.79,180.24,-198.54,-0.683,-0.496,-0.335
-392.56,177.87,-211.71,-1.254,-0.563,-0.327
-416.89,172.81,-233.41,-1.892,-0.692,-0.256
-436.28,164.09,-257.87,-2.559,-0.849,-0.065
-462.56,151.04,-285.24,-3.116,-1.02,0.181
-492.56,147.13,-315.31,-3.462,-1.142,0.43
-516.83,143.17,-345.31,-3.351,-1.929,0.624
-538.05,140.73,-375,-5.456,-2.018,0.242
-555.24,140.55,-405.73,-8.089,-0.185,-0.115
-570.43,143.29,-436.22,-9.548,1.141,-0.032
-582.2,150.43,-466.04,-6.92,0.021,0.937
-590.12,162.87,-495.18,-6.224,0.488,1.634
-593.54,177.68,-521.4,-6.322,1.379,0.817
-591.71,192.81,-544.15,-5.609,1.978,-1.483
-584.94,207.13,-561.71,-4.995,0.917,-1.784
-570.55,220.12,-574.33,-4.007,-0.174,-1.466
-548.9,230.98,-579.33,-2.837,-0.351,-1.419
-527.74,238.35,-581.77,-2.045,0.773,-0.869
-502.62,250.79,-584.63,-1.489,1.274,0.17
-480.61,302.81,-604.57,-1.122,1.247,1.2
-416.95,427.19,-666.65,-0.875,1.183,1.877
-277.44,543.84,-700.43,-0.638,1.095,2.16
-143.17,549.94,-655.61,-0.308,0.902,1.906
-104.82,449.94,-592.01,-0.148,0.566,1.167
-107.44,349.82,-571.1,-0.298,-0.147,0.682
-48.598,324.69,-542.07,-0.514,-0.783,0.625
55.427,274.15,-469.57,-0.617,-1.164,0.705
117.68,164.63,-392.74,-0.816,-1.341,0.789
75.488,37.683,-292.99,-0.87,-1.093,0.813
22.927,-48.902,-163.35,-0.897,-0.862,0.926
-17.988,-110.98,-35.671,-0.921,-0.806,1.064
-56.951,-145.49,73.354,-0.96,-0.771,1.142
-103.54,-180.06,154.21,-1.023,-0.682,1.176
-132.87,-199.39,198.17,-1.103,-0.572,1.18
-140.55,-181.28,194.27,-1.186,-0.448,1.168
-139.39,-136.65,165.06,-1.267,-0.312,1.134
-142.19,-74.146,137.19,-1.344,-0.176,1.104
-148.6,-24.573,101.95,-1.42,-0.052,1.063
-156.52,-3.598,64.695,-1.508,0.074,1.022
-152.13,4.756,47.256,-1.598,0.188,0.97
-139.15,9.146,43.659,-1.685,0.276,0.901
-102.87,15.366,39.268,-1.765,0.334,0.808
-65.366,16.402,42.5,-1.827,0.385,0.751
-37.927,12.195,50.366,-1.88,0.449,0.73
-7.317,11.524,55.671,-1.928,0.494,0.712
26.159,12.073,60.793,-1.952,0.539,0.678
59.268,12.378,68.902,-1.968,0.572,0.622
90.061,12.378,80,-1.996,0.609,0.558
117.62,11.463,92.805,-2.037,0.643,0.51
142.01,10.122,106.58,-2.082,0.699,0.462
161.89,7.866,120.79,-2.103,0.778,0.432
177.93,4.634,136.16,-2.09,0.905,0.4
191.46,-0.366,152.87,-2.119,0.933,0.365
203.29,-6.463,170.91,-1.987,0.842,0.301
213.66,-13.171,190.18,-1.886,0.862,0.225
222.56,-20.305,210.37,-1.73,0.911,0.16
231.46,-28.049,231.52,-1.58,0.824,0.087
240.61,-34.939,252.5,-1.373,0.769,0.009
250.79,-40.671,272.56,-1.168,0.792,-0.048
262.26,-45.793,291.04,-0.978,0.777,-0.092
275.18,-51.89,307.5,-0.798,0.705,-0.156
289.08,-59.024,322.44,-0.623,0.648,-0.216
304.21,-67.012,336.89,-0.399,0.543,-0.265
320.06,-74.817,351.34,-0.222,0.469,-0.332
336.04,-80.854,365.37,-0.013,0.383,-0.329
349.82,-85.061,382.93,0.174,0.289,-0.3
363.05,-88.72,399.76,0.207,0.189,-0.32
377.62,-89.329,409.76,0.492,0.057,-0.281
397.38,-90.244,417.68,0.556,-0.088,-0.297
413.72,-91.463,424.69,0.749,-0.228,-0.258
433.78,-89.634,429.27,1.005,-0.277,-0.138
455.24,-87.683,432.56,1.337,-0.388,-0.018
473.9,-85,436.77,1.62,-0.343,0.259
488.72,-81.341,440.61,1.784,-0.321,0.397
502.07,-76.89,443.23,1.928,-0.209,0.638
512.62,-73.659,443.23,1.924,-0.083,0.885
517.56,-72.439,439.15,2.082,-0.303,1.097
519.15,-72.927,433.9,2.375,-0.567,1.197
517.74,-75.793,424.45,2.392,-0.592,1.02
512.62,-81.159,416.28,2.304,-0.561,0.854
503.54,-91.463,403.78,2.474,-0.608,0.792
492.62,-105.61,382.5,2.812,-0.717,0.921
481.16,-116.95,356.04,3.091,-0.87,0.985
458.6,-138.6,333.05,2.97,-0.818,1.082
428.29,-159.21,315.98,2.928,-0.649,1.273
397.74,-168.23,299.57,2.836,-0.548,1.407
371.1,-170,288.29,2.655,-0.502,1.461
352.38,-157.99,274.45,2.593,-0.411,1.457
332.5,-140.31,262.87,2.52,-0.352,1.384
296.1,-132.87,255.18,2.427,-0.249,1.272
256.34,-123.54,235.37,2.304,-0.163,1.151
218.41,-106.95,223.6,2.165,-0.109,1.05
179.45,-94.268,226.4,2.022,-0.057,0.94
139.02,-98.171,227.81,1.856,-0.001,0.84
107.74,-111.77,224.27,1.668,0.049,0.787
84.268,-124.45,208.11,1.612,0.011,0.821
59.939,-121.46,185,1.419,0.096,0.802
40.183,-123.35,177.5,1.338,0.147,0.841
18.841,-121.22,169.63,1.176,0.197,0.847
-2.012,-108.17,152.99,1.138,0.242,0.871
-25.61,-95.244,137.13,0.968,0.164,0.797
-49.512,-80.671,122.07,0.725,0.139,0.715
-69.756,-65.244,107.62,0.704,0.113,0.6
-88.354,-52.012,92.439,1.009,0.067,0.492
-104.82,-41.951,76.707,1.032,0.014,0.31
-117.32,-34.756,61.768,1.018,0,0.142
-127.44,-29.878,49.024,1.031,-0.012,0.019
-137.32,-27.073,38.537,1.035,-0.033,-0.053
-146.04,-27.866,29.39,1.046,-0.037,-0.11
-151.4,-27.195,23.293,1.063,-0.033,-0.159
-154.94,-23.72,22.134,1.075,-0.02,-0.174
-156.77,-18.72,16.22,1.084,-0.013,-0.157
-155.85,-10,12.012,1.062,-0.002,-0.143
-156.22,0,3.415,1.04,0.019,-0.133
-154.51,9.634,-2.805,1.016,0.043,-0.121
-150.98,5.854,-9.329,0.985,0.064,-0.108
-145.06,-9.878,-19.329,0.954,0.078,-0.102
-139.57,-17.439,-32.683,0.936,0.074,-0.092
-132.87,-15.183,-37.439,0.903,0.079,-0.078
-124.88,-16.768,-39.024,0.879,0.081,-0.053
-115.73,-20.305,-40.854,0.859,0.082,-0.039
-105.49,-24.207,-41.28,0.854,0.078,-0.023
-94.451,-27.927,-40.61,0.853,0.089,0.012
-82.866,-31.768,-39.573,0.858,0.103,0.047
-70.366,-35.732,-38.049,0.861,0.115,0.068
-57.622,-39.085,-35.366,0.864,0.129,0.082
-44.817,-40.854,-31.098,0.872,0.147,0.105
-32.561,-41.22,-27.256,0.884,0.176,0.125
-20.732,-39.878,-23.476,0.892,0.194,0.137
-10.183,-37.073,-19.817,0.901,0.208,0.142
-1.22,-34.085,-16.646,0.899,0.211,0.143
7.012,-30.976,-13.537,0.896,0.212,0.134
14.634,-28.171,-9.329,0.883,0.214,0.129
21.159,-24.817,-4.817,0.877,0.221,0.13
26.951,-21.28,-0.793,0.862,0.226,0.129
31.89,-18.354,2.866,0.849,0.231,0.127
36.28,-16.098,6.402,0.84,0.237,0.116
40.244,-13.902,9.451,0.829,0.251,0.102
43.598,-11.28,11.768,0.813,0.27,0.097
46.463,-8.537,13.72,0.798,0.292,0.09
49.085,-6.22,15.305,0.786,0.307,0.084
51.22,-4.024,16.159,0.773,0.325,0.078
52.805,-1.402,16.646,0.762,0.342,0.072
54.085,1.159,16.768,0.755,0.351,0.06
54.512,3.293,16.707,0.764,0.366,0.044
54.085,5.305,16.524,0.778,0.376,0.033
52.866,7.073,16.463,0.791,0.38,0.027
50.976,8.78,16.159,0.804,0.383,0.014
48.415,10.671,15.732,0.815,0.386,0.006
45.793,12.622,15.305,0.812,0.388,-0.003
42.744,14.146,14.756,0.809,0.394,-0.016
39.817,15.366,14.024,0.813,0.394,-0.03
36.585,16.037,12.683,0.814,0.392,-0.039
33.232,16.646,10.915,0.815,0.396,-0.036
30.122,16.768,8.963,0.81,0.402,-0.029
27.073,16.22,6.707,0.811,0.402,-0.029
24.329,15.61,4.39,0.816,0.402,-0.037
21.768,14.817,2.378,0.816,0.404,-0.044
19.573,13.537,0.732,0.824,0.407,-0.042
17.927,12.134,-0.61,0.829,0.404,-0.042
16.463,10.427,-1.646,0.837,0.405,-0.044
15.244,8.354,-2.256,0.846,0.408,-0.045
14.39,5.915,-2.622,0.851,0.41,-0.047
13.659,3.598,-2.988,0.858,0.417,-0.049
13.476,1.402,-2.988,0.863,0.431,-0.049
13.659,-1.098,-2.805,0.87,0.425,-0.05
13.902,-3.78,-2.622,0.876,0.423,-0.042
13.963,-6.829,-2.622,0.881,0.42,-0.038
14.085,-9.573,-2.805,0.884,0.41,-0.04
14.207,-11.159,-2.988,0.884,0.397,-0.043
13.902,-12.378,-3.232,0.888,0.387,-0.04
13.354,-13.476,-3.537,0.893,0.381,-0.024
12.683,-14.268,-3.902,0.9,0.371,-0.014
11.707,-14.695,-3.963,0.908,0.362,-0.008
10.305,-15,-3.963,0.914,0.355,-0.004
9.207,-15.305,-3.659,0.915,0.344,-0.004
8.354,-15.854,-3.11,0.919,0.334,-0.003
7.073,-16.463,-2.5,0.921,0.329,-0.005
5.976,-16.646,-2.073,0.927,0.318,-0.006
4.573,-16.28,-1.829,0.931,0.305,-0.009
2.927,-16.159,-1.89,0.93,0.295,-0.005
1.89,-16.037,-1.646,0.93,0.29,-0.005
1.037,-15.671,-1.22,0.927,0.285,-0.005
0.305,-15.244,-0.549,0.923,0.286,-0.012
-0.366,-14.878,0.244,0.912,0.288,-0.009
-0.61,-14.39,1.28,0.901,0.285,0
-1.037,-13.171,2.378,0.897,0.28,0
-1.524,-11.098,3.476,0.895,0.275,0.003
-1.89,-9.207,4.329,0.892,0.265,0.014
-2.378,-7.622,4.878,0.887,0.258,0.02
-2.988,-6.037,5.122,0.878,0.252,0.019
-3.354,-4.573,5.244,0.872,0.24,0.026
-3.72,-3.232,4.878,0.869,0.227,0.023
-3.659,-2.195,4.451,0.862,0.216,0.027
-3.476,-1.646,4.085,0.853,0.206,0.034
-3.232,-1.341,3.659,0.842,0.198,0.038
-2.805,-0.976,3.293,0.837,0.19,0.042
-2.073,-0.671,2.866,0.833,0.184,0.044
-1.159,-0.793,2.561,0.831,0.177,0.047
-0.305,-0.732,2.378,0.829,0.173,0.056
0.122,-0.244,2.256,0.828,0.169,0.059
0.61,0.244,2.195,0.828,0.164,0.064
1.22,0.671,2.073,0.835,0.158,0.066
1.402,1.098,1.829,0.849,0.15,0.065
1.707,1.463,1.707,0.865,0.136,0.056
2.012,2.134,1.829,0.881,0.125,0.05
2.317,2.622,1.646,0.894,0.111,0.054
2.622,2.744,1.463,0.899,0.106,0.055
2.988,2.256,1.341,0.919,0.095,0.06
3.537,1.646,1.402,0.922,0.083,0.054
3.963,1.098,1.402,0.916,0.097,0.057
4.939,0.61,1.22,0.928,0.088,0.055
5.793,0.366,1.037,0.936,0.074,0.053
6.707,0.244,0.732,0.942,0.072,0.063
7.927,0.183,0.183,0.953,0.08,0.063
9.207,0.244,-0.061,0.965,0.085,0.059
10.671,0.61,-0.305,0.988,0.083,0.043
12.256,1.159,-0.366,1.025,0.069,0.031
13.659,1.524,-0.427,1.066,0.066,0.024
14.939,1.524,-0.366,1.105,0.065,0.022
16.28,1.402,0.183,1.14,0.063,0.021
17.195,0.915,1.159,1.171,0.063,0.015
17.988,1.098,1.89,1.19,0.069,-0.003
19.451,1.951,2.866,1.209,0.08,-0.002
19.756,2.683,3.963,1.229,0.084,0.008
19.146,3.354,3.476,1.245,0.099,0.038
18.841,4.756,3.537,1.271,0.115,0.086
18.537,6.463,3.78,1.305,0.146,0.141
17.744,8.659,4.39,1.332,0.151,0.194
16.524,10.976,4.085,1.356,0.137,0.236
15,13.049,3.354,1.416,0.119,0.309
13.232,14.878,2.866,1.478,0.099,0.373
11.402,16.585,2.988,1.562,0.073,0.445
9.451,18.415,3.049,1.667,-0.023,0.565
7.561,20.366,3.171,1.8,0.005,0.652
5.732,22.012,2.866,1.947,-0.048,0.847
3.598,23.354,2.317,2.133,-0.15,1.023
1.402,24.39,1.463,2.265,-0.224,1.189
-1.098,25.305,0.366,2.382,-0.272,1.284
-4.024,26.341,-1.402,2.799,-0.452,1.464
-7.927,28.11,-3.598,2.931,-0.613,1.522
-12.805,31.159,-6.28,3.231,-0.711,1.628
-18.902,35.427,-9.39,3.246,-0.798,1.631
-24.939,41.28,-13.232,3.156,-0.893,1.638
-31.402,47.805,-17.927,3.153,-0.963,1.624
-36.585,55.854,-22.378,3.186,-1.046,1.59
-42.927,63.598,-28.11,3.275,-1.139,1.523
-45.976,73.537,-33.963,3.204,-1.159,1.365
-51.341,84.329,-37.378,3.174,-1.15,1.203
-65.427,92.073,-48.537,3.136,-1.201,1.043
-70.854,104.88,-59.817,3.05,-1.167,0.867
-79.207,117.56,-69.573,2.92,-1.125,0.686
-102.01,122.26,-77.256,2.759,-1.099,0.504
-129.21,125.85,-89.573,2.587,-1.045,0.319
-152.44,136.52,-96.829,2.395,-0.985,0.164
-170.24,147.81,-96.098,2.191,-0.909,0.036
-195.91,160.18,-97.927,1.962,-0.815,-0.089
-220.73,165.12,-102.87,1.711,-0.725,-0.199
-243.05,168.9,-111.83,1.441,-0.608,-0.261
-266.04,171.65,-122.99,1.154,-0.502,-0.308
-292.38,178.11,-131.83,0.852,-0.409,-0.351
-320,182.81,-141.22,0.527,-0.327,-0.396
-343.17,183.48,-152.93,0.188,-0.263,-0.411
-368.23,182.74,-167.32,-0.202,-0.196,-0.388
-393.48,180.12,-181.65,-0.652,-0.129,-0.414
-415.98,176.16,-198.9,-1.16,-0.162,-0.451
-438.72,171.59,-219.88,-1.725,-0.233,-0.334
-461.22,166.71,-243.6,-2.292,-0.287,-0.082
-480,161.59,-270.55,-2.807,-0.39,0.139
-495.37,157.56,-300,-3.31,-0.436,0.28
-508.23,155.06,-330.85,-3.826,-0.448,0.35
-520.3,155.31,-362.26,-4.327,-0.49,0.5
-529.15,157.5,-393.66,-4.739,-0.429,0.654
-538.23,162.62,-423.84,-5.35,-0.307,0.69
-545,171.28,-451.34,-6.108,-0.231,0.587
-549.57,182.68,-476.04,-5.849,-0.126,0.712
-553.6,196.95,-497.44,-5.703,0.135,0.894
-554.82,212.38,-516.22,-5.354,0.423,1.097
-551.95,228.05,-531.65,-4.693,0.675,-0.456
-547.32,243.05,-543.11,-4.129,0.631,-1.17
-538.72,252.74,-550.73,-3.455,0.403,-0.738
-525.06,258.42,-553.05,-2.6,0,-0.419
-513.72,268.42,-553.66,-1.871,0.629,-0.139
-498.23,278.72,-552.07,-1.315,1.101,0.427
-470.12,290.24,-549.33,-1.197,1.313,1.251
-421.28,304.76,-553.35,-1.137,1.417,1.77
-373.6,323.84,-562.38,-1.118,1.289,1.788
-309.08,340.67,-579.09,-1.062,1.15,1.467
-235.67,324.88,-561.52,-1.13,0.881,0.952
-166.4,280.24,-517.99,-1.214,0.468,0.51
-110.85,245.98,-492.13,-1.203,-0.016,0.338
-54.085,210.67,-453.84,-1.157,-0.536,0.408
44.085,167.93,-382.07,-1.072,-0.959,0.519
105.24,68.659,-287.38,-0.97,-1.248,0.591
91.037,-24.756,-163.17,-0.812,-1.127,0.651
61.037,-86.159,-50.793,-0.699,-0.953,0.743
27.378,-121.04,55.915,-0.67,-0.893,0.879
-15.793,-138.23,144.02,-0.693,-0.867,1.011
-51.89,-134.21,195.61,-0.778,-0.76,1.095
-82.744,-103.66,210.12,-0.901,-0.692,1.158
-100.49,-61.402,196.95,-1.062,-0.616,1.155
-116.04,-21.22,167.26,-1.198,-0.555,1.071
-143.9,11.646,130,-1.311,-0.496,0.955
-169.27,25.854,97.378,-1.404,-0.422,0.873
-182.87,18.902,75.427,-1.485,-0.343,0.843
-188.66,7.256,61.098,-1.547,-0.259,0.826
-178.48,1.037,58.78,-1.597,-0.167,0.823
-149.51,-4.817,61.89,-1.652,-0.073,0.824
-122.99,-16.159,72.378,-1.713,0.025,0.805
-99.207,-24.939,83.354,-1.79,0.106,0.772
-73.232,-29.024,91.585,-1.867,0.19,0.74
-43.537,-28.598,96.829,-1.941,0.278,0.706
-11.89,-26.159,101.1,-1.979,0.341,0.649
21.341,-22.805,106.34,-1.998,0.398,0.589
54.695,-18.78,114.15,-2,0.47,0.551
88.049,-15.732,123.11,-1.96,0.549,0.49
121.83,-15.61,133.41,-1.877,0.628,0.438
155.18,-19.207,146.22,-1.742,0.705,0.401
187.19,-25.793,161.52,-1.606,0.762,0.327
217.13,-34.146,179.15,-1.456,0.809,0.242
245.31,-43.476,198.11,-1.305,0.844,0.16
271.71,-52.866,218.23,-1.151,0.859,0.1
297.26,-61.402,238.66,-0.989,0.848,0.057
321.95,-69.268,258.84,-0.825,0.792,0.024
345.55,-76.646,278.23,-0.637,0.769,-0.028
369.69,-83.293,297.13,-0.43,0.663,-0.083
394.57,-88.963,315.49,-0.238,0.589,-0.126
419.33,-93.598,333.6,-0.073,0.534,-0.167
443.29,-98.11,350.06,0.086,0.448,-0.235
467.26,-100.31,364.69,0.236,0.342,-0.306
490.24,-99.817,377.32,0.42,0.274,-0.351
511.52,-97.561,387.87,0.603,0.208,-0.361
532.8,-94.573,397.44,0.796,0.107,-0.378
551.04,-90.976,405.49,1.004,0.044,-0.392
566.28,-87.134,411.16,1.224,-0.019,-0.32
580.18,-84.207,414.88,1.428,-0.094,-0.209
591.65,-81.22,416.4,1.663,-0.161,0.043
600.18,-77.683,416.83,1.909,-0.131,0.38
605.73,-74.268,416.4,1.994,-0.043,0.632
607.32,-72.805,414.57,2.14,0.075,0.858
604.45,-73.659,412.68,2.322,-0.008,1.016
599.51,-76.098,410.79,2.471,-0.182,1.054
592.44,-81.22,408.42,2.401,-0.153,1.003
583.54,-88.476,404.88,2.354,-0.152,0.985
572.32,-94.939,398.72,2.432,-0.239,1.003
557.56,-104.51,391.83,2.427,-0.272,1.015
540.37,-113.78,381.52,2.467,-0.291,1.043
511.77,-123.96,367.13,2.457,-0.321,1.086
474.33,-135,347.13,2.459,-0.379,1.162
437.87,-140.55,326.22,2.398,-0.457,1.195
401.52,-142.87,301.58,2.356,-0.487,1.231
375.18,-132.07,278.35,2.335,-0.431,1.218
338.9,-125.98,261.46,2.234,-0.369,1.287
289.82,-114.15,238.05,2.077,-0.264,1.255
240.06,-102.19,217.81,1.929,-0.185,1.23
190.85,-82.683,201.52,1.8,-0.096,1.09
143.78,-68.537,194.51,1.751,-0.079,0.977
96.037,-69.573,189.09,1.686,-0.013,0.865
49.939,-71.037,182.26,1.589,0.022,0.741
9.634,-76.768,175.37,1.52,0.034,0.604
-22.439,-89.329,166.04,1.467,0.06,0.501
-50.427,-105.67,157.74,1.397,0.087,0.434
-74.939,-122.26,145.85,1.347,0.105,0.372
-93.963,-134.57,134.27,1.315,0.128,0.32
-105.31,-146.04,123.35,1.299,0.15,0.277
-111.77,-149.15,111.46,1.287,0.173,0.235
-119.33,-141.22,95.915,1.272,0.195,0.179
-128.6,-124.08,80.61,1.25,0.214,0.117
-135.06,-106.95,66.524,1.226,0.216,0.08
-141.77,-92.195,50.488,1.196,0.207,0.063
-143.23,-76.951,32.744,1.169,0.191,0.044
-143.05,-62.866,19.634,1.14,0.169,0.022
-141.34,-50.793,8.537,1.118,0.146,0.01
-138.11,-42.256,-1.22,1.098,0.131,0.014
-133.54,-36.098,-8.293,1.074,0.12,0.012
-128.54,-30.793,-12.439,1.052,0.106,-0.007
-123.11,-25.122,-14.451,1.032,0.102,-0.012
-117.81,-18.902,-15.122,1.021,0.105,-0.002
-112.01,-13.659,-15.244,1.019,0.114,0.003
-106.34,-8.902,-15.366,1.017,0.124,0.008
-100.12,-5,-16.28,1.012,0.139,0.011
-93.72,-2.5,-17.988,1.009,0.151,0.022
-87.195,-1.098,-19.939,1.006,0.164,0.03
-80.549,0.305,-22.134,0.996,0.18,0.033
-73.72,1.768,-24.268,0.988,0.192,0.031
-66.585,2.988,-25.854,0.973,0.205,0.046
-59.329,3.841,-27.012,0.955,0.221,0.057
-51.707,4.085,-27.561,0.934,0.23,0.057
-43.537,3.72,-27.378,0.919,0.235,0.06
-35.488,2.378,-26.28,0.904,0.244,0.06
-27.378,0.427,-24.451,0.891,0.249,0.068
-19.39,-1.768,-22.073,0.874,0.259,0.08
-11.768,-3.659,-19.451,0.863,0.264,0.096
-4.634,-5.671,-16.768,0.843,0.271,0.1
2.378,-7.988,-14.329,0.816,0.287,0.095
9.024,-10.305,-11.646,0.791,0.298,0.095
14.695,-11.646,-8.78,0.771,0.31,0.095
20.061,-12.561,-5.671,0.763,0.318,0.084
24.878,-13.415,-2.744,0.756,0.319,0.078
29.146,-13.72,0.183,0.755,0.331,0.065
32.805,-13.902,3.049,0.749,0.339,0.055
35.976,-14.207,5.915,0.758,0.338,0.043
38.841,-14.817,8.72,0.767,0.334,0.025
41.402,-15.915,11.341,0.779,0.334,0.008
43.11,-16.89,13.659,0.775,0.338,-0.003
44.146,-17.866,15.671,0.771,0.34,-0.01
44.756,-18.476,17.073,0.776,0.343,-0.014
44.451,-18.902,17.988,0.773,0.342,-0.016
43.232,-19.512,18.415,0.77,0.342,-0.024
41.402,-20.061,18.476,0.76,0.345,-0.029
39.451,-20,18.232,0.746,0.349,-0.027
36.829,-18.963,17.805,0.737,0.356,-0.028
33.841,-17.561,17.561,0.728,0.36,-0.029
30.549,-15.793,17.256,0.726,0.373,-0.031
26.89,-13.72,16.89,0.732,0.375,-0.028
23.171,-11.646,16.159,0.74,0.37,-0.021
19.329,-9.573,15.122,0.745,0.367,-0.017
15.305,-7.622,14.146,0.747,0.364,-0.015
11.402,-5.549,13.171,0.757,0.367,-0.012
7.805,-3.598,12.012,0.763,0.361,-0.013
4.512,-1.585,11.098,0.773,0.356,-0.012
1.402,0.549,10.122,0.781,0.347,-0.008
-1.585,2.317,9.024,0.793,0.34,-0.01
-4.207,3.232,7.988,0.807,0.333,-0.01
-6.463,3.415,7.012,0.818,0.328,0.002
-8.72,3.537,6.28,0.829,0.321,0.013
-10.732,3.72,5.305,0.836,0.323,0.022
-12.317,4.085,4.451,0.836,0.324,0.018
-13.354,4.329,3.72,0.838,0.325,0.01
-14.207,4.756,3.171,0.846,0.329,0.002
-14.878,5,2.683,0.852,0.333,-0.009
-15.244,5.305,2.195,0.847,0.343,-0.03
-15.122,5.671,2.012,0.848,0.363,-0.035
-14.695,6.098,1.768,0.847,0.388,-0.021
-13.963,6.768,1.646,0.861,0.401,-0.014
-12.561,7.073,1.768,0.874,0.409,-0.016
-10.976,7.256,1.951,0.887,0.422,-0.017
-9.268,7.134,2.134,0.893,0.431,-0.015
-7.378,6.341,2.195,0.896,0.43,-0.017
-5.854,5.671,2.134,0.898,0.429,-0.018
-4.329,4.634,1.951,0.906,0.423,-0.021
-2.317,3.11,1.768,0.92,0.417,-0.026
0.183,0.915,1.402,0.927,0.409,-0.034
2.744,-1.707,0.854,0.932,0.402,-0.033
5.061,-4.878,0.671,0.93,0.393,-0.03
7.134,-8.78,0.305,0.926,0.386,-0.021
8.963,-13.659,-0.061,0.917,0.378,-0.026
10.549,-17.683,-0.305,0.905,0.375,-0.024
11.89,-20.549,-0.305,0.889,0.372,-0.011
13.049,-22.5,-0.366,0.879,0.375,0
13.598,-23.841,-0.366,0.868,0.38,0.015
14.085,-24.329,-0.427,0.853,0.384,0.018
14.268,-24.085,-0.244,0.841,0.382,0.016
14.146,-22.805,-0.183,0.833,0.381,0.021
13.841,-20.854,-0.183,0.836,0.375,0.019
13.354,-18.902,-0.183,0.846,0.363,0.022
12.805,-17.012,-0.366,0.851,0.351,0.024
12.256,-15.427,-0.976,0.851,0.343,0.021
11.89,-14.024,-1.768,0.847,0.332,0.025
11.098,-13.049,-2.805,0.837,0.319,0.018
10.305,-12.195,-3.78,0.831,0.308,0.017
9.268,-11.707,-4.756,0.822,0.297,0.026
8.171,-11.098,-5.488,0.805,0.29,0.029
6.951,-10.061,-6.098,0.792,0.284,0.032
5.549,-8.78,-6.89,0.774,0.271,0.032
4.39,-7.561,-7.561,0.762,0.256,0.04
3.293,-6.524,-8.171,0.757,0.245,0.042
2.378,-5.244,-8.476,0.75,0.235,0.045
1.646,-3.537,-8.598,0.749,0.226,0.048
1.037,-2.012,-8.598,0.757,0.218,0.052
0.671,-0.976,-8.415,0.76,0.205,0.052
0.61,0.061,-8.11,0.766,0.193,0.052
0.915,1.159,-7.561,0.776,0.183,0.054
1.159,2.378,-6.89,0.788,0.178,0.056
1.463,3.476,-6.159,0.794,0.174,0.053
1.768,4.207,-5.427,0.804,0.171,0.052
1.89,5.122,-4.817,0.806,0.165,0.058
1.951,6.22,-4.268,0.815,0.156,0.05
1.89,7.134,-3.72,0.828,0.15,0.047
1.951,7.744,-3.171,0.844,0.148,0.042
2.256,8.293,-2.378,0.868,0.142,0.04
2.439,8.476,-1.646,0.896,0.137,0.033
2.988,8.78,-1.098,0.932,0.132,0.022
3.841,9.024,-0.183,0.962,0.125,0.014
4.939,9.268,0.61,1.002,0.125,0.009
6.341,9.207,1.341,1.033,0.12,0.004
7.927,9.512,2.195,1.065,0.112,0.007
9.634,9.756,2.866,1.104,0.112,0.01
11.098,10.183,3.598,1.141,0.114,0.002
12.927,10.366,4.146,1.174,0.125,0.005
14.756,10.732,4.817,1.209,0.137,0.017
16.22,11.585,5.549,1.241,0.15,0.03
17.317,12.561,6.341,1.272,0.163,0.046
18.232,13.598,7.195,1.305,0.184,0.053
19.024,14.756,7.988,1.344,0.219,0.105
19.39,15.671,8.841,1.384,0.22,0.143
19.512,16.402,9.573,1.446,0.193,0.168
19.39,16.829,10,1.523,0.183,0.217
18.841,17.256,10.244,1.597,0.164,0.253
18.354,17.805,10.183,1.688,0.177,0.291
17.5,18.415,9.939,1.771,0.167,0.406
16.159,19.512,9.573,1.853,0.113,0.537
14.39,21.159,8.841,1.982,0.06,0.692
12.5,22.927,7.622,2.131,-0.014,0.849
10.183,25.122,6.159,2.287,-0.026,1.002
7.317,27.744,4.268,2.516,-0.148,1.179
3.72,30.915,2.012,2.708,-0.305,1.282
-0.61,34.512,-0.732,2.822,-0.404,1.346
-6.951,37.622,-4.39,2.97,-0.563,1.354
-13.659,41.951,-7.683,3.221,-0.788,1.404
-19.024,48.171,-11.829,3.255,-0.911,1.418
-22.134,55.061,-15.488,3.416,-1.034,1.436
-20,61.829,-19.573,3.524,-1.135,1.365
-28.537,68.72,-22.012,3.597,-1.219,1.284
-49.024,74.024,-29.451,3.545,-1.286,1.147
-66.22,82.012,-38.354,3.563,-1.326,0.993
-79.024,92.866,-45.244,3.499,-1.315,0.844
-90.549,104.02,-51.646,3.373,-1.266,0.688
-111.71,115.43,-59.207,3.243,-1.211,0.554
-134.15,127.68,-70.122,3.096,-1.127,0.415
-157.13,141.89,-77.927,2.93,-1.02,0.268
-180.12,151.77,-85.732,2.721,-0.913,0.159
-208.96,152.74,-99.207,2.485,-0.802,0.063
-237.19,158.23,-111.83,2.219,-0.698,-0.028
-259.45,165.67,-117.32,1.928,-0.596,-0.094
-281.83,169.88,-124.21,1.619,-0.483,-0.14
-305.06,173.05,-131.77,1.278,-0.397,-0.194
-326.28,177.13,-138.78,0.925,-0.321,-0.26
-348.35,181.52,-146.04,0.542,-0.271,-0.315
-370.43,182.68,-153.6,0.124,-0.212,-0.323
-391.46,183.9,-162.87,-0.333,-0.191,-0.296
-409.45,182.99,-173.66,-0.831,-0.196,-0.288
-426.46,180,-187.19,-1.375,-0.202,-0.34
-443.29,176.95,-203.66,-1.991,-0.236,-0.241
-459.15,174.69,-223.9,-2.639,-0.33,0.01
-473.23,172.74,-246.59,-3.284,-0.366,0.179
-485.18,172.32,-271.83,-3.927,-0.401,0.307
-494.39,173.9,-299.15,-4.44,-0.378,0.405
-500.61,176.83,-326.83,-4.874,-0.531,0.407
-506.16,181.34,-354.88,-5.486,-0.539,0.351
-510.06,188.23,-382.13,-6.839,0.16,0.099
-509.27,196.77,-407.87,-6.504,0.323,0.191
-506.28,207.26,-432.5,-5.636,0.039,0.296
-500.73,219.21,-454.69,-5.399,0.171,0.429
-491.28,230.85,-474.76,-4.967,0.508,0.619
-479.88,241.89,-491.95,-4.473,0.81,-0.468
-465.79,250.98,-505.92,-4.019,1.125,-0.961
-444.69,255.55,-514.76,-3.192,0.672,-0.624
-428.23,261.58,-523.41,-2.185,0.12,-0.367
-417.81,271.58,-533.78,-1.369,0.684,-0.029
-396.34,284.15,-541.34,-0.804,1.122,0.469
-355,308.54,-553.54,-0.641,1.263,1.226
-295.37,344.02,-577.74,-0.703,1.332,1.709
-209.09,373.9,-569.88,-0.753,1.197,1.604
-140.06,359.08,-533.41,-0.886,0.948,1.324
-101.1,286.34,-527.93,-1.079,0.637,0.949
-64.573,243.54,-521.65,-1.199,0.31,0.55
-31.28,209.94,-492.44,-1.197,-0.113,0.375
9.085,171.1,-438.29,-1.137,-0.568,0.464
82.988,120.06,-357.01,-1.052,-0.989,0.571
124.51,34.634,-252.68,-0.969,-1.167,0.672
83.72,-45.061,-127.93,-0.807,-1.035,0.701
34.756,-91.707,-30,-0.711,-0.889,0.757
-15,-111.34,68.841,-0.686,-0.835,0.862
-73.415,-120,154.88,-0.71,-0.815,0.928
-118.54,-117.99,206.16,-0.792,-0.746,0.984
-147.81,-89.329,220.06,-0.902,-0.688,1.025
-160.73,-52.012,204.21,-1.021,-0.614,1.038
-174.69,-26.159,172.68,-1.123,-0.531,1.019
-193.78,-7.012,141.77,-1.203,-0.432,0.986
-205.79,4.268,115.06,-1.262,-0.329,0.948
-215.18,-2.683,92.439,-1.313,-0.241,0.911
-215.98,-14.695,78.902,-1.353,-0.157,0.875
-199.51,-20.854,70.915,-1.39,-0.078,0.834
-168.11,-23.049,71.585,-1.424,0.009,0.804
-138.11,-26.646,76.524,-1.455,0.103,0.798
-115.31,-31.159,81.28,-1.504,0.184,0.789
-89.268,-33.963,85.427,-1.563,0.24,0.758
-59.939,-34.573,88.476,-1.618,0.293,0.718
-29.939,-34.573,90.976,-1.667,0.341,0.676
1.28,-33.537,95.61,-1.695,0.366,0.633
31.768,-31.646,103.17,-1.706,0.393,0.606
59.878,-29.695,113.29,-1.701,0.429,0.583
86.829,-28.659,124.69,-1.677,0.46,0.555
112.68,-28.293,137.07,-1.625,0.504,0.53
136.4,-29.085,150.55,-1.553,0.555,0.522
158.41,-31.159,164.88,-1.476,0.584,0.52
178.29,-34.39,180,-1.386,0.603,0.506
196.46,-38.415,195.98,-1.297,0.601,0.471
212.93,-42.256,212.5,-1.189,0.643,0.406
228.17,-45.488,229.33,-1.049,0.617,0.331
242.81,-49.512,246.34,-0.903,0.597,0.274
256.71,-53.659,262.81,-0.785,0.587,0.22
270.31,-58.293,278.17,-0.633,0.551,0.156
284.45,-63.72,292.32,-0.484,0.485,0.099
299.51,-69.329,305.18,-0.336,0.437,0.048
315.43,-75,316.58,-0.198,0.397,-0.003
331.77,-80.122,326.71,-0.071,0.365,-0.048
348.9,-84.573,335.67,0.044,0.327,-0.081
366.28,-87.866,343.29,0.182,0.29,-0.102
383.54,-89.695,349.76,0.309,0.241,-0.11
400,-90.183,355.73,0.44,0.185,-0.119
416.34,-89.329,362.01,0.58,0.109,-0.106
430.49,-88.78,367.68,0.715,0.048,-0.063
443.05,-89.756,372.32,0.853,-0.05,0.022
454.21,-91.89,376.46,0.976,-0.092,0.177
465.79,-94.085,379.63,1.133,-0.201,0.29
474.21,-97.134,381.71,1.259,-0.244,0.368
481.04,-100.67,383.17,1.391,-0.218,0.507
485.49,-104.76,383.96,1.499,-0.232,0.591
489.21,-110.18,383.48,1.535,-0.214,0.617
491.28,-117.56,380.79,1.56,-0.216,0.596
490.98,-126.16,376.22,1.65,-0.226,0.571
490.24,-133.9,369.51,1.722,-0.259,0.542
487.07,-141.46,361.28,1.833,-0.314,0.527
481.04,-148.66,351.89,1.882,-0.393,0.588
472.26,-154.63,341.95,2.042,-0.471,0.621
454.08,-158.6,331.95,2.213,-0.473,0.729
425.37,-161.95,322.68,2.29,-0.445,0.928
396.04,-163.78,312.93,2.355,-0.489,1
362.81,-161.77,300.73,2.4,-0.448,1.023
331.22,-158.05,289.51,2.416,-0.43,1.005
305.12,-154.63,275.12,2.306,-0.434,1
276.34,-147.01,257.68,2.245,-0.408,0.929
248.6,-138.48,241.52,2.186,-0.366,0.9
216.59,-137.81,221.52,2.132,-0.315,0.859
184.02,-142.68,203.23,2.099,-0.283,0.802
151.83,-151.46,187.38,2.06,-0.239,0.753
119.08,-162.74,174.27,2.004,-0.206,0.701
87.439,-168.23,160.18,1.936,-0.164,0.642
60.122,-176.16,153.66,1.858,-0.122,0.563
32.073,-176.59,145.73,1.786,-0.072,0.486
1.585,-173.78,133.6,1.722,-0.027,0.413
-27.5,-166.4,117.74,1.667,-0.008,0.361
-54.085,-152.81,108.42,1.592,0.078,0.319
-75.305,-137.74,101.89,1.5,0.182,0.275
-93.415,-119.88,89.634,1.447,0.243,0.223
-105.92,-109.08,77.5,1.413,0.25,0.146
-116.58,-98.963,65.305,1.347,0.309,0.077
-123.84,-87.988,52.012,1.333,0.307,-0.003
-126.16,-79.817,38.659,1.301,0.328,-0.058
-124.33,-75.122,25.732,1.269,0.341,-0.104
-120.61,-71.768,14.085,1.238,0.347,-0.137
-117.01,-68.78,4.451,1.21,0.346,-0.153
-111.4,-66.341,-3.415,1.181,0.346,-0.15
-105,-64.756,-9.695,1.161,0.348,-0.143
-97.805,-63.171,-14.39,1.146,0.344,-0.131
-89.878,-59.573,-16.159,1.132,0.336,-0.123
-82.378,-54.329,-15.244,1.116,0.334,-0.125
-76.22,-47.5,-15,1.092,0.323,-0.12
-71.646,-40.671,-17.683,1.068,0.305,-0.104
-65.915,-31.22,-18.72,1.044,0.291,-0.082
-60.976,-23.72,-18.476,1.033,0.277,-0.059
-55.305,-16.098,-18.841,1.02,0.258,-0.043
-50.183,-10.061,-17.927,1.007,0.248,-0.032
-44.878,-5.976,-17.378,0.993,0.24,-0.022
-39.817,-3.415,-17.317,0.979,0.232,-0.015
-35.183,-2.561,-17.134,0.976,0.217,0.006
-31.524,-2.439,-17.134,0.987,0.206,0.035
-28.415,-2.683,-17.378,0.999,0.191,0.064
-25.61,-3.415,-17.622,0.999,0.184,0.091
-23.354,-4.878,-18.049,0.996,0.182,0.11
-21.159,-7.439,-18.598,0.989,0.182,0.123
-18.902,-10.61,-18.78,0.979,0.185,0.135
-16.89,-13.598,-18.72,0.962,0.184,0.145
-15,-15.854,-18.11,0.937,0.184,0.156
-13.11,-17.256,-17.073,0.913,0.194,0.156
-10.854,-18.171,-16.037,0.887,0.204,0.152
-8.72,-18.72,-14.512,0.859,0.215,0.147
-6.768,-19.085,-12.927,0.831,0.225,0.135
-4.817,-18.841,-11.159,0.817,0.24,0.111
-2.561,-18.232,-8.841,0.807,0.255,0.085
-0.671,-17.134,-6.159,0.8,0.269,0.073
0.793,-15.061,-3.293,0.796,0.285,0.056
2.134,-12.317,-0.549,0.789,0.294,0.029
3.11,-9.939,1.951,0.777,0.298,0.006
4.085,-7.866,4.207,0.758,0.309,-0.001
5,-6.463,6.22,0.741,0.321,-0.003
5.183,-5.732,8.049,0.727,0.331,-0.009
5.122,-5.244,9.756,0.704,0.341,-0.015
5.427,-5.061,10.732,0.687,0.353,-0.01
5.671,-5.244,11.098,0.668,0.365,-0.007
5.915,-5.854,11.159,0.664,0.377,-0.01
6.22,-6.524,10.793,0.664,0.38,-0.01
6.707,-7.195,9.878,0.671,0.382,-0.009
6.89,-7.866,8.841,0.681,0.379,-0.019
6.89,-7.927,7.439,0.691,0.376,-0.02
6.646,-8.049,6.159,0.698,0.372,-0.017
5.854,-7.866,5.061,0.714,0.362,-0.023
4.878,-7.744,3.902,0.729,0.346,-0.028
3.232,-7.5,3.171,0.735,0.334,-0.023
1.098,-6.768,2.622,0.742,0.321,-0.021
-1.402,-6.159,2.195,0.749,0.311,-0.015
-4.451,-6.098,2.256,0.752,0.304,-0.013
-7.927,-6.768,2.439,0.759,0.299,-0.008
-11.707,-7.5,2.805,0.764,0.298,-0.005
-15.488,-8.049,3.11,0.767,0.304,0.007
-19.39,-9.085,3.537,0.777,0.309,0.016
-22.927,-10.305,3.841,0.781,0.297,0.015
-25.915,-12.256,3.902,0.796,0.287,0.012
-28.232,-14.268,3.72,0.812,0.283,0.009
-29.817,-15.793,3.78,0.827,0.278,0.013
-30.427,-17.073,3.659,0.842,0.275,0.007
-30.122,-17.988,3.902,0.854,0.277,0.013
-28.963,-18.415,4.146,0.87,0.281,0.03
-27.134,-18.415,4.695,0.893,0.283,0.052
-25.061,-17.866,5.244,0.915,0.277,0.07
-22.561,-16.707,5.793,0.938,0.269,0.084
-19.634,-15.244,6.159,0.954,0.254,0.086
-16.646,-13.902,6.402,0.967,0.241,0.09
-14.024,-12.195,6.402,0.978,0.227,0.095
-11.585,-10.366,5.976,0.989,0.211,0.091
-9.024,-9.207,5.366,1.005,0.201,0.089
-6.768,-8.841,4.878,1.031,0.187,0.096
-5,-9.451,4.695,1.052,0.172,0.109
-3.72,-10.671,4.878,1.074,0.155,0.107
-2.439,-11.707,4.878,1.09,0.141,0.108
-1.159,-12.927,4.878,1.106,0.129,0.11
0,-14.085,4.695,1.124,0.117,0.111
1.22,-14.39,4.573,1.141,0.107,0.122
2.134,-13.72,4.329,1.161,0.096,0.125
2.988,-12.317,4.024,1.179,0.083,0.122
4.085,-10.976,3.72,1.19,0.074,0.118
4.939,-9.268,3.537,1.196,0.067,0.114
5.793,-7.378,3.293,1.198,0.059,0.11
6.463,-5.183,3.171,1.195,0.056,0.103
7.134,-2.866,3.171,1.202,0.049,0.094
7.744,-0.671,3.11,1.203,0.045,0.088
8.476,1.585,3.11,1.212,0.045,0.083
8.841,3.659,3.171,1.213,0.044,0.083
9.085,5.671,3.354,1.205,0.048,0.08
9.512,7.5,3.963,1.197,0.048,0.074
10,8.902,4.695,1.198,0.042,0.068
10.366,10.549,5.366,1.211,0.047,0.062
11.037,12.744,6.28,1.232,0.044,0.063
11.951,14.878,7.256,1.252,0.046,0.061
13.232,16.524,8.293,1.278,0.037,0.064
14.268,18.232,9.146,1.316,0.032,0.079
15.671,19.878,9.878,1.364,0.045,0.088
16.829,21.463,10.61,1.392,0.021,0.137
17.683,23.354,11.22,1.417,-0.013,0.18
18.293,25.488,11.463,1.455,-0.043,0.235
18.415,27.439,11.22,1.502,-0.079,0.321
18.171,29.939,10.732,1.573,-0.119,0.386
17.622,33.049,10.122,1.67,-0.173,0.472
16.159,35.61,9.268,1.75,-0.256,0.613
14.024,38.598,8.537,1.875,-0.335,0.743
11.585,42.622,7.561,2.017,-0.44,0.869
8.476,47.012,6.28,2.168,-0.531,0.997
5.122,51.159,4.512,2.372,-0.633,1.02
1.341,55.122,2.866,2.614,-0.75,1.117
-2.683,58.72,1.098,2.894,-0.917,1.143
-7.012,62.317,-1.341,3.096,-1.013,1.179
-12.5,65.61,-4.695,3.285,-1.074,1.213
-14.756,71.463,-8.415,3.427,-1.149,1.172
-25.122,77.5,-12.378,3.496,-1.174,1.108
-34.573,85.183,-17.744,3.503,-1.23,1.038
-38.11,94.878,-22.317,3.463,-1.17,0.897
-50.915,103.66,-27.012,3.394,-1.134,0.768
-67.256,112.93,-33.354,3.302,-1.114,0.635
-75.976,126.1,-39.329,3.124,-1.041,0.516
-90.122,137.62,-45.488,2.953,-0.953,0.42
-110.98,151.52,-51.28,2.783,-0.841,0.342
-130.06,161.89,-57.256,2.599,-0.723,0.281
-148.72,167.62,-69.024,2.377,-0.591,0.229
-167.68,172.38,-78.841,2.145,-0.471,0.172
-184.57,176.52,-86.402,1.886,-0.346,0.104
-201.1,178.66,-92.866,1.626,-0.234,0.014
-218.41,181.46,-99.878,1.343,-0.138,-0.057
-236.59,186.1,-105.79,1.055,-0.055,-0.117
-255,190.18,-114.02,0.75,-0.005,-0.163
-270.67,191.4,-120.85,0.434,0.045,-0.242
-287.13,189.51,-129.57,0.079,0.063,-0.297
-305.98,188.05,-141.46,-0.333,0.063,-0.287
-324.15,184.94,-154.15,-0.805,0.075,-0.287
-342.5,180.12,-170.79,-1.313,0.068,-0.336
-362.62,175.31,-189.76,-1.872,0.001,-0.299
-384.08,171.4,-210.85,-2.461,-0.048,-0.145
-406.89,170.24,-234.39,-3.033,-0.134,-0.054
-430.37,172.13,-259.51,-3.555,-0.21,0.028
-452.93,176.04,-284.88,-4.096,-0.253,0.184
-473.96,182.38,-311.28,-4.612,-0.347,0.243
-493.17,190.61,-337.62,-4.883,-0.31,0.305
-510.79,200.67,-363.42,-5.144,-0.148,0.259
-524.51,212.44,-387.74,-4.88,-0.021,0.314
-534.33,227.13,-410.55,-4.448,-0.116,0.361
-538.41,243.84,-431.4,-4.228,-0.156,0.307
-539.7,259.94,-449.82,-3.996,-0.096,0.268
-538.05,275,-466.1,-3.76,0.019,0.358
-533.23,289.63,-479.39,-3.553,0.258,0.239
-525.61,300.18,-488.42,-3.299,0.477,-0.345
-516.59,307.26,-492.99,-2.819,0.578,-0.561
-509.63,318.54,-500,-2.261,0.388,-0.28
-487.38,319.39,-497.87,-1.668,0.3,0.157
-448.66,322.74,-493.78,-1.075,0.414,0.707
-403.23,336.95,-497.68,-0.684,0.625,1.165
-342.44,336.04,-488.84,-0.497,0.82,1.342
-267.68,326.95,-467.68,-0.423,0.797,1.349
-206.52,295.06,-446.71,-0.504,0.668,1.203
-160.61,271.52,-436.83,-0.703,0.489,0.969
-117.62,241.59,-419.88,-0.879,0.275,0.726
-75.061,198.72,-390.55,-0.99,-0.002,0.562
-33.659,151.4,-349.08,-0.998,-0.291,0.553
23.659,105.92,-293.23,-0.929,-0.541,0.607
77.256,55.122,-237.32,-0.838,-0.735,0.715
99.756,-2.195,-167.01,-0.71,-0.784,0.794
89.146,-51.22,-91.646,-0.618,-0.709,0.852
61.098,-81.22,-15.61,-0.564,-0.627,0.899
30.122,-90.061,57.256,-0.577,-0.581,0.938
3.232,-81.22,113.72,-0.637,-0.558,0.966
-20.061,-61.28,147.62,-0.717,-0.533,0.991
-40.183,-35.427,156.1,-0.813,-0.483,1.032
-65.976,-12.195,144.63,-0.902,-0.421,1.033
-88.78,3.659,124.08,-0.966,-0.344,1.029
-106.16,10.061,101.77,-1.02,-0.256,1.043
-117.68,8.902,83.232,-1.071,-0.18,1.066
-121.04,4.817,67.744,-1.117,-0.117,1.073
-121.52,-0.427,55.671,-1.158,-0.07,1.053
-113.29,-7.195,47.744,-1.217,-0.02,1.028
-101.95,-12.622,43.659,-1.283,0.049,1.007
-92.195,-15.549,41.341,-1.361,0.118,0.973
-82.5,-17.073,40.671,-1.441,0.168,0.939
-72.744,-18.11,39.695,-1.515,0.202,0.918
-61.524,-19.329,39.207,-1.579,0.216,0.904
-48.659,-19.512,40.854,-1.633,0.229,0.903
-35,-18.598,44.817,-1.682,0.225,0.913
-20.244,-15.366,50.488,-1.728,0.217,0.92
-6.463,-11.402,58.537,-1.762,0.22,0.92
7.073,-7.927,68.963,-1.79,0.237,0.898
20.854,-4.817,81.159,-1.811,0.263,0.869
34.085,-3.232,95.122,-1.822,0.295,0.838
47.317,-2.622,110.55,-1.813,0.329,0.794
60.854,-3.598,126.71,-1.782,0.37,0.735
74.878,-6.524,143.05,-1.712,0.417,0.669
89.634,-10.976,159.82,-1.617,0.48,0.622
105.61,-17.744,177.19,-1.501,0.537,0.603
121.83,-25.793,194.94,-1.365,0.555,0.558
138.48,-34.634,212.99,-1.223,0.572,0.504
156.46,-43.598,231.16,-1.084,0.571,0.449
176.04,-52.5,249.76,-0.935,0.549,0.388
196.95,-61.159,268.23,-0.775,0.521,0.338
219.21,-69.695,286.04,-0.617,0.498,0.279
243.41,-77.439,302.74,-0.468,0.478,0.216
269.27,-85,317.81,-0.315,0.436,0.168
297.32,-92.622,331.52,-0.17,0.382,0.128
325.37,-99.817,343.48,-0.046,0.348,0.061
352.74,-106.22,353.78,0.079,0.326,-0.007
379.63,-111.65,362.44,0.199,0.309,-0.067
406.71,-116.95,369.45,0.309,0.292,-0.053
431.22,-120.43,375.67,0.42,0.276,-0.006
453.42,-122.07,380.92,0.524,0.22,0.036
473.78,-123.11,385.31,0.636,0.109,0.056
493.23,-123.66,389.33,0.756,-0.026,0.07
510.55,-123.35,392.81,0.893,-0.146,0.035
524.33,-122.56,395.43,1.021,-0.233,0.072
535.06,-121.46,397.38,1.145,-0.289,0.125
544.15,-120.61,398.42,1.248,-0.299,0.19
549.7,-120.67,399.57,1.348,-0.26,0.344
552.26,-122.01,399.94,1.445,-0.181,0.541
553.11,-124.94,399.57,1.536,-0.147,0.642
552.26,-130.18,397.26,1.638,-0.133,0.821
549.7,-135.24,392.44,1.743,-0.079,0.854
543.48,-141.1,386.1,1.881,-0.107,0.91
532.68,-147.5,377.93,1.986,-0.139,0.919
520.85,-154.57,368.54,2.052,-0.108,0.899
506.77,-161.46,358.84,2.108,-0.16,0.877
491.52,-168.48,348.11,2.158,-0.238,0.896
469.02,-174.02,336.4,2.209,-0.292,0.892
439.15,-182.68,323.05,2.208,-0.318,0.865
414.69,-190.06,308.23,2.186,-0.347,0.858
394.45,-194.02,289.82,2.167,-0.368,0.877
371.1,-194.82,270.67,2.14,-0.371,0.884
346.95,-191.16,251.71,2.106,-0.349,0.886
318.11,-182.99,234.21,2.052,-0.298,0.892
279.51,-173.17,219.63,1.989,-0.227,0.885
234.45,-161.28,204.21,1.935,-0.146,0.855
189.09,-149.94,187.56,1.875,-0.081,0.761
143.23,-139.51,176.34,1.822,-0.024,0.622
98.049,-132.32,166.71,1.763,0.04,0.492
55.671,-129.57,155.79,1.696,0.097,0.379
14.695,-130.12,145.98,1.629,0.154,0.26
-24.451,-130.98,136.89,1.559,0.195,0.177
-58.415,-132.44,125.79,1.491,0.223,0.132
-86.585,-136.52,113.05,1.435,0.243,0.087
-110.67,-140.18,99.207,1.381,0.251,0.053
-129.69,-141.83,85.61,1.341,0.273,0.013
-145.12,-142.01,72.134,1.311,0.298,-0.019
-155.55,-140.49,57.317,1.287,0.31,-0.039
-161.95,-135.06,41.28,1.28,0.301,-0.071
-166.83,-126.4,25.915,1.274,0.282,-0.098
-171.34,-115.98,10.122,1.261,0.263,-0.124
-173.48,-106.83,-3.902,1.244,0.244,-0.143
-173.84,-99.695,-15.61,1.218,0.229,-0.144
-173.29,-93.354,-24.329,1.196,0.208,-0.121
-172.26,-87.378,-29.939,1.182,0.187,-0.102
-171.4,-83.171,-33.354,1.167,0.168,-0.083
-169.94,-78.963,-34.146,1.15,0.148,-0.073
-168.6,-73.293,-32.134,1.121,0.138,-0.052
-166.59,-67.378,-27.805,1.097,0.135,-0.036
-163.6,-60.061,-22.683,1.075,0.142,-0.031
-160.37,-52.195,-19.024,1.054,0.147,-0.021
-155.61,-45.549,-16.951,1.048,0.15,-0.012
-149.69,-39.756,-15.976,1.05,0.151,-0.008
-143.29,-34.695,-15.61,1.059,0.15,-0.006
-136.28,-31.463,-15.427,1.063,0.15,-0.002
-128.54,-29.695,-16.22,1.067,0.152,-0.008
-120.49,-28.72,-17.317,1.062,0.15,-0.019
-111.46,-27.439,-18.232,1.056,0.156,-0.019
-102.5,-26.037,-18.902,1.043,0.163,-0.019
-93.415,-24.939,-19.451,1.036,0.164,-0.014
-84.268,-24.512,-19.207,1.028,0.167,-0.005
-75.183,-24.817,-18.598,1.028,0.168,-0.004
-66.585,-25.549,-17.622,1.025,0.172,-0.004
-58.232,-26.585,-16.341,1.013,0.183,-0.01
-49.878,-27.744,-15,0.999,0.197,-0.016
-42.073,-29.268,-13.293,0.977,0.21,-0.015
-34.756,-31.159,-11.341,0.958,0.22,-0.012
-27.866,-33.232,-9.207,0.939,0.231,-0.016
-21.402,-35.427,-7.073,0.924,0.239,-0.022
-15.305,-37.317,-4.817,0.908,0.251,-0.021
-9.451,-39.146,-2.561,0.893,0.265,-0.01
-4.146,-40.61,-0.732,0.883,0.282,0.005
0.793,-40.976,0.976,0.874,0.298,0.006
5.061,-40.305,2.5,0.869,0.313,0.016
8.415,-38.841,3.598,0.866,0.325,0.025
11.28,-36.524,4.39,0.863,0.336,0.038
13.598,-33.598,4.756,0.859,0.338,0.051
15.488,-30.488,4.695,0.852,0.337,0.052
17.012,-27.378,3.841,0.837,0.339,0.056
18.171,-23.841,2.744,0.823,0.332,0.062
19.024,-20.122,1.585,0.799,0.319,0.062
19.512,-16.768,0.61,0.78,0.308,0.057
19.756,-13.963,0,0.758,0.302,0.057
19.573,-11.646,-0.366,0.736,0.3,0.062
19.024,-9.39,-0.61,0.723,0.3,0.059
18.415,-7.195,-0.732,0.719,0.304,0.048
17.622,-4.878,-0.732,0.713,0.304,0.041
16.829,-2.5,-0.976,0.718,0.3,0.025
15.976,-0.366,-1.22,0.729,0.298,0.019
14.939,1.951,-1.463,0.735,0.296,0.022
14.146,4.451,-1.585,0.742,0.295,0.03
12.805,6.402,-1.707,0.74,0.294,0.026
11.22,8.171,-2.012,0.736,0.288,0.033
9.756,9.878,-2.317,0.733,0.278,0.029
8.11,11.159,-2.561,0.728,0.268,0.021
6.341,12.012,-2.378,0.714,0.255,0.021
4.695,12.561,-2.317,0.708,0.244,0.021
3.415,13.232,-2.378,0.714,0.229,0.021
2.134,13.659,-2.378,0.734,0.216,0.014
1.098,13.659,-2.622,0.76,0.205,0
0.244,13.354,-2.805,0.783,0.191,-0.003
-0.061,12.5,-2.561,0.807,0.182,-0.005
-0.488,11.463,-1.951,0.829,0.173,-0.009
-1.098,10.061,-1.28,0.844,0.163,-0.008
-1.28,8.598,-0.183,0.858,0.16,-0.009
-1.159,7.561,1.098,0.874,0.155,-0.014
-0.976,6.89,2.5,0.892,0.153,-0.015
-0.61,6.22,4.024,0.908,0.154,-0.01
-0.183,5.732,5.427,0.93,0.157,-0.002
0.244,5.488,6.585,0.943,0.161,0.005
0.854,5.488,7.805,0.954,0.162,0.009
1.646,5.549,8.598,0.97,0.166,0.017
2.622,5.671,9.268,0.981,0.168,0.011
3.78,5.793,9.451,1,0.175,0.006
5.305,5.122,9.268,1.017,0.168,0.004
7.195,4.085,9.024,1.048,0.16,-0.005
9.451,2.927,8.476,1.079,0.149,-0.01
11.707,2.195,7.683,1.114,0.141,-0.011
14.207,1.159,6.768,1.154,0.135,-0.015
17.073,0.427,6.037,1.192,0.125,-0.015
19.939,-0.183,5.366,1.231,0.118,-0.013
22.683,-0.488,4.756,1.273,0.118,-0.007
25.061,-0.488,4.207,1.32,0.115,0.002
27.439,0.183,3.72,1.356,0.113,0
29.451,1.28,3.415,1.392,0.119,0.005
31.22,2.561,3.049,1.425,0.118,0.026
32.317,4.39,2.988,1.481,0.138,0.053
33.049,6.463,2.866,1.529,0.166,0.062
33.659,8.598,2.805,1.578,0.16,0.072
33.902,10.854,2.988,1.627,0.162,0.107
33.841,13.11,2.988,1.699,0.166,0.135
33.659,15.366,3.232,1.756,0.177,0.202
33.659,17.805,3.11,1.81,0.149,0.259
33.841,20.793,2.927,1.854,0.102,0.359
33.72,24.085,2.805,1.935,0.039,0.467
33.598,27.866,2.5,2.034,-0.017,0.577
33.293,31.829,2.073,2.188,-0.096,0.681
32.866,36.159,1.585,2.354,-0.134,0.774
32.195,40.854,1.341,2.53,-0.25,0.914
30.915,46.037,1.098,2.651,-0.386,0.997
29.451,50.732,0.305,2.873,-0.485,1.045
27.439,55.976,-0.732,3.035,-0.647,1.106
24.695,60.61,-2.439,3.216,-0.812,1.122
23.78,65.488,-4.024,3.335,-0.924,1.188
21.646,70.427,-5.671,3.395,-1.021,1.113
16.646,75.61,-8.415,3.466,-1.143,1.083
12.256,82.683,-12.256,3.51,-1.234,1.04
3.902,89.085,-16.098,3.464,-1.269,0.958
-6.159,99.329,-19.512,3.431,-1.266,0.864
-12.195,112.62,-22.805,3.382,-1.262,0.736
-21.707,125.92,-26.951,3.293,-1.246,0.556
-35.976,140.73,-31.646,3.18,-1.208,0.38
-53.78,153.84,-39.451,3.021,-1.156,0.274
-70.488,165.85,-42.988,2.829,-1.139,0.189
-90.793,172.44,-45.915,2.618,-1.106,0.07
-117.13,178.05,-55.488,2.387,-1.084,-0.045
-137.68,183.11,-59.146,2.153,-1.054,-0.161
-165.73,186.77,-63.72,1.916,-1.041,-0.281
-194.88,190.73,-69.939,1.659,-0.99,-0.359
-219.69,193.35,-77.988,1.387,-0.932,-0.43
-249.21,199.21,-84.939,1.094,-0.9,-0.495
-280.43,203.66,-90.732,0.785,-0.858,-0.509
-312.5,205.12,-99.512,0.429,-0.767,-0.418
-346.4,205.67,-110.49,0.001,-0.611,-0.31
-380.92,205.91,-124.27,-0.498,-0.509,-0.29
-413.72,203.9,-142.07,-1.037,-0.552,-0.236
-444.08,199.02,-162.87,-1.639,-0.583,-0.087
-472.13,193.29,-186.59,-2.211,-0.609,0.069
-496.71,188.54,-212.99,-2.767,-0.689,0.199
-518.05,186.22,-242.68,-3.116,-0.711,0.358
-533.11,185.43,-275.06,-3.2,-0.783,0.577
-542.26,185.91,-310.49,-3.851,-0.994,0.566
-545.79,189.09,-347.26,-5.399,-0.973,0.378
-543.48,195.31,-383.29,-7.583,0.055,0.298
-537.01,204.57,-417.13,-9.292,0.73,0.308
-527.8,217.5,-447.5,-6.951,0.057,0.612
-516.59,232.5,-472.32,-6.692,0.503,0.678
-503.29,246.89,-491.52,-6.438,1.053,0.802
-487.56,262.44,-506.1,-5.585,0.828,-0.822
-470.43,277.68,-516.34,-4.879,0.971,-1.834
-450.67,286.52,-521.4,-3.731,0.541,-1.744
-422.19,290.55,-519.15,-2.486,-0.05,-1.424
-395.79,296.4,-516.77,-1.543,0.409,-0.95
-378.72,310.92,-527.01,-0.612,1.016,-0.132
-349.69,355.37,-548.05,-0.104,1.166,0.832
-300.98,448.42,-592.38,0,1.3,1.721
-212.68,515.67,-591.59,0.049,1.333,2.028
-125.92,510.31,-578.41,-0.19,0.999,1.715
-84.939,416.22,-611.52,-0.591,0.427,1.003
-69.634,316.58,-608.78,-0.958,-0.112,0.403
-31.402,253.41,-559.76,-1.141,-0.465,0.204
14.695,176.65,-506.1,-1.17,-0.853,0.24
78.049,99.451,-421.16,-1.184,-1.25,0.316
85.122,-1.951,-289.69,-1.146,-1.408,0.447
49.024,-98.415,-149.63,-1.029,-1.229,0.631
-9.878,-159.63,-34.573,-0.949,-1.06,0.84
-56.402,-182.93,40.915,-0.936,-0.987,1.015
-114.82,-203.54,128.05,-0.96,-0.885,1.104
-161.1,-204.88,190.85,-1.032,-0.753,1.092
-195.12,-174.39,219.94,-1.144,-0.614,1.018
-214.09,-108.9,209.27,-1.255,-0.47,0.94
-231.16,-40.976,174.57,-1.338,-0.357,0.889
-246.89,12.439,146.59,-1.412,-0.276,0.855
-251.59,46.22,119.15,-1.485,-0.191,0.819
-247.13,53.11,90,-1.58,-0.098,0.781
-233.48,47.927,68.293,-1.682,-0.01,0.748
-205.55,39.39,54.817,-1.799,0.057,0.713
-165.98,28.293,50.61,-1.902,0.095,0.67
-124.88,14.878,52.561,-1.981,0.122,0.628
-92.256,1.585,56.463,-2.039,0.156,0.614
-59.207,-6.524,62.439,-2.083,0.206,0.597
-24.695,-10.427,69.085,-2.14,0.276,0.573
8.72,-12.073,76.585,-2.198,0.335,0.555
40.366,-12.988,85.61,-2.248,0.397,0.527
69.573,-14.39,96.707,-2.255,0.464,0.498
95.915,-16.037,110.43,-2.227,0.535,0.464
119.88,-17.317,127.01,-2.144,0.615,0.438
141.16,-18.963,146.77,-2.013,0.687,0.408
161.1,-21.707,168.72,-1.846,0.742,0.364
180.18,-25.488,192.93,-1.676,0.791,0.311
200.12,-30.732,217.99,-1.499,0.834,0.253
221.71,-37.256,243.54,-1.321,0.863,0.186
244.88,-44.634,268.66,-1.132,0.871,0.105
269.45,-52.561,292.74,-0.95,0.883,0.038
295.55,-60.244,316.04,-0.775,0.835,-0.014
323.72,-67.866,337.38,-0.584,0.821,-0.083
354.51,-75.305,356.89,-0.362,0.741,-0.17
385.79,-82.073,374.39,-0.16,0.677,-0.271
417.13,-87.134,389.69,0.003,0.641,-0.322
447.68,-90.671,402.62,0.183,0.546,-0.326
477.13,-93.049,413.42,0.358,0.465,-0.328
505.37,-94.329,422.32,0.513,0.353,-0.298
532.56,-95.183,429.82,0.475,0.236,-0.341
556.77,-96.159,436.04,0.708,0.25,-0.175
577.56,-96.28,441.4,0.98,0.11,-0.03
596.83,-96.159,445.73,1.288,-0.086,0.219
612.13,-95.61,448.96,1.461,-0.048,0.372
623.54,-94.573,450.85,1.751,-0.048,0.583
630.98,-92.134,453.17,1.939,-0.058,0.717
634.76,-89.512,454.76,1.923,-0.002,0.705
632.93,-88.598,455.12,2.075,-0.123,0.709
628.96,-89.39,454.02,2.138,-0.149,0.711
621.1,-91.22,452.32,2.089,-0.239,0.721
607.13,-95.427,447.62,2.038,-0.357,0.67
589.51,-99.451,438.54,2.291,-0.46,0.71
569.7,-103.84,422.5,2.497,-0.636,0.836
542.07,-117.81,403.23,2.874,-0.52,1.085
511.77,-140.24,375.37,3.25,-0.542,1.237
471.65,-155.79,338.9,3.006,-0.471,1.33
431.77,-164.21,309.82,2.708,-0.47,1.366
398.23,-167.32,294.45,2.714,-0.386,1.395
369.08,-165.24,279.27,2.637,-0.312,1.386
340.49,-153.29,260.67,2.52,-0.263,1.361
296.89,-151.77,255,2.399,-0.212,1.312
256.22,-143.9,238.96,2.294,-0.14,1.234
222.93,-138.9,229.21,2.183,-0.057,1.15
183.11,-141.77,226.46,2.081,0.044,1.037
133.05,-157.5,223.48,1.991,0.157,0.888
85.305,-176.4,200.24,1.892,0.246,0.733
50.854,-177.74,177.56,1.8,0.311,0.595
22.073,-181.04,171.28,1.746,0.333,0.472
4.268,-155.85,142.56,1.653,0.343,0.329
-21.463,-120.85,128.41,1.404,0.374,0.183
-46.463,-103.48,112.81,1.408,0.375,0.069
-64.878,-93.659,90.549,1.411,0.369,-0.009
-80.061,-84.573,68.049,1.301,0.38,-0.063
-93.293,-76.524,46.768,1.103,0.411,-0.1
-104.94,-70.671,27.195,0.934,0.397,-0.178
-114.63,-66.646,9.39,1.009,0.341,-0.184
-122.68,-64.939,-5.976,1.079,0.284,-0.186
-129.82,-64.146,-19.146,1.028,0.244,-0.186
-137.56,-64.146,-28.78,1,0.193,-0.164
-144.69,-64.817,-33.963,0.979,0.156,-0.125
-151.34,-63.963,-36.646,0.95,0.131,-0.088
-159.76,-59.878,-36.707,0.934,0.106,-0.04
-166.34,-50.671,-31.159,0.919,0.084,0.009
-170.06,-44.085,-25.732,0.907,0.059,0.059
-172.38,-38.841,-25.671,0.89,0.04,0.117
-173.54,-26.159,-22.622,0.878,0.019,0.144
-171.71,-11.037,-18.11,0.863,0.004,0.158
-173.35,-1.951,-17.5,0.85,-0.003,0.179
-174.21,-2.134,-19.329,0.835,-0.004,0.197
-171.65,-4.451,-25.854,0.824,-0.001,0.211
-168.35,-1.951,-28.415,0.813,0.011,0.214
-163.66,1.524,-26.951,0.796,0.032,0.213
-157.62,3.232,-25.061,0.787,0.061,0.198
-150.43,4.085,-22.561,0.772,0.074,0.181
-142.26,3.537,-20.915,0.775,0.093,0.169
-133.6,1.646,-19.878,0.789,0.131,0.155
-123.78,-0.488,-18.293,0.803,0.167,0.138
-113.05,-2.317,-16.22,0.813,0.208,0.13
-101.52,-3.963,-13.537,0.818,0.245,0.126
-89.573,-5.915,-10.671,0.819,0.28,0.119
-76.707,-8.598,-7.805,0.822,0.299,0.112
-63.171,-12.195,-4.878,0.829,0.318,0.107
-49.573,-15.915,-2.073,0.832,0.34,0.098
-36.646,-19.207,0.793,0.833,0.356,0.087
-24.695,-22.622,3.415,0.834,0.364,0.079
-13.476,-25.854,6.098,0.833,0.366,0.062
-3.415,-28.841,8.963,0.834,0.369,0.047
5.305,-31.646,11.707,0.845,0.374,0.032
12.622,-32.988,14.39,0.859,0.375,0.03
17.866,-33.476,17.012,0.873,0.379,0.028
21.402,-33.902,19.024,0.882,0.376,0.017
23.598,-33.659,20.427,0.881,0.375,0.014
24.878,-32.805,21.463,0.869,0.377,0.011
24.817,-31.22,22.439,0.852,0.377,0.002
23.841,-29.695,23.171,0.832,0.374,0.005
22.134,-27.988,24.146,0.808,0.38,0.006
19.634,-26.098,25.427,0.784,0.39,-0.007
16.463,-23.659,26.22,0.759,0.406,-0.016
12.927,-21.89,26.707,0.744,0.419,-0.003
9.451,-20.61,27.012,0.745,0.421,0.003
5.793,-18.963,26.951,0.756,0.429,0.003
2.073,-17.378,26.28,0.785,0.427,0
-1.098,-16.159,25.183,0.76,0.433,0.001
-4.085,-14.939,23.354,0.788,0.427,0.007
-6.951,-13.415,21.037,0.811,0.41,0.003
-9.695,-12.317,18.293,0.809,0.4,0.009
-11.829,-11.037,15.549,0.813,0.393,0.016
-13.598,-9.939,13.293,0.805,0.379,0.026
-15.061,-9.085,11.402,0.798,0.366,0.035
-16.098,-8.049,9.878,0.796,0.353,0.036
-16.89,-7.134,8.72,0.794,0.338,0.028
-17.195,-6.707,7.683,0.778,0.326,0.021
-16.951,-5.793,7.317,0.77,0.314,0.028
-16.159,-4.329,7.744,0.763,0.315,0.029
-15.183,-2.5,8.171,0.763,0.31,0.035
-14.207,-0.671,8.659,0.773,0.307,0.04
-12.805,0,9.268,0.784,0.305,0.044
-10.976,-1.037,8.11,0.791,0.297,0.056
-9.085,-1.22,8.171,0.795,0.286,0.057
-7.134,-1.28,9.024,0.801,0.276,0.051
-5.122,-1.22,9.817,0.806,0.266,0.047
-2.988,-1.341,10.366,0.812,0.251,0.046
-1.037,-1.341,11.037,0.816,0.232,0.052
1.037,-1.28,11.829,0.833,0.206,0.051
2.805,-1.159,12.439,0.801,0.211,0.058
4.634,-1.89,12.988,0.809,0.194,0.066
6.402,-3.293,13.537,0.827,0.163,0.064
7.927,-4.268,14.085,0.827,0.15,0.069
9.207,-4.695,14.329,0.832,0.142,0.076
10.549,-5,14.573,0.857,0.12,0.078
12.073,-5.793,14.451,0.872,0.099,0.08
13.293,-6.646,14.39,0.886,0.082,0.088
14.39,-7.134,14.268,0.905,0.063,0.095
15.427,-7.439,13.902,0.921,0.049,0.107
16.341,-7.866,13.537,0.94,0.035,0.119
17.195,-8.476,13.293,0.959,0.031,0.129
18.049,-8.841,12.927,0.974,0.027,0.131
19.085,-8.293,13.476,0.984,0.017,0.131
20.122,-7.683,14.573,0.998,0.018,0.128
20.488,-6.951,12.622,1.02,0.019,0.129
21.159,-5.427,11.524,1.046,0.02,0.125
22.378,-3.537,11.646,1.074,0.012,0.12
23.354,-1.585,10.854,1.099,0.02,0.11
24.207,0.854,9.329,1.125,0.022,0.108
25.488,3.476,8.72,1.148,0.026,0.107
27.012,5.61,8.293,1.17,0.034,0.103
28.232,7.927,8.232,1.191,0.04,0.101
29.512,10.488,8.476,1.222,0.042,0.11
30.732,13.598,8.902,1.258,0.033,0.119
31.585,16.89,9.573,1.284,0.047,0.127
32.317,20.305,10.183,1.31,0.031,0.155
32.622,23.232,10.671,1.351,0.028,0.192
32.439,26.463,11.402,1.391,0.037,0.249
32.012,30,11.829,1.446,0.039,0.295
31.159,33.11,12.439,1.502,0,0.354
29.634,35.854,12.866,1.579,0.005,0.424
27.439,37.805,13.049,1.652,-0.072,0.51
24.634,39.451,13.049,1.749,-0.106,0.588
21.037,41.28,12.988,1.863,-0.224,0.688
16.341,43.11,12.683,1.983,-0.306,0.851
10.671,45.183,12.256,2.248,-0.379,0.905
4.695,47.134,11.463,2.382,-0.502,1.022
-1.463,50,10.671,2.679,-0.624,1.16
-8.659,52.256,9.573,2.876,-0.787,1.13
-16.646,54.634,8.293,3.079,-0.909,1.183
-24.695,58.598,7.622,3.227,-0.987,1.251
-32.683,64.268,6.89,3.379,-1.109,1.285
-40.671,71.768,6.159,3.347,-1.17,1.27
-46.22,79.756,5.793,3.436,-1.232,1.28
-53.171,86.098,3.11,3.445,-1.283,1.248
-64.39,93.049,-5.427,3.417,-1.286,1.182
-78.293,100.31,-12.256,3.394,-1.289,1.082
-89.573,109.39,-19.695,3.348,-1.274,0.926
-101.71,117.26,-21.951,3.279,-1.234,0.736
-114.57,123.84,-28.415,3.184,-1.186,0.564
-135.55,128.54,-42.805,3.033,-1.12,0.437
-158.17,127.32,-53.659,2.84,-1.042,0.321
-179.02,133.84,-61.951,2.631,-0.974,0.207
-188.17,138.29,-68.841,2.405,-0.894,0.107
-202.62,138.9,-79.146,2.158,-0.793,0.009
-221.83,142.93,-92.073,1.888,-0.685,-0.066
-236.95,148.17,-99.329,1.592,-0.586,-0.121
-257.38,151.83,-110.37,1.271,-0.494,-0.194
-279.57,158.05,-121.89,0.915,-0.424,-0.256
-301.83,163.35,-132.93,0.523,-0.336,-0.251
-325.61,168.11,-145.31,0.096,-0.253,-0.209
-349.08,171.71,-159.02,-0.371,-0.185,-0.232
-369.76,174.09,-174.82,-0.85,-0.202,-0.291
-389.33,174.82,-193.05,-1.369,-0.238,-0.288
-409.02,174.63,-214.15,-1.883,-0.281,-0.158
-426.95,175,-237.81,-2.463,-0.381,0.088
-441.95,176.22,-263.78,-2.979,-0.373,0.305
-454.76,177.81,-290.61,-3.396,-0.421,0.469
-464.76,180.31,-318.54,-3.531,-0.52,0.71
-472.13,184.69,-347.01,-4.184,-0.547,0.73
-477.5,191.22,-375.31,-5.588,-0.331,0.484
-480.24,200.31,-402.07,-6.592,0.309,0.429
-480.37,210.61,-426.4,-5.846,0.19,0.7
-479.08,222.62,-447.87,-5.476,0.164,0.839
-475.67,234.63,-466.46,-5.538,0.598,1.015
-470.49,245.24,-482.13,-5.172,0.82,0.317
-464.33,255.43,-495.98,-4.581,0.95,-1.06
-454.45,261.34,-505.61,-4.095,0.555,-1.463
-434.21,261.28,-509.02,-3.262,0.153,-1.289
-412.44,263.11,-508.17,-2.317,0.108,-0.925
-402.56,271.1,-514.45,-1.566,0.707,-0.322
-391.4,292.01,-527.32,-1.017,1.004,0.549
-354.02,331.71,-542.5,-0.824,1.198,1.354
-303.42,400.98,-566.46,-0.739,1.228,1.825
-239.82,432.56,-567.07,-0.716,1.111,1.91
-177.74,384.39,-529.82,-0.79,0.829,1.451
-145.37,331.77,-532.99,-0.946,0.368,0.77
-105.37,305.98,-526.04,-1.054,-0.13,0.354
-68.354,259.63,-497.19,-1.084,-0.549,0.208
-6.585,205.06,-444.82,-1.097,-0.966,0.192
57.134,125.49,-367.5,-1.044,-1.349,0.275
58.78,29.878,-263.48,-0.955,-1.543,0.465
22.073,-50,-141.52,-0.824,-1.291,0.687
-23.415,-102.99,-37.378,-0.73,-1.05,0.804
-78.963,-135.31,50.061,-0.713,-0.93,0.882
-133.29,-147.01,123.84,-0.727,-0.802,0.913
-175.43,-138.9,166.1,-0.797,-0.702,0.91
-208.41,-104.33,173.72,-0.904,-0.606,0.903
-234.57,-53.902,153.84,-1.011,-0.495,0.903
-255,-6.89,118.23,-1.102,-0.371,0.893
-269.27,23.049,84.024,-1.18,-0.249,0.884
-269.88,31.28,53.72,-1.26,-0.136,0.869
-258.35,23.354,26.463,-1.354,-0.041,0.852
-240.12,10.305,4.878,-1.471,0.042,0.832
-208.17,-1.89,-6.585,-1.583,0.118,0.81
-164.88,-11.341,-8.659,-1.683,0.174,0.774
-122.81,-18.11,-3.232,-1.759,0.209,0.739
-84.817,-22.073,6.159,-1.809,0.239,0.742
-47.195,-21.463,16.28,-1.856,0.267,0.77
-13.232,-15.244,26.098,-1.906,0.285,0.814
18.293,-8.902,35.732,-1.956,0.29,0.854
46.89,-2.805,47.012,-2.024,0.292,0.876
72.195,3.171,60.793,-2.106,0.303,0.858
92.195,8.72,76.402,-2.187,0.312,0.817
107.38,13.11,92.561,-2.244,0.339,0.772
119.21,15.488,109.15,-2.28,0.379,0.739
127.44,15.244,127.01,-2.275,0.411,0.694
133.66,12.683,146.34,-2.217,0.441,0.642
138.78,6.951,166.89,-2.08,0.484,0.601
143.29,-1.524,188.48,-1.916,0.514,0.544
147.74,-11.89,210.67,-1.742,0.537,0.491
152.44,-22.927,233.29,-1.552,0.553,0.446
158.96,-34.024,255.55,-1.369,0.549,0.386
168.17,-44.634,276.95,-1.157,0.545,0.344
180.49,-54.268,297.5,-0.944,0.54,0.226
196.52,-63.537,316.77,-0.755,0.507,0.097
216.4,-72.134,334.27,-0.578,0.522,0.002
240.79,-81.098,350,-0.371,0.486,-0.06
269.45,-90.732,364.02,-0.172,0.463,-0.131
302.19,-99.878,375.98,-0.017,0.461,-0.161
336.89,-107.44,386.58,0.154,0.453,-0.143
372.44,-113.96,395.98,0.342,0.387,-0.129
408.17,-119.63,404.57,0.528,0.28,-0.077
444.21,-123.84,412.07,0.705,0.147,-0.019
479.08,-126.28,419.51,0.883,0.019,-0.013
511.58,-127.19,426.1,1.069,-0.052,0.093
542.26,-127.38,432.19,1.182,-0.12,0.134
571.1,-128.23,438.11,1.288,-0.135,0.256
596.34,-123.11,442.5,1.396,-0.071,0.611
618.48,-120.85,446.71,1.568,-0.016,0.615
636.1,-120.55,450.43,1.909,-0.125,0.861
649.02,-122.07,452.26,2.193,-0.166,0.886
656.83,-123.66,452.56,2.161,-0.075,0.922
660.18,-125.98,450.98,2.183,-0.114,0.958
657.93,-129.88,445.98,2.209,-0.173,0.907
650.85,-133.48,436.77,2.318,-0.19,0.876
639.76,-137.56,425.24,2.409,-0.188,0.918
622.26,-142.56,412.93,2.442,-0.242,0.96
600.67,-145.37,399.51,2.434,-0.303,1.04
575.55,-148.54,384.82,2.427,-0.371,1.063
536.34,-151.83,371.46,2.396,-0.419,1.053
496.52,-153.6,349.94,2.379,-0.438,1.001
456.95,-157.56,327.74,2.247,-0.442,1.03
402.74,-168.96,307.99,2.2,-0.297,1.157
351.77,-160.49,279.45,2.156,-0.173,1.17
303.05,-141.34,259.15,2.046,-0.202,1.099
254.09,-127.38,250.49,2.007,-0.202,1.062
204.09,-118.6,232.93,1.957,-0.135,1.02
155.31,-121.4,216.52,1.874,-0.087,0.899
109.08,-128.17,202.56,1.771,-0.057,0.759
66.951,-133.05,191.22,1.666,-0.042,0.637
29.39,-134.39,179.82,1.577,-0.004,0.551
-3.78,-137.01,169.57,1.501,0.05,0.472
-30.488,-137.93,159.09,1.433,0.091,0.417
-53.354,-138.54,151.4,1.423,0.136,0.379
-72.744,-136.59,141.28,1.432,0.167,0.36
-91.463,-131.77,132.32,1.336,0.17,0.311
-109.15,-121.65,119.27,1.24,0.152,0.252
-119.21,-101.71,94.695,1.218,0.177,0.18
-127.44,-84.146,74.451,1.236,0.148,0.124
-130.24,-71.28,55.915,1.123,0.11,0.036
-129.45,-59.634,39.207,1.009,0.108,-0.025
-127.74,-48.72,23.78,1.021,0.106,-0.054
-123.78,-40.854,10.183,1.001,0.087,-0.096
-118.66,-37.012,-0.671,0.996,0.096,-0.12
-113.23,-36.098,-9.329,0.96,0.09,-0.122
-109.45,-35.793,-15.122,0.839,0.104,-0.13
-107.26,-35.244,-18.902,0.745,0.146,-0.146
-106.71,-33.171,-22.378,0.698,0.157,-0.16
-108.05,-26.585,-22.988,0.758,0.174,-0.117
-110.31,-18.476,-22.317,0.827,0.17,-0.079
-112.93,-14.451,-23.476,0.806,0.188,-0.057
-116.22,-13.11,-25.183,0.839,0.183,-0.022
-118.23,-9.207,-26.585,0.87,0.174,0
-119.27,-4.695,-25.305,0.876,0.17,0.017
-119.63,-7.561,-25.427,0.875,0.178,0.033
-119.08,-11.524,-28.72,0.871,0.166,0.047
-117.19,-11.22,-30.732,0.866,0.162,0.076
-113.11,-10.61,-30.671,0.862,0.164,0.097
-107.19,-6.585,-29.024,0.858,0.162,0.091
-99.695,-4.817,-24.146,0.851,0.161,0.09
-91.098,-5.854,-23.171,0.845,0.167,0.095
-81.768,-11.524,-24.024,0.84,0.188,0.106
-71.402,-18.78,-24.634,0.844,0.219,0.113
-60.427,-20.732,-23.598,0.854,0.238,0.123
-50,-21.829,-20.122,0.874,0.249,0.124
-39.39,-23.659,-17.5,0.882,0.263,0.122
-28.78,-24.146,-13.841,0.889,0.279,0.124
-19.085,-23.72,-9.207,0.897,0.289,0.126
-10.732,-23.476,-4.512,0.911,0.299,0.115
-3.293,-23.171,-0.427,0.922,0.304,0.101
2.866,-22.622,3.171,0.925,0.313,0.077
7.744,-22.256,6.341,0.922,0.333,0.05
11.524,-22.134,8.902,0.913,0.345,0.029
14.817,-22.988,10.976,0.901,0.358,0.025
17.378,-24.451,12.5,0.889,0.376,0.02
19.024,-25.732,13.415,0.88,0.387,0.009
19.695,-25.854,13.476,0.862,0.402,-0.008
19.817,-25.854,12.561,0.842,0.417,-0.016
19.878,-26.037,11.463,0.828,0.432,-0.003
19.817,-26.22,10.61,0.811,0.451,0.002
19.695,-25.976,10.122,0.787,0.468,-0.001
19.024,-25,10,0.794,0.482,-0.007
18.171,-23.415,10.122,0.792,0.492,0
17.073,-22.073,10.366,0.789,0.499,0.012
16.159,-20.854,10.854,0.8,0.495,0.017
14.939,-20.122,11.098,0.814,0.486,0.024
13.11,-19.329,11.28,0.824,0.47,0.027
10.732,-18.476,11.098,0.832,0.454,0.027
7.988,-16.585,10.61,0.835,0.436,0.031
4.268,-14.329,9.695,0.833,0.415,0.034
0.549,-12.805,8.293,0.833,0.395,0.031
-3.171,-11.707,6.707,0.833,0.385,0.035
-7.378,-10.061,5.305,0.834,0.372,0.043
-12.073,-7.561,4.146,0.836,0.36,0.042
-16.159,-5.305,2.439,0.84,0.354,0.026
-19.756,-4.024,0.061,0.841,0.346,0.022
-22.683,-2.805,-1.585,0.842,0.342,0.028
-25,-1.524,-2.866,0.849,0.336,0.021
-26.829,-0.305,-3.902,0.856,0.331,0.01
-27.805,0.976,-4.512,0.859,0.328,0.003
-27.744,2.012,-4.817,0.861,0.329,0.003
-27.134,2.622,-4.634,0.861,0.32,0.002
-25.915,2.988,-3.902,0.861,0.313,0.008
-24.146,2.927,-2.744,0.869,0.306,0.01
-22.439,2.622,-1.402,0.867,0.289,0.005
-20.732,2.195,-0.061,0.853,0.29,0.005
-18.598,1.463,1.159,0.835,0.285,0.004
-16.646,0.427,2.134,0.83,0.267,-0.003
-15.122,-1.159,2.805,0.828,0.249,-0.004
-13.598,-3.293,3.293,0.826,0.237,-0.009
-11.829,-5.488,3.537,0.831,0.219,-0.008
-10.244,-7.988,3.902,0.838,0.203,-0.001
-8.902,-10.366,4.512,0.841,0.187,0.004
-7.5,-12.744,5.305,0.836,0.17,0.016
-6.402,-14.878,6.098,0.838,0.149,0.028
-4.939,-16.159,7.012,0.844,0.136,0.041
-3.415,-16.707,8.11,0.849,0.117,0.042
-2.256,-16.951,9.329,0.854,0.092,0.051
-1.098,-16.098,10.976,0.851,0.074,0.063
-0.183,-15.244,12.744,0.848,0.06,0.078
0.305,-14.39,13.232,0.847,0.046,0.094
0.854,-13.232,12.988,0.845,0.024,0.12
1.22,-11.463,12.866,0.834,0.014,0.146
1.28,-9.573,12.744,0.836,0.017,0.163
1.159,-7.561,11.951,0.842,0.006,0.176
1.037,-5.671,10.61,0.86,-0.01,0.188
0.793,-3.963,9.329,0.886,-0.024,0.186
0.732,-1.707,8.11,0.916,-0.033,0.174
0.732,0.854,6.646,0.962,-0.056,0.172
0.915,3.415,5.488,1.014,-0.069,0.169
1.768,5.61,4.573,1.068,-0.081,0.153
3.415,7.134,3.902,1.107,-0.085,0.144
5.427,8.354,3.598,1.146,-0.096,0.142
7.988,9.634,3.659,1.196,-0.1,0.146
11.28,10.976,3.841,1.232,-0.098,0.155
14.817,12.561,3.963,1.275,-0.092,0.173
18.537,14.329,4.756,1.334,-0.107,0.187
22.378,16.829,5.671,1.385,-0.097,0.195
26.098,19.634,6.28,1.463,-0.113,0.229
29.634,22.622,6.89,1.553,-0.142,0.297
33.232,25.549,7.805,1.697,-0.168,0.381
36.768,28.415,8.598,1.78,-0.146,0.465
40,30.854,9.085,1.912,-0.206,0.569
42.866,32.561,9.573,2.142,-0.326,0.714
45.244,34.39,9.695,2.29,-0.388,0.824
46.89,36.341,9.695,2.474,-0.417,0.933
48.598,38.232,9.329,2.662,-0.499,1.061
49.451,40.549,8.537,3.007,-0.636,1.144
49.512,43.232,7.073,3.215,-0.751,1.219
48.232,46.341,4.756,3.515,-0.855,1.352
46.037,50.61,2.622,3.71,-1.001,1.398
42.805,55.366,1.22,3.878,-1.155,1.433
36.951,59.939,-3.354,3.917,-1.276,1.463
29.329,65.305,-7.744,3.917,-1.397,1.429
20.793,72.378,-11.098,3.925,-1.457,1.377
8.232,79.817,-15.061,3.918,-1.488,1.23
-5.793,87.012,-22.927,3.854,-1.493,1.058
-18.72,98.171,-26.829,3.767,-1.482,0.861
-32.927,111.95,-28.659,3.625,-1.477,0.645
-52.927,120,-36.524,3.465,-1.415,0.446
-75.061,124.39,-46.585,3.275,-1.31,0.266
-98.232,130.55,-56.098,3.066,-1.205,0.08
-122.74,130.67,-65.793,2.844,-1.104,-0.068
-143.05,137.68,-73.902,2.617,-0.989,-0.204
-174.69,146.28,-81.524,2.351,-0.883,-0.335
-207.01,157.38,-92.927,2.035,-0.774,-0.416
-225.06,170.24,-102.19,1.704,-0.687,-0.453
-249.45,176.77,-108.17,1.343,-0.611,-0.511
-276.77,179.82,-118.35,0.959,-0.556,-0.545
-304.39,184.63,-130.31,0.51,-0.531,-0.479
-330.43,185.98,-144.69,-0.01,-0.537,-0.488
-356.04,185.98,-161.16,-0.554,-0.612,-0.55
-381.89,184.39,-179.69,-1.141,-0.741,-0.462
-408.29,179.76,-202.01,-1.748,-0.982,-0.126
-433.48,173.29,-227.74,-1.885,-1.283,0.412
-457.5,166.52,-256.65,-1.943,-1.392,0.876
-480.31,160.73,-288.66,-4.042,-1.433,0.272
-502.68,155.91,-322.38,-6.932,-1.532,-0.141
-522.62,154.51,-357.19,-9.586,-0.2,-0.024
-538.72,156.28,-392.68,-10.659,1.474,0.226
-551.52,161.59,-426.89,-8.574,0.949,0.896
-561.65,171.4,-458.23,-8.237,1.341,1.57
-565.55,186.83,-486.71,-7.917,1.99,1.015
-566.59,204.02,-511.22,-6.091,0.43,-0.928
-562.56,220.24,-531.22,-5.608,0.148,-2.059
-548.48,233.9,-544.02,-4.456,-0.968,-1.995
-516.59,240.55,-545.43,-3.658,-0.38,-1.946
-477.13,242.32,-534.45,-1.892,0.234,-1.455
-439.63,262.93,-520,-0.659,0.967,-0.635
-400.43,378.35,-546.46,-0.062,1.243,0.255
-339.69,558.96,-646.28,0.284,1.21,1.386
-207.13,607.01,-707.01,0.289,1.198,2.156
-100.43,544.82,-745,0.106,1.121,1.885
-85.732,405.92,-769.51,0.161,0.663,1.143
-101.4,286.77,-737.87,-0.178,-0.049,0.463
-97.561,204.15,-700.06,-0.569,-0.539,0.195
-61.098,129.51,-587.56,-0.674,-1.034,0.248
17.378,69.817,-466.22,-0.738,-1.419,0.322
64.878,-17.134,-332.87,-0.818,-1.507,0.417
82.073,-114.76,-188.35,-0.836,-1.234,0.636
67.073,-163.41,-33.78,-0.897,-1.042,0.974
2.256,-171.95,84.756,-0.941,-1.023,1.103
-65.671,-178.72,167.93,-1.006,-0.864,1.143
-117.5,-198.29,224.69,-1.067,-0.702,1.134
-141.46,-197.44,231.4,-1.171,-0.557,1.132
-157.99,-153.11,213.17,-1.195,-0.408,1.119
-160.55,-77.439,166.65,-1.236,-0.236,1.177
-174.88,-14.329,124.15,-1.236,-0.097,1.142
-216.28,33.963,91.037,-1.308,0.056,1.128
-227.07,54.024,50.427,-1.396,0.221,1.031
-212.62,57.744,19.207,-1.528,0.347,0.905
-199.09,57.439,7.378,-1.668,0.425,0.77
-163.17,58.841,-3.537,-1.789,0.476,0.7
-125.73,52.561,-5.915,-1.898,0.541,0.686
-89.939,40.549,1.89,-1.998,0.586,0.681
-49.085,29.39,12.378,-2.095,0.627,0.657
-4.512,20,23.171,-2.204,0.667,0.625
39.207,15.061,35.244,-2.322,0.688,0.619
81.037,10.122,49.268,-2.411,0.699,0.599
120.61,5.732,66.89,-2.474,0.71,0.571
153.66,5.061,84.451,-2.492,0.735,0.523
177.87,13.902,101.22,-2.494,0.756,0.477
198.23,17.195,125.67,-2.472,0.788,0.431
211.59,20.976,151.22,-2.413,0.826,0.375
219.27,23.11,178.05,-2.311,0.878,0.313
222.56,24.39,204.09,-2.158,0.907,0.222
224.02,22.073,232.32,-2.015,0.925,0.16
224.63,18.902,259.94,-1.845,0.95,0.081
225.06,16.28,286.52,-1.671,0.932,-0.009
227.68,13.476,311.95,-1.462,0.89,-0.086
233.29,10.183,335.61,-1.25,0.862,-0.177
241.77,6.585,356.77,-1.031,0.809,-0.245
253.48,2.866,375.55,-0.817,0.743,-0.287
269.02,-1.341,392.62,-0.608,0.667,-0.345
288.29,-6.585,408.11,-0.411,0.629,-0.359
310.24,-12.561,422.32,-0.219,0.563,-0.338
333.78,-18.415,435,-0.041,0.521,-0.277
358.6,-23.354,445.98,0.141,0.5,-0.195
386.52,-27.439,454.57,0.348,0.416,-0.078
415.12,-30.183,461.71,0.429,0.344,0.097
444.88,-32.256,468.11,0.377,0.262,0.203
471.58,-31.463,472.01,0.475,0.217,0.313
497.74,-29.268,476.16,0.863,0.038,0.385
521.1,-26.463,478.29,1.312,-0.043,0.45
542.32,-21.768,479.94,1.629,0.045,0.618
560.67,-18.049,482.38,1.688,0.073,0.694
575.24,-15.732,484.57,1.751,0.041,0.765
586.71,-14.451,487.26,1.855,0.02,1.053
591.4,-15.061,488.9,1.968,-0.111,1.193
591.16,-16.585,486.1,2.159,-0.25,1.166
587.07,-20.122,477.74,2.482,-0.455,1.155
574.39,-27.805,464.45,2.725,-0.51,1.143
554.7,-36.341,447.01,2.862,-0.587,1.151
529.88,-49.817,427.26,2.949,-0.665,1.208
500.92,-69.695,399.39,3.095,-0.693,1.307
466.95,-106.22,372.87,2.953,-0.533,1.439
447.07,-135,341.52,2.776,-0.547,1.575
429.69,-151.1,319.94,2.761,-0.55,1.638
398.48,-155.67,314.08,2.677,-0.564,1.603
353.05,-156.71,311.71,2.503,-0.531,1.521
313.72,-154.69,299.51,2.326,-0.486,1.378
268.29,-155.31,284.82,2.184,-0.425,1.244
209.33,-164.63,269.27,2.071,-0.345,1.152
146.04,-176.16,252.5,1.958,-0.243,1.01
89.756,-183.72,235.31,1.833,-0.16,0.785
33.963,-182.81,225.12,1.697,-0.089,0.548
-8.293,-174.57,207.13,1.579,-0.016,0.412
-42.439,-167.32,192.13,1.449,0.07,0.32
-75.976,-156.46,158.48,1.363,0.104,0.238
-120,-133.29,138.17,1.373,0.19,0.159
-149.27,-124.94,112.38,1.216,0.231,0.076
-169.51,-122.13,86.829,1.051,0.219,-0.024
-188.96,-115.67,64.573,1,0.259,-0.094
-207.87,-108.9,44.634,1.108,0.273,-0.14
-224.21,-103.66,27.195,1.146,0.261,-0.184
-235.06,-98.11,10.183,1.139,0.237,-0.214
-241.71,-94.207,-6.098,1.136,0.214,-0.229
-245.61,-91.22,-20.488,1.158,0.153,-0.229
-247.13,-90.122,-32.195,1.14,0.1,-0.202
-247.07,-91.098,-40.122,1.116,0.053,-0.175
-247.01,-92.805,-43.049,1.086,0.003,-0.168
-245.73,-88.598,-41.89,1.069,-0.035,-0.133
-241.71,-80.793,-39.024,1.054,-0.052,-0.09
-238.48,-67.866,-33.232,1.033,-0.054,-0.047
-234.33,-53.415,-28.72,1.016,-0.054,-0.006
-226.65,-48.476,-28.72,1.005,-0.038,0.046
-219.15,-52.622,-29.207,0.994,-0.019,0.101
-209.76,-54.39,-30.732,0.983,-0.001,0.137
-199.09,-52.256,-28.232,0.971,0.022,0.156
-188.11,-47.927,-26.28,0.955,0.05,0.151
-176.59,-44.695,-26.037,0.944,0.073,0.159
-163.23,-41.524,-25.305,0.958,0.093,0.184
-148.48,-37.561,-22.988,0.948,0.109,0.18
-132.44,-33.72,-20.244,0.957,0.138,0.161
-115.98,-30.549,-17.317,0.926,0.148,0.143
-98.476,-28.659,-14.085,0.912,0.161,0.127
-80.793,-27.744,-10.488,0.934,0.208,0.117
-63.354,-26.707,-6.829,0.905,0.225,0.088
-46.22,-26.463,-3.537,0.881,0.23,0.071
-29.39,-27.134,-0.61,0.904,0.274,0.068
-13.78,-27.744,1.951,0.904,0.271,0.041
0.183,-28.171,3.963,0.901,0.271,0.009
12.5,-29.329,5.183,0.905,0.299,0.006
23.415,-31.098,5.732,0.907,0.317,0.003
32.988,-32.988,6.037,0.908,0.323,0.012
41.037,-33.72,6.768,0.907,0.335,0.038
47.073,-33.11,8.841,0.911,0.345,0.062
50.793,-32.073,10,0.917,0.348,0.062
53.537,-31.037,12.256,0.912,0.348,0.05
55,-30.61,13.598,0.896,0.35,0.035
53.415,-29.39,14.39,0.882,0.357,0.026
50.244,-26.159,15.732,0.873,0.359,0.023
47.317,-24.39,16.463,0.875,0.359,0.026
43.11,-21.585,16.28,0.867,0.375,0.02
38.537,-18.415,16.768,0.87,0.38,0.016
34.024,-16.159,16.89,0.851,0.384,0.024
29.573,-14.939,16.951,0.752,0.37,-0.001
24.634,-13.659,17.073,0.731,0.365,-0.021
19.512,-12.317,16.646,0.772,0.37,-0.017
14.634,-11.098,15.732,0.787,0.365,-0.019
10.244,-9.634,14.695,0.795,0.351,-0.022
5.854,-7.927,13.659,0.806,0.339,-0.027
1.585,-6.524,12.378,0.81,0.334,-0.025
-2.073,-5.61,10.976,0.81,0.322,-0.033
-5.366,-5.122,9.512,0.812,0.309,-0.032
-8.293,-4.39,8.049,0.824,0.302,-0.024
-10.671,-2.927,7.073,0.833,0.298,-0.012
-13.232,-1.22,6.524,0.836,0.299,-0.01
-15.793,2.195,5.305,0.832,0.299,-0.009
-17.561,7.073,5.854,0.83,0.298,-0.008
-18.476,10.122,5.488,0.828,0.296,-0.005
-18.598,8.659,2.256,0.831,0.289,-0.01
-18.171,7.622,-0.183,0.833,0.285,-0.015
-17.134,9.573,-1.341,0.829,0.281,-0.019
-15.732,11.524,-2.134,0.83,0.283,-0.028
-13.659,12.317,-2.683,0.83,0.279,-0.031
-10.854,12.561,-2.744,0.83,0.273,-0.028
-7.927,12.439,-2.256,0.838,0.264,-0.03
-4.573,11.768,-1.524,0.846,0.258,-0.04
-1.22,10.427,-0.61,0.85,0.248,-0.036
2.256,9.024,0.488,0.852,0.232,-0.037
5.183,8.049,1.524,0.864,0.222,-0.032
7.805,6.89,2.439,0.876,0.211,-0.024
10.366,5.793,3.049,0.89,0.193,-0.022
12.439,5.366,3.902,0.896,0.18,-0.016
14.207,5.366,4.756,0.903,0.176,-0.003
15.854,5.427,5.427,0.904,0.173,0.009
17.012,5.244,5.915,0.911,0.166,0.017
17.866,5,5.793,0.919,0.153,0.03
18.537,4.695,5.671,0.926,0.143,0.042
19.207,4.573,5.549,0.932,0.132,0.047
19.939,4.451,5.488,0.929,0.118,0.066
20.732,4.268,5.732,0.931,0.112,0.083
21.524,3.659,5.854,0.939,0.104,0.097
22.561,3.11,6.037,0.952,0.091,0.095
23.476,2.439,6.341,0.974,0.081,0.093
24.695,2.317,6.829,1,0.076,0.094
25.976,2.622,7.561,1.033,0.071,0.088
27.805,2.744,8.171,1.066,0.074,0.087
29.451,3.232,8.537,1.109,0.073,0.077
30.793,4.268,8.72,1.162,0.067,0.079
32.195,5.732,8.659,1.218,0.071,0.078
33.354,7.317,8.476,1.288,0.076,0.107
34.329,9.085,8.293,1.354,0.091,0.152
34.817,11.098,8.11,1.391,0.122,0.18
34.878,13.72,8.11,1.442,0.103,0.213
34.512,17.073,8.11,1.493,0.096,0.241
33.415,20.854,8.232,1.554,0.083,0.268
32.195,24.756,8.537,1.64,0.024,0.293
30.061,28.78,8.78,1.731,0.009,0.352
27.5,32.439,9.024,1.87,-0.125,0.445
24.573,36.037,9.39,1.982,-0.126,0.516
20.732,39.329,9.39,2.111,-0.164,0.627
17.134,42.073,8.841,2.288,-0.269,0.762
12.256,44.024,7.988,2.535,-0.389,0.843
6.707,46.037,7.012,2.796,-0.508,0.979
0.854,48.963,4.878,2.973,-0.669,1.08
-5.061,53.049,2.927,3.22,-0.8,1.178
-12.866,56.585,-0.122,3.435,-0.992,1.31
-20.915,60.671,-4.695,3.531,-1.123,1.321
-28.902,66.89,-7.988,3.561,-1.287,1.428
-37.439,73.354,-10.915,3.667,-1.402,1.451
-45.305,80.061,-14.024,3.766,-1.466,1.356
-53.049,86.28,-14.512,3.806,-1.534,1.243
-60.854,95.061,-18.354,3.773,-1.566,1.099
-70.183,107.01,-20.976,3.758,-1.587,0.904
-90.244,116.83,-27.256,3.669,-1.593,0.691
-104.33,128.66,-30.793,3.523,-1.587,0.475
-115.73,139.51,-32.561,3.395,-1.565,0.264
-137.32,148.54,-39.512,3.276,-1.543,0.064
-158.05,158.05,-41.463,3.113,-1.501,-0.13
-178.48,164.33,-45.854,2.912,-1.462,-0.318
-204.88,169.57,-49.451,2.657,-1.42,-0.433
-228.29,180.18,-49.878,2.369,-1.375,-0.479
-246.52,192.38,-55.366,2.057,-1.297,-0.5
-279.88,200.85,-60.244,1.724,-1.203,-0.502
-315.85,207.99,-66.098,1.369,-1.112,-0.514
-342.99,215.67,-76.037,0.975,-1.063,-0.488
-366.16,217.87,-87.622,0.499,-1.033,-0.43
-396.58,216.65,-100.61,-0.043,-1.003,-0.422
-429.15,215.06,-116.22,-0.614,-1.048,-0.402
-458.6,210.43,-136.77,-1.421,-1.107,-0.224
-486.4,201.52,-160.67,-2.039,-1.351,0.087
-511.34,192.19,-187.81,-2.258,-1.532,0.438
-531.46,183.72,-219.39,-3.184,-1.78,0.227
-544.51,177.81,-256.22,-6.305,-2.076,-0.733
-551.95,175.24,-296.4,-10.604,-1.234,-0.997
-554.02,176.22,-337.07,-13.252,0.764,-0.545
-551.77,181.65,-376.77,-10.793,1.217,0.325
-545.73,191.65,-414.02,-8.771,1.396,1.798
-534.94,207.99,-448.42,-8.676,2.359,1.804
-518.9,230,-479.27,-6.695,0.039,-0.64
-499.88,252.56,-505.49,-5.516,-0.893,-2.234
-476.71,272.26,-526.22,-5.547,0.115,-2.491
-444.51,286.34,-540.43,-3.803,-0.167,-2.41
-407.93,297.5,-545.12,-1.854,0.047,-1.758
-370.49,313.78,-546.4,-0.474,1.094,-0.727
-337.13,370.67,-561.89,-0.073,1.582,0.422
-261.71,545.55,-670.3,0.095,1.466,1.923
-138.96,708.41,-751.22,-0.123,1.721,2.812
-19.939,689.27,-816.65,-0.194,1.632,2.574
-0.732,509.94,-887.26,-0.517,0.973,1.501
-40.915,329.69,-841.22,-0.886,0.132,0.503
-75.976,220.79,-767.5,-1.128,-0.384,0.253
-96.951,157.07,-645,-1.102,-0.713,0.312
-3.963,104.82,-496.46,-1.094,-1.503,0.295
113.23,16.646,-365.31,-1.107,-1.655,0.428
155.85,-89.573,-204.69,-1.049,-1.148,0.764
80.854,-178.78,-51.402,-1.052,-0.946,1.147
22.256,-186.46,91.829,-1.1,-0.879,1.371
-62.927,-176.71,199.33,-1.182,-0.686,1.411
-124.33,-199.45,255.24,-1.316,-0.515,1.328
-144.51,-205.49,265.06,-1.46,-0.396,1.21
-142.62,-153.29,254.33,-1.575,-0.284,1.111
-127.38,-69.817,227.56,-1.679,-0.18,1.026
-141.16,2.073,202.56,-1.79,-0.053,0.94
-165.67,48.841,167.32,-1.903,0.095,0.845
-158.9,62.439,134.33,-2.013,0.238,0.757
-152.19,65.793,112.81,-2.114,0.326,0.701
-150.12,70.427,110.12,-2.187,0.4,0.66
-120.37,64.024,108.29,-2.235,0.476,0.627
-81.829,47.317,110.37,-2.261,0.531,0.589
-49.085,32.439,116.65,-2.27,0.563,0.526
-10.488,24.146,120.37,-2.281,0.587,0.434
31.829,20.854,122.87,-2.295,0.612,0.341
71.098,19.268,125.61,-2.296,0.646,0.248
106.77,17.378,130.91,-2.259,0.688,0.16
138.17,13.963,141.65,-2.167,0.749,0.094
165.85,9.756,158.29,-2.044,0.811,0.025
191.16,5.244,179.02,-1.887,0.868,-0.046
214.88,1.037,201.83,-1.712,0.915,-0.116
237.56,-3.11,225.73,-1.527,0.953,-0.202
258.66,-6.098,249.69,-1.372,1.006,-0.243
279.94,-7.866,272.99,-1.183,1.041,-0.342
302.5,-9.024,294.88,-0.972,0.988,-0.431
327.44,-10.488,315.12,-0.782,1.057,-0.408
355.61,-12.805,334.51,-0.59,0.999,-0.432
385.67,-15.732,353.9,-0.407,0.931,-0.437
417.74,-19.573,373.48,-0.252,0.838,-0.453
450.73,-23.598,392.81,-0.001,0.762,-0.504
484.51,-26.768,411.22,0.172,0.697,-0.468
519.33,-29.146,428.6,0.365,0.568,-0.351
552.2,-30,444.15,0.589,0.421,-0.303
583.11,-28.841,457.38,0.592,0.257,-0.216
612.38,-26.768,467.99,0.876,0.198,0.032
636.83,-23.902,476.58,1.4,0.037,0.27
659.63,-20.61,483.78,1.661,-0.043,0.527
677.93,-14.39,490.43,2.088,0.05,0.874
685.85,-11.707,492.56,2.495,0.087,1.003
687.38,-11.768,492.56,2.666,0.151,1.153
687.62,-10.488,491.16,2.453,0.109,1.218
681.71,-10.793,488.05,2.442,0.04,1.139
669.33,-12.5,484.69,2.493,-0.135,1.075
648.41,-15.854,472.62,2.533,-0.218,0.978
626.34,-23.78,461.16,2.667,-0.301,0.938
603.6,-32.012,446.58,2.708,-0.4,0.93
566.52,-40.732,428.84,2.607,-0.525,1.015
526.4,-61.463,413.9,2.458,-0.591,1.116
490.98,-89.085,395.79,2.473,-0.51,1.281
439.08,-103.23,372.5,2.419,-0.43,1.451
406.46,-113.29,360.43,2.283,-0.381,1.465
366.1,-116.89,338.96,2.178,-0.331,1.462
293.84,-100.06,317.99,2.084,-0.347,1.401
233.9,-90.488,308.29,1.959,-0.323,1.31
181.46,-74.878,288.23,1.836,-0.289,1.228
126.83,-78.72,268.6,1.722,-0.267,1.133
81.89,-89.756,247.44,1.628,-0.214,1.008
32.439,-98.537,228.66,1.564,-0.21,0.874
-11.28,-107.74,213.6,1.508,-0.181,0.692
-53.537,-110.85,201.16,1.438,-0.149,0.505
-96.341,-113.78,190.73,1.394,-0.106,0.345
-139.57,-116.95,181.89,1.342,0.014,0.208
-168.9,-120.85,165.91,1.319,0.062,0.043
-187.38,-113.84,140.61,1.281,0.096,-0.099
-212.62,-102.87,118.48,1.26,0.149,-0.156
-230.85,-91.829,96.585,1.25,0.184,-0.174
-240.73,-82.622,74.451,1.198,0.243,-0.265
-246.59,-78.354,53.354,1.177,0.226,-0.311
-249.02,-76.159,34.329,1.16,0.146,-0.354
-249.45,-74.268,17.744,1.14,0.087,-0.378
-247.93,-73.232,3.232,1.105,0.072,-0.373
-244.27,-73.293,-9.207,1.075,0.055,-0.343
-238.66,-73.963,-17.622,1.051,0.05,-0.31
-232.62,-73.841,-24.512,1.04,0.04,-0.27
-227.5,-74.512,-29.085,1.037,0.026,-0.21
-223.17,-74.39,-32.439,1.031,0.014,-0.161
-217.62,-71.89,-36.28,1.033,-0.002,-0.125
-210.91,-69.329,-40.061,1.028,-0.017,-0.099
-205,-65.915,-41.89,1.022,-0.032,-0.077
-200.06,-62.317,-43.537,1.012,-0.037,-0.047
-195.79,-56.402,-47.012,0.989,-0.041,-0.006
-189.94,-50.427,-50,0.969,-0.041,0.033
-182.26,-45.366,-50.61,0.958,-0.033,0.063
-173.41,-41.098,-47.866,0.946,-0.024,0.098
-164.27,-37.439,-42.683,0.942,-0.013,0.13
-154.09,-34.207,-37.073,0.954,0.005,0.145
-142.99,-32.012,-30.915,0.962,0.033,0.134
-131.04,-30.61,-25.732,0.959,0.065,0.126
-118.6,-28.598,-20.305,0.962,0.097,0.145
-105.24,-26.951,-14.756,0.961,0.147,0.149
-90.854,-25.915,-9.878,0.963,0.165,0.138
-76.707,-25.61,-5.183,0.978,0.177,0.13
-62.5,-26.159,-1.037,0.988,0.228,0.125
-48.598,-27.256,2.866,0.99,0.255,0.109
-35.305,-28.171,6.402,0.982,0.276,0.096
-22.5,-28.78,9.634,0.968,0.306,0.074
-10.305,-29.085,11.951,0.954,0.311,0.044
0.976,-29.207,13.598,0.942,0.304,0.031
11.098,-28.841,15,0.928,0.305,0.037
20.061,-27.988,15.976,0.914,0.297,0.036
28.11,-27.317,16.463,0.903,0.294,0.039
34.634,-27.012,16.707,0.896,0.301,0.044
39.085,-26.28,17.317,0.894,0.302,0.054
40.976,-24.573,19.146,0.899,0.304,0.064
40.976,-22.195,20.976,0.9,0.304,0.069
39.512,-19.085,22.5,0.908,0.305,0.056
36.098,-16.037,24.634,0.91,0.303,0.049
30.854,-12.927,26.402,0.909,0.296,0.051
24.756,-9.695,27.622,0.903,0.292,0.055
17.866,-6.646,28.232,0.899,0.282,0.045
11.28,-3.902,27.988,0.902,0.274,0.042
5.61,-2.317,27.378,0.897,0.262,0.039
-0.061,-1.768,26.22,0.88,0.256,0.035
-6.524,-1.524,24.512,0.873,0.248,0.029
-12.5,-1.463,22.5,0.875,0.242,0.028
-17.195,-1.646,20.061,0.873,0.232,0.018
-21.037,-1.951,17.378,0.877,0.218,0.012
-24.451,-1.768,14.329,0.872,0.198,0.009
-26.951,-1.098,11.22,0.869,0.178,0.006
-28.171,-0.427,8.354,0.866,0.163,0.001
-28.293,-0.061,5.671,0.867,0.164,0.001
-27.622,0.976,3.598,0.876,0.164,0.005
-26.402,2.256,2.378,0.886,0.165,0.007
-24.512,3.354,1.585,0.896,0.163,0.007
-21.829,4.329,1.098,0.883,0.167,0.018
-18.659,5.183,0.976,0.886,0.163,0.026
-14.878,5.976,1.28,0.895,0.15,0.027
-10.671,6.768,1.646,0.897,0.145,0.033
-6.768,7.5,1.768,0.893,0.128,0.038
-2.866,7.866,1.585,0.889,0.125,0.043
1.037,7.683,1.159,0.896,0.11,0.041
4.878,6.524,0.671,0.91,0.093,0.044
8.598,5.061,0.732,0.925,0.081,0.055
11.829,3.476,0.61,0.94,0.071,0.064
14.634,1.646,0.549,0.953,0.059,0.073
17.683,0.244,0.427,0.958,0.046,0.08
20.915,-0.854,0.061,0.967,0.032,0.085
24.024,-1.463,-0.305,0.982,0.012,0.092
27.439,-1.646,-0.305,0.991,0.005,0.111
30.183,-1.402,-1.585,1.004,-0.003,0.122
32.256,-0.427,-2.622,1.026,-0.016,0.122
34.451,0.854,-3.11,1.038,-0.016,0.135
36.768,2.317,-3.476,1.06,-0.018,0.146
38.537,4.146,-3.78,1.086,-0.023,0.15
39.939,6.646,-4.085,1.103,-0.031,0.152
41.402,9.268,-4.085,1.122,-0.032,0.148
42.561,11.89,-4.024,1.142,-0.027,0.147
43.78,15,-3.841,1.171,-0.02,0.142
45.183,18.11,-3.476,1.202,-0.016,0.131
46.585,20.854,-3.11,1.222,0.002,0.121
47.927,23.78,-2.439,1.251,0.016,0.114
49.573,26.707,-1.341,1.29,0.024,0.133
50.976,28.841,-0.305,1.337,0.054,0.156
52.439,31.22,0.976,1.363,0.06,0.185
54.268,34.085,2.622,1.403,0.057,0.205
55.915,36.646,4.329,1.442,0.075,0.224
57.439,38.963,5.732,1.495,0.021,0.242
59.268,41.28,6.707,1.542,0.023,0.295
60.854,43.293,7.988,1.63,0.048,0.367
62.561,45.305,8.963,1.757,-0.106,0.449
64.451,47.256,9.512,1.895,-0.075,0.595
65.793,49.512,9.207,2.132,-0.181,0.769
67.073,51.951,8.049,2.344,-0.246,0.967
67.317,54.207,6.463,2.696,-0.316,1.149
66.524,56.585,4.024,2.985,-0.429,1.396
64.146,59.878,0.915,3.292,-0.578,1.517
59.634,64.573,-1.037,3.487,-0.739,1.602
52.256,69.573,-2.805,3.424,-0.867,1.612
43.476,75,-6.768,3.532,-1.017,1.788
33.902,81.341,-10.671,3.574,-1.1,1.841
23.78,88.659,-13.415,3.651,-1.218,1.812
13.598,95.671,-17.195,3.667,-1.269,1.719
1.524,103.66,-21.098,3.694,-1.298,1.566
-9.939,112.44,-30.915,3.74,-1.322,1.39
-22.012,121.58,-39.451,3.683,-1.345,1.192
-32.073,133.05,-49.634,3.543,-1.376,0.953
-43.476,142.81,-60.976,3.412,-1.416,0.69
-54.756,149.76,-68.78,3.195,-1.445,0.457
-84.817,157.26,-81.098,2.972,-1.45,0.261
-110.79,165.37,-93.293,2.755,-1.423,0.114
-144.82,180.55,-99.817,2.55,-1.4,0.006
-176.83,189.82,-103.96,2.318,-1.334,-0.069
-200.37,202.62,-113.35,2.074,-1.239,-0.146
-227.13,211.71,-121.95,1.799,-1.144,-0.188
-265.06,216.95,-130.43,1.483,-1.033,-0.24
-300.06,222.5,-140.55,1.118,-0.955,-0.35
-337.01,222.87,-153.84,0.674,-0.947,-0.367
-373.29,220.06,-166.77,0.122,-0.945,-0.351
-411.28,214.15,-181.95,-0.522,-0.945,-0.424
-448.23,203.72,-201.34,-1.243,-1.031,-0.421
-482.62,191.4,-224.27,-2.152,-1.269,-0.263
-513.78,177.19,-250.61,-3.083,-1.664,-0.138
-542.44,162.19,-281.46,-3.514,-2.361,0.388
-567.2,149.33,-315.55,-5.183,-3.125,0.282
-589.39,140.24,-351.58,-11.171,-1.694,-0.963
-608.29,136.04,-389.08,-15.331,1.361,-0.706
-623.29,136.89,-427.56,-11.868,1.696,0.313
-633.9,142.81,-465.43,-7.986,0.981,2.146
-638.29,155.06,-502.07,-7.352,1.564,0.879
-636.22,174.09,-537.93,-7.303,2.487,-1.977
-627.68,197.26,-571.83,-5.661,-0.496,-2.508
-615.91,220.37,-602.38,-4.348,-1.759,-2.571
-598.17,242.01,-630.06,-4.067,-0.057,-2.478
-567.62,262.19,-650.61,-2.193,0.87,-1.447
-530.49,275.61,-665.55,-0.943,1.615,-0.399
-485.85,275.85,-668.29,-0.661,1.883,0.626
-411.4,339.76,-671.65,-0.47,1.755,1.841
-261.77,598.48,-821.22,-0.395,1.78,2.529
-112.01,764.76,-944.09,-0.277,1.531,2.063
-78.598,541.89,-909.82,-0.392,0.918,1.074
-93.659,275.43,-814.63,-0.686,0.128,0.474
-102.38,160,-722.13,-0.949,-0.68,0.362
-14.024,166.52,-594.57,-1.156,-1.53,0.266
58.415,99.146,-468.96,-1.279,-1.841,0.117
50.671,-46.829,-363.6,-1.246,-1.398,0.183
93.659,-134.51,-212.87,-1.209,-1.186,0.499
77.073,-180.91,-15.244,-1.2,-1.229,0.96
-22.439,-189.82,124.69,-1.209,-1.081,1.277
-110.06,-175.06,218.05,-1.304,-0.895,1.367
-152.99,-198.23,264.33,-1.471,-0.756,1.302
-167.13,-199.27,272.44,-1.674,-0.616,1.143
-162.56,-141.71,252.56,-1.856,-0.458,0.975
-154.33,-61.829,214.88,-2.032,-0.335,0.855
-159.33,-1.341,175.67,-2.178,-0.23,0.79
-177.68,34.939,140.24,-2.295,-0.099,0.746
-188.11,47.927,121.04,-2.395,0.035,0.722
-179.09,50.61,122.07,-2.47,0.147,0.685
-152.5,45.122,132.13,-2.545,0.241,0.653
-118.17,32.622,144.02,-2.567,0.301,0.62
-87.866,15.732,150,-2.591,0.356,0.571
-51.402,2.744,152.87,-2.601,0.402,0.515
-9.756,-2.561,158.11,-2.594,0.412,0.444
31.585,-2.378,165.31,-2.566,0.44,0.372
69.268,0.732,174.15,-2.508,0.494,0.312
103.05,4.329,185.55,-2.414,0.551,0.26
134.09,5.244,199.82,-2.26,0.633,0.211
163.05,4.39,218.54,-2.068,0.709,0.144
190.24,2.317,240.91,-1.87,0.797,0.058
215.12,-0.488,264.63,-1.651,0.889,-0.022
240.12,-3.354,287.81,-1.438,0.961,-0.124
265.92,-6.159,309.63,-1.226,0.991,-0.187
292.87,-9.573,329.69,-1.063,1.017,-0.215
321.52,-12.744,347.01,-0.786,0.946,-0.375
352.38,-16.768,364.57,-0.533,0.85,-0.416
384.76,-21.098,382.19,-0.277,0.836,-0.451
417.56,-25,399.76,-0.083,0.734,-0.513
450.24,-28.841,417.19,0.066,0.675,-0.535
482.62,-32.439,434.39,0.257,0.626,-0.516
514.02,-35.488,451.16,0.421,0.576,-0.483
544.09,-37.378,464.63,0.528,0.453,-0.443
571.22,-37.073,475.31,0.715,0.367,-0.272
595.73,-35.793,483.29,0.918,0.262,-0.149
617.93,-34.878,488.72,1.281,0.124,0.009
636.52,-33.72,491.65,1.764,0.018,0.169
651.16,-32.866,491.65,1.952,0.021,0.457
660.55,-29.756,491.58,2.192,-0.038,0.64
663.72,-26.524,489.82,2.284,-0.029,0.775
659.88,-29.268,482.44,2.345,-0.113,0.863
650.3,-31.951,473.96,2.659,-0.313,0.796
641.71,-35.793,465,2.973,-0.474,1.008
629.57,-43.902,453.96,2.943,-0.636,1.066
605,-58.11,438.17,3.009,-0.658,0.995
568.23,-79.512,420.43,3.134,-0.835,0.841
528.54,-102.74,405.24,3.032,-0.919,0.829
505.49,-130,390.12,3.203,-0.803,0.98
469.63,-163.66,377.19,3.35,-0.825,1.128
422.56,-193.23,357.07,3.111,-0.752,1.279
384.76,-201.95,337.19,2.972,-0.636,1.394
342.5,-194.51,318.9,2.786,-0.596,1.387
303.72,-191.83,300.55,2.567,-0.526,1.389
258.6,-193.23,287.19,2.326,-0.506,1.36
201.28,-206.65,266.34,2.14,-0.384,1.371
146.28,-220.24,246.77,2.04,-0.286,1.203
96.585,-221.59,230.43,2.087,-0.382,0.875
36.22,-212.38,218.41,2.021,-0.431,0.619
-34.085,-207.87,217.74,1.813,-0.397,0.421
-79.39,-206.83,199.63,1.685,-0.284,0.281
-110.49,-223.72,183.78,1.7,-0.193,0.232
-135.73,-235.55,160.61,1.648,-0.129,0.238
-160.06,-226.04,131.89,1.477,-0.012,0.234
-187.19,-212.99,119.57,1.337,0.092,0.189
-214.21,-199.09,98.841,1.222,0.167,0.131
-236.83,-181.46,80.427,1.187,0.185,0.064
-253.84,-158.54,61.89,1.226,0.232,-0.018
-265.31,-139.09,37.5,1.238,0.321,-0.07
-272.01,-123.48,13.11,1.228,0.391,-0.107
-280.79,-111.58,-9.939,1.205,0.375,-0.13
-283.96,-101.4,-30.305,1.153,0.303,-0.152
-277.01,-85.488,-43.841,1.085,0.239,-0.167
-262.74,-76.829,-49.329,1.034,0.216,-0.152
-243.48,-74.695,-53.293,1.019,0.232,-0.137
-224.02,-70.549,-52.622,1.03,0.232,-0.135
-207.5,-60.549,-43.171,1.052,0.226,-0.15
-190.37,-48.963,-33.659,1.034,0.211,-0.156
-169.76,-41.159,-29.695,1,0.183,-0.2
-149.82,-39.268,-28.232,0.985,0.177,-0.223
-129.21,-41.28,-25.854,0.97,0.16,-0.193
-110.43,-42.744,-22.256,0.945,0.231,-0.14
-94.573,-41.22,-18.963,0.956,0.256,-0.095
-80.732,-37.622,-15.488,0.96,0.228,-0.068
-69.695,-32.866,-13.537,0.965,0.219,-0.049
-60.427,-27.134,-10.671,0.973,0.212,-0.042
-53.354,-23.049,-7.927,0.959,0.205,-0.036
-48.171,-21.524,-5.366,0.943,0.188,-0.026
-45.122,-20.854,-3.11,0.909,0.158,-0.027
-43.354,-19.146,-1.037,0.878,0.138,-0.022
-42.622,-15.549,1.524,0.876,0.134,-0.009
-42.195,-11.89,5.244,0.88,0.144,0.001
-40.854,-9.756,8.293,0.873,0.153,0.019
-37.622,-10.122,11.524,0.859,0.175,0.028
-32.439,-12.744,14.695,0.839,0.182,0.019
-28.78,-15.488,17.927,0.829,0.188,-0.001
-26.707,-16.768,20.549,0.839,0.224,-0.008
-24.756,-17.683,23.293,0.825,0.203,-0.016
-22.378,-18.537,25.915,0.831,0.187,-0.026
-19.695,-18.598,28.415,0.861,0.286,-0.018
-16.768,-17.683,31.037,0.873,0.312,-0.009
-13.537,-16.829,33.171,0.879,0.312,-0.006
-9.512,-15.976,35,0.886,0.327,-0.01
-5.305,-16.341,35.366,0.892,0.35,-0.022
-1.402,-16.524,34.695,0.861,0.332,-0.036
2.195,-15.244,34.329,0.854,0.344,-0.043
5.488,-12.378,33.659,0.864,0.382,-0.031
7.805,-8.293,32.317,0.837,0.364,-0.023
9.207,-4.207,30.427,0.828,0.345,-0.021
11.037,-1.585,27.683,0.83,0.365,-0.007
13.171,1.585,25.061,0.811,0.364,0.003
16.463,4.573,22.866,0.796,0.346,0
19.939,6.28,20,0.787,0.358,0
21.28,7.683,17.866,0.774,0.352,-0.006
21.768,9.695,16.28,0.761,0.347,-0.006
22.317,11.951,14.573,0.752,0.342,0.002
22.134,13.963,13.049,0.743,0.329,0.002
21.829,16.159,12.256,0.735,0.331,0.012
21.585,17.927,11.402,0.735,0.336,0.03
21.341,18.72,10.244,0.746,0.33,0.049
20,20.488,9.329,0.748,0.327,0.068
18.354,22.378,8.841,0.759,0.326,0.069
16.829,22.866,7.256,0.76,0.314,0.07
14.817,23.902,5.671,0.764,0.301,0.075
12.805,25.244,4.756,0.769,0.285,0.079
10.732,26.646,3.72,0.777,0.272,0.074
8.11,27.744,2.683,0.784,0.254,0.072
5.366,28.232,1.585,0.794,0.238,0.075
3.049,28.415,0.427,0.797,0.218,0.076
0.915,27.866,-0.732,0.8,0.201,0.074
-1.037,27.073,-1.829,0.801,0.181,0.07
-2.744,25.671,-2.317,0.796,0.163,0.074
-4.085,24.39,-2.805,0.798,0.146,0.078
-5.732,23.598,-3.049,0.808,0.133,0.08
-7.256,22.683,-3.11,0.824,0.123,0.083
-7.927,21.524,-3.049,0.843,0.113,0.092
-7.866,20.488,-2.927,0.859,0.099,0.099
-7.073,19.085,-2.622,0.876,0.092,0.103
-5.549,17.561,-2.134,0.89,0.085,0.115
-3.354,16.098,-1.646,0.915,0.073,0.119
-0.976,14.512,-1.037,0.945,0.061,0.117
1.951,13.049,-0.427,0.972,0.051,0.115
5.061,11.402,0.305,0.998,0.034,0.117
8.415,10.061,1.037,1.028,0.021,0.11
11.768,8.598,1.829,1.06,0.011,0.1
15.122,7.317,2.805,1.089,-0.007,0.083
18.049,6.463,4.146,1.111,-0.022,0.071
20.488,6.341,5.488,1.134,-0.035,0.053
22.256,6.646,6.707,1.167,-0.041,0.043
23.841,7.439,7.866,1.203,-0.044,0.04
24.817,8.598,9.146,1.229,-0.031,0.031
25,10.061,10.122,1.256,-0.017,0.021
24.817,11.951,11.037,1.278,0.005,0.016
24.085,14.146,11.89,1.306,0.035,0.016
22.927,16.402,12.622,1.349,0.061,0.023
21.524,18.598,13.232,1.377,0.082,0.039
20.183,21.098,13.841,1.41,0.107,0.052
18.963,23.78,14.024,1.455,0.118,0.069
17.622,26.28,14.451,1.542,0.089,0.091
16.159,28.78,14.695,1.622,0.042,0.118
14.451,31.098,15,1.692,0.078,0.145
12.866,33.232,15.366,1.769,0.04,0.219
11.524,35.488,15.61,1.814,0.04,0.269
9.512,37.805,16.037,1.918,0.063,0.36
7.012,40.488,16.098,2.081,-0.062,0.483
4.268,43.476,15.793,2.233,-0.085,0.582
1.22,46.585,14.878,2.476,-0.117,0.73
-2.439,49.573,12.805,2.854,-0.229,0.9
-6.951,52.988,10.427,3.167,-0.337,1.121
-12.744,57.073,7.683,3.358,-0.479,1.251
-19.451,61.585,4.146,3.484,-0.7,1.396
-26.28,67.378,1.341,3.498,-0.909,1.55
-32.683,74.39,-1.524,3.506,-1.082,1.512
-38.232,82.012,-3.72,3.602,-1.218,1.473
-40.122,90.061,-4.085,3.738,-1.299,1.427
-47.012,98.171,-7.378,3.741,-1.359,1.281
-53.11,107.26,-11.341,3.743,-1.391,1.117
-67.134,117.38,-17.073,3.747,-1.414,0.902
-76.22,129.02,-23.293,3.687,-1.406,0.714
-83.293,138.05,-26.89,3.623,-1.4,0.554
-95.671,144.45,-34.268,3.472,-1.391,0.354
-107.19,152.19,-45.732,3.291,-1.359,0.182
-126.4,161.46,-52.561,3.07,-1.299,0.049
-149.82,172.32,-57.195,2.816,-1.25,-0.073
-175.18,186.22,-66.159,2.542,-1.194,-0.138
-202.93,199.69,-68.293,2.254,-1.131,-0.199
-241.52,215.73,-66.829,1.953,-1.044,-0.239
-266.58,227.87,-67.744,1.648,-0.94,-0.262
-288.84,235.43,-70.732,1.326,-0.857,-0.325
-319.21,242.32,-74.512,0.956,-0.806,-0.409
-347.87,244.27,-83.841,0.493,-0.786,-0.393
-379.21,244.45,-96.159,-0.078,-0.767,-0.371
-408.6,239.33,-112.5,-0.711,-0.782,-0.396
-435.79,231.1,-132.93,-1.457,-0.846,-0.352
-461.46,222.62,-156.4,-2.292,-1.022,-0.238
-484.82,212.32,-184.33,-3.202,-1.221,-0.178
-505.12,202.13,-216.71,-3.287,-1.931,0.113
-521.16,194.69,-253.11,-4.06,-2.651,0.24
-534.39,190.24,-291.83,-9.077,-1.93,-1
-545.18,189.45,-331.04,-13.397,0.153,-0.905
-553.11,192.93,-369.69,-11.482,1.416,-0.108
-557.8,200.73,-407.26,-7.831,0.383,1.243
-558.78,214.09,-443.66,-7.325,1.055,1.773
-554.45,233.72,-478.54,-6.994,1.754,-0.367
-544.76,257.13,-511.34,-5.897,1.231,-2.305
-532.2,279.63,-540.98,-4.188,-1.176,-2.269
-515.06,299.63,-568.11,-3.863,-0.562,-2.31
-490.92,317.19,-591.52,-2.659,0.369,-1.661
-461.52,328.78,-609.02,-1.156,1.129,-0.672
-425.67,333.6,-619.51,-0.758,1.635,0.256
-353.29,377.44,-623.29,-0.625,1.552,1.385
-232.62,598.35,-682.87,-0.627,1.569,2.225
-79.207,795.85,-774.88,-0.596,1.455,2.183
-19.207,633.11,-806.89,-0.632,1.055,1.357
-40.244,400.06,-764.51,-0.841,0.352,0.507
-69.573,275.61,-669.02,-1.059,-0.434,0.244
-56.707,215.61,-554.33,-1.132,-0.842,0.195
53.78,162.07,-457.32,-1.238,-1.527,0.08
91.646,60.732,-371.89,-1.226,-1.458,0.088
90.122,-52.012,-246.65,-1.122,-1.143,0.32
93.232,-106.46,-73.415,-1.068,-1.136,0.725
26.951,-132.74,78.963,-1.034,-1.082,1.1
-67.683,-136.22,185,-1.048,-0.912,1.287
-126.83,-169.02,247.99,-1.146,-0.759,1.301
-150.37,-192.81,260.18,-1.287,-0.621,1.182
-158.84,-164.76,242.62,-1.445,-0.495,1.029
-164.21,-100.12,207.56,-1.605,-0.407,0.917
-171.83,-39.939,166.22,-1.765,-0.31,0.866
-193.17,-1.463,129.76,-1.907,-0.179,0.839
-213.41,12.683,103.23,-2.039,-0.046,0.812
-222.13,13.902,94.451,-2.146,0.068,0.78
-207.81,13.293,97.134,-2.229,0.16,0.737
-171.1,4.939,107.01,-2.301,0.25,0.68
-139.09,-5.427,117.19,-2.375,0.332,0.631
-105.24,-14.695,125.73,-2.446,0.399,0.588
-63.78,-17.195,135.67,-2.501,0.45,0.554
-20.854,-13.476,146.71,-2.505,0.488,0.486
21.768,-7.622,159.27,-2.452,0.54,0.417
63.354,-2.439,172.74,-2.367,0.588,0.359
102.44,-1.037,187.19,-2.253,0.637,0.308
138.78,-3.171,203.41,-2.11,0.687,0.282
172.81,-7.866,221.59,-1.95,0.75,0.207
205.06,-14.024,241.22,-1.781,0.799,0.133
235.31,-21.28,260.85,-1.589,0.831,0.035
263.66,-29.085,279.69,-1.378,0.88,-0.078
290.12,-37.195,297.81,-1.167,0.909,-0.187
316.22,-45.183,314.94,-0.965,0.921,-0.291
342.19,-53.232,331.65,-0.753,0.901,-0.392
369.08,-60.366,347.93,-0.568,0.876,-0.438
397.5,-66.524,363.84,-0.405,0.902,-0.443
424.76,-71.159,380.37,-0.173,0.829,-0.525
452.62,-75,396.71,0.041,0.72,-0.489
481.34,-77.927,412.44,0.278,0.676,-0.394
509.82,-79.878,426.95,0.41,0.523,-0.324
537.68,-79.512,440.61,0.412,0.385,-0.172
563.48,-77.683,453.11,0.623,0.27,-0.046
588.48,-74.39,463.29,1.014,0.152,0.201
611.77,-68.902,471.46,1.414,0.068,0.429
631.95,-62.805,477.93,1.857,0.011,0.69
648.35,-57.134,482.44,1.883,0.091,0.756
661.04,-52.439,484.88,1.974,0.14,0.801
668.72,-47.683,485.49,2.228,0.115,0.959
669.27,-45,483.9,2.33,0.099,1.104
669.57,-43.537,478.84,2.278,0.021,1.182
663.66,-43.049,468.35,2.295,-0.081,1.231
648.11,-47.195,455.73,2.5,-0.22,1.296
629.21,-54.512,439.45,2.688,-0.431,1.14
602.62,-64.451,421.4,2.582,-0.564,1.193
570.67,-87.988,405.24,2.758,-0.591,1.34
542.2,-107.56,375,2.896,-0.504,1.487
496.77,-128.84,350.92,2.803,-0.421,1.638
450.98,-142.44,331.04,2.619,-0.417,1.59
411.83,-137.13,317.32,2.476,-0.442,1.559
378.9,-125.55,312.68,2.396,-0.427,1.516
342.74,-132.26,304.21,2.29,-0.347,1.438
295.61,-135.98,289.63,2.164,-0.301,1.323
246.1,-131.89,277.62,2.068,-0.267,1.192
196.65,-134.94,269.08,1.998,-0.238,1.027
144.09,-143.66,257.93,1.916,-0.191,0.848
100.18,-157.56,242.5,1.84,-0.168,0.634
62.073,-161.77,225.85,1.758,-0.169,0.429
12.744,-173.66,216.71,1.686,-0.183,0.258
-23.659,-190.49,197.93,1.611,-0.174,0.123
-57.805,-188.35,182.13,1.529,-0.122,0.008
-89.939,-179.63,166.16,1.475,-0.085,-0.029
-120.37,-172.32,147.74,1.414,-0.046,-0.053
-152.38,-168.11,128.29,1.366,-0.005,-0.075
-179.45,-158.9,106.83,1.323,0.081,-0.107
-203.35,-153.78,86.585,1.276,0.135,-0.152
-229.15,-145.91,64.756,1.266,0.176,-0.186
-250.43,-137.19,42.866,1.262,0.167,-0.213
-266.83,-128.84,22.439,1.254,0.13,-0.241
-279.33,-121.22,3.78,1.234,0.111,-0.26
-288.17,-115.24,-12.622,1.229,0.093,-0.262
-291.77,-110.98,-24.39,1.198,0.08,-0.238
-291.58,-109.21,-32.256,1.16,0.054,-0.191
-287.01,-105.98,-35.61,1.114,0.045,-0.153
-278.96,-100.67,-38.78,1.076,0.038,-0.118
-266.89,-92.439,-43.537,1.061,0.036,-0.081
-253.96,-84.39,-45.61,1.04,0.052,-0.035
-241.04,-76.89,-45.793,0.996,0.072,-0.009
-226.16,-68.902,-46.098,0.975,0.077,0.023
-209.94,-62.927,-46.524,0.959,0.082,0.058
-192.74,-58.78,-47.5,0.955,0.098,0.069
-174.27,-54.756,-47.805,0.946,0.109,0.068
-154.69,-50.488,-47.378,0.941,0.115,0.064
-134.94,-46.951,-45.427,0.935,0.139,0.068
-115.92,-44.146,-41.951,0.937,0.161,0.062
-97.988,-40.793,-36.768,0.945,0.187,0.058
-81.341,-36.951,-31.402,0.942,0.191,0.054
-66.098,-34.024,-25.549,0.93,0.218,0.057
-51.463,-32.256,-20.427,0.935,0.209,0.055
-37.988,-30.793,-16.28,0.931,0.227,0.038
-25.671,-28.049,-12.012,0.925,0.238,0.026
-14.146,-26.524,-7.317,0.895,0.247,0
-3.171,-25.61,-4.39,0.922,0.281,-0.01
7.134,-25.305,-1.829,0.923,0.3,-0.001
16.768,-25.244,0.61,0.914,0.308,-0.007
25.732,-25.732,2.805,0.902,0.312,-0.012
33.476,-26.89,4.268,0.891,0.333,-0.011
39.939,-28.293,5.671,0.872,0.333,-0.013
44.756,-29.329,6.768,0.858,0.335,-0.002
47.927,-29.756,8.11,0.852,0.342,0.004
49.634,-28.293,10.122,0.843,0.349,0.004
49.39,-26.28,12.805,0.837,0.35,0.009
48.11,-23.72,14.329,0.831,0.35,0.011
45.671,-20.366,14.695,0.826,0.344,0.012
42.317,-16.707,14.939,0.833,0.335,0.016
38.78,-13.598,14.573,0.798,0.32,0.006
34.939,-10.366,13.476,0.788,0.319,0
30.305,-5.732,13.293,0.776,0.309,0.013
24.878,-0.793,13.11,0.754,0.304,0.011
19.451,3.598,12.317,0.744,0.302,0.007
14.512,7.805,11.22,0.735,0.305,0.01
10.61,11.524,10.671,0.738,0.301,0.015
6.768,14.39,10.061,0.73,0.3,0.011
2.744,16.951,9.695,0.72,0.294,-0.005
-1.524,19.39,9.512,0.722,0.287,-0.021
-5.244,21.28,9.207,0.722,0.278,-0.042
-8.354,22.866,9.085,0.729,0.273,-0.048
-11.159,24.329,8.415,0.738,0.274,-0.044
-13.841,26.159,8.11,0.748,0.276,-0.044
-15.488,28.11,8.354,0.76,0.279,-0.035
-16.524,28.11,7.866,0.766,0.28,-0.026
-16.768,28.659,7.256,0.774,0.28,-0.017
-16.159,28.598,6.646,0.775,0.283,-0.013
-15.061,27.561,5.061,0.782,0.28,-0.011
-12.561,26.646,3.476,0.773,0.277,-0.008
-9.329,26.524,2.256,0.769,0.278,-0.006
-5.793,26.829,1.585,0.79,0.27,-0.012
-1.463,26.646,1.098,0.802,0.261,-0.02
3.659,25.671,0.427,0.811,0.248,-0.022
9.451,23.659,-0.122,0.827,0.229,-0.021
15.366,20.732,-0.061,0.845,0.209,-0.026
20.549,17.5,0.488,0.861,0.192,-0.023
24.878,14.573,1.402,0.873,0.174,-0.029
28.537,11.707,2.561,0.888,0.158,-0.042
31.829,9.085,3.476,0.901,0.135,-0.032
34.451,6.707,4.756,0.93,0.122,0
36.22,5.122,6.159,0.951,0.121,0.027
37.317,4.146,6.951,0.912,0.141,0.033
38.293,2.866,7.805,0.913,0.14,0.044
39.024,0.793,8.171,0.996,0.123,0.077
39.634,-1.098,7.927,1.028,0.112,0.095
40.122,-2.561,7.744,1.059,0.104,0.096
40.61,-3.598,7.317,1.094,0.088,0.091
40.854,-4.39,6.829,1.124,0.069,0.074
40.793,-4.756,6.524,1.142,0.05,0.059
40.732,-4.39,6.22,1.177,0.04,0.058
40.549,-3.598,5.976,1.208,0.033,0.058
40.183,-2.683,5.793,1.232,0.027,0.052
40.427,-1.463,5.976,1.252,0.028,0.059
40.488,0.793,6.28,1.271,0.029,0.072
39.451,5.915,7.195,1.288,0.039,0.077
37.012,10.488,8.659,1.312,0.06,0.082
34.329,11.463,7.439,1.353,0.071,0.085
31.951,13.354,5.488,1.416,0.098,0.114
29.329,17.927,5.305,1.466,0.105,0.144
