Timestamp,Rotation X,Rotation Y,Rotation Z,Rotation W,Acceleration X,Acceleration Y,Acceleration Z
2026-01-14 16:41:57.791,-7854832,30236750,-51833200,104529600,28381350,-29724120,1227417
2026-01-14 16:41:57.801,-8113780,30193590,-51876360,104270600,68603520,-27511600,117004400
2026-01-14 16:41:57.811,-8200092,3015040,-5190226,104184300,19439700,-79589840,17297360
2026-01-14 16:41:57.821,-51392990,-6816435,-15021700,60974150,43670660,-10583500,18115230
2026-01-14 16:41:57.831,42374620,-6850962,-15056230,53609610,-20965580,-11035160,17260740
2026-01-14 16:41:57.841,42375480,-6885489,-15090760,53608740,-58898930,-9057617,113098100
2026-01-14 16:41:57.891,-7880716,-6986482,-15196930,104382800,-10583500,-105163600,14660650
2026-01-14 16:41:57.901,42552420,-6985616,-15197790,53777060,-12438970,-8996582,1616211
2026-01-14 16:41:57.911,42466110,-6985616,-15197790,53690740,-12658690,-9222412,21716310
2026-01-14 16:41:57.921,-821738,5,29977810,-52161210,10402900,-8898926,-5532837,21740720
2026-01-14 16:41:57.931,-838999,5,-6975256,-15190880,10385630,-8807373,-592041,16748050
2026-01-14 16:41:57.941,-855399,5,-6965761,-15183120,10367500,-13977050,-10925290,13330080
2026-01-14 16:41:57.971,-907189,5,-6912245,-15133050,10315710,-12146000,-107040400,47912600
2026-01-14 16:41:57.981,-924453,-6894119,-15116650,10298450,-12854000,10480880,80444340
2026-01-14 16:41:57.991,-941718,30141810,-52100780,10281190,-11456300,-4875183,76293940
2026-01-14 16:41:58.001,-5146207,30176330,-52083520,6076701,-12609860,-25970460,-68603520
2026-01-14 16:41:58.011,-977106,-6805212,-15032920,10247520,-13537600,-368042,-8227539
2026-01-14 16:41:58.021,-1003001,-6769822,-14999260,10221630,-13781740,-3100586,-9869385
2026-01-14 16:41:58.051,-10815490,-6647257,-14880140,101448100,-3753662,-3503418,-8691406
2026-01-14 16:41:58.061,-1116939,3044391,-5190226,10111140,38261420,-17303470,-1876831
2026-01-14 16:41:58.071,-1134205,30512970,-51867730,10093880,-3527832,4763794,-6427002
2026-01-14 16:41:58.081,-1151466,-6514325,-14754120,10076620,-27191160,54229740,-60150140
2026-01-14 16:41:58.171,37379460,40353940,-42423820,48592010,-53009030,5355835,49365230
2026-01-14 16:41:58.181,-13059720,3109988,-5174688,99031200,6323242,74035650,5029297
2026-01-14 16:41:58.191,37556420,-6133670,-14426980,48760330,7836914,31036380,50439450
2026-01-14 16:41:58.201,37904270,31263920,-51755520,49103010,14294430,9564209,2614746
2026-01-14 16:41:58.211,-1194624,-6055983,-14366560,9998931,2512207,418396,-8416748
2026-01-14 16:41:58.221,-1140246,40569730,-42605080,10048130,18762210,-1706543,-9460449
2026-01-14 16:41:58.251,-10030010,31540130,-51824570,101698400,-33050540,-15722660,5053711
2026-01-14 16:41:58.261,-984013,31574670,-51841840,10185380,-7940674,-11236570,66345220
2026-01-14 16:41:58.271,-973654,5,40731150,-42754410,10192280,-109191900,-26977540,1966858
2026-01-14 16:41:58.281,-51194460,31695510,-51841830,60430350,-8203125,46173100,-12854000
2026-01-14 16:41:58.351,40340130,-9343790,-10181060,51500880,-30700680,15014650,-43066410
2026-01-14 16:41:58.361,40167500,-552429,4,-1389701,51328250,-793457,11907960,-37402340
2026-01-14 16:41:58.371,-10323480,-5480254,-13854700,101301300,-5105591,13208010,-32250980
2026-01-14 16:41:58.381,-10496120,32247930,-51513830,101128700,-76660160,14892580,-28515620
2026-01-14 16:41:58.431,-1172184,32480990,-51349830,9993754,-5239868,54626460,-15881350
2026-01-14 16:41:58.441,-1198077,-5207489,-13592300,9967857,16494750,-11222840,-8514404
2026-01-14 16:41:58.451,-12334660,-5172967,-13557770,99341940,53222660,-42144780,-41748050
2026-01-14 16:41:58.461,37573680,32575940,-51254890,48743060,74035650,-53833010,4737854
2026-01-14 16:41:58.471,42254550,32601830,-51228990,43371660,12408450,-4650879,47088620
2026-01-14 16:41:58.481,-13310040,32619090,-51211720,98418350,17321780,-43945310,9490967
2026-01-14 16:41:58.531,-13922890,3267948,-5116856,97822770,12164310,22232060,823,9746
2026-01-14 16:41:58.541,-55454190,-5043489,-13428290,56291460,10534670,395813,-362854
2026-01-14 16:41:58.551,-51695100,-5034858,-13419660,60050560,6274414,11695860,-32043460
2026-01-14 16:41:58.561,-1419048,-5034856,-13419660,9757244,65979000,49743650,-1816,75
2026-01-14 16:41:58.571,-1436313,40993550,-42837280,9739984,27069090,770874,17852780
2026-01-14 16:41:58.581,-1454440,32696780,-51116780,9723583,28839110,10272220,-42510980
2026-01-14 16:41:58.611,35320810,32739940,-51021830,46507460,6585693,16845700,-17480470
2026-01-14 16:41:58.621,35147320,-8696414,-9533686,46335690,6652832,15429690,-17565920
2026-01-14 16:41:58.631,-15390270,-4895890,-13265160,96528020,9411621,1282959,-19238280
2026-01-14 16:41:58.641,40009110,-4862225,-13229770,41128640,81970220,1138916,-18652340
2026-01-14 16:41:58.651,34883180,40927940,-42730240,46081920,45318600,7104492,-14355470
2026-01-14 16:41:58.661,-15614700,3282622,-5079740,96407170,16098020,-8956909,-105773900
2026-01-14 16:41:58.711,-16909450,-4674919,-13020020,95285060,15710450,3262329,11981200
2026-01-14 16:41:58.721,-1709935,-4658515,-13001890,9512968,14978030,75645450,9448242
2026-01-14 16:41:58.731,-1710799,-4651609,-12991530,9513831,117004400,16403200,62438960
2026-01-14 16:41:58.741,-52221630,-4652474,-12990670,60041920,10046390,-36525730,9875488
2026-01-14 16:41:58.751,-16943980,32852150,-50512560,95319580,51574710,-35614020,113342300
2026-01-14 16:41:58.761,-16771340,41682260,-41682440,95492210,11352540,-8392334,15258790
2026-01-14 16:41:58.791,34007070,-4704264,-13042460,45231700,-85510260,-8203125,66345220
2026-01-14 16:41:58.801,34007930,-4712033,-13051960,45230840,-107543900,-72753900,7980347
2026-01-14 16:41:58.811,34094250,32834890,-50581620,45317160,-7965088,-41748050,-45654300
2026-01-14 16:41:58.821,-16400180,32843520,-50572980,95811580,-5114746,-38024900,-6756592
2026-01-14 16:41:58.831,-16486500,-4684414,-13027790,95725260,-21438600,-9384155,-8441162
2026-01-14 16:41:58.841,-16486500,-4675782,-13019150,95725260,10383610,17318730,-8300781
2026-01-14 16:41:58.891,34096840,32921210,-50564350,45314570,703125,3050232,-12512210
2026-01-14 16:41:58.901,34096840,32921210,-50564350,45314570,101501500,5508423,-12927250
2026-01-14 16:41:58.911,34183160,32921210,-50564350,45400880,10864260,8557129,-13256840
2026-01-14 16:41:58.921,34270340,-4655064,-13005350,45486340,11254880,86120610,-9851074
2026-01-14 16:41:58.971,34788240,32869420,-50616140,46004240,8929443,15112310,5215454
2026-01-14 16:41:58.981,34874550,32860780,-50624780,46090550,10687260,11010740,9222412
2026-01-14 16:41:59.031,-51945420,-4805255,-13148630,60197300,-6665039,770874,23950200
2026-01-14 16:41:59.041,-1454438,-4830286,-13175390,9758108,-15209960,25177000,3461914
2026-01-14 16:41:59.051,-51867740,32696780,-50771500,60223190,-20983890,8987427,42285160
2026-01-14 16:41:59.061,36433430,-4888119,-13238400,47639070,-21496580,43914800,4104004
2026-01-14 16:41:59.091,37388960,-4934730,-13295370,48582520,-11306760,-20629880,-33172610
2026-01-14 16:41:59.101,-12446880,32696780,-50944140,99454150,76049810,8224487,-1529541
2026-01-14 16:41:59.131,-1119529,-8756834,-9594106,10061940,-5962372,6526947,-30578610
2026-01-14 16:41:59.141,-5137575,32670890,-51090880,6038721,-6958008,46417240,2659607
2026-01-14 16:41:59.151,-10461590,3265358,-5114267,101266800,-8099365,8691406,2293396
2026-01-14 16:41:59.161,-10004120,32636360,-51194460,101672500,-117370600,11035160,-59326170
2026-01-14 16:41:59.171,-955526,5,3262773,-5123762,10208680,-13134770,13500980,-14624020
2026-01-14 16:41:59.181,-910642,-5135847,-13525830,10250110,-9295654,15246580,-24414060
2026-01-14 16:41:59.211,42502370,-5202312,-13597480,53654490,-19567870,99853520,-32226560
2026-01-14 16:41:59.221,42849360,-9383806,-9467774,53998030,-20056150,59936520,-24560550
2026-01-14 16:41:59.231,-68794,84,-9401068,-9485036,1045900,-19250490,49835200,-2241211
2026-01-14 16:41:59.241,-50806030,-5261007,-13659620,60646140,-2142334,9422302,-18701170
2026-01-14 16:41:59.271,-50711090,-5311071,-13713140,60672040,-22436520,21362300,-43426510
2026-01-14 16:41:59.281,-579186,-5318838,-13722640,10557400,-21313480,3692627,38051600
2026-01-14 16:41:59.311,-50676560,3250686,-5158287,60654780,-8734131,61828610,11975100
2026-01-14 16:41:59.321,-50685190,-5342146,-13751120,60646140,-3829956,6573486,16394040
2026-01-14 16:41:59.331,-585230,5,32506880,-51600150,10546180,-10528560,42877200,18652340
2026-01-14 16:41:59.341,-585230,5,32498250,-51608780,10546180,45166020,41656500,2097168
2026-01-14 16:41:59.351,-575734,5,41097130,-43009900,10553950,17868040,6036377,19726560
2026-01-14 16:41:59.361,-575734,5,41105760,-43018540,10553950,74005130,3729248,19116210
2026-01-14 16:41:59.391,-50624770,32463720,-51660560,60654780,-14465330,21698000,12005620
2026-01-14 16:41:59.401,-50607510,-5399978,-13814130,60654780,10955810,1033783,8709717
2026-01-14 16:41:59.411,-521354,-5408607,-13822760,10603150,-17967220,14633180,49316410
2026-01-14 16:41:59.421,-5056435,3245510,-5170373,6068067,-22277830,6565094,22460940
2026-01-14 16:41:59.451,45713350,-5431915,-13851250,56830940,-58380130,31234740,-4345703
2026-01-14 16:41:59.461,-50426240,-9229161,-10071260,60732460,-55725100,37841800,-39001460
2026-01-14 16:41:59.491,-50331300,32480990,-51798680,60775620,-814209,35064700,-2053833
2026-01-14 16:41:59.501,-314195,5,32480990,-51815940,10793050,-9082031,60455320,-56640620
2026-01-14 16:41:59.511,-296067,-5451766,-13883180,10809450,-8679199,6774902,-61920170
2026-01-14 16:41:59.521,-50253610,-5450904,-13884050,60784250,-8691406,61035160,15907290
2026-01-14 16:41:59.531,-268448,32506890,-51841840,10833620,-74401860,5911255,-47416690
2026-01-14 16:41:59.541,-5021909,-5457808,-13894410,6080151,-6921387,62438960,20095820
2026-01-14 16:41:59.571,-50167290,-5455221,-13896990,60801520,-8288574,8068848,19683840
2026-01-14 16:41:59.581,-50167290,-5445725,-13889230,60801520,-63964840,76049810,40771480
2026-01-14 16:41:59.591,-50167290,-5445725,-13889230,60801520,-57373050,7702637,491333
2026-01-14 16:41:59.601,-239098,-5437092,-13880600,10856060,-15686040,93444820,5166626
2026-01-14 16:41:59.651,-50167300,32593200,-51859100,60801520,-56991580,54901120,52734380
2026-01-14 16:41:59.661,-230468,32593200,-51859100,10864690,-10482790,44036860,35064700
2026-01-14 16:41:59.691,-212342,32601840,-51867730,10881090,20553590,29968260,43060300
2026-01-14 16:41:59.701,-212340,-5408608,-13857290,10881090,3164673,7118225,491333
2026-01-14 16:41:59.711,-50115500,-5407746,-13858150,60801510,22018430,-14328000,7637024
2026-01-14 16:41:59.721,-1942128,3262769,-5187637,108974900,725708,-12893680,-20843510
2026-01-14 16:41:59.831,5013793,41350040,-43292160,6121068,-6384277,3845215,25894160
2026-01-14 16:41:59.841,49200,-5485429,-13953100,11120190,-6335449,5923462,-32,0673
2026-01-14 16:41:59.931,635290,-6144026,-14606520,11673480,2947998,93066410,-14853520
2026-01-14 16:41:59.941,-48829380,-6348598,-14799000,61517940,7122803,8129883,-13583980
2026-01-14 16:41:59.991,2029306,-7462946,-15825310,13058860,-12207030,5864258,-11503910
2026-01-14 16:42:00.001,2296888,-7645074,-15988450,13326440,-15612790,5288086,-9926758
2026-01-14 16:42:00.051,-46127670,29261370,-53447320,64219660,-7709961,-12915040,-9892578
2026-01-14 16:42:00.061,3717661,-7884172,-16146410,14754120,-85253900,-30566410,-9526367
2026-01-14 16:42:00.071,-4581694,-7765917,-16022980,6459945,-8676758,-4663086,-8413086
2026-01-14 16:42:00.081,9439597,29546220,-52989850,9550086,-84375,-5932617,-6816406
2026-01-14 16:42:00.091,-4571335,2974475,-5277406,6484114,-7753906,-6425781,-51904300
2026-01-14 16:42:00.101,-45747880,30012330,-52523740,64892930,-7207031,-67871100,-3708496
2026-01-14 16:42:00.131,3837643,3105676,-5170374,14927620,-39257810,-7553711,38745120
2026-01-14 16:42:00.141,-46231250,-5834151,-14122280,64754820,-29907230,-7504883,6479492
2026-01-14 16:42:00.151,3579553,40538660,-42463520,14685070,-24414060,-72753900,81884770
2026-01-14 16:42:00.161,3437996,-5104773,-13418800,14550410,-13879400,-7441406,9736328
2026-01-14 16:42:00.171,3296436,-4735336,-13063180,14415760,-22720340,-7426758,11171880
2026-01-14 16:42:00.181,86537460,-4373674,-12717050,87649730,40863040,-67871100,128125
2026-01-14 16:42:00.231,2434127,-28467270,-112574300,13568990,5517578,-28271480,17070310
2026-01-14 16:42:00.241,73412390,35260390,-48967490,84547260,6411133,-17114260,1703125
2026-01-14 16:42:00.251,-47854000,-2482473,-10913890,63477330,6904297,-7800293,17011720
2026-01-14 16:42:00.261,2185538,35614290,-48786220,13316950,64990230,11328130,16347660
2026-01-14 16:42:00.271,-47914430,-61031120,-69479800,63365120,625,13891600,16542970
2026-01-14 16:42:00.281,2163095,-60769580,-69223440,13287600,63183590,8001709,16035160
2026-01-14 16:42:00.311,72994620,-2422052,-10888000,84101860,38085940,-17260740,12695310
2026-01-14 16:42:00.321,2365074,-25239010,-109933000,13465410,27661130,-27905270,11308590
2026-01-14 16:42:00.331,2428090,-6455889,-7303001,13523240,17614750,-32177730,9770508
2026-01-14 16:42:00.341,2491099,-69665640,-70512760,13581070,8868408,-2939453,8432617
2026-01-14 16:42:00.351,2554112,-6723471,-7570583,13638910,5307007,-33203120,77001950
2026-01-14 16:42:00.361,26171240,-72514090,-73361210,136967400,27374270,-32177730,71435540
2026-01-14 16:42:00.411,-46895890,34397220,-50348550,63624070,-44677740,-23840330,21582030
2026-01-14 16:42:00.421,-46844100,34285010,-50478030,63606810,-60058590,-21313480,18518070
2026-01-14 16:42:00.431,78467100,3419866,-5059891,89505290,-11218260,-20605470,14404300
2026-01-14 16:42:00.441,28907470,-4052577,-12537510,139237500,-15332030,-17614750,15991210
2026-01-14 16:42:00.451,28847060,3406916,-5081468,139125300,-16845700,-18518070,14685060
2026-01-14 16:42:00.461,-46731890,-41949940,-126885600,63494600,-18530270,-1262207,10247800
2026-01-14 16:42:00.491,-4677505,-4301163,-12806820,6334786,-8886719,2947998,-8773804
2026-01-14 16:42:00.501,-46826830,-4316703,-12825800,63278800,-55389400,9564209,8277893
2026-01-14 16:42:00.511,26689130,33974260,-51134040,136794800,-12001040,11352540,27786260
2026-01-14 16:42:00.521,2598997,-4323606,-12836160,13611290,1651001,16345220,5609131
2026-01-14 16:42:00.531,2529080,-4323606,-12836160,13543100,6298828,21496580,19714360
2026-01-14 16:42:00.541,-47103040,-4323608,-12836160,63054380,55603030,24646000,11184690
2026-01-14 16:42:00.591,-47422420,33931110,-51056350,62907640,44067380,18518070,-17736820
2026-01-14 16:42:00.601,2198487,-8137857,-8987386,13234950,89904780,16333010,-23522950
2026-01-14 16:42:00.611,2170003,-4317564,-12807680,13211640,6756592,22717280,-28344730
2026-01-14 16:42:00.621,-47543260,-4311523,-12796460,62907640,19882200,29492190,-27416990
2026-01-14 16:42:00.651,2195898,-4312385,-12778330,13254800,8917236,2980957,-21411130
2026-01-14 16:42:00.661,-47551900,33749840,-50840560,63088910,11621090,3317871,-2529297
2026-01-14 16:42:00.671,2295162,-4311521,-12761930,13362690,16503910,31396480,-3869629
2026-01-14 16:42:00.681,78512500,3369802,-5073702,79619770,15905760,27563480,-48657230
2026-01-14 16:42:00.711,75677340,-42096680,-126221000,86770770,8087158,2923584,-82714850
2026-01-14 16:42:00.721,25851860,33629000,-50305400,136941500,19396970,22018430,-10839840
2026-01-14 16:42:00.751,23029310,33542680,-49528550,134930300,48754880,12119140,-23164060
2026-01-14 16:42:00.761,-48432330,-74417120,-82679360,63883020,9189453,18730470,-26855470
2026-01-14 16:42:00.771,69973530,33344160,-48743070,81253400,14375,271875,-32089840
2026-01-14 16:42:00.781,1730650,-3470796,-11617370,13064040,18925780,371875,-36992190
2026-01-14 16:42:00.791,67242470,3296433,-4779362,78632820,24785160,47890620,-44179690
2026-01-14 16:42:00.801,67213120,-69025780,-77022160,78662180,28027340,56796880,-48046880
2026-01-14 16:42:00.851,-49424970,30901390,-44073320,68000330,42700200,68867180,-68398440
2026-01-14 16:42:00.861,-5802039,-2586051,-9964405,6000912,-46728520,68828130,-70898440
2026-01-14 16:42:00.871,4674915,-2234742,-9487074,16541740,-10927730,67734380,-6875
2026-01-14 16:42:00.881,-48354640,-1764317,-8887169,70935100,-14824220,64882810,-64648440
2026-01-14 16:42:00.891,-47992110,30279910,-39602120,71936380,-18359380,6390625,-61796880
2026-01-14 16:42:00.901,12068550,30383490,-38134740,13274050,-19990230,63203120,-58242190
2026-01-14 16:42:00.931,8913928,25169960,-38980640,21124300,-24042970,55898440,-32792970
2026-01-14 16:42:00.941,9768464,37107570,-25541120,22013360,-24433590,51015620,-25039060
2026-01-14 16:42:00.951,10654080,4971844,-1139382,22923140,-23535160,45859380,-20410160
2026-01-14 16:42:00.961,11525870,33059310,-26447450,23812200,-29023440,41523440,-18105470
2026-01-14 16:42:00.971,-59631060,33672160,-24160060,63335780,-31191410,41289060,-14257810
2026-01-14 16:42:00.981,-4218297,64950760,59345350,8085292,-34003900,39179690,-96728510
2026-01-14 16:42:01.031,-61110790,36650090,-8752515,61562570,-40429690,2359375,378125
2026-01-14 16:42:01.041,-3808295,37003990,-5878172,8431421,-34570310,14736330,440625
2026-01-14 16:42:01.051,17513670,37306100,-3003824,29718860,-37246100,11611330,515625
2026-01-14 16:42:01.061,-3669325,37565050,-69053,73,8489253,-33457030,24316410,53242190
2026-01-14 16:42:01.071,18524440,37772210,2848450,30624320,-35253900,-69628900,57421880
2026-01-14 16:42:01.081,19006950,18267210,-13894410,31039500,-32011720,-17822270,60039060
2026-01-14 16:42:01.111,20217110,38203790,14673840,31987260,-25566410,-45,6125
2026-01-14 16:42:01.121,20482960,13080440,-7497474,32152990,-14794920,-52148440,575
2026-01-14 16:42:01.131,-3137613,38134740,20491600,8428832,-6489258,-62070310,625
2026-01-14 16:42:01.141,20794560,76609560,-70474170,32255710,29882810,-671875,64257810
2026-01-14 16:42:01.151,-30210860,62238690,-55842620,83278400,10976560,-69804690,61367190
2026-01-14 16:42:01.161,20864490,37729050,28752110,32099470,19042970,-70976560,57929690
2026-01-14 16:42:01.211,-27759460,16754080,60257720,78858980,67382820,-740625,36875
2026-01-14 16:42:01.221,-2759543,3987836,74767570,7795266,74023440,-74296870,34667970
2026-01-14 16:42:01.231,-27595460,35199960,45126400,76985900,8234375,-76796870,3125
2026-01-14 16:42:01.241,18869710,-60823090,68997290,29243250,98515620,-82734380,33769530
2026-01-14 16:42:01.251,-49216940,-77422670,85715980,53862510,119921900,-89765620,39941410
2026-01-14 16:42:01.261,-29149160,31894030,51988580,73446920,144921900,-953125,44921880
2026-01-14 16:42:01.291,-33611740,25489330,58911180,68656340,24546880,-50117190,103125
2026-01-14 16:42:01.301,-35320810,23037940,60792890,66999060,27421880,-11308590,138359400
2026-01-14 16:42:01.311,-51076720,20776440,62225750,51363980,27765620,27285160,17125
2026-01-14 16:42:01.321,-38108840,-21669820,22489830,64608080,2715625,47539060,20234380
2026-01-14 16:42:01.331,-3907559,1750504,6332196,6419376,28421880,659375,22375
2026-01-14 16:42:01.341,-39869700,16322490,62916280,64418190,288125,74921870,243125
2026-01-14 16:42:01.371,-43184260,9857366,57935800,68147070,23015620,5734375,320625
2026-01-14 16:42:01.381,-45022810,-2156800,2763260,69916560,149453100,4203125,3809375
2026-01-14 16:42:01.391,6377946,-22640020,27803490,18256850,40664060,12851560,434375
2026-01-14 16:42:01.401,6142302,-5273954,46222620,18388920,-118203100,-2453125,471875
2026-01-14 16:42:01.431,11333390,-354763,4791443,23987420,-750625,-115078100,20140620
2026-01-14 16:42:01.441,13080440,2960664,56252620,25554940,-11734380,2925,-1028125
2026-01-14 16:42:01.471,-61198570,-20146330,33042050,64547660,2265625,40585940,1144375
2026-01-14 16:42:01.481,-46783680,-26442280,27436640,79204240,61289060,-58125,445625
2026-01-14 16:42:01.491,-47620950,-21958980,33957010,77849070,8171875,39648440,38925780
2026-01-14 16:42:01.501,-47267040,31600550,87689180,78013070,78515620,5671875,-33125
2026-01-14 16:42:01.511,-60827410,-26970530,28203140,64159230,-20449220,59521480,-12578130
2026-01-14 16:42:01.521,-4331371,62396650,67769000,8099966,42226560,-58320310,87578130
2026-01-14 16:42:01.551,-3573512,-15865020,31833620,8614410,63964840,-33457030,-6625
2026-01-14 16:42:01.561,20492460,6113813,10648900,32644130,-20527340,-36796880,-26425780
2026-01-14 16:42:01.571,21357350,-20660780,22411280,33505570,-51289060,-36582030,-81933590
2026-01-14 16:42:01.581,-58053190,-11272970,29572120,63636160,-68945310,-16484380,5911255
2026-01-14 16:42:01.611,-58389830,-6456495,28191050,64093640,-63632810,-265625,4921875
2026-01-14 16:42:01.621,-32498250,-4730162,28087470,89985210,-48867190,-28652340,57890620
2026-01-14 16:42:01.651,-3140202,871799,28130630,9047721,-15214840,-47460940,50664060
2026-01-14 16:42:01.661,-57864160,2779396,28087470,63807930,-10820310,-52890620,44023440
2026-01-14 16:42:01.671,29180240,4678368,27983890,30395580,-56884770,-5171875,41875
2026-01-14 16:42:01.681,23687910,6551440,27750830,35836120,88012700,-51523440,41132810
2026-01-14 16:42:01.691,2358175,16954340,18849850,3573514,67333980,-49726560,43242190
2026-01-14 16:42:01.701,23440180,-6420241,10135310,35600480,92089840,-51679690,46914060
2026-01-14 16:42:01.731,22903290,-23279630,63900280,35084300,16201170,-4984375,71484380
2026-01-14 16:42:01.741,-3212708,20528710,21127750,8970037,20332030,-46328120,73164060
2026-01-14 16:42:01.751,22453580,5248056,37357880,34636320,20371090,-42734380,73320310
2026-01-14 16:42:01.761,-32653620,-18544290,22887750,89191090,190625,-37148440,6796875
2026-01-14 16:42:01.791,-33870700,62665950,-17608620,88146660,16269530,-28496090,6296875
2026-01-14 16:42:01.801,-3430227,28113360,17220190,8774962,15439450,-26015620,6140625
2026-01-14 16:42:01.831,-5848477,32524150,12912980,6356712,17890620,-19306640,61757810
2026-01-14 16:42:01.841,18828270,33905220,11359280,31028280,18837890,-18271480,60039060
2026-01-14 16:42:01.851,-36581030,35225860,9762425,85384520,18964840,-16279300,58554690
2026-01-14 16:42:01.861,-37133460,36503350,8139670,84780300,16982420,-12607420,57890620
2026-01-14 16:42:01.871,17127830,1563678,-1559261,29310580,14960940,-78466800,56523440
2026-01-14 16:42:01.881,-5860303,38894330,4799211,6312087,13955080,-13635250,54453120
2026-01-14 16:42:01.911,14609970,4216572,-40569,48,26718480,17402340,14912110,45585940
2026-01-14 16:42:01.921,14004030,43167000,-2218340,26081470,18134770,14853520,446875
2026-01-14 16:42:01.931,-40784660,44116490,-4065517,79609940,2046875,13476560,446875
2026-01-14 16:42:01.941,-5811189,4501418,-592995,9,6186840,19931640,15263670,45820310
2026-01-14 16:42:01.971,10925970,31282910,-27705950,22772090,14941410,18544920,425
2026-01-14 16:42:01.981,-4274406,4806116,-1351720,7513010,12714840,20332030,39257810
2026-01-14 16:42:02.011,-56508120,49778860,-19291790,59346210,71533200,28769530,26738280
2026-01-14 16:42:02.021,-44038800,18066090,10919070,71073200,55029300,31953120,25214840
2026-01-14 16:42:02.031,7128036,50624770,-23193310,18559830,5019531,34101560,25
2026-01-14 16:42:02.041,-44582600,50961400,-25135430,68906660,4501953,37539060,22558590
2026-01-14 16:42:02.091,-45747880,12810270,4194133,63373760,8808594,56757810,-84375
2026-01-14 16:42:02.101,2781129,80093300,71306260,13601800,10927730,58203120,-10957030
2026-01-14 16:42:02.131,1150604,52951870,43722880,11710590,15664060,49726560,-19511720
2026-01-14 16:42:02.141,621480,86385790,-7147028,11100340,15185550,47890620,-24238280
2026-01-14 16:42:02.151,-46697360,35980270,26513050,57297050,15166020,46601560,-29667970
2026-01-14 16:42:02.161,-416045,5,28175510,18608160,9910890,13798830,42851560,-34160160
2026-01-14 16:42:02.191,-18411360,77495170,-20526120,82976290,14013670,33945310,-48867190
2026-01-14 16:42:02.201,2266245,-21829500,-31686880,3275288,14169920,31738280,-55117190
2026-01-14 16:42:02.231,10974310,48173370,-51470680,20962890,15654300,21054690,-659375
2026-01-14 16:42:02.241,-36900410,-15120110,-25103500,62795430,15566410,16796880,-63828120
2026-01-14 16:42:02.251,53783960,26835870,-73101660,153376200,13984380,13876950,-61054690
2026-01-14 16:42:02.261,-41302560,-20551160,-30548360,58220640,12294920,12060550,-58671880
2026-01-14 16:42:02.271,2100950,2278762,-7716717,12055000,10976560,10751950,-5640625
2026-01-14 16:42:02.281,-43495000,2197622,-7790947,56097250,9819336,9003906,-55390620
2026-01-14 16:42:02.311,870932,23866580,-75656620,10868140,8959961,3330078,-53867190
2026-01-14 16:42:02.321,948619,5,-18855030,-28791810,10963090,8544922,29223630,-52226560
2026-01-14 16:42:02.371,3377227,43054790,-55139140,4391280,9863281,-117370600,-31933590
2026-01-14 16:42:02.381,-2066424,-9780550,-19567140,8108594,10693360,-70129390,-29726560
2026-01-14 16:42:02.411,-5144478,17604300,7945456,5147932,11347660,25219730,-27539060
2026-01-14 16:42:02.421,-51690780,65393560,-30694230,51682160,11083980,45117190,-26777340
2026-01-14 16:42:02.431,-60542570,26529450,16974190,43279220,10410160,6464844,-26484380
2026-01-14 16:42:02.441,-14710100,30645030,21145010,-4279584,90478510,8149414,-25253910
2026-01-14 16:42:02.451,-5239255,77072220,-17341030,5237876,74560540,8803711,-22695310
2026-01-14 16:42:02.461,-52635950,80576680,-13249620,52635960,50683590,8510742,-20214840
2026-01-14 16:42:02.491,-8484936,49913510,40719060,98254340,-55029300,52197260,-15605470
2026-01-14 16:42:02.501,939126,9500021,374614,3,11663120,-85009770,3461914,-14472660
2026-01-14 16:42:02.511,2725885,58043690,48989070,13501670,-10869140,14758300,-12832030
2026-01-14 16:42:02.521,4339141,50685190,-39118750,15168440,-12382810,2734375,-10732420
2026-01-14 16:42:02.551,-53576800,50849190,-36589660,56304410,-15761720,-23059080,-39013670
2026-01-14 16:42:02.561,-40698350,119263800,32653630,69700780,-16425780,-36499020,-19604490
2026-01-14 16:42:02.591,9597558,51056350,-33067940,20785940,-17089840,-7573242,32666020
2026-01-14 16:42:02.601,9228984,51099510,-32196150,20463980,-17099610,-8701172,46704100
2026-01-14 16:42:02.611,8687779,51142670,-31341610,19969380,-17451170,-9790039,5341797
2026-01-14 16:42:02.621,-55259980,41868800,-39804100,57987590,-17070310,-11621090,5390625
2026-01-14 16:42:02.631,-44056070,5117717,-2971884,69605820,-16835940,-13271480,6064453
2026-01-14 16:42:02.641,6036994,15115790,7102141,17441160,-17646480,-13623050,60498050
2026-01-14 16:42:02.671,-49839290,15983270,8168156,65203670,-18779300,-12314450,11640630
2026-01-14 16:42:02.681,277077,5,16224100,8462494,11807270,-19033200,-11132810,12978520
2026-01-14 16:42:02.691,-15459330,16443340,8726625,100049700,-19277340,-98828130,12529300
2026-01-14 16:42:02.701,21864120,5119445,-2561019,23020590,-19550780,-9013672,11494140
2026-01-14 16:42:02.731,-95880640,17062230,9437014,19921900,-18916020,-10322270,11689450
2026-01-14 16:42:02.741,-11744260,17172720,9550948,-167453,8,-19628910,-10927730,13769530
2026-01-14 16:42:02.771,-18894740,51885000,-24488060,-7345552,-2265625,-94384770,17480470
2026-01-14 16:42:02.781,-73895770,52083520,-24410370,41440670,-22226560,-9086914,178125
2026-01-14 16:42:02.791,-25523000,5230796,-2434131,-14010070,-21503910,-9042969,18154300
2026-01-14 16:42:02.801,-29654120,52575530,-24280900,-18165360,-19726560,-94140620,1796875
2026-01-14 16:42:02.851,-10914750,15514310,14731080,384110,-72216800,-9584961,14609380
2026-01-14 16:42:02.861,-65354720,54681660,-24021950,-54107650,-41210940,-8154297,13808590
2026-01-14 16:42:02.911,-64288710,42153640,-38932300,45005550,10722660,59716800,43310550
2026-01-14 16:42:02.921,-64599450,5699493,-2466067,43987010,14091800,90527340,29003910
2026-01-14 16:42:02.931,-16303510,20289610,12061900,-5517366,17900390,11748050,15734860
2026-01-14 16:42:02.941,-16804140,20287890,11994580,-6087056,21210940,13964840,-23899080
2026-01-14 16:42:02.951,-65160510,20226600,11865970,41337090,23515620,1625,-19909670
2026-01-14 16:42:02.961,-65220940,20115250,11683840,40637930,25488280,18388670,-3930664
2026-01-14 16:42:02.991,-18117880,5837602,-2807883,-7690822,30117190,21914060,-6904297
2026-01-14 16:42:03.001,-1813171,58367380,-28778010,-774604,31113280,20859380,-67333980
2026-01-14 16:42:03.011,-64659870,18805830,10023970,38885700,31425780,19257810,-6171875
2026-01-14 16:42:03.021,-17939210,18423450,9577706,-7610546,31445310,17011720,-4987793
2026-01-14 16:42:03.031,-13117820,5809118,-3093592,-12086680,30605470,14443360,-41748050
2026-01-14 16:42:03.041,-17544740,17621560,8670518,-7245426,29003910,11240230,-3371582
2026-01-14 16:42:03.071,-52699820,16479590,7430148,50362370,22832030,30029300,-2631836
2026-01-14 16:42:03.081,-63080280,56934520,-33698050,40102760,20859380,89416500,-25195310
2026-01-14 16:42:03.091,-16482180,15868470,6798308,-6150068,1890625,-55023190,-26513670
2026-01-14 16:42:03.101,-16362200,56433890,-34250490,-6011096,18066410,-17346190,-2788086
2026-01-14 16:42:03.131,-63097540,55760620,-34509430,41017720,18164060,-3088379,-4519043
2026-01-14 16:42:03.141,-63209750,55553460,-34492170,41129930,18544920,-2578125,-5019531
2026-01-14 16:42:03.171,-63555020,10778970,9885254,41440670,20332030,871582,-5649414
2026-01-14 16:42:03.181,-16300060,54862920,-34319540,-5779768,20449220,22143560,-5317383
2026-01-14 16:42:03.191,-63701760,54707550,-34285010,41690990,20214840,35058590,-515625
2026-01-14 16:42:03.201,-63744920,14584080,5700361,41837720,19960940,46777340,-515625
2026-01-14 16:42:03.211,-63744910,54405440,-34293640,42010360,19462890,5449219,-47509770
2026-01-14 16:42:03.221,-63736290,14389860,5532042,42191620,18271480,58154300,-43408200
2026-01-14 16:42:03.251,-15710510,5372355,-3447490,-5057299,14941410,7426758,-26098630
2026-01-14 16:42:03.261,-63615440,53525010,-34535320,43123840,1390625,7451172,-30273440
2026-01-14 16:42:03.271,-6358956,53300590,-34587120,4340872,13144530,70410160,-3659668
2026-01-14 16:42:03.281,-63555020,5305889,-3462162,43702170,12050780,6772461,-45922850
2026-01-14 16:42:03.311,-14759300,52238900,-34716590,-3936905,85595700,7363281,-40112300
2026-01-14 16:42:03.321,-63408280,51919520,-34742480,45178180,7368164,7524414,-43798830
2026-01-14 16:42:03.371,-130899300,11978180,3472529,-20327590,-18017580,7163086,-38793940
2026-01-14 16:42:03.381,-12737760,117986400,33240580,-1642603,-29052730,6191406,-328125
2026-01-14 16:42:03.411,-11644130,49027910,-34802910,-440213,2,-8300781,5283203,-5380249
2026-01-14 16:42:03.421,-112893700,48760330,-34777010,-526530,2,-96777340,4946289,-222,0869
2026-01-14 16:42:03.431,-10942370,48510010,-34733860,325416,3,-11513670,49291990,-20431520
2026-01-14 16:42:03.441,-61431620,68432520,67602660,51522470,-12851560,43237300,-28060910
2026-01-14 16:42:03.451,-10278600,108776400,26050390,1042711,-13642580,35864260,59692380
2026-01-14 16:42:03.461,-48744790,47940320,-34543960,-37399320,-1453125,4567871,21911620
2026-01-14 16:42:03.491,-6054257,4765547,-3422459,5344733,-19296880,14072270,87646480
2026-01-14 16:42:03.501,-9062392,68167440,67349840,2346955,-20390620,15996090,84521490
2026-01-14 16:42:03.511,-32594330,10936330,2770769,-31452700,-20488280,16132810,77685540
2026-01-14 16:42:03.521,-57398050,41496770,-40107070,56781740,-19326170,14892580,7636719
2026-01-14 16:42:03.551,-34275520,4809570,-3355994,-22866170,-14853520,8676758,7495117
2026-01-14 16:42:03.561,-8506516,48225170,-33499530,2895929,-12363280,41748050,5932617
2026-01-14 16:42:03.591,-31840520,116657100,34569850,-20467420,-5336914,-6123047,33050540
2026-01-14 16:42:03.601,-8183689,116916000,34656180,3177325,-34716800,-81591800,-118896500
2026-01-14 16:42:03.611,-80386780,79823140,71576430,33085210,-19824220,-9433594,-16259770
2026-01-14 16:42:03.621,-27418510,11661390,3392249,-16085130,-10687260,-9995117,-20019530
2026-01-14 16:42:03.631,-7600189,11614780,3318016,3715936,-8154297,-10224610,-17382810
2026-01-14 16:42:03.641,-22481200,11544000,3216163,-11182340,-13977050,-10556640,-7714844
2026-01-14 16:42:03.671,-13556050,11320440,2887296,-2326235,-47460940,-91259770,4411621
2026-01-14 16:42:03.681,-10608320,70771700,69924580,595588,5,-6020508,-74365230,5332031
2026-01-14 16:42:03.691,-28031360,11236710,2729337,-16853340,-6899414,-57177740,6381836
2026-01-14 16:42:03.701,-5575198,7392943,6538580,5576925,-69628900,-45166020,71240230
2026-01-14 16:42:03.731,-532571,5,74493940,65857080,10545320,-52197260,-101745600,85595700
2026-01-14 16:42:03.741,-49330020,113912200,27301990,61241730,-37451170,-8538818,8378906
2026-01-14 16:42:03.771,2348677,50736980,-36408410,13360970,24938960,-2902832,78222660
2026-01-14 16:42:03.781,3043527,50780140,-36468830,14047190,3840332,-28979490,79248050
2026-01-14 16:42:03.791,-45670190,50797400,-36520610,64314600,43139650,-1583252,8066406
2026-01-14 16:42:03.801,4946811,50771510,-36598300,15941840,41870120,51208500,77197260
2026-01-14 16:42:03.811,-43227430,7437306,6563268,66705580,39331060,24682620,7714844
2026-01-14 16:42:03.821,-41673720,50616140,-36822720,68259280,31201170,41381840,7207031
2026-01-14 16:42:03.851,-3555387,10815490,2062970,7439641,-8984375,21582030,65283200
2026-01-14 16:42:03.861,16253440,10641990,1891200,27250200,-24621580,18722530,6616211
2026-01-14 16:42:03.871,-30918660,49839280,-37651360,79083400,-3840332,-20043940,6254883
2026-01-14 16:42:03.881,20909370,103105400,15666490,31916480,-46484380,-4416504,59814450
2026-01-14 16:42:03.951,31396850,9591515,956388,3,42490280,-7871094,-1171875,15332030
2026-01-14 16:42:03.961,-18178310,48294220,-37849890,92928610,-69921870,-11552730,11102300
2026-01-14 16:42:03.991,-17884830,9303214,744051,4,93670940,-5805664,-10761720,26988980
2026-01-14 16:42:04.001,-17858940,47655470,-37798100,93817670,-55371100,-10556640,-46783450
2026-01-14 16:42:04.011,32562990,90831100,5498372,43741020,-51171880,-10341800,-1274414
2026-01-14 16:42:04.021,-1760862,8941552,415183,8,9425789,-50390620,-10302730,-17175290
2026-01-14 16:42:04.031,-55572440,47120310,-38091580,56345840,-5048828,-10146480,-25634770
2026-01-14 16:42:04.041,3350386,43756980,42905030,4469915,-49291990,-10449220,-2998047
2026-01-14 16:42:04.071,3557545,4628303,-3901517,4677073,-5136719,-11054690,-59033200
2026-01-14 16:42:04.081,-13914260,46041340,-39343170,97986770,-50878900,-11123050,-6254883
2026-01-14 16:42:04.091,-12938880,7330014,-1218792,98910350,-5419922,-10976560,-67822260
2026-01-14 16:42:04.101,-1194626,45557980,-40068230,9981670,-55908200,-10927730,-71533200
2026-01-14 16:42:04.131,-901146,22000410,13389450,10240620,-4987793,-95654300,-8901367
2026-01-14 16:42:04.141,-50875090,57486950,-28829790,60387200,-4309082,-9589844,-9057617
2026-01-14 16:42:04.171,-50357190,44057790,35353620,60335410,-16577150,-8388672,-99072260
2026-01-14 16:42:04.181,-5017595,43659520,-43658490,6029227,-6732178,-80029300,-10302730
2026-01-14 16:42:04.191,45848000,14458050,-73153440,56868920,70251460,-77441410,-10644530
2026-01-14 16:42:04.201,-283984,37478730,-50426240,10711050,18566900,-7597656,-10419920
2026-01-14 16:42:04.211,-54316540,-5601959,-14423530,55374780,30322270,-70947260,-10498050
2026-01-14 16:42:04.221,48219120,30711500,-57814960,59158910,42163090,-6557617,-10458980
2026-01-14 16:42:04.251,51026140,42277940,-47180740,61876160,77246100,-4086914,-10097660
2026-01-14 16:42:04.261,338359,16650500,-73101650,11159030,8745117,-3034668,-96972660
2026-01-14 16:42:04.271,465246,-27435780,-36438620,11256570,9980469,-18591310,-84814460
2026-01-14 16:42:04.281,-4781948,941715,5,-8088742,5980024,109375,-48980710,-7734375
2026-01-14 16:42:04.311,1074643,-182992,-9277324,11752030,13046880,8388672,-43847660
2026-01-14 16:42:04.321,1250727,-46716350,-55827940,11903940,13466800,11572270,-3125
2026-01-14 16:42:04.391,3018497,-3410376,-12540960,13537050,15888670,18652340,31469730
2026-01-14 16:42:04.401,3356856,37159360,-53922070,13871970,1421875,16328130,45336910
2026-01-14 16:42:04.411,-43624480,-4231249,-13308310,61543840,11640630,14296880,5488281
2026-01-14 16:42:04.421,-43322380,-8689163,-9592723,61949530,9267578,12509770,61035160
2026-01-14 16:42:04.431,-43063420,-9054196,-9952750,62381110,6689453,11308590,65185550
2026-01-14 16:42:04.441,4710303,34811540,-54474500,15280660,44995120,10664060,7011719
2026-01-14 16:42:04.491,5879031,31626460,-53947970,16649640,-5756836,8183594,9169922
2026-01-14 16:42:04.501,-42675000,31004970,-53758060,65514410,-67871100,6455078,94384770
2026-01-14 16:42:04.531,-4308069,-7926466,-16155900,6657610,-7944336,-335083,10478520
2026-01-14 16:42:04.541,-4322743,-8208722,-16357020,6689547,-7919922,-2220459,10732420
2026-01-14 16:42:04.571,-43486380,26430180,-52739520,67775900,-88964850,-5888672,11455080
2026-01-14 16:42:04.581,6715442,-9576843,-17423040,17867560,-9428711,-6142578,11796880
2026-01-14 16:42:04.591,-43382790,-9990303,-17769160,68345600,-10107420,-65185550,11767580
2026-01-14 16:42:04.601,-4322744,-10435690,-18152410,6863907,-10800780,-7001953,11669920
2026-01-14 16:42:04.611,-42977100,-10896630,-18554650,68923920,-11455080,-765625,11601560
2026-01-14 16:42:04.621,7689957,-11398130,-19002630,18878330,-12138670,-82470700,11113280
2026-01-14 16:42:04.671,-3989561,-14137820,-21545520,7065888,-18125,-10322270,8359375
2026-01-14 16:42:04.681,10360600,-14693700,-22077230,21369440,-19042970,-9980469,7475586
2026-01-14 16:42:04.691,10869870,-15256490,-22619300,21826910,-19951170,-9008789,6328125
2026-01-14 16:42:04.701,16278040,-15800280,-23145840,17368220,-20351560,-79345700,59472660
2026-01-14 16:42:04.711,-36917680,-16324220,-23657690,71496160,-20429690,-6401367,5292969
2026-01-14 16:42:04.721,-36140820,16115330,-57133040,71651530,-2078125,-42578120,50439450
2026-01-14 16:42:04.751,13803770,34397220,-38782110,24382760,-19833980,3642578,4206543
2026-01-14 16:42:04.761,19008070,-18704840,-26024500,20058890,-19267580,5961914,42919920
2026-01-14 16:42:04.771,14763610,13836570,-59394550,25201040,-19033200,76953130,46118160
2026-01-14 16:42:04.781,-31402030,-19503270,-26831560,72247110,-19003910,9560547,50341800
2026-01-14 16:42:04.791,15715690,-19872700,-27204450,26009820,-19072270,11074220,56640620
2026-01-14 16:42:04.801,-2980518,-20217110,-27550580,7242837,-19980470,12119140,6098633
2026-01-14 16:42:04.831,17580130,-21075100,-28401660,27615310,-22167970,10888670,6538086
2026-01-14 16:42:04.841,17985820,11626860,-61552470,27969210,-22871090,8886719,67089840
2026-01-14 16:42:04.891,19156270,10737800,-61923640,29008470,-20566410,-25854490,69873050
2026-01-14 16:42:04.901,19183030,33731720,-38860660,29033500,-18974610,-35668940,7998047
2026-01-14 16:42:04.911,19156270,10591060,-61949530,29008470,-17285160,-41015620,9272461
2026-01-14 16:42:04.921,-46894160,-22088450,-29339060,51696820,-16552730,-40014650,10576170
2026-01-14 16:42:04.931,18984500,-22124710,-29371860,28852230,-15527340,-38623050,12138670
2026-01-14 16:42:04.941,-4699173,10435700,-62001320,5175467,-15078130,-3244629,13476560
2026-01-14 16:42:04.971,-25886390,33559080,-38757080,72998060,-13310550,66070560,1640625
2026-01-14 16:42:04.981,18587450,10030000,-62217110,28472440,-12695310,10784910,16708980
2026-01-14 16:42:04.991,-25825970,9840106,-62303420,72937650,-12207030,17102050,16621090
2026-01-14 16:42:05.001,18684980,-22786760,-29987300,28547540,-12255860,1809082,16181640
2026-01-14 16:42:05.011,-2548936,9356736,-62493320,7294629,-12597660,21984860,15166020
2026-01-14 16:42:05.021,-25221760,9071886,-62605530,72972180,-13134770,1739502,13603520
2026-01-14 16:42:05.071,-2372849,32584570,-38160640,7310167,-13886720,11578370,6298828
2026-01-14 16:42:05.081,19978870,7181548,-63391020,29635990,-13789060,116882300,55908200
2026-01-14 16:42:05.091,20084180,6888072,-63511860,29720580,-13515630,15185550,45703120
2026-01-14 16:42:05.101,-23098360,32261740,-37965560,73058500,-12626950,17614750,36865230
2026-01-14 16:42:05.111,2023175,6318388,-63736280,2983193,-11845700,19995120,2980957
2026-01-14 16:42:05.121,20263720,32051130,-37830900,29851790,-11044920,18847660,22802730
2026-01-14 16:42:05.151,20265440,-25942500,-32873740,29832790,-9165039,96191410,10089110
2026-01-14 16:42:05.161,20239550,4989106,-64116080,29806900,-90527340,109191900,58502200
2026-01-14 16:42:05.171,20213650,4730156,-64150600,29781000,-859375,8074951,1626587
2026-01-14 16:42:05.181,-22882570,31342470,-37313860,72808180,-7944336,47424320,-36987300
2026-01-14 16:42:05.191,20151500,4212254,-64202390,29722310,-7631836,21652220,-793457
2026-01-14 16:42:05.201,-47622070,31074030,-37098940,48120460,-74072260,-335083,-1270752
2026-01-14 16:42:05.251,-2308110,276213,3,-6421966,7279954,-70410160,-33203120,-4272461
2026-01-14 16:42:05.261,-2308974,-27494470,-34170210,7280816,-6748047,-36987300,-4633789
2026-01-14 16:42:05.271,-23089730,2347812,-64202390,72825430,-6533203,-38623050,-47802740
2026-01-14 16:42:05.281,20079860,214927,5,-6419377,29673110,-6352539,-40234380,-4987793
2026-01-14 16:42:05.291,20097130,29965720,-36187430,29690370,-61328120,-41796880,-5385742
2026-01-14 16:42:05.301,-23029310,29862140,-36101110,72885860,-6118164,-43530270,-52978520
2026-01-14 16:42:05.331,-2285669,29582470,-35862880,7298946,-77783200,-14233400,-6958008
2026-01-14 16:42:05.341,-22778990,-31127290,-31780360,73032590,-8881836,14465330,-7495117
2026-01-14 16:42:05.351,20407000,1087590,-64081550,29984710,-95214850,21252440,-8203125
2026-01-14 16:42:05.361,-22614990,-31197550,-31848200,73127540,-10488280,36083980,-8598633
2026-01-14 16:42:05.371,-2253733,958116,-64021130,7318797,-11142580,47558590,-88623050
2026-01-14 16:42:05.381,-2246828,923592,-63986600,7323976,-1140625,5498047,-92285150
2026-01-14 16:42:05.431,-22373300,1027162,-63796700,73438290,-11689450,328125,-7211914
2026-01-14 16:42:05.441,-45379300,29277770,-35546090,50484080,-10869140,31835940,-6660156
2026-01-14 16:42:05.451,20709970,-28056400,-34540510,30303220,-10175780,27294920,-625
2026-01-14 16:42:05.461,-22502780,1165270,-63693120,73481450,-99609380,20898440,-5449219
2026-01-14 16:42:05.471,-22537300,-27995980,-34480090,73498700,-9555664,15795900,-52783200
2026-01-14 16:42:05.481,20677170,1191168,-63632700,30284230,-9345703,12097170,-51904300
2026-01-14 16:42:05.511,-2254595,-27978710,-34445560,7359364,-86865230,869751,-6381836
2026-01-14 16:42:05.521,-45522590,-27982160,-34442100,50634260,-8691406,52520750,-7348633
2026-01-14 16:42:05.531,20794570,29133630,-35379510,30408530,-8623047,4562378,-79248050
2026-01-14 16:42:05.541,20846360,-28016690,-34459380,30460310,-84375,-3781128,-8911133
2026-01-14 16:42:05.591,-2206257,28900570,-35146450,7399073,-6557617,-38500980,-11191410
2026-01-14 16:42:05.601,-4542422,802746,-63209750,5062909,-60791020,-41064450,-11376950
2026-01-14 16:42:05.611,21282250,811374,-63166590,30887580,-59716800,-46362300,-11513670
2026-01-14 16:42:05.621,21342680,-27936410,-34332480,30948000,-6176758,-5004883,-11484380
2026-01-14 16:42:05.651,21486820,1061692,-62950800,31097330,-84765620,-2265625,-11933590
2026-01-14 16:42:05.661,21529120,1173906,-62890380,31141350,-98535150,28549190,-1234375
2026-01-14 16:42:05.691,-45432820,29169010,-35275060,50724040,-13671880,11582030,-13378910
2026-01-14 16:42:05.701,21693120,29284680,-35366560,31305360,-13808590,13349610,-13251950
2026-01-14 16:42:05.731,-21285720,2736236,-62778160,74577660,-85009770,45043940,-10986330
2026-01-14 16:42:05.741,21894240,-26614910,-33202600,31466770,-60791020,16113280,-10429690
2026-01-14 16:42:05.751,-21078550,3331822,-62924900,74491350,-3869629,-33911130,-94628900
2026-01-14 16:42:05.761,21963290,3625302,-63028490,31501300,-13879400,-6098633,-8925781
2026-01-14 16:42:05.791,-2055203,31051580,-36948740,7410294,76220700,-74121100,-7182617
2026-01-14 16:42:05.801,-2034487,-29091510,-29776510,7396481,99365230,-64941410,-640625
2026-01-14 16:42:05.831,-1936951,5671012,-64383660,7355914,13056640,-38256840,-38964840
2026-01-14 16:42:05.841,22632250,5938590,-64633980,31868140,13339840,-2998047,-34643560
2026-01-14 16:42:05.911,24341320,8381356,-66196320,33128370,15390630,103393600,-27771000
2026-01-14 16:42:05.921,24526040,-24999060,-32522430,33254390,15664060,10095220,87768550
2026-01-14 16:42:05.951,-13724360,-24379310,-32106380,72074480,1640625,8935547,734375
2026-01-14 16:42:05.961,-13491310,10927690,-67033580,71893220,1703125,692749,95166020
2026-01-14 16:42:05.971,24949860,-23932180,-31793910,33452050,17333980,24047850,12167970
2026-01-14 16:42:05.981,2495676,1194624,-6730980,3342789,17958980,18237300,14228520
2026-01-14 16:42:05.991,24954170,-27118820,-27916740,33395950,17412110,3881836,15898440
2026-01-14 16:42:06.001,-12912980,-23358180,-31383910,71263100,17382810,36914060,18046880
2026-01-14 16:42:06.071,29418650,-22662460,-30681290,30260750,25664060,-4005432,28652340
2026-01-14 16:42:06.081,25805250,-2255285,-3053197,34253940,284375,-28295900,28652340
2026-01-14 16:42:06.091,-1218794,-22444940,-30380900,7260963,27441410,-58251950,28984380
2026-01-14 16:42:06.101,-12213820,-22330150,-30219490,72946270,26210940,-38989260,29121090
2026-01-14 16:42:06.111,-1230016,36591390,-41818740,7329156,26464840,-31445310,25742190
2026-01-14 16:42:06.121,-1244689,-22111760,-29902710,7362817,27460940,-36645510,2140625
2026-01-14 16:42:06.151,26062480,-21840730,-29483210,34859880,21152340,-78564460,20761720
2026-01-14 16:42:06.161,25843230,1239507,-6356367,34716590,18330080,-7783203,25449220
2026-01-14 16:42:06.171,25607590,35176660,-40281440,34555180,18007810,-57958980,28710940
2026-01-14 16:42:06.181,-1520902,1197213,-6296807,7499199,19003910,-34204100,29453120
2026-01-14 16:42:06.191,25191540,11652760,-62683220,34280700,20351560,-22033690,28261720
2026-01-14 16:42:06.201,25030990,-21891650,-29259650,34182290,20859380,-9240723,26132810
2026-01-14 16:42:06.251,24564880,-23018950,-29996800,33957870,43188480,-4928589,15253910
2026-01-14 16:42:06.261,24465610,7699452,-61233100,33901760,29101560,-38330080,13017580
2026-01-14 16:42:06.291,24075460,561057,3,-6080153,33635910,9597778,22265620,58691410
2026-01-14 16:42:06.301,23908010,30003700,-35579760,33509890,-27832030,30981440,4128418
2026-01-14 16:42:06.331,-20413910,2813926,-60369930,76778740,-3869629,4477539,1991272
2026-01-14 16:42:06.341,-20776450,2114754,-60292240,76761470,-49145510,6303711,-8343506
2026-01-14 16:42:06.351,22926590,1406962,-60223200,32713180,-6977539,7631836,-2142334
2026-01-14 16:42:06.361,22757410,-26695180,-32777060,32571620,-8178711,10107420,-33203120
2026-01-14 16:42:06.371,-2163962,-27081020,-33081760,7670968,-8823242,11923830,-49194340
2026-01-14 16:42:06.381,-2181227,-845904,-60024660,7670970,-9291992,13242190,-7807617
2026-01-14 16:42:06.411,-46585150,-3245512,-59834760,52074890,-11191410,12275390,-15
2026-01-14 16:42:06.421,-2179500,-4048258,-59774340,7681327,-11982420,10429690,-17099610
2026-01-14 16:42:06.431,22660730,-4851004,-59713920,32512930,-12890630,8496094,-18369140
2026-01-14 16:42:06.441,-2151013,-56451,5,-596621,3,7687369,-14033200,50683590,-19072270
2026-01-14 16:42:06.471,-20862760,-7967040,-59498130,76968640,-13544920,-19396970,-22011720
2026-01-14 16:42:06.481,-20595170,21960700,-28776270,77011790,-12880860,-2866211,-24804690
2026-01-14 16:42:06.511,23813930,-32631180,-37475280,33500390,-12539060,-12998050,-29160160
2026-01-14 16:42:06.521,23937360,-11462860,-59230550,33601380,-13359380,-16025390,-2984375
2026-01-14 16:42:06.531,-19360850,20011670,-27134530,77072220,-14443360,-17841800,-30292970
2026-01-14 16:42:06.541,-19222740,-12559090,-59170120,77037700,-13808590,-21816410,-28886720
2026-01-14 16:42:06.551,24118620,22737470,-23459250,33730860,-13154300,-23183590,-29316410
2026-01-14 16:42:06.561,2409876,19305600,-26563110,3369893,-12060550,-24042970,-28984380
2026-01-14 16:42:06.611,23672370,19284020,-26688270,33210370,-13652340,-21464840,-21738280
2026-01-14 16:42:06.621,23569650,-1398333,-6026636,33088660,-14072270,-20722660,-19853520
2026-01-14 16:42:06.631,23495420,-13888360,-60568460,32990260,-13935550,-18730470,-18974610
2026-01-14 16:42:06.641,-1915371,-13758890,-60887830,7550125,-13671880,-17421880,-17128910
2026-01-14 16:42:06.671,-4392056,20616750,-28134940,4954323,-13007810,-14394530,-13525390
2026-01-14 16:42:06.681,-18350940,20927490,-28462950,74612190,-13427730,-14042970,-13085940
2026-01-14 16:42:06.691,-18048830,21246000,-28800440,74379140,-14306640,-11894530,-12988280
2026-01-14 16:42:06.701,-17712200,21592130,-29162110,74146080,-14990230,-10292970,-12460940
2026-01-14 16:42:06.711,23715520,-12187920,-63667230,32839200,-15185550,-7919922,-11484380
2026-01-14 16:42:06.721,2381649,-11859920,-64116080,3287632,-14560550,-4663086,-11972660
2026-01-14 16:42:06.811,-39209380,26534630,-34094250,45070290,-12529300,17138670,82473750
2026-01-14 16:42:06.821,-1245553,27004190,-34539640,7123723,-94628900,15869140,2705078
2026-01-14 16:42:06.831,-12127510,-6327018,-68768550,71047310,-57958980,13632810,5371094
2026-01-14 16:42:06.841,-11842660,-5774590,-69027500,70883310,-27197270,12021480,7104492
2026-01-14 16:42:06.851,25446170,-34052820,-40455800,33680790,-5517578,10419920,96875
2026-01-14 16:42:06.861,29179370,-4747420,-69484980,29999380,14819340,77978510,11552730
2026-01-14 16:42:06.871,25504870,-33724820,-40265900,33673890,40454100,77001950,11777340
2026-01-14 16:42:06.881,25492780,-3858356,-69907940,33634180,28915400,49023440,14521480
2026-01-14 16:42:06.911,25331370,-276215,3,-7045174,33415800,-17248540,61376950,16318360
2026-01-14 16:42:06.921,25232110,-244278,-7059848,33307910,-23547360,56396480,17617190
2026-01-14 16:42:06.931,-37453700,30642440,-37927580,43286980,-1842041,48535160,17734380
2026-01-14 16:42:06.941,25016320,30834070,-38098490,33092120,881958,35546880,18398440
2026-01-14 16:42:06.951,-1148878,-32755480,-39681540,6935549,18322750,25097660,18701170
2026-01-14 16:42:06.961,24756500,-32645850,-39601260,32851290,16430660,19165040,19599610
2026-01-14 16:42:07.011,24134160,31718810,-38836490,32316990,-35107420,17028810,2078125
2026-01-14 16:42:07.021,24036620,31791320,-38884830,32241890,-41259770,1027832,20742190
2026-01-14 16:42:07.051,23694810,-31491800,-38597400,31979490,-8334961,50146480,19433590
2026-01-14 16:42:07.061,23567060,725060,-70486260,31882820,-10400390,8417969,19208980
2026-01-14 16:42:07.071,-1415598,992640,-70391300,6934688,-10595700,10556640,19365230
2026-01-14 16:42:07.081,23273580,1277488,-70279100,31658390,-10742190,11337890,20332030
2026-01-14 16:42:07.091,-39381160,1579596,-70149620,44846730,-10478520,12382810,20546880
2026-01-14 16:42:07.101,-1512271,32543140,-39358710,6948499,-9980469,11279300,21386720
2026-01-14 16:42:07.131,22381070,-29865590,-37098940,30962680,-7524414,30004880,2171875
2026-01-14 16:42:07.141,22161820,2891610,-69545410,30784870,-8564453,-55007940,22734380
2026-01-14 16:42:07.151,-1706485,3046982,-69441820,6957993,-9868164,-101867700,23105470
2026-01-14 16:42:07.161,21689670,317644,3,-6934689,30393850,-90478510,-18518070,234375
2026-01-14 16:42:07.171,-17893460,-29382220,-36632830,69545400,-52685550,-36767580,23027340
2026-01-14 16:42:07.181,-41330190,3254142,-69182870,46453940,-18664550,-67626950,23242190
2026-01-14 16:42:07.191,21023300,-29338200,-36573270,29834520,17700200,-74316410,23105470
2026-01-14 16:42:07.201,-18903370,3107398,-69087920,69450450,39746100,-73876950,23515620
2026-01-14 16:42:07.211,-19101900,-29451280,-36650090,69441820,6347656,-63964840,22851560
2026-01-14 16:42:07.221,24666390,271033,8,-6905341,25552690,81396480,-6044922,22089840
2026-01-14 16:42:07.231,-41788520,-29768060,-36920260,46806980,8305664,-53027340,20195310
2026-01-14 16:42:07.241,20704800,-29997660,-37122240,29548810,7392578,-49438480,18818360
2026-01-14 16:42:07.251,20804920,-33472770,-34182290,29621310,69677740,-54248050,17236330
2026-01-14 16:42:07.261,-18558100,31906980,-38734640,69226030,6040039,-39257810,15205080
2026-01-14 16:42:07.271,21122570,31708460,-38605170,29856100,5,-42773440,13925780
2026-01-14 16:42:07.281,-40824360,34644170,-35341440,45958480,4519043,-40893560,12861330
2026-01-14 16:42:07.291,25429600,31293270,-38347080,26291390,28686520,-28979490,10771480
2026-01-14 16:42:07.301,21782890,-102718,8,-7033953,30335160,22814940,-21435550,8496094
2026-01-14 16:42:07.311,22006450,-1605488,-70589830,30491390,16333010,-14404300,6904297
2026-01-14 16:42:07.321,-1566650,30676970,-37979370,6852688,1743164,-21377560,60253900
2026-01-14 16:42:07.331,-15174480,30463770,-37847300,68362860,23352050,15588380,49926760
2026-01-14 16:42:07.341,-1470838,-331456,5,-7129763,6820749,17944340,3479004,42749020
2026-01-14 16:42:07.351,-1426817,33442040,-34195760,6806077,-41107180,5839844,46923830
2026-01-14 16:42:07.361,-13845200,-3466743,-4139492,67948540,6015625,6748047,18615720
2026-01-14 16:42:07.371,23132890,29612690,-37282800,31263930,83740230,4724121,36621100
2026-01-14 16:42:07.381,-13120150,2939082,-3712483,67741380,6958008,5097656,55847170
2026-01-14 16:42:07.391,-1282669,29154340,-36947020,6765508,41455080,7036133,79711910
2026-01-14 16:42:07.401,-12593610,-639610,-7210037,67577380,28710940,7133789,13537600
2026-01-14 16:42:07.411,-1239512,-6853552,-72143540,6751696,39990230,7192383,7757568
2026-01-14 16:42:07.421,-39576230,-7302396,-72160800,40128650,5878906,7373047,14854430
2026-01-14 16:42:07.431,23694810,-7716720,-72160800,31651490,7421875,703125,-53863520
2026-01-14 16:42:07.441,23744010,-36935800,-43338780,31688600,74609380,80126950,-11138920
2026-01-14 16:42:07.451,23817380,27768960,-35829220,31753340,96972660,10576170,-47216800
2026-01-14 16:42:07.461,23942540,-8847466,-72014060,31869870,14589840,10634770,-10751950
2026-01-14 16:42:07.471,24110850,27296800,-35403680,32029550,18085940,7998047,-165625
2026-01-14 16:42:07.481,24294710,27073240,-35195650,32208230,17519530,4260254,-20097660
2026-01-14 16:42:07.491,24469070,-9736532,-71591100,32379140,14208980,61279300,-21230470
2026-01-14 16:42:07.501,24607170,26666690,-34808090,32517240,8183594,-15979000,-18447270
2026-01-14 16:42:07.511,-10901800,-1015088,-7133216,68216130,3930664,-51464840,-14208980
2026-01-14 16:42:07.521,-10875910,-1029762,-7128900,68242020,-30029300,-62683100,-12734380
2026-01-14 16:42:07.531,-10893170,26336100,-34499940,68276540,-63671880,5290985,-9223633
2026-01-14 16:42:07.541,-1097088,-37800690,-43872210,6830242,-10458980,2915039,-57373050
2026-01-14 16:42:07.551,-11048550,26195400,-34364420,68345600,-11494140,6191406,-18432620
2026-01-14 16:42:07.561,-36890910,-1067740,-7103004,42624070,-95751950,98095700,17883300
2026-01-14 16:42:07.571,24753910,25933860,-34108060,32715770,-57666020,9926758,37597660
2026-01-14 16:42:07.581,-1096224,25733610,-33911260,6870815,-2956543,90527340,49291990
2026-01-14 16:42:07.591,25080190,25495380,-33683380,33045500,-3227539,75927740,48046880
2026-01-14 16:42:07.601,-1046162,-11678650,-70339510,6907066,-578125,4951172,42822260
2026-01-14 16:42:07.611,-10090430,24943810,-33164620,69251920,-98583980,6304932,37890620
2026-01-14 16:42:07.621,-9650214,-12446880,-69985620,69415920,-15146480,21899410,19726560
2026-01-14 16:42:07.631,-9184104,-38481730,-44175180,69588560,-16230470,9661865,-32714840
2026-01-14 16:42:07.641,26616630,-13284150,-69614460,34461100,-14257810,-15342710,-24145510
2026-01-14 16:42:07.651,-817419,8,-1371574,-6942456,6992519,-125,-20166020,-50439450
2026-01-14 16:42:07.661,-768220,8,23383200,-31721400,7007194,-12119140,-45361330,-6508789
2026-01-14 16:42:07.671,-7233342,23103540,-31465900,70192780,-12333980,-41796880,-87890620
2026-01-14 16:42:07.681,27882900,-39211110,-44619720,35594440,-12685550,-53564450,-10644530
2026-01-14 16:42:07.691,-35224140,-15157220,-68846240,41615030,-12558590,-6142578,-11220700
2026-01-14 16:42:07.701,-618892,3,22463930,-30879820,7044310,-11230470,-5756836,-11503910
2026-01-14 16:42:07.711,28433600,-15588810,-68690860,36079540,-10625,-53759770,-11757810
2026-01-14 16:42:07.721,-5817750,-1572694,-6863908,70503510,-11298830,-43139650,-109375
2026-01-14 16:42:07.731,28600190,22174770,-30616550,36223680,-13271480,-23083500,-8979492
2026-01-14 16:42:07.741,28655430,-15865020,-68587280,36272020,-12978520,-41015620,-7783203
2026-01-14 16:42:07.751,32117680,-15899550,-68570020,32878820,-11708980,-8288574,-7167969
2026-01-14 16:42:07.761,-37714470,-15899550,-68552760,38365120,-11367190,54626460,-69921870
2026-01-14 16:42:07.771,-5481118,22114350,-30556130,70598460,-12910160,-3414917,-6777344
2026-01-14 16:42:07.781,-34783060,22142830,-30579430,41296520,-13320310,-14697270,-6220703
2026-01-14 16:42:07.791,2876157,-15744170,-68535500,3637301,-12128910,-21655270,-7080078
2026-01-14 16:42:07.801,28741750,-1564061,-6855277,36358340,-11757810,-4050293,-69677740
2026-01-14 16:42:07.811,-561923,5,22329280,-30738260,7063300,-12763670,-5678711,-65478520
2026-01-14 16:42:07.821,32047420,-39338860,-44664600,32810980,-13203130,-6381836,-58496100
2026-01-14 16:42:07.831,28493150,22545930,-30935920,36140820,-12753910,-4567871,-5419922
2026-01-14 16:42:07.841,28364540,22680590,-31060220,36027750,-14169920,-65966800,-46923830
2026-01-14 16:42:07.851,-3518101,-14837850,-68872140,4158913,-13779300,-7426758,-20800780
2026-01-14 16:42:07.861,-659460,-1463070,-6899298,7033088,-14169920,-59472660,-62927250
2026-01-14 16:42:07.871,-683630,3,23167420,-31522880,7022732,-13896480,-51416020,16455080
2026-01-14 16:42:07.881,-706934,5,-1424227,-6926056,7009783,-12802730,-4255371,38549800
2026-01-14 16:42:07.891,-7276504,-1404377,-6940730,69976980,-12734380,-36987300,6484375
2026-01-14 16:42:07.901,-744051,8,23664600,-32009700,6983025,-13955080,-16137700,81396480
2026-01-14 16:42:07.911,-35518480,23802700,-32147810,41735010,-14033200,17236330,9453125
2026-01-14 16:42:07.921,-35492580,-13646680,-69838880,41691850,-16855470,-57373050,11289060
2026-01-14 16:42:07.931,27091370,24004680,-32360150,34797730,-14697270,44384770,12128910
2026-01-14 16:42:07.941,-38451020,24070280,-32432650,38457200,-11689450,36572260,1109375
2026-01-14 16:42:07.951,27118130,27884620,-28721900,34788240,-95410160,22802730,11806640
2026-01-14 16:42:07.961,27155250,24145380,-32530190,34802910,-11025390,44921880,11181640
2026-01-14 16:42:07.971,27202720,24155740,-32554360,34824490,-128125,41577150,9765625
2026-01-14 16:42:07.981,-694851,3,24156600,-32570760,6904477,-14208980,33911130,84375
2026-01-14 16:42:07.991,27284720,-13776150,-70503520,34863330,-14638670,34179690,70458980
2026-01-14 16:42:08.001,27317520,-1384522,-7053806,34882320,-1390625,15734860,6323242
2026-01-14 16:42:08.011,27314070,-1389701,-7058985,34868510,-11933590,25558470,6064453
2026-01-14 16:42:08.021,27290760,24144520,-32600110,34840030,-10166020,11956790,62353520
2026-01-14 16:42:08.031,27231210,-1389701,-7071069,34778740,-82373050,16723630,7441406
2026-01-14 16:42:08.041,27169920,24218750,-32681250,34719180,-61865230,17504880,85839840
2026-01-14 16:42:08.051,-34667390,24270540,-32733030,40842490,-4333496,28955080,9970703
2026-01-14 16:42:08.061,-693989,5,-13776150,-70866050,6858728,-21264650,3022461,11835940
2026-01-14 16:42:08.071,-698302,8,-1377615,-7088331,6856139,5496216,38720700,14697270
2026-01-14 16:42:08.081,-6974394,28121390,-28968500,68535500,-13989260,947876,16425780
2026-01-14 16:42:08.091,-6888072,-39555510,-45259320,68500970,31030270,18933100,14589840
2026-01-14 16:42:08.101,-6767234,2424548,-3274080,68449180,13769530,2434082,10986330
2026-01-14 16:42:08.111,-662052,3,-14061000,-70978260,6844054,90722660,87109380,14672850
2026-01-14 16:42:08.121,-34387730,-14095530,-70943730,40586990,21191410,12636720,-47216800
2026-01-14 16:42:08.131,27340830,-39629740,-45305930,34841750,31933590,12548830,-61865230
2026-01-14 16:42:08.141,-6335650,24072880,-32550910,68759920,38066410,13505860,-6533203
2026-01-14 16:42:08.151,-6249340,-14069630,-70503520,68967080,39570310,13730470,-5751953
2026-01-14 16:42:08.161,-616303,23886440,-32323030,6919151,36503900,12275390,-45629880
2026-01-14 16:42:08.171,27913110,23775940,-32191830,35460650,2953125,10419920,-20373540
2026-01-14 16:42:08.181,-34594020,2743455,-2827424,40967660,19951170,8930664,14978030
2026-01-14 16:42:08.191,-5757328,-14199110,-69631720,69856140,99316410,75097660,49853520
2026-01-14 16:42:08.201,-5567430,-14328580,-69433180,70046030,31982420,6357422,72802740
2026-01-14 16:42:08.211,28660610,23192440,-31566900,36215050,-8532715,5410156,77441410
2026-01-14 16:42:08.221,28865180,23009450,-31387360,36407540,-30908200,47265620,6069336
2026-01-14 16:42:08.231,-34351480,-41671220,-42211390,40916720,-4206543,63916020,6123047
2026-01-14 16:42:08.241,-454027,5,22617580,-31019650,7053805,-49536130,7426758,70947260
2026-01-14 16:42:08.251,29437460,22410420,-30829750,36922850,-5800781,88720700,73046870
2026-01-14 16:42:08.261,29631670,-15787330,-68613180,37091170,-72314460,9633789,7441406
2026-01-14 16:42:08.271,-359942,21957250,-30419750,7070205,-88720700,10927730,6767578
2026-01-14 16:42:08.281,-3228248,21704340,-30189280,70762460,-95458980,11230470,62158200
2026-01-14 16:42:08.291,-2822560,21433310,-29942410,70822890,-89697260,95654300,49804690
2026-01-14 16:42:08.301,-2408244,-17246090,-68086650,70891940,-89697260,7988281,39038090
2026-01-14 16:42:08.311,30828020,20864480,-29423650,38121790,-87646480,64746100,27612300
2026-01-14 16:42:08.321,-157096,8,-1805746,-6777591,7100415,-7944336,50146480,1541748
2026-01-14 16:42:08.331,31329530,-40589580,-45502740,38552510,-71972660,35766600,43121340
2026-01-14 16:42:08.341,-785484,-40738910,-45595100,71116370,-71484380,22875980,-15235900
2026-01-14 16:42:08.351,-32266060,-40880470,-45677960,39342310,-6796875,15356450,-15246580
2026-01-14 16:42:08.361,-8631,75,-4100477,-4574356,7126310,-62597660,140625,-32226560
2026-01-14 16:42:08.371,-31992440,19036290,-27730120,39149820,-4880371,8709717,-47729490
2026-01-14 16:42:08.381,32427470,18717780,-27427150,39526160,-38232420,11299130,-50146480
2026-01-14 16:42:08.391,32605290,-2084551,-6636896,39693620,-30737300,-84472660,-5161133
2026-01-14 16:42:08.401,32763240,18094580,-26824660,39846400,-34326170,-11578370,-61816410
2026-01-14 16:42:08.411,1018536,-41469150,-45900660,71867330,-42626950,-2331543,-72998050
2026-01-14 16:42:08.421,-31803410,-21855400,-65566200,39114430,-5131836,-22607420,-88623050
2026-01-14 16:42:08.431,33096430,-41553740,-45867860,40203750,-6738281,-34399420,-9526367
2026-01-14 16:42:08.441,107893,3,-22416460,-65005140,7235932,-72314460,-38378900,-10410160
2026-01-14 16:42:08.451,33193960,-22658150,-64711660,40347900,-43823240,-3762207,-10205080
2026-01-14 16:42:08.461,-32244480,16402770,-25132840,39605570,-33666990,-5332031,-8754883
2026-01-14 16:42:08.471,725064,16155900,-24879070,72920380,-30541990,-5205078,-8300781
2026-01-14 16:42:08.481,-32586300,-41545980,-45599410,39954290,-4008789,-53564450,-7685547
2026-01-14 16:42:08.491,33205180,-23529940,-63546380,40492040,-4885254,-5053711,-70166020
2026-01-14 16:42:08.501,27621,5,-2376300,-6324428,7347281,-5258789,-46850580,-68115230
2026-01-14 16:42:08.511,17260,5,-24021950,-62933540,7366270,-4921875,-49072260,-6743164
2026-01-14 16:42:08.521,86316,-24306790,-62596900,73852610,-44702150,-46411130,-7416992
2026-01-14 16:42:08.531,2586,75,-24608910,-62243010,7405113,-33276370,-60839840,-8208008
2026-01-14 16:42:08.541,33403720,14139550,-22821290,40828680,-32177730,-72314460,-94677740
2026-01-14 16:42:08.551,-33509890,-41585680,-45214440,40946940,-38867190,-87939460,-10595700
2026-01-14 16:42:08.561,-8634,5,-25584280,-61215840,7457766,-4333496,-10625,-11435550
2026-01-14 16:42:08.571,-14674,25,-2590366,-6091373,7470714,-45410160,-12548830,-12685550
2026-01-14 16:42:08.581,33534920,-26205770,-60646140,41042750,-4814453,-1421875,-13701170
2026-01-14 16:42:08.591,33488310,-26481980,-60421720,41020310,-4831543,-15322270,-13828130
2026-01-14 16:42:08.601,-60423,5,-41811830,-45160920,7497470,-53125,-16699220,-13222660
2026-01-14 16:42:08.611,-34221140,12211230,-20917130,41634020,-50683590,-18330080,-11972660
2026-01-14 16:42:08.621,-1165276,-2716391,-6001603,74983360,-5126953,-18349610,-98535150
2026-01-14 16:42:08.631,-1510544,11938470,-20672000,74931570,-5986328,-17783200,-7158203
2026-01-14 16:42:08.641,-188171,5,11834890,-20585680,7487115,-6748047,-17148440,-44848630
2026-01-14 16:42:08.651,-34888360,11737350,-20510580,42140700,-7216797,-15478520,-1385498
2026-01-14 16:42:08.661,-262405,5,-27940730,-60016030,7466397,-64208980,-13427730,6994629
2026-01-14 16:42:08.671,31902670,11531920,-20353490,39653910,-6074219,-11142580,2590332
2026-01-14 16:42:08.681,-3314564,11405890,-20255090,74405040,-4248047,-90722660,34521480
2026-01-14 16:42:08.691,31425330,-28674420,-60093720,39216290,-33374020,-67626950,40014650
2026-01-14 16:42:08.701,3119228,11126230,-20034120,3900050,-38208010,-47851560,43017580
2026-01-14 16:42:08.711,30959230,14977940,-15871670,38784700,-41430660,-3347168,46166990
2026-01-14 16:42:08.721,30726170,10785280,-19753590,38568910,-2836914,-12133790,46948240
2026-01-14 16:42:08.731,30483620,-43488100,-46505740,38345350,-13769530,16430660,46728520
2026-01-14 16:42:08.741,-525669,5,10383040,-19413500,7358503,3111267,3137207,49804690
2026-01-14 16:42:08.751,29941550,10177600,-19239140,37851620,1508789,44848630,5239258
2026-01-14 16:42:08.761,-6102596,-44012040,-46914010,73291550,26586910,7167969,5678711
2026-01-14 16:42:08.771,-661187,3,9748612,-18874020,7312755,43701170,96435540,64697260
2026-01-14 16:42:08.781,-7198818,-31678250,-59886560,72954910,578125,10859380,6928711
2026-01-14 16:42:08.791,28434460,-3204943,-5984342,36492990,55908200,12050780,7729492
2026-01-14 16:42:08.801,27953670,-32437830,-59817500,36058820,53027340,15888670,86816410
2026-01-14 16:42:08.811,27446140,8833654,-18097170,35599620,5395508,19267580,97314460
2026-01-14 16:42:08.821,26911830,-33292370,-59722550,35115380,67333980,23046880,10283200
2026-01-14 16:42:08.831,-10763700,-33775740,-59636240,71772370,8334961,25996090,10957030
2026-01-14 16:42:08.841,-38509350,7911791,-17292690,44510090,96875,27792970,11386720
2026-01-14 16:42:08.851,-12222450,7520775,-16941390,71263100,10419920,28710940,11035160
2026-01-14 16:42:08.861,24859220,7077109,-16539150,33249210,11298830,2953125,10390630
2026-01-14 16:42:08.871,-13525840,6590280,-16093760,70771100,1234375,28828120,8979492
2026-01-14 16:42:08.881,-14095520,6061159,-15604340,70546670,13300780,2734375,67871100
2026-01-14 16:42:08.891,-39682400,5488016,-15072630,45253280,12578130,26269530,3947754
2026-01-14 16:42:08.901,-15088170,9212151,-10174590,70123720,12294920,24277340,11053470
2026-01-14 16:42:08.911,-15519760,-39248220,-57374740,69933820,12578130,209375,-14941410
2026-01-14 16:42:08.921,-15942710,83673900,-84643750,69752560,12871090,17197270,-40185550
2026-01-14 16:42:08.931,-16339760,-40905500,-56407990,69579930,13046880,13203130,-6621094
2026-01-14 16:42:08.941,-16745450,65811340,-75575490,69398660,13427730,98095700,-87353520
2026-01-14 16:42:08.951,-17159770,-42588680,-55363560,69226030,13466800,7011719,-11142580
2026-01-14 16:42:08.961,-17582730,52057620,-61880480,69027500,12734380,5,-1265625
2026-01-14 16:42:08.971,-43171840,89767,-9940234,43680070,11621090,2529297,-13691410
2026-01-14 16:42:08.981,20728960,38652640,-48527280,29438330,10244140,22253420,-14736330
2026-01-14 16:42:08.991,-1892065,32340300,-42237380,6841467,99902340,17126460,-14658200
2026-01-14 16:42:09.001,-19412640,30664370,-31656320,68181600,8178711,31201170,-13896480
2026-01-14 16:42:09.011,19612020,-47189370,-52213000,28397340,609375,46948240,-13427730
2026-01-14 16:42:09.021,-2044847,-47871260,-51720990,6766368,40405270,52783200,-12929690
2026-01-14 16:42:09.031,18792020,8389986,-18368200,27629130,265625,5292969,-1203125
2026-01-14 16:42:09.041,22361730,2684450,-12679930,23248030,11376950,56591800,-109375
2026-01-14 16:42:09.051,17956470,15709650,-25722390,26841920,-124694800,48364260,-10302730
2026-01-14 16:42:09.061,17539560,-39541700,29511690,26447450,-22766110,4182129,-87158200
2026-01-14 16:42:09.071,-4247388,-13826220,3782400,4679489,-2980957,36572260,-68115230
2026-01-14 16:42:09.081,16744590,-19185620,9126270,25688730,-33398440,36547850,-5488281
2026-01-14 16:42:09.091,-2395290,-6987341,-3085823,6564388,-4152832,44067380,-42382810
2026-01-14 16:42:09.101,16004850,-52920800,-47948950,24978340,-3959961,50634770,-27172850
2026-01-14 16:42:09.111,-24755640,-8079250,-2019811,65065560,-44311520,6040039,-24938960
2026-01-14 16:42:09.121,15358340,-54129230,-46964940,24347360,-44677740,6948242,-27148440
2026-01-14 16:42:09.131,-2540302,-9202228,-915820,6,6453903,-37451170,6699219,-15649410
2026-01-14 16:42:09.141,-25713760,-55346300,-45920510,64280080,-21813960,59033200,-5532837
2026-01-14 16:42:09.151,14506390,-55950510,-45385340,23507500,-20117190,57470700,-40512080
2026-01-14 16:42:09.161,-2629209,-6359300,5345251,6373628,-19958500,62402340,-2003479
2026-01-14 16:42:09.171,-43179090,-11495670,1348269,46866540,-3232422,61865230,-34362790
2026-01-14 16:42:09.181,-43208440,-12076580,1924002,46837190,-3930664,7109375,-4248047
2026-01-14 16:42:09.191,13338530,-126479900,24919640,22344810,-3762207,83447260,40740970
2026-01-14 16:42:09.201,13035560,-86389250,76231490,22043570,-3869629,10322270,20584110
2026-01-14 16:42:09.211,-27819880,-91914390,81754900,62277520,-5463867,12626950,-26901240
2026-01-14 16:42:09.221,-28139260,-14307000,4147521,61975420,-6982422,15498050,-10095220
2026-01-14 16:42:09.231,12092110,-14842170,4682683,21105310,-89160160,19306640,-31054690
2026-01-14 16:42:09.241,11771880,-15385100,5227342,20786800,-11220700,2171875,-41796880
2026-01-14 16:42:09.251,-29123270,-15943570,5790992,61043200,-13222660,24003910,-5966797
2026-01-14 16:42:09.261,-29434010,-16518440,6372767,60732460,-14394530,24296880,-69677740
2026-01-14 16:42:09.271,10829300,-17117470,6982162,19847670,-15556640,24160160,-8461914
2026-01-14 16:42:09.281,10509060,-63296070,-37918950,19529160,-16220700,23066410,-8979492
2026-01-14 16:42:09.291,-30418020,-63874390,-37167990,59800240,-16181640,203125,-82128900
2026-01-14 16:42:09.301,9841832,-51830620,-49021870,18867110,-15712890,15634770,-7290039
2026-01-14 16:42:09.311,-31143090,-51788320,-48839740,59126970,-15966800,9980469,-70166020
2026-01-14 16:42:09.321,-31531510,-65652520,-34733860,58755800,-17636720,5004883,-7915039
2026-01-14 16:42:09.331,-31945830,-66230840,-33879320,58393280,-16933590,-61767580,-7705078
2026-01-14 16:42:09.341,8290722,-51597560,-48219120,17328080,-15986330,-6401367,-6303711
2026-01-14 16:42:09.351,7873814,-22574420,12625550,16916360,-16025390,-103125,-6503906
2026-01-14 16:42:09.361,-44031900,-5140941,-4775127,46428050,-17275390,-15048830,-65771480
2026-01-14 16:42:09.371,7050352,-23920960,14041140,16099800,-17226560,-20273440,-5498047
2026-01-14 16:42:09.381,6660199,-68872130,-29546220,15713100,-17734380,-246875,-45874020
2026-01-14 16:42:09.391,-34449020,-51034770,-46969250,56114510,-17333980,-29238280,-32641600
2026-01-14 16:42:09.401,10051760,-6975257,-2781989,10957740,-17958980,-33710940,-21484380
2026-01-14 16:42:09.411,5689138,-26444000,16731640,14750670,-17529300,-38125,-6109619
2026-01-14 16:42:09.421,5445723,-70512140,-26162600,14510710,-16699220,-421875,16845700
2026-01-14 16:42:09.431,-35579760,-27538500,17915900,55104610,-16308590,-45859380,33642580
2026-01-14 16:42:09.441,5037447,-28025320,18447610,14107610,-16269530,-49140620,5180664
2026-01-14 16:42:09.451,4872580,-5005941,-4532062,13944470,-16298830,-5046875,6640625
2026-01-14 16:42:09.461,-36114920,-24566090,23615920,54638500,-16416020,-51328120,80029300
2026-01-14 16:42:09.471,4584281,-71772370,-22917100,13663080,-15878910,-50742190,8432617
2026-01-14 16:42:09.481,-36408400,-29425380,19982330,54396810,-16123050,-48828120,8769531
2026-01-14 16:42:09.491,4332235,-47369510,-46871120,13414480,-16884770,-4578125,78466800
2026-01-14 16:42:09.501,-36667350,-29779280,20370750,54189650,-17851560,-41835940,62646480
2026-01-14 16:42:09.511,82118300,-29894080,20497630,91205720,-18408200,-378125,51416020
2026-01-14 16:42:09.521,4052571,-72212590,-21665500,13141720,-18818360,-34160160,3876953
2026-01-14 16:42:09.531,-36900410,-7222988,-2157917,54025650,-19326170,-309375,24780270
2026-01-14 16:42:09.541,4023225,-30046860,20672860,13119280,-18876950,-26191410,8581543
2026-01-14 16:42:09.551,4064657,-30060670,20693580,13164170,-17158200,-21699220,52764890
2026-01-14 16:42:09.561,82282300,-49330890,-44253740,91386990,-15732420,-19541020,6652832
2026-01-14 16:42:09.571,4231249,-30043410,20693570,13342840,-14296880,-17392580,53253180
2026-01-14 16:42:09.581,-36710510,-72039950,-21372030,54509020,-11992190,-13994140,8892822
2026-01-14 16:42:09.591,-36658720,-7192777,-2139791,54664400,-9399414,-9980469,8880615
2026-01-14 16:42:09.601,4516092,-7180691,-2144971,13662210,-68066410,-5317383,11608890
2026-01-14 16:42:09.611,4595504,-7166880,-2153603,13755440,-5385742,5718994,24291990
2026-01-14 16:42:09.621,4664555,-49062440,-44073330,13841750,-52490230,6582031,-7446289
2026-01-14 16:42:09.631,-36650090,-25289950,24359450,55311770,-6064453,12382810,-14318850
2026-01-14 16:42:09.641,4808707,-29366680,20075550,14025610,-63671880,16923830,-117614700
2026-01-14 16:42:09.651,4883802,-29272600,19997000,14123140,-6069336,20273440,-28747560
2026-01-14 16:42:09.661,-36745040,-70831530,-21717290,55907350,-5161133,22714840,15441900
2026-01-14 16:42:09.671,5004644,-70658890,-21665500,14295780,-48632810,24648440,28295900
2026-01-14 16:42:09.681,-36891780,-24905230,23984580,56295780,-5385742,26640620,37719730
2026-01-14 16:42:09.691,-37003990,-70304990,-21484230,56477040,-6069336,28398440,45263670
2026-01-14 16:42:09.701,-37124830,-70149620,-21346130,56649680,-6772461,30039060,40698240
2026-01-14 16:42:09.711,5058163,-28968760,19851990,14466690,-7817383,31640620,39697260
2026-01-14 16:42:09.721,-37435570,-6984754,-2094043,56960420,-8071289,328125,5209961
2026-01-14 16:42:09.731,5017593,-6972667,-2064697,14489990,-8095703,34023440,6635742
2026-01-14 16:42:09.741,5002054,-69623090,-20301700,14505530,-77734380,34882810,74072260
2026-01-14 16:42:09.751,-37901680,-29287270,20344860,57426530,-8261719,34589840,74658200
2026-01-14 16:42:09.761,-38031160,-69441820,-19447160,57590530,-81884770,33789060,66308590
2026-01-14 16:42:09.771,-38152000,-69381410,-18920630,57763160,-8310547,32851560,53515620
2026-01-14 16:42:09.781,5030541,-29873360,21105310,14649680,-7783203,31660160,39697260
2026-01-14 16:42:09.791,-38341900,-46091420,-40933120,58108430,-7207031,29472660,28271480
2026-01-14 16:42:09.801,5083192,-45780680,-40553330,14752390,-5756836,26152340,24902340
2026-01-14 16:42:09.811,-38497270,-69320980,-16305230,58401910,-44506840,22226560,17944340
2026-01-14 16:42:09.821,-38583580,-45148840,-39769580,58505490,-30419920,17714840,21057130
2026-01-14 16:42:09.831,5098730,-3151253,2309146,14823170,-26293940,12744140,16101070
2026-01-14 16:42:09.841,-38747590,-69493620,-14043730,58617700,-19592280,8769531,501709
2026-01-14 16:42:09.851,9413187,-6957993,-1328415,10387880,-8685303,45361330,-33203120
2026-01-14 16:42:09.861,4998603,-6969215,-1253320,14750670,4234314,-13267520,-14086910
2026-01-14 16:42:09.871,-38928850,-69812980,-11790860,58626330,35827640,-34570310,-22741700
2026-01-14 16:42:09.881,-38937480,-33483990,25384030,58617700,36010740,-63964840,-38378900
2026-01-14 16:42:09.891,-3890297,-43183400,-37212010,5861769,-35,1429,-96875,-57958980
2026-01-14 16:42:09.901,9413185,-42931360,-36877100,10387870,-836792,-13447270,-66064450
2026-01-14 16:42:09.911,-38695800,-70304990,-8933780,58686750,-1083374,-18798830,-8466797
2026-01-14 16:42:09.921,5261006,-7042584,-826051,6,14988900,-31585690,-24570310,-89501950
2026-01-14 16:42:09.931,-38272850,-7053807,-761311,9,58868020,15612790,-29414060,-9433594
2026-01-14 16:42:09.941,-38022530,-35705790,27944180,58997500,45629880,-32675780,-9423828
2026-01-14 16:42:09.951,5859180,-70710670,-6421964,15547370,7001953,-37207030,-86816410
2026-01-14 16:42:09.961,6098280,-36263390,28595010,15774390,77197260,-41171880,-8618164
2026-01-14 16:42:09.971,6337376,-36485220,28856550,16001400,84765620,-42929690,-90722660
2026-01-14 16:42:09.981,6566979,-36667350,29071480,16220640,80078130,-44921880,-9194336
2026-01-14 16:42:09.991,-36606940,-36792520,29222540,59843400,7446289,-45976560,-9511719
2026-01-14 16:42:10.001,-47007240,-41063470,-34446420,49374040,6533203,-45351560,-10390630
2026-01-14 16:42:10.011,7216941,-41006490,-34382550,16848160,49267580,-44179690,-13486330
2026-01-14 16:42:10.021,-35925030,-36870200,29334750,60352670,34814450,-41914060,-16054690
2026-01-14 16:42:10.031,11913870,-33427540,32673820,12876300,1583252,-39238280,-19306640
2026-01-14 16:42:10.041,-46848410,-70684780,-4756054,49360230,7244873,-34785160,-22285160
2026-01-14 16:42:10.051,7922153,-36638000,29083560,17541290,23849490,-30078120,-2375
2026-01-14 16:42:10.061,8104282,-36531840,28965310,17721690,-3729248,-25703120,-26679690
2026-01-14 16:42:10.071,-46769870,-36416170,28839290,49386990,58013920,-21503910,-26445310
2026-01-14 16:42:10.081,8459903,-41178260,-34676890,18073860,28198240,-18525390,-25136720
2026-01-14 16:42:10.091,-3463891,-7035678,-558469,1,6150068,64453120,-15634770,-23105470
2026-01-14 16:42:10.101,-34518070,-36058820,28454320,61638790,93066410,-12910160,-20507810
2026-01-14 16:42:10.111,8837108,-7021005,-595585,6,18456250,13027340,-10732420,-18183590
2026-01-14 16:42:10.121,13208620,-35804180,28173780,14171050,14501950,-8129883,-16210940
2026-01-14 16:42:10.131,-34492170,-35665220,28019280,61837310,15351560,-5839844,-14267580
2026-01-14 16:42:10.141,-34604380,-69994260,-6620492,61828680,15224610,-29614260,-11806640
2026-01-14 16:42:10.151,-34759750,-69925200,-6862180,61794160,140625,80444340,-10498050
2026-01-14 16:42:10.161,8553125,-69864780,-7095234,18222320,13222660,60546880,-10166020
2026-01-14 16:42:10.171,-4839317,-3511020,2740039,4841969,12197270,11269530,-10185550
2026-01-14 16:42:10.181,8289860,-69743930,-7440502,17984950,10927730,13837890,-10019530
2026-01-14 16:42:10.191,-35502080,-6969217,-752680,4,61569730,9448242,146875,-9477539
2026-01-14 16:42:10.201,8088742,-69640350,-7561348,17806280,9526367,14423830,-8491211
2026-01-14 16:42:10.211,7997247,-34888360,27173370,17725140,10947270,14511720,-6660156
2026-01-14 16:42:10.221,-35907770,-69579940,-7500926,61457520,12568360,16240230,-56591800
2026-01-14 16:42:10.231,7798718,-69562660,-7449138,17543870,12871090,18486330,-5239258
2026-01-14 16:42:10.241,-3619262,-69571300,-7388712,6131075,11767580,20371090,-5834961
2026-01-14 16:42:10.251,-36330720,-34981590,27287310,61207200,92333980,21054690,-65966800
2026-01-14 16:42:10.261,-36451560,-35032520,27339970,61086360,7246094,22421880,-66503900
2026-01-14 16:42:10.271,7329154,-41579640,-35328580,17081220,6044922,23847660,-6464844
2026-01-14 16:42:10.281,7237659,-69804350,-7103868,16982810,5234375,25488280,-6171875
2026-01-14 16:42:10.291,7147888,-41600350,-35307860,16882690,3803711,2671875,-54003900
2026-01-14 16:42:10.301,-36650090,-35438210,27745660,60542560,23950200,27265620,-4777832
2026-01-14 16:42:10.311,7035677,-41654730,-35305280,16735950,115112300,26425780,-36938480
2026-01-14 16:42:10.321,7004605,-35786060,28088330,16680710,48065180,25117190,-21789550
2026-01-14 16:42:10.331,6976118,-41721200,-35290600,16622880,7940674,24375,6640625
2026-01-14 16:42:10.341,-3632209,-70909210,-6119858,5981748,1081543,2359375,45166020
2026-01-14 16:42:10.351,6907065,-38866960,-38213890,16484770,11828610,23652340,84765620
2026-01-14 16:42:10.361,6857866,-36787330,29072340,16395870,61302180,24023440,12792970
2026-01-14 16:42:10.371,6793127,-41947350,-35306140,16287970,-18884280,240625,15048830
2026-01-14 16:42:10.381,-3579556,-72186690,-5187636,5870399,-49291990,23320310,15625
2026-01-14 16:42:10.391,-35640180,-42119990,-35357920,58358750,-7753906,22011720,15888670
2026-01-14 16:42:10.401,-35476180,-3801737,3025921,58004850,-10664060,21015620,15439450
2026-01-14 16:42:10.411,6531588,-73326080,-4341732,15824440,-12685550,18935550,15224610
2026-01-14 16:42:10.421,-35087760,-39208440,-38511160,57288420,-14814450,15742190,13457030
2026-01-14 16:42:10.431,-34871960,-39147240,31373550,56917260,-16435550,11347660,11416020
2026-01-14 16:42:10.441,-34647540,-42427270,-35292330,56554730,-17050780,5830078,10517580
2026-01-14 16:42:10.451,10431550,-39981910,32213410,11337530,-16728520,-2305603,10234380
2026-01-14 16:42:10.461,6289040,-40410040,32648440,15290150,-15693360,-60546880,11279300
2026-01-14 16:42:10.471,-34026060,-4247736,-3508688,55380820,-15175780,-11533200,12001950
2026-01-14 16:42:10.481,-33862060,-7612276,-138968,3,54957870,-14746090,-16572270,13447270
2026-01-14 16:42:10.491,5970529,-42515310,-34962600,14797280,-15546880,-20683590,14619140
2026-01-14 16:42:10.501,-33646270,-42551570,-34926340,54068810,-16796880,-24179690,15878910
2026-01-14 16:42:10.511,-33577220,-42586090,-34891820,53619960,-18574220,-27285160,16298830
2026-01-14 16:42:10.521,5495789,-42649100,34897860,14167170,-2078125,-28886720,15322270
2026-01-14 16:42:10.531,5344732,-42678450,-34868510,13972950,-22617190,-30332030,13398440
2026-01-14 16:42:10.541,5209217,-43169600,35413170,13797730,-24199220,-32089840,11035160
2026-01-14 16:42:10.551,5097867,-7829793,73368,94,13650130,-24863280,-3390625,8305664
2026-01-14 16:42:10.561,-33326890,-7847921,94949,36,51902260,-24101560,-36230470,6010742
2026-01-14 16:42:10.571,-33283740,-7862595,111350,1,51703730,-23164060,-39648440,42236330
2026-01-14 16:42:10.581,4909695,-42738870,-34739040,13389450,-21816410,-42929690,29638670
2026-01-14 16:42:10.591,4847549,-78824450,1329276,13313490,-19648440,-45664060,27441410
2026-01-14 16:42:10.601,-33283740,-78884860,1337910,51289410,-17441410,-46445310,25073240
2026-01-14 16:42:10.611,4671462,-78919400,1251592,13127050,-15234380,-46835940,2919922
2026-01-14 16:42:10.621,4533358,-43910190,36122700,12988940,-13808590,-46210940,27172850
2026-01-14 16:42:10.631,4366765,-7896257,81137,44,12827530,-13388670,-44296880,15771480
2026-01-14 16:42:10.641,41898150,-7896261,46609,1,126592100,-13652340,-40585940,-43029780
2026-01-14 16:42:10.651,-34164170,-7893668,9496,604,50650660,-13564450,-36171880,-21655270
2026-01-14 16:42:10.661,3839368,-4352177,-3566522,12336390,-12626950,-31542970,-2770996
2026-01-14 16:42:10.671,3690903,-40147900,-39367080,12208640,-12470700,-25625,-27893070
2026-01-14 16:42:10.681,35847350,-40292140,-39516320,121249100,-10478520,-22109380,-68359380
2026-01-14 16:42:10.691,-35035970,-42517900,34511160,50642030,-88134770,-16455080,8081055
2026-01-14 16:42:10.701,3485469,-43960260,-36314320,12086070,-5957031,-10732420,14172360
2026-01-14 16:42:10.711,3484607,-78151180,-2296028,12121460,-25634770,-62109380,15393070
2026-01-14 16:42:10.721,35243130,-44045710,-36522340,122026000,12191770,-13708500,25170900
2026-01-14 16:42:10.731,3589052,-41322420,33255250,12310490,32250980,40966800,39672850
2026-01-14 16:42:10.741,-35769660,-40739860,-40000820,51893620,6088867,10615230,578125
2026-01-14 16:42:10.751,-35873240,-7702046,-380655,1,52256160,83251950,16572270,75146480
2026-01-14 16:42:10.761,-35959560,-40289200,32199600,52635950,10576170,23125,98535150
2026-01-14 16:42:10.771,-36028610,-44078510,-36903860,53033000,12421880,29667970,10869140
2026-01-14 16:42:10.781,41984460,-7602785,-504092,131512200,14677730,36054690,11552730
2026-01-14 16:42:10.791,-36132190,-75691150,-5463850,53844380,15888670,42382810,12226560
2026-01-14 16:42:10.801,4518683,-38813190,30689050,13556040,16865230,49140620,12167970
2026-01-14 16:42:10.811,-36140820,-38497270,30366230,54595340,17636720,55703120,12792970
2026-01-14 16:42:10.821,4875168,-44082830,-37244810,13976410,16748050,6203125,12519530
2026-01-14 16:42:10.831,-35968190,-74663980,-6611862,55251340,13789060,67734380,12265630
2026-01-14 16:42:10.841,9435196,-43964570,-37173170,10348600,10507810,71484380,10878910
2026-01-14 16:42:10.851,-44669780,-74439560,-6421966,46705120,7314453,72539060,90527340
2026-01-14 16:42:10.861,-44637840,-43640020,-36807190,46737060,4248047,70898440,7368164
2026-01-14 16:42:10.871,6267459,-7437052,-552427,6,15398040,1854248,65273440,5595703
2026-01-14 16:42:10.881,-34423120,-74370500,-4850998,56779150,3579712,58359380,38232420
2026-01-14 16:42:10.891,-34060590,-39079910,31233720,57038110,-4486084,51210940,2244873
2026-01-14 16:42:10.901,7215216,-42384110,-35266430,16314730,-14538570,44179690,5102539
2026-01-14 16:42:10.911,-3345635,-39878340,32196140,5741788,-40454100,36816410,-13696290
2026-01-14 16:42:10.921,7588969,-7449136,-150191,3,16666040,-69140620,2859375,-37695310
2026-01-14 16:42:10.931,7680461,-37951830,-37212790,16747170,-10800780,21367190,-5366211
2026-01-14 16:42:10.941,-3305068,-74577660,241688,2,5753008,-14423830,14277340,-7392578
2026-01-14 16:42:10.951,-33042050,-40548150,-32976450,57469680,-16523440,7319336,-93310540
2026-01-14 16:42:10.961,7623494,-7468125,195075,7,16666040,-17744140,7672119,-11425780
2026-01-14 16:42:10.971,-33119730,-39852440,-32101190,57219370,-19140620,-52001950,-12490230
2026-01-14 16:42:10.981,-3320607,-39516670,-31677380,5704672,-19697270,-11269530,-13359380
2026-01-14 16:42:10.991,7274774,-39197300,-31271690,16289690,-20136720,-17929690,-14111330
2026-01-14 16:42:11.001,7125447,-74931570,5170372,16128280,-19951170,-24453120,-14072270
2026-01-14 16:42:11.011,-3349953,-7499199,590406,7,5640799,-19384770,-30683590,-13779300
2026-01-14 16:42:11.021,6783634,-75078300,6594600,15762300,-17988280,-35703120,-13535160
2026-01-14 16:42:11.031,-33741220,-44586050,37794650,55907350,-16269530,-4078125,-15039060
2026-01-14 16:42:11.041,6409880,-37859390,-29553990,15359200,-14541020,-44453120,-15117190
2026-01-14 16:42:11.051,-34017420,-7532865,834684,4,55337660,-13789060,-48984380,-13818360
2026-01-14 16:42:11.061,5967077,-7544084,880430,4,14887050,-11904300,-53007810,-12734380
2026-01-14 16:42:11.071,-34371330,-37425220,-28952360,54690290,-8930664,-5765625,-10302730
2026-01-14 16:42:11.081,-3459575,-7568252,944305,2,5431050,-58935550,-62382810,-74316410
2026-01-14 16:42:11.091,-34871970,-37399320,-28857410,53896180,-28344730,-6671875,-51904300
2026-01-14 16:42:11.101,4667145,-37503760,-28942870,13528420,8781433,-69882820,-3251953
2026-01-14 16:42:11.111,4200175,-46188090,39507170,13045910,2939453,-721875,-16564940
2026-01-14 16:42:11.121,3674504,-76502530,9175468,12501250,45703120,-74179690,-33569340
2026-01-14 16:42:11.131,-43288710,-38285790,-29731800,44788890,49487300,-7515625,24719240
2026-01-14 16:42:11.141,2486786,-77098110,8234620,11272100,5161133,-75585940,-847168
2026-01-14 16:42:11.151,18609890,-39148960,-30646760,106204100,57714840,-74960940,-25073240
2026-01-14 16:42:11.161,1236919,-7772824,694849,7,9966994,5336914,-73828130,-2775879
2026-01-14 16:42:11.171,-3852315,-45738380,38558560,4846683,39111330,-72304690,-3227539
2026-01-14 16:42:11.181,-38954740,-7836700,555018,1,47707260,18139650,-69765620,-5727539
2026-01-14 16:42:11.191,-39334540,-7865184,486828,4,46982200,-29510500,-671875,-95947260
2026-01-14 16:42:11.201,-39653910,-45320610,37854210,46317570,-14611820,-63984380,-14003910
2026-01-14 16:42:11.211,-13810680,-41864490,-33576350,71815530,-18896480,-596875,-18056640
2026-01-14 16:42:11.221,-42413460,-4511692,3750551,42919280,-2902832,-5359375,-22441410
2026-01-14 16:42:11.231,-40335820,-79523620,2908878,44772500,23083500,-50585940,-5125
2026-01-14 16:42:11.241,14389860,-42564510,-34343700,22898970,2796875,-19648440,-80703130
2026-01-14 16:42:11.251,11791730,-42603360,-34408440,20318100,19580080,13740230,-61328120
2026-01-14 16:42:11.261,-28018420,-4265085,-3449906,57538740,20253910,2078125,-31367190
2026-01-14 16:42:11.271,-41621940,-39151460,-38343710,44349540,-23327640,19423830,-27539060
2026-01-14 16:42:11.281,8447818,-42966750,-34994530,17101930,-19892580,290625,-26621090
2026-01-14 16:42:11.291,8152617,-78444660,-34527,81,16879230,-190625,465625,-42929690
2026-01-14 16:42:11.301,8541905,-7796129,-107032,8,17353120,-17041020,76289060,-60703120
2026-01-14 16:42:11.311,10222490,-41619340,33666120,19125200,-15888670,111875,-7296875
2026-01-14 16:42:11.321,13453330,-76796020,-3081508,22454430,-14541020,132265600,-85
2026-01-14 16:42:11.331,18839490,-76114100,-3815200,27944180,-19619140,142421900,-8234375
2026-01-14 16:42:11.341,26381850,-75389040,-4298572,35593570,-29726560,14015630,-534375
2026-01-14 16:42:11.351,-6603232,-35389350,34596270,86532540,-18076170,138046900,-32578120
2026-01-14 16:42:11.361,301245,-7390440,-493731,5,9711497,10910030,153828100,-27773440
2026-01-14 16:42:11.371,1380205,-7317934,-509269,10876770,4446411,1578125,-8876953
2026-01-14 16:42:11.381,68410340,-72462910,-5032272,77982860,-7529297,145234400,18232420
2026-01-14 16:42:11.391,3759959,-37325090,29673970,13399810,-21621090,13046880,50820310
2026-01-14 16:42:11.401,9389707,-41006500,-34330760,10359560,-32753910,11015630,7609375
2026-01-14 16:42:11.411,6301987,-37042830,29645480,16054050,-35195310,89140620,925
2026-01-14 16:42:11.421,7610546,-39558970,-32878050,17404040,-36035160,6875,101328100
2026-01-14 16:42:11.431,13371410,-6894982,-177813,2,14353530,-33378910,4671875,101875
2026-01-14 16:42:11.441,10364050,-68328340,-569691,8,20192070,-34628900,21191410,100234400
2026-01-14 16:42:11.451,11857330,-37646190,30958360,21668090,-34804690,-99853520,9859375
2026-01-14 16:42:11.461,-47021050,-6716308,244278,6,50689510,-30917970,-38027340,106171900
2026-01-14 16:42:11.471,15152910,-66576100,4100040,24863530,-16689450,-74101560,11453130
2026-01-14 16:42:11.481,-2649062,-33698060,-26533770,6987340,-3189087,-110546900,114296900
2026-01-14 16:42:11.491,18517530,-32634640,-25387480,28076240,20449220,-142265600,11125
2026-01-14 16:42:11.501,19984910,-31647170,-24337870,29474580,48125,-157890600,108671900
2026-01-14 16:42:11.511,-2136339,-63874390,9477578,7306710,6515625,-158203100,86796870
2026-01-14 16:42:11.521,-2047433,-63304700,9995482,7373174,59257810,-154375,41367190
2026-01-14 16:42:11.531,-20068640,-6285589,1011633,74223770,41914060,-1428125,72216800
2026-01-14 16:42:11.541,-20068640,-29894080,-22655560,74569040,78027340,-13078130,-19091800
2026-01-14 16:42:11.551,-2036212,-62104900,9555262,7484523,-18945310,-118359400,-49570310
2026-01-14 16:42:11.561,-2085414,-29838840,-22745320,7504376,-20097660,-100390600,-72617180
2026-01-14 16:42:11.571,-45621850,-61492050,8856098,50983840,-50097660,-8453125,-9109375
2026-01-14 16:42:11.581,-2230426,-29873360,-22883430,7504377,23007810,-734375,-98046870
2026-01-14 16:42:11.591,-23340050,-37400180,32102060,74836620,61523440,-4984375,-73085940
2026-01-14 16:42:11.601,19996140,-37158500,31825850,29912200,9203125,-20742190,-24667970
2026-01-14 16:42:11.611,19014720,-6103458,724196,8,29046450,1071875,-25708010,21308590
2026-01-14 16:42:11.621,-27742210,-30516430,-23776810,73818080,102109400,1109375,50859380
2026-01-14 16:42:11.631,-49215220,-35959560,30487080,53622560,87578130,225,63984380
2026-01-14 16:42:11.641,20540800,-35484820,29977800,21581770,73320310,31699220,66914060
2026-01-14 16:42:11.651,14846480,-30920380,-24477700,25377120,57265620,40117190,67929690
2026-01-14 16:42:11.661,-34026060,-34474910,28898850,72419740,33515620,46132810,58554690
2026-01-14 16:42:11.671,-3538986,-33994990,28377490,7202268,6557617,51484380,44296880
2026-01-14 16:42:11.681,-52344200,-33612600,27948500,55845210,-15673830,56171880,309375
2026-01-14 16:42:11.691,-37565050,-5904932,194214,1,71142260,-29746090,56835940,22441410
2026-01-14 16:42:11.701,-38324630,-33227630,27470300,70676140,-34003900,52929690,17070310
2026-01-14 16:42:11.711,-38885700,-59377290,1320646,70184140,-30703120,45625,15742190
2026-01-14 16:42:11.721,9719266,-33389040,27533310,20612440,-24804690,38164060,19404300
2026-01-14 16:42:11.731,-39602120,-60214560,1122120,69053390,-17744140,32167970,20957030
2026-01-14 16:42:11.741,-39826550,-60792890,1113488,68414660,-11103520,28886720,22949220
2026-01-14 16:42:11.751,8475442,-34313500,28283410,19249490,-8041992,29648440,24882810
2026-01-14 16:42:11.761,-40128650,-3473993,2865114,67007680,-75927740,315625,209375
2026-01-14 16:42:11.771,-4021498,-62881750,1441490,6626534,-10195310,39609380,17441410
2026-01-14 16:42:11.781,-40232230,-63641340,1734968,65523040,-18066410,46210940,15654300
2026-01-14 16:42:11.791,7033951,-64392290,2157918,17531790,-24726560,51875,76416020
2026-01-14 16:42:11.801,6718896,-37036790,30790910,17139050,-34941410,56445310,30126950
2026-01-14 16:42:11.811,6404701,-34732130,-27812980,16745450,-453125,57070310,-24560550
2026-01-14 16:42:11.821,-40120020,-66576100,4030996,62493320,-5234375,53867190,-14882810
2026-01-14 16:42:11.831,5644252,-67249380,4773316,15831350,-58515620,4890625,-25
2026-01-14 16:42:11.841,-40378970,-39830000,33591030,60766980,-6109375,44960940,-32734380
2026-01-14 16:42:11.851,-40672450,-68535500,6214804,59782980,-59726560,428125,-4140625
2026-01-14 16:42:11.861,3821242,-34949650,-27353780,13804640,-57070310,39960940,-48164060
2026-01-14 16:42:11.871,-41621930,-41657330,35423530,57607800,-54414060,35117190,-55507810
2026-01-14 16:42:11.881,-42191620,-3509900,-2729074,56468420,-51171880,28847660,-6203125
2026-01-14 16:42:11.891,1378479,-7073658,827777,4,11189240,-46367190,22734380,-66328120
2026-01-14 16:42:11.901,602490,-35232770,-27243290,10359730,-4046875,15986330,-69296870
2026-01-14 16:42:11.911,-43771220,-35248310,-27175960,53300590,-359375,7128906,-7125
2026-01-14 16:42:11.921,-44133750,-7191051,962433,6,52471950,-29160160,-18054200,-71523440
2026-01-14 16:42:11.931,32134000,-44258050,38053600,41753140,-21035160,-10205080,-70429690
2026-01-14 16:42:11.941,-1442353,-72367950,10651480,8140529,-12646480,-18857420,-68085940
2026-01-14 16:42:11.951,26297260,-72506060,11134860,35850800,-5830078,-27382810,-62851560
2026-01-14 16:42:11.961,24755640,-72609650,11566440,34285010,-8001709,-371875,-56835940
2026-01-14 16:42:11.971,23728470,-72687330,11903080,33240570,26586910,-45585940,-49648440
2026-01-14 16:42:11.981,-1968886,-34573310,-26090100,7527682,46923830,-5203125,-459375
2026-01-14 16:42:11.991,22361220,-72834060,12101600,31845700,6381836,-56640620,-42578120
2026-01-14 16:42:12.001,21589540,-34746810,-26261870,31063670,6113281,-60039060,-40585940
2026-01-14 16:42:12.011,20817010,-34985900,-26523410,30282500,50683590,-61835940,-41210940
2026-01-14 16:42:12.021,-2250279,-35303550,-26879040,7204857,14990230,-621875,-42851560
2026-01-14 16:42:12.031,19532620,-73377860,10383900,28977390,-38720700,-61328120,-4484375
2026-01-14 16:42:12.041,-22917090,-3608993,-2776723,71427100,-8305664,-60273440,-47070310
2026-01-14 16:42:12.051,-2218339,-44564470,38092440,7207446,-11201170,-58398440,-490625
2026-01-14 16:42:12.061,21705210,-7381809,828639,7,31120640,-11474610,-55546880,-51367190
2026-01-14 16:42:12.071,-18290510,-37207700,-29049040,75777470,-90771490,-52617190,-51914060
2026-01-14 16:42:12.081,26979160,-37503760,-29391720,36377320,-5961914,-49882810,-48945310
2026-01-14 16:42:12.091,30348970,-37742000,-29671380,39740230,-36669920,-4765625,-43085940
2026-01-14 16:42:12.101,-43063420,-7408569,622345,6,50814660,-10986330,-45273440,-37207030
2026-01-14 16:42:12.111,37602160,-74085660,5843640,46988240,87768550,-4328125,-2875
2026-01-14 16:42:12.121,40966790,-38270260,-30317030,50356330,45751950,-4015625,-22167970
2026-01-14 16:42:12.131,1450124,-38421320,-30511240,95397260,83740230,-33945310,-2015625
2026-01-14 16:42:12.141,-46528180,-38553380,-30689910,47539810,9394531,-27753910,-184375
2026-01-14 16:42:12.151,-46591190,-42536030,35580630,47632170,84472660,-22402340,-16376950
2026-01-14 16:42:12.161,-4193269,-38801970,-31045540,5251509,56152340,-18466800,-13193360
2026-01-14 16:42:12.171,589543,5,-73550500,3461300,10061940,27929690,-14902340,-12089840
2026-01-14 16:42:12.181,-42226150,-73351980,3090142,52825840,-13110350,-1125,-10712890
2026-01-14 16:42:12.191,468698,5,-38994450,-31405480,10010150,-27807620,-65771480,-11611330
2026-01-14 16:42:12.201,3452672,-72903140,2434130,99264260,-14733890,-129776,-10917970
2026-01-14 16:42:12.211,195076,-72661440,2140652,9817662,-6921387,7241211,-9169922
2026-01-14 16:42:12.221,198532,-72428380,1855810,96821490,4449463,13896480,-7089844
2026-01-14 16:42:12.231,-43814380,-39010860,-31630770,53153850,1673584,21191410,-5493164
2026-01-14 16:42:12.241,-366845,-40212380,33139590,9361048,3149414,29707030,-2919922
2026-01-14 16:42:12.251,38454970,-71901850,1053064,48207040,53222660,39257810,11004640
2026-01-14 16:42:12.261,-4466029,-7180690,82001,46,5303301,6904297,48476560,68603520
2026-01-14 16:42:12.271,-8234620,-7176379,58695,89,89544990,8173828,57460940,12568360
2026-01-14 16:42:12.281,35076540,-39642690,32500840,44852770,1015625,65351560,17089840
2026-01-14 16:42:12.291,-9123680,-39440710,-32236710,88535090,11416020,73046870,20605470
2026-01-14 16:42:12.301,35092070,-39578810,-32374820,44837230,11044920,7921875,22636720
2026-01-14 16:42:12.311,-7828932,-3971523,-3249739,89311940,86376950,8328125,23867190
2026-01-14 16:42:12.321,-6249328,-39842090,-32594930,90494470,49731440,8515625,23808590
2026-01-14 16:42:12.331,-412594,-7273049,17263,46,9216902,8178711,84765620,23554690
2026-01-14 16:42:12.341,-43253320,-40365160,33107650,52541000,-39013670,8203125,24785160
2026-01-14 16:42:12.351,-42726790,-73326080,837278,1,52549630,-84033200,77890620,26210940
2026-01-14 16:42:12.361,-42191620,-73610930,1312018,52566900,-13466800,703125,26894530
2026-01-14 16:42:12.371,-41673720,-73887140,1864442,52566900,-16943360,6109375,26171880
2026-01-14 16:42:12.381,52110280,-39671180,-32006250,61482550,-18349610,50546880,24980470
2026-01-14 16:42:12.391,1199803,-3951926,-3176111,10522010,-18085940,38300780,23789060
2026-01-14 16:42:12.401,55095980,-39351810,-31496980,64366400,-16806640,24882810,23144530
2026-01-14 16:42:12.411,1399195,-3524838,-3516883,10616100,-15302730,11972660,23320310
2026-01-14 16:42:12.421,13836570,-75285470,5282582,105453200,-14589840,6036377,23613280
2026-01-14 16:42:12.431,1308562,-7559621,599037,9,10413250,-14707030,-9448242,24882810
2026-01-14 16:42:12.441,1198939,-38733780,-30474990,10246660,-15,-18134770,25859380
2026-01-14 16:42:12.451,1072918,-76209060,7380084,10061940,-15869140,-26386720,27011720
2026-01-14 16:42:12.461,49741760,-76502540,8070616,58672080,-15859380,-34082030,27226560
2026-01-14 16:42:12.471,-3907559,-7677875,874388,7,4965802,-14736330,-40820310,27128910
2026-01-14 16:42:12.481,-38894320,-38124380,-29478900,49286860,-12128910,-4734375,27675780
2026-01-14 16:42:12.491,7440504,-77253490,10064530,95103790,-9301758,-52851560,28242190
2026-01-14 16:42:12.501,50404750,-77452020,10677380,51276380,-6230469,-56523440,28457030
2026-01-14 16:42:12.511,731101,-37657410,-28771960,9402481,-359375,-59960940,28417970
2026-01-14 16:42:12.521,-3809159,-37541740,-28594150,4820789,-13024900,-63398440,27480470
2026-01-14 16:42:12.531,76131,88,-77944020,12032560,935497,4,2281189,-66210940,26953120
2026-01-14 16:42:12.541,-42307290,-7807351,1230015,43318920,23291020,-67851560,25722660
2026-01-14 16:42:12.551,-37625470,-48601500,42031070,47759050,3864746,-68515620,23632810
2026-01-14 16:42:12.561,-37547780,-37400180,-28321380,47681370,4711914,-67265620,20839840
2026-01-14 16:42:12.571,-37513260,-37443340,-28364540,47646840,5288086,-65742190,18232420
2026-01-14 16:42:12.581,807924,5,-7830656,1236056,9325660,5332031,-6375,15019530
2026-01-14 16:42:12.591,46489330,-37588350,-28547540,55019150,5541992,-60039060,10576170
2026-01-14 16:42:12.601,46564430,-37681580,-28678740,55116700,4675293,-55507810,70703130
2026-01-14 16:42:12.611,8087872,-37778250,-28823750,93938510,35351560,-51054690,5180664
2026-01-14 16:42:12.621,46957170,-37868020,-28975670,55587120,15344240,-45195310,34887700
2026-01-14 16:42:12.631,809650,-37950880,-29134490,9496567,-2798462,-40351560,2084961
2026-01-14 16:42:12.641,801018,5,-38044970,-29316620,9556988,-17297360,-35742190,-21026610
2026-01-14 16:42:12.651,796704,-76951380,9313576,9630356,-123413100,-30292970,-72631840
2026-01-14 16:42:12.661,-39351800,-76545690,8614410,49830660,1015625,-23320310,39215090
2026-01-14 16:42:12.671,744048,5,-38327220,-29932060,9752064,2998047,-15400390,22106930
2026-01-14 16:42:12.681,698303,-75630740,7026180,9797810,33081060,-73535150,47802740
2026-01-14 16:42:12.691,643058,5,-38556830,-30427520,9835792,33374020,19189450,7475586
2026-01-14 16:42:12.701,-41181720,-74646720,5282586,51660570,30615230,14306640,10175780
2026-01-14 16:42:12.711,-41596040,-74163350,4419422,52109420,25341800,28359380,11152340
2026-01-14 16:42:12.721,601629,-42156240,35149040,10049860,15783690,43320310,9267578
2026-01-14 16:42:12.731,687080,-38965970,-31347650,10206090,13842770,58046880,78222660
2026-01-14 16:42:12.741,8640308,-72851340,2416866,104434600,-22750850,715625,7895508
2026-01-14 16:42:12.751,11247070,-38928000,-31471950,107524800,-76660160,81640620,8100586
2026-01-14 16:42:12.761,-42044880,-7216945,192488,4,54629870,-12585450,89921870,796875
2026-01-14 16:42:12.771,-41785940,-7189324,194214,4,55182300,-13671880,95859380,82910160
2026-01-14 16:42:12.781,2262362,-71668790,2097496,11979900,-16369630,975,83740230
2026-01-14 16:42:12.791,-41147190,-38253860,-30868590,56166300,-25756840,94921870,75146480
2026-01-14 16:42:12.801,73505610,-71349420,2710344,83245590,-40551760,8796875,6010742
2026-01-14 16:42:12.811,3199762,-3779725,-3035846,12941470,-44970700,78359380,45654300
2026-01-14 16:42:12.821,76871960,-7123725,354758,7,86611940,-3408203,6875,2244873
2026-01-14 16:42:12.831,32826260,-37970480,37297720,130139800,-30737300,59257810,45410160
2026-01-14 16:42:12.841,-40612020,-37247400,-29665340,56580620,-3959961,50898440,-16833500
2026-01-14 16:42:12.851,2857946,-37130880,-29488390,12558220,-7421875,41601560,-18334960
2026-01-14 16:42:12.861,68617500,-37035930,-29324390,78293610,-12460940,32949220,-24414060
2026-01-14 16:42:12.871,-47530320,-7198818,586955,9,48920020,-16259770,23867190,-2220459
2026-01-14 16:42:12.881,17211560,-36863300,-28996380,113299400,-1984375,14130860,-119018600
2026-01-14 16:42:12.891,1318919,-32787080,-32779120,10886270,-221875,4321289,-2010498
2026-01-14 16:42:12.901,946030,-36659580,-28613140,10465040,-2234375,-5058594,-31201170
2026-01-14 16:42:12.911,583502,5,-43963710,37467510,10050720,-21679690,-14042970,-38867190
2026-01-14 16:42:12.921,-42122580,-36446380,-28204860,51997210,-20839840,-23105470,-3544922
2026-01-14 16:42:12.931,40986640,-36374740,-28034820,50336480,-19804690,-32597660,-3022461
2026-01-14 16:42:12.941,-4471212,-36326400,-27893250,88371090,-18115230,-42890620,-32763670
2026-01-14 16:42:12.951,33371780,-74681250,10530640,42586960,-16943360,-52929690,-2590332
2026-01-14 16:42:12.961,-11885820,-36410130,-27809530,79558140,-13525390,-63125,-296875
2026-01-14 16:42:12.971,24812610,-7556169,1113485,33882770,-96240230,-72421870,-28320310
2026-01-14 16:42:12.981,-2037074,-76036420,11212550,6957126,-7397461,-80546870,-25341800
2026-01-14 16:42:12.991,-24997330,-3708774,-2832310,64185130,-59033200,-88671870,-34277340
2026-01-14 16:42:13.001,9994614,-37472690,-28680460,18835180,-41333010,-965625,-6123047
2026-01-14 16:42:13.011,4940772,-77538330,10522010,13703640,-2376709,-10265630,-88134770
2026-01-14 16:42:13.021,38814910,-78038960,10038640,47501830,8105469,-108671900,-11572270
2026-01-14 16:42:13.031,-4309797,-38926260,-30127130,4302889,42895510,-113984400,-14560550
2026-01-14 16:42:13.041,-9018375,-39460560,-30680420,-476470,2,68896480,-11828130,-16699220
2026-01-14 16:42:13.051,-51013190,-40007810,-31255290,33749840,95654300,-121328100,-18710940
2026-01-14 16:42:13.061,-16378600,-40542980,-31824980,-7962722,12392580,-1221875,-20371090
2026-01-14 16:42:13.071,-19545560,-8012783,663776,7,-11183200,14414060,-120390600,-22421880
2026-01-14 16:42:13.081,-59601710,-80421310,5843642,23521310,16191410,-11625,-24921880
2026-01-14 16:42:13.091,-61897740,-46630900,39064370,20810970,17167970,-109609400,-29394530
2026-01-14 16:42:13.101,-64055650,-8090469,415186,3,18307780,17050780,-101640600,-37480470
2026-01-14 16:42:13.111,-6608410,-8105142,326277,4,1602038,15859380,-9046875,-4875
2026-01-14 16:42:13.121,-31202640,-45682280,37803280,-23004280,1328125,-75585940,-6265625
2026-01-14 16:42:13.131,-29412430,-43980970,-35723910,-28592420,90771490,-54414060,-78515620
2026-01-14 16:42:13.141,-44159640,-40657090,-39841910,38082940,21398930,-24746090,-975
2026-01-14 16:42:13.151,-35213780,-44227840,36115790,-26934280,-53466800,92822260,-117890600
2026-01-14 16:42:13.161,-7240249,-8025731,-127748,3,1129023,-15253910,440625,-133671900
2026-01-14 16:42:13.171,-70978260,-79575410,-2097494,14009210,-23789060,7671875,-13921880
2026-01-14 16:42:13.181,-45773770,-44567930,-36984140,40836450,-27265620,10875,-13453130
2026-01-14 16:42:13.191,-6358093,-44307250,-36899540,2491099,-28691410,142578100,-121953100
2026-01-14 16:42:13.201,-17040650,-4011916,3204165,-7991204,-30449220,17359380,-1053125
2026-01-14 16:42:13.211,-50650660,-39094580,31063670,41846360,-30332030,20140620,-88125
2026-01-14 16:42:13.221,287436,-38078630,30094330,9725307,-22246090,23109380,-80390620
2026-01-14 16:42:13.231,-3162646,-72825440,-6465124,6442679,-15166020,260,-8078125
2026-01-14 16:42:13.241,2568270,-32856560,32070900,3542956,-29707030,2728125,-75742190
2026-01-14 16:42:13.251,-44539440,-41971520,-35575440,54120600,-60585940,2625,-61367190
2026-01-14 16:42:13.261,1863580,-32084710,31323570,11826260,-96015620,23890620,-23886720
2026-01-14 16:42:13.271,-41052240,-35331170,27904480,59351400,-115546900,20453120,29101560
2026-01-14 16:42:13.281,6519505,-35256940,28047760,16613380,-11078130,158203100,81328130
2026-01-14 16:42:13.291,8875952,-66610630,-3081506,19004350,-8578125,11765630,11890630
2026-01-14 16:42:13.301,-49103000,-65531680,-1709068,52336430,-63515620,871875,145390600
2026-01-14 16:42:13.311,-32524150,-64469980,-353895,8,68915280,-48476560,48242190,16046880
2026-01-14 16:42:13.321,14949200,-34468000,-28025320,25084510,-37636720,-9753418,1690625
2026-01-14 16:42:13.331,-2892474,-62536480,2252868,7218667,-22988280,-54101560,1753125
2026-01-14 16:42:13.341,18045380,-61759630,3530352,28116810,-2512207,-10234380,17609380
2026-01-14 16:42:13.351,19352210,-61172680,4790576,29364950,25859380,-145390600,1646875
2026-01-14 16:42:13.361,-24246380,-30708910,-24033170,75155990,62695310,-17984380,15265630
2026-01-14 16:42:13.371,21403960,-36474010,31129270,31266510,100859400,-20015620,146328100
2026-01-14 16:42:13.381,22078100,-60430360,7880716,31869860,12890630,-2040625,133515600
2026-01-14 16:42:13.391,-21311600,-60447620,8329566,76070940,13921880,-1996875,107109400
2026-01-14 16:42:13.401,-20966340,-3706013,3185520,76122740,1371875,-18375,8875
2026-01-14 16:42:13.411,-20880020,-60456250,8251880,76191780,10953130,-1515625,70351560
2026-01-14 16:42:13.421,-45862680,-60318140,7906614,51399030,6609375,-12859380,1890625
2026-01-14 16:42:13.431,22785900,-36481780,31225080,32543140,32089840,-11875,-48710940
2026-01-14 16:42:13.441,-46194130,-29685190,-22950760,51706320,2046875,-125546900,-103671900
2026-01-14 16:42:13.451,22344820,-59964240,7241974,32172840,32792970,-119375,-120390600
2026-01-14 16:42:13.461,-46738790,-60059190,7060710,52076620,57304690,-83828130,-86796870
2026-01-14 16:42:13.471,-23901110,-60188670,6603232,75673890,7484375,-49765620,-38144530
2026-01-14 16:42:13.481,-25299440,-30506930,-23889890,75207780,74804690,-31308590,41333010
2026-01-14 16:42:13.491,-2674956,-60335400,5058162,7472438,63085940,-24863280,35078120
2026-01-14 16:42:13.501,-48876860,-35093800,29488390,53494800,43710940,-18066410,47539060
2026-01-14 16:42:13.511,-2929591,-31553090,-25174280,7390439,27285160,-10996090,47578120
2026-01-14 16:42:13.521,16426080,-6018005,284844,5,26818610,14560550,-44091800,45664060
2026-01-14 16:42:13.531,-50162980,-60110980,2209712,54366600,12597660,45581060,39453120
2026-01-14 16:42:13.541,-50479760,-32326490,-26161740,54567720,-12529300,13867190,33964840
2026-01-14 16:42:13.551,14604790,-60076460,966748,3,25152690,-2671875,23417970,32265620
2026-01-14 16:42:13.561,14025610,-60128250,362530,2,24609760,-39707030,33203120,31074220
2026-01-14 16:42:13.571,-3431092,-33228490,-27227750,7182415,-47382810,42070310,28417970
2026-01-14 16:42:13.581,12877590,-33545280,-27584240,23513540,-52578120,51445310,20136720
2026-01-14 16:42:13.591,-35605660,-60568460,-1234326,70891940,-52265620,58007810,12021480
2026-01-14 16:42:13.601,-36192610,-32712320,26466440,70374040,-48320310,60820310,8198242
2026-01-14 16:42:13.611,-36753670,-61120890,-1959388,69812980,-41289060,60820310,75878900
2026-01-14 16:42:13.621,10616960,-61466150,-2235604,21268440,-33417970,58828120,7919922
2026-01-14 16:42:13.631,-3791895,-61854580,-2468660,6850958,-26660160,5375,6567383
2026-01-14 16:42:13.641,928077,5,-62286160,-2710346,1991152,-21503910,48671880,3112793
2026-01-14 16:42:13.651,8529822,-33211230,26640800,19143330,-17177730,48828120,-25680540
2026-01-14 16:42:13.661,7739159,-63304700,-3141930,18328490,-159375,52578120,-26416020
2026-01-14 16:42:13.671,-4056023,-33638500,26921330,6503965,-15849610,603125,-7753906
2026-01-14 16:42:13.681,6209629,-33897450,27111230,16733360,-18457030,68046870,-11933590
2026-01-14 16:42:13.691,-41639200,-65005140,-3461304,63183860,-22324220,7375,-19560550
2026-01-14 16:42:13.701,-42010360,-34539650,27642940,62346580,-23964840,77226560,-28085940
2026-01-14 16:42:13.711,9130930,-66153150,-3193718,10169490,-23925780,78515620,-35976560
2026-01-14 16:42:13.721,4035308,-66696950,-2874346,14367420,-20800780,76679690,-40585940
2026-01-14 16:42:13.731,-42580050,-67232110,-2477286,60205930,-17138670,73554690,-4328125
2026-01-14 16:42:13.741,79392410,-67758650,-2002550,89615770,-11630860,6921875,-47617190
2026-01-14 16:42:13.751,3002959,-68259280,-1484648,13172800,-7944336,64492190,-48476560
2026-01-14 16:42:13.761,-4981683,-37396730,30430970,5136363,-65722660,59648440,-49296880
2026-01-14 16:42:13.771,6876771,-34796440,34101590,7883394,-7885742,53945310,-515625
2026-01-14 16:42:13.781,70106200,-69623090,414316,71107990,-9345703,48554690,-54140620
2026-01-14 16:42:13.791,17997040,-70011520,1199798,117692900,-10488280,41132810,-5484375
2026-01-14 16:42:13.801,-43037530,-37752360,-30506920,56192200,-12099610,3125,-55195310
2026-01-14 16:42:13.811,1490690,-7065889,309014,2,11370500,-11640630,20429690,-53789060
2026-01-14 16:42:13.821,1433723,-40859760,34184020,11272100,-10498050,87939460,-50195310
2026-01-14 16:42:13.831,-42675000,-41454480,34866790,55329030,-8798828,-25952150,-45859380
2026-01-14 16:42:13.841,1453576,-42021580,35525380,11217720,-7294922,-13671880,-40546880
2026-01-14 16:42:13.851,1503637,-35957830,-28089200,11236710,-56884770,-23398440,-34394530
2026-01-14 16:42:13.861,1561469,-35578040,-27605820,11265200,-50683590,-30917970,-29511720
2026-01-14 16:42:13.871,59726870,-35236220,-27170790,69402980,-43359380,-37578120,-253125
2026-01-14 16:42:13.881,60084220,-71591110,9857370,69736160,-47607420,-42695310,-21230470
2026-01-14 16:42:13.891,60354400,-34704520,-26494070,69983890,-58984380,-47617190,-18046880
2026-01-14 16:42:13.901,17211560,-34532740,-26268780,113299400,-80859380,-50507810,-15712890
2026-01-14 16:42:13.911,-4139752,-34432610,-26127210,5448312,-9736328,-53671880,-15302730
2026-01-14 16:42:13.921,1776399,-71901850,11462860,11343740,-12792970,-55625,-16181640
2026-01-14 16:42:13.931,1838548,-44815660,38773480,11385180,-15302730,-56796880,-17890620
2026-01-14 16:42:13.941,6230517,-44904560,38857210,7183105,-17109380,-5765625,-18847660
2026-01-14 16:42:13.951,2084549,-34484400,-26092690,11588020,-16640630,-58242190,-18720700
2026-01-14 16:42:13.961,22770360,-45037490,38965970,117580700,-13994140,-58320310,-17470700
2026-01-14 16:42:13.971,2479017,-4508065,3899186,11935880,-10419920,-58398440,-15634770
2026-01-14 16:42:13.981,-46430640,-7260103,1148878,47913560,-55810550,-57226560,-16015630
2026-01-14 16:42:13.991,71424510,-34889230,-26481980,80838220,-14855960,-54609380,-15019530
2026-01-14 16:42:14.001,3097908,-7284271,1114350,12490900,1126709,-52617190,-13740230
2026-01-14 16:42:14.011,-38928850,-7295494,1091046,54845660,35839840,-496875,-12382810
2026-01-14 16:42:14.021,3397426,-35404540,-27036990,12761070,51464840,-46367190,-11621090
2026-01-14 16:42:14.031,81274200,-35590980,-27247610,82209700,64501950,-43359380,-11123050
2026-01-14 16:42:14.041,3550209,-73187970,9935058,12901760,65625,-41015620,-10498050
2026-01-14 16:42:14.051,3576104,-73239760,9538002,12927660,62060550,-38769530,-11171880
2026-01-14 16:42:14.061,3556250,-7326566,913231,2,12912990,60498050,-35605470,-11962890
2026-01-14 16:42:14.071,-38635370,-73274290,8692096,55018290,51660160,-3296875,-12080080
2026-01-14 16:42:14.081,34336800,-73265660,8234616,128111300,39916990,-30117190,-11210940
2026-01-14 16:42:14.091,3330961,-36781290,-28681330,12723950,26831060,-26503910,-10390630
2026-01-14 16:42:14.101,74361010,-36979820,-28931650,83771260,22424320,-22480470,-10214840
2026-01-14 16:42:14.111,3061656,-73144810,6784496,12492620,16137700,-18066410,-11337890
2026-01-14 16:42:14.121,28950640,-7308444,627521,3,123484700,58670040,-13652340,-12509770
2026-01-14 16:42:14.131,2729334,-37559870,-29680880,12203460,-101501500,-9995117,-12001950
2026-01-14 16:42:14.141,68276540,-7295495,526529,2,77771390,-13122560,-640625,-12070310
2026-01-14 16:42:14.151,2373711,-72903120,4764684,11885810,-7110596,-19128420,-11582030
2026-01-14 16:42:14.161,-46943360,-41997410,35135230,48333060,-35858150,23852540,-11054690
2026-01-14 16:42:14.171,19801060,-34944220,-34178240,115198300,-15716550,70458980,-11240230
2026-01-14 16:42:14.181,-4119035,-72885860,3210984,5427594,23117060,121875,-10849610
2026-01-14 16:42:14.191,1552840,-41318960,34294500,11101190,1600647,16972660,-9692383
2026-01-14 16:42:14.201,1346543,-41123020,34041600,10893170,8911133,22246090,-83984380
2026-01-14 16:42:14.211,54528880,-40945210,33805080,64070330,1104126,2796875,-62646480
2026-01-14 16:42:14.221,-4189813,-40776030,33577220,5341279,19909670,32753910,-2133789
2026-01-14 16:42:14.231,-41993100,-7329157,71644,33,53179740,26171880,37070310,24414060
2026-01-14 16:42:14.241,696578,5,-37214430,36482800,10196600,28076170,4109375,68359380
2026-01-14 16:42:14.251,560194,-40552470,-33213820,10039500,27294920,4453125,10732420
2026-01-14 16:42:14.261,442805,-4029180,3285302,9897941,15734860,49140620,14384770
2026-01-14 16:42:14.271,-42070780,-41142880,-33849100,52169840,36254880,53476560,16904300
2026-01-14 16:42:14.281,-41993100,-7420653,-138968,51884990,-2861328,56953120,19033200
2026-01-14 16:42:14.291,43923140,-40199440,32582840,53269510,-67041020,58828120,19941410
2026-01-14 16:42:14.301,43428540,-41976700,-34689840,52728310,-9584961,59804690,20996090
2026-01-14 16:42:14.311,150192,5,-36923370,36152390,9396439,-11884770,60273440,22207030
2026-01-14 16:42:14.321,178675,5,-75449470,-2028444,9367953,-14453130,60078120,22871090
2026-01-14 16:42:14.331,-40845080,-75820620,-1950754,50426240,-16191410,58515620,22832030
2026-01-14 16:42:14.341,3107408,-76209060,-1752230,93739980,-16972660,56289060,20878910
2026-01-14 16:42:14.351,413456,-39070000,-38994870,9409387,-16611330,525,19404300
2026-01-14 16:42:14.361,-39645280,-4184897,3404075,49640760,-16699220,44921880,19423830
2026-01-14 16:42:14.371,6456492,-42260680,34457640,95052000,-15957030,34023440,19208980
2026-01-14 16:42:14.381,46876040,-4284248,-3508433,55668260,-13320310,22539060,19492190
2026-01-14 16:42:14.391,7820292,-78125290,353897,9,95069260,-9760742,11201170,20390620
2026-01-14 16:42:14.401,46683540,-7850511,87177,94,55342840,-7236328,117492700,22363280
2026-01-14 16:42:14.411,4585316,-42759590,-34735580,5444686,-55566410,-7426758,2390625
2026-01-14 16:42:14.421,-37763580,-7922153,182993,1,47517370,-62353520,-14648440,25390620
2026-01-14 16:42:14.431,488554,5,-44786300,37059230,8954497,-78125,-21132810,25996090
2026-01-14 16:42:14.441,41457940,-45160920,37444200,49865180,-91552740,-271875,25429690
2026-01-14 16:42:14.451,234779,8,-42681040,-34348020,8586788,-10498050,-32441410,24746090
2026-01-14 16:42:14.461,1398328,-45845420,38158040,84400510,-11210940,-37363280,23300780
2026-01-14 16:42:14.471,673268,-46155290,38486910,83226610,-10732420,-41484380,21132810
2026-01-14 16:42:14.481,-36943570,-80852900,4358998,45195450,-95947260,-446875,19492190
2026-01-14 16:42:14.491,36650950,-42446260,-33875000,44832060,-81396480,-48320310,18222660
2026-01-14 16:42:14.501,40074960,-8114639,498046,3,40890140,-6821289,-5125,15810550
2026-01-14 16:42:14.511,36158950,-47021050,39416540,44288260,-5175781,-52851560,13496090
2026-01-14 16:42:14.521,-517904,-42320240,-33655760,80619840,-40405270,-53828120,11474610
2026-01-14 16:42:14.531,35653130,-42325420,-33650580,43758280,-40649420,-546875,9199219
2026-01-14 16:42:14.541,38955350,-47166060,39565000,39765520,-48291020,-54726560,7495117
2026-01-14 16:42:14.551,-160547,5,-43685680,42924540,7946318,-49902340,-53359380,5053711
2026-01-14 16:42:14.561,-209750,-8132764,507542,2,7909203,-5498047,-51015620,27368160
2026-01-14 16:42:14.571,33997580,-46866540,39225780,42133790,-6484375,-48398440,17248540
2026-01-14 16:42:14.581,-3081504,-43230620,42464640,78522340,-76220700,-45507810,60394290
2026-01-14 16:42:14.591,-3409512,-8100830,423815,3,78505080,-86621100,-40976560,29083250
2026-01-14 16:42:14.601,33433060,-8083566,389286,9,41662500,-86572260,-35976560,-2218628
2026-01-14 16:42:14.611,37306700,-42748370,-34332490,38134140,-86376950,-30390620,-14867780
2026-01-14 16:42:14.621,-3469928,-45629620,37907720,79773940,-83740230,-25371090,9320068
2026-01-14 16:42:14.631,-305561,-4529903,3756505,8074068,-8120117,-20527340,23864750
2026-01-14 16:42:14.641,-2408236,-7978260,233918,8,81992270,-7026367,-15380860,3605957
2026-01-14 16:42:14.651,-1691808,-7944597,191623,1,83347450,-5058594,-92089840,5058594
2026-01-14 16:42:14.661,-897696,-4284335,-3478997,84797570,-34887700,-2052002,7475586
2026-01-14 16:42:14.671,38926260,-43730650,35956960,47563120,-23632810,5908203,9892578
2026-01-14 16:42:14.681,109620,5,-39314260,-38526180,8815528,-18005370,14160160,10742190
2026-01-14 16:42:14.691,221833,-42874390,-35086890,8996793,-45715330,20898440,10878910
2026-01-14 16:42:14.701,-39446750,-7752109,-57830,32,48976120,1361084,27285160,11914060
2026-01-14 16:42:14.711,465247,-77106750,-1130748,9374858,3955078,32480470,12509770
2026-01-14 16:42:14.721,46353820,-41440670,33603100,55327310,6015625,38105470,12441410
2026-01-14 16:42:14.731,723334,5,-4296417,-3554955,9755518,5996094,44140620,11816410
2026-01-14 16:42:14.741,8519464,-7597604,-265856,3,99376460,56347660,49296880,10371090
2026-01-14 16:42:14.751,-40111390,-75656620,-3046982,51211720,43676760,54375,7167969
2026-01-14 16:42:14.761,1136792,-7537179,-331456,3,10308810,20776370,58554690,27929690
2026-01-14 16:42:14.771,58839280,-751303,6,-34356,64,59759930,-107543900,61445310,-6628418
2026-01-14 16:42:14.781,1554563,-42721610,-35567680,10788730,-37304690,61835940,-4453125
2026-01-14 16:42:14.791,64188410,-39697940,31910440,65114070,-59716800,5953125,-7246094
2026-01-14 16:42:14.801,63208020,-7459496,-272763,6,72481900,-75146480,54648440,-9692383
2026-01-14 16:42:14.811,2468659,-7445683,-219244,8,11756340,-7402344,478125,-11181640
2026-01-14 16:42:14.821,-39084220,-74335980,-1570962,53930700,-62939450,39433590,-11689450
2026-01-14 16:42:14.831,-38859800,-7421516,-89767,46,54258700,-4909668,30917970,-11748050
2026-01-14 16:42:14.841,-38704430,-40659500,33227630,54534920,-39648440,21621090,-12392580
2026-01-14 16:42:14.851,-3861811,-7400798,43158,45,5472482,-23657230,12587890,-13085940
2026-01-14 16:42:14.861,76465420,-40190810,-32695060,85810070,-21069340,5708008,-13515630
2026-01-14 16:42:14.871,7628762,-41342270,34115830,8564259,-2919922,33233640,-15927730
2026-01-14 16:42:14.881,3345638,-38320580,37603630,12709280,-51904300,-46777340,-17265620
2026-01-14 16:42:14.891,3230837,-41753140,34637180,12599650,-7753906,-96240230,-18408200
2026-01-14 16:42:14.901,3116035,-73749020,3107404,12490030,-10244140,-13427730,-19160160
2026-01-14 16:42:14.911,-39187800,-35457200,-34683790,54569440,-12070310,-16865230,-19541020
2026-01-14 16:42:14.921,29166420,-73723140,4100042,122923700,-12412110,-19912110,-1984375
2026-01-14 16:42:14.931,-39343170,-34952850,-34169600,54414070,-1171875,-22871090,-19384770
2026-01-14 16:42:14.941,2805293,-38259030,-30380040,12179290,-10351560,-26230470,-18505860
2026-01-14 16:42:14.951,-39394960,-73705870,5515642,54310500,-91748050,-29785160,-16669920
2026-01-14 16:42:14.961,2739692,-37877510,-29915660,12106790,-78271490,-3421875,-15800780
2026-01-14 16:42:14.971,2699126,-73705870,6223436,12061040,-6074219,-36367190,-13466800
2026-01-14 16:42:14.981,68518230,-4345793,3673034,77874970,-40576170,-38320310,-11396480
2026-01-14 16:42:14.991,2548932,-37613390,-29575570,11900490,-19482420,-39765620,-9140625
2026-01-14 16:42:15.001,2431542,-37627200,-29579020,11776190,-6488037,-40234380,-6225586
2026-01-14 16:42:15.011,-39748860,-73938930,6577338,53611330,-5987549,-40234380,-38452150
2026-01-14 16:42:15.021,62750540,-7404253,642193,7,72076210,-2923584,-38554690,-17956540
2026-01-14 16:42:15.031,18601260,-38019080,-29981260,111737000,7194519,-36132810,-7623291
2026-01-14 16:42:15.041,1633978,-43533850,36688930,10933740,20355220,-33085940,-9173584
