Timestamp,Rotation X,Rotation Y,Rotation Z,Rotation W,Acceleration X,Acceleration Y,Acceleration Z
2026-01-14 16:41:57.851,24220480,-6806073,-5387029,-45454400,45074460,-13374330,-12369160
2026-01-14 16:41:57.881,-7309304,-68095280,-53870280,-14269890,22918700,-19927980,-29006960
2026-01-14 16:41:57.891,24004690,-13220270,1021990,-45583870,22415160,-26916500,-3366089
2026-01-14 16:41:57.921,33663520,-68147070,-53870280,-35855980,11917110,-69389340,-25390620
2026-01-14 16:41:57.931,34740070,-68155700,-53861650,-34762170,-28182980,-16555790,-16189580
2026-01-14 16:41:57.941,-766063,5,-68172970,-53861650,-1460914,-39794920,-29006960,-4043579
2026-01-14 16:41:57.951,33611740,-68181600,-53853020,-35855980,-64331060,-15823360,-6463623
2026-01-14 16:41:57.961,23417730,-13266880,1061695,-46032720,-67871100,-11405950,-6958008
2026-01-14 16:41:57.971,-7922151,-13275520,1070328,-14865470,-61309820,-11054990,-55358890
2026-01-14 16:41:57.981,-8008468,-6820749,-5384438,-14951790,-7110596,-2848816,-6414795
2026-01-14 16:41:57.991,-8094785,-13292780,1087591,-15038100,-8258057,-37231440,-435791
2026-01-14 16:41:58.001,-8181103,-68207500,-53827120,-15124420,-11375430,-74539180,-4385376
2026-01-14 16:41:58.011,22986150,-68216130,-53818490,-46464310,-7156372,-11123660,-26435850
2026-01-14 16:41:58.021,22986150,-68224750,-53809860,-46464310,13549810,8560181,4724121
2026-01-14 16:41:58.031,22994780,-68233380,-53801230,-46472940,2154541,-87509150,56640620
2026-01-14 16:41:58.041,22994780,-68233380,-53783960,-46472940,37994380,-20126340,42388920
2026-01-14 16:41:58.051,22908460,-68242020,-53775330,-46559260,1499176,-25268560,3591919
2026-01-14 16:41:58.081,-11564290,-13341980,1141971,-12259140,-2548,695,-24612430,3604126
2026-01-14 16:41:58.091,-11564290,-13350610,1150603,-12259140,2922058,-17456060,2722168
2026-01-14 16:41:58.101,-11564290,-13350610,1150603,-12259140,-8010864,-2885437,36621100
2026-01-14 16:41:58.111,22839410,-13359240,1159233,-46662830,623703,-3189087,42236330
2026-01-14 16:41:58.121,22753090,-13358380,1160096,-46749140,10009770,-12763980,35064700
2026-01-14 16:41:58.131,22753090,-6825926,-5372355,-46749140,9788513,-16281130,6317139
2026-01-14 16:41:58.141,22753090,-13375640,1177360,-46749140,-14862060,-19546510,54779050
2026-01-14 16:41:58.151,22761730,-13375640,1177360,-46757780,-932312,-12992860,47607420
2026-01-14 16:41:58.161,22761730,-78950470,66752200,-46757780,6241,798,-15350340,52001950
2026-01-14 16:41:58.171,22761730,-78950470,66752200,-46757780,126571700,-28030400,41290280
2026-01-14 16:41:58.181,22848040,-133834100,11868560,-46671470,25543210,15497210,6097412
2026-01-14 16:41:58.191,22848040,-133920400,11954870,-46671470,10238650,-7858276,56640620
2026-01-14 16:41:58.201,22848040,-133920400,11954870,-46671470,14328000,13511660,8001709
2026-01-14 16:41:58.211,22848040,-134006700,12041190,-46671470,28137210,-30700680,29708860
2026-01-14 16:41:58.221,22848040,-134006700,12041190,-46671470,1083374,-15342710,6173706
2026-01-14 16:41:58.231,22934360,-134093100,12127500,-46585150,129470800,-6450653,619812
2026-01-14 16:41:58.241,22925730,-79209420,67011140,-46576520,4634857,-14678960,5480957
2026-01-14 16:41:58.251,22925730,-79295740,67097460,-46576520,-44937140,-17654420,26611330
2026-01-14 16:41:58.281,-11564280,-79295740,67097460,-12259140,-4473877,-496521,-1739502
2026-01-14 16:41:58.291,22735840,-79296600,67096600,-46731890,-72021490,-32440190,-9712219
2026-01-14 16:41:58.301,22735840,-79382920,67182910,-46731890,-5114746,-41107180,12298580
2026-01-14 16:41:58.311,22735840,-79382920,67182910,-46731890,-9411621,-5645752,14572140
2026-01-14 16:41:58.321,22735840,-79382920,67182910,-46731890,-5419922,-3439331,21148680
2026-01-14 16:41:58.331,22735840,-79382920,67182910,-46731890,-6365967,-20431520,16937260
2026-01-14 16:41:58.341,22735840,-79382920,67182910,-46731890,-61645510,-463562,38635260
2026-01-14 16:41:58.351,22735840,-79382920,67182910,-46731890,-6536865,-25558470,13641360
2026-01-14 16:41:58.361,22735840,-79382060,67183780,-46731890,-53222660,-1449585,357666
2026-01-14 16:41:58.371,-11650600,-79382060,67183780,-12345450,-45135500,-20614620,38482660
2026-01-14 16:41:58.381,-11650600,-79382060,67183780,-12345450,-22277830,-2548,695,37719730
2026-01-14 16:41:58.391,-11650600,-79295740,67097460,-12345450,-57525640,6756,783,58685300
2026-01-14 16:41:58.401,22753100,-79295740,67097460,-46749150,-7019043,13221740,5645752
2026-01-14 16:41:58.411,22839410,-79295740,67097460,-46662840,-24337770,6677246,5302429
2026-01-14 16:41:58.421,22839410,-79209420,67011140,-46662840,3640747,9173584,-21514890
2026-01-14 16:41:58.431,22848040,-134006700,12041190,-46671470,47668460,66467280,-3060913
2026-01-14 16:41:58.461,22942990,-133920400,11954870,-46593780,4058838,-4458618,45074460
2026-01-14 16:41:58.471,23029310,-133920400,11954870,-46507470,54107660,-13305660,79711910
2026-01-14 16:41:58.481,23029310,-133920400,11954870,-46507470,4699707,-41160580,4248047
2026-01-14 16:41:58.491,23115620,-133834100,11868560,-46421150,5255127,-37872310,-304,2221
2026-01-14 16:41:58.501,23115620,-133834100,11868560,-46421150,2758789,-129776,-23590090
2026-01-14 16:41:58.511,23115620,-68259280,-53706280,-46421150,16662600,-13290410,-24307250
2026-01-14 16:41:58.521,23115620,-68259280,-53706280,-46421150,42938230,-13465880,-20370480
2026-01-14 16:41:58.531,23201940,-68259280,-53706280,-46334830,47210690,2264,977,-11436460
2026-01-14 16:41:58.541,23201940,-68259280,-53706280,-46334830,9681702,1499176,10620120
2026-01-14 16:41:58.551,23201940,-68259280,-53706280,-46334830,20713810,31311040,-5027771
2026-01-14 16:41:58.561,23201940,-68259280,-53706280,-46334830,19973760,50445560,-9300232
2026-01-14 16:41:58.571,23201940,-68259280,-53706280,-46334830,-46463010,40405270,-50811770
2026-01-14 16:41:58.581,23193310,-13375640,1177360,-46326200,-4000,664,4815674,18749240
2026-01-14 16:41:58.591,23193310,-78950470,66752200,-46326200,28701780,18295290,24658200
2026-01-14 16:41:58.601,23107000,-78950470,66752200,-46412520,24089810,-1600647,13183590
2026-01-14 16:41:58.611,23107000,-79036780,66838510,-46412520,-16508100,-6323242,24917600
2026-01-14 16:41:58.621,23193310,-79036780,66838510,-46326200,-9124756,-11053470,17486570
2026-01-14 16:41:58.631,23193310,-79036780,66838510,-46326200,-20370480,-11773680,-21484380
2026-01-14 16:41:58.661,-8088745,-61709560,-60255990,-15044150,-4142761,-7849121,-6402588
2026-01-14 16:41:58.671,23305520,-13348020,1153191,-46265780,72517390,-10681150,-4446411
2026-01-14 16:41:58.681,23400470,-13339390,1144559,-46188090,2482605,-95825190,-42755130
2026-01-14 16:41:58.691,-7827203,-13322130,1127297,-14787790,3768921,-10272220,-40100100
2026-01-14 16:41:58.701,33689430,-13296230,1101400,-35933660,64208980,-12426760,-5606079
2026-01-14 16:41:58.711,34809130,-6814706,-5378398,-34831220,7373047,-11541750,-340271
2026-01-14 16:41:58.721,-7393030,-13252210,1059107,-14358790,9527588,-8709717,-4763794
2026-01-14 16:41:58.731,24134160,-13226310,1033211,-45540710,10601810,-362854,-5795288
2026-01-14 16:41:58.741,24315420,-6806073,-5387029,-45376710,10760500,-17288210,-78430180
2026-01-14 16:41:58.751,24410380,-76789970,64596860,-45299030,11627200,-2633667,-10296630
2026-01-14 16:41:58.761,-9923056,-76531020,64337910,-10620330,97473140,1159668,-111084000
2026-01-14 16:41:58.771,24772900,-131132400,9218626,-44971030,1459961,15853880,-10723880
2026-01-14 16:41:58.781,-6437506,-67948540,-53965230,-13415350,13952640,27561190,-101379400
2026-01-14 16:41:58.791,25144070,-13060580,870934,5,-44651650,15100100,34210200,-7672119
2026-01-14 16:41:58.801,-6089647,-13033830,845904,4,-13072670,14904790,4522705,-81970220
2026-01-14 16:41:58.811,25523860,-13007930,820008,-44340910,1595459,39886480,-64331060
2026-01-14 16:41:58.821,25618810,-67827700,-54034280,-44263230,16223150,48583980,-32287600
2026-01-14 16:41:58.831,25808700,-67801800,-54042910,-44107860,16015630,22094730,390625
2026-01-14 16:41:58.861,26179870,-12944920,762176,-43788480,12609860,16418460,10473630
2026-01-14 16:41:58.871,26352500,-12944920,762176,-43615850,8001709,15533450,14025880
2026-01-14 16:41:58.881,26438820,-12936290,753544,5,-43529540,7342529,-28945920,10443120
2026-01-14 16:41:58.891,26525140,-12936290,753544,5,-43443220,7171631,38146970,5621338
2026-01-14 16:41:58.901,2660280,-67758640,-54086070,-4334830,12893680,-3555298,20523070
2026-01-14 16:41:58.911,2660280,-67750010,-54094700,-4334830,-20507810,-17074580,-26138310
2026-01-14 16:41:58.921,2668912,-67750010,-54094700,-4326199,-3543091,-30776980,-42785640
2026-01-14 16:41:58.931,2668912,-67741380,-54103330,-4326199,-69885260,-4299164,-64941410
2026-01-14 16:41:58.941,2668912,-67732740,-54111960,-4326199,-99487300,-15068050,-86242670
2026-01-14 16:41:58.951,2660280,-67732740,-54111960,-4334830,-9509277,-22659300,-54107660
2026-01-14 16:41:58.961,34146900,-128940000,7095235,-35821460,-10412600,-11505130,-4333496
2026-01-14 16:41:58.971,34146900,-128940000,7095235,-35821460,-11621090,12989040,-22888180
2026-01-14 16:41:59.001,34181440,-74021790,61840770,-35855980,-4196167,1838684,39154050
2026-01-14 16:41:59.011,34190060,-128741400,6948495,-35864620,-18157960,16204830,5999756
2026-01-14 16:41:59.021,2666328,-68453840,67236080,-4340872,-49468990,5960083,6695557
2026-01-14 16:41:59.031,26585560,-68453840,67236080,-43503640,-75927740,26870730,62805180
2026-01-14 16:41:59.061,26611450,-128715500,6974391,-43529540,3869629,42663580,8459473
2026-01-14 16:41:59.071,26620080,-128715500,6974391,-43538170,36834720,-6942749,84350580
2026-01-14 16:41:59.081,26620080,-128801800,7060711,-43538170,57769780,-3994751,9716797
2026-01-14 16:41:59.091,26620080,-128801800,7060711,-43538170,7739258,-58166500,11608890
2026-01-14 16:41:59.101,26620080,-128801800,7060711,-43538170,59570310,-49560550,15283200
2026-01-14 16:41:59.111,26611450,-128888200,7147023,-43529540,5911255,-15205380,140625
2026-01-14 16:41:59.121,-4952852,-74105510,61929670,-11965230,3479004,-3579712,12597660
2026-01-14 16:41:59.131,26594190,-74105510,61929670,-43512270,6580353,-37750240,9429932
2026-01-14 16:41:59.141,-4955441,-68626470,67408710,-11962640,-3152466,-34301760,5709839
2026-01-14 16:41:59.151,26568300,-128914100,7121127,-43486380,-31021120,-33294680,5819702
2026-01-14 16:41:59.161,-4958034,-12900900,719882,4,-11960050,-4260254,14190670,61401370
2026-01-14 16:41:59.171,26533770,-12901760,719018,-43451850,-32806400,40802000,80566410
2026-01-14 16:41:59.181,26438810,-67732740,-54111960,-43529540,-4425049,17211910,6915283
2026-01-14 16:41:59.191,26421550,-67741380,-54120600,-43512270,-41107180,28198240,5230713
2026-01-14 16:41:59.201,-5050393,-12904350,716429,9,-12040320,-28182980,12496950,7739258
2026-01-14 16:41:59.211,26387030,-12905220,715565,-43477740,-34362790,8987427,6402588
2026-01-14 16:41:59.241,-5229066,-74115010,61920180,-12206920,-9387207,-66986080,-2859497
2026-01-14 16:41:59.251,26067660,-129000400,7034815,-43676280,-11871340,-25115970,-51574710
2026-01-14 16:41:59.261,-8541989,-74116740,61918450,-9239261,-7312012,10055540,-57891850
2026-01-14 16:41:59.271,-89420780,-74030420,61832140,-90118050,-7330322,-2960205,-7019043
2026-01-14 16:41:59.281,25791450,-74030420,61832140,-43917960,-52490230,-22079470,-3414917
2026-01-14 16:41:59.291,25791450,-73944960,61744960,-43917960,-57281500,-25436400,-25115970
2026-01-14 16:41:59.301,25705130,-73944960,61744960,-44004280,-3390503,-25512700,-3540039
2026-01-14 16:41:59.311,25618810,-73858640,61658640,-44090600,-34057620,-3756714,-15235900
2026-01-14 16:41:59.321,25618810,-73857780,61659500,-44090600,-3982544,42266850,15434270
2026-01-14 16:41:59.331,-8973573,-73771470,61573190,-9670845,-21270750,-648,0217,9918213
2026-01-14 16:41:59.341,-8973573,-73771470,61573190,-9670845,-9597778,11245730,3125
2026-01-14 16:41:59.351,25463440,-73685140,61486870,-44280490,-49224860,51879880,1966858
2026-01-14 16:41:59.361,25463440,-128568800,6603231,-44280500,-18585200,-2494812,48980710
2026-01-14 16:41:59.371,25472070,-128568800,6603231,-44289130,17974850,-34729000,33691410
2026-01-14 16:41:59.381,25472070,-128482500,6516919,-44289130,6034851,-27282720,56915280
2026-01-14 16:41:59.391,25472070,-128396200,6430599,-44289130,16067510,-16601560,38269040
2026-01-14 16:41:59.401,25385750,-128396200,6430599,-44375440,8155823,-118255600,38757320
2026-01-14 16:41:59.411,25385750,-128309800,6344287,-44375440,26412960,-18249510,36895750
2026-01-14 16:41:59.421,25385750,-128309800,6344287,-44375440,28015140,-11253360,4663086
2026-01-14 16:41:59.431,25385750,-12823210,624932,-44375440,21621700,-24276730,7659912
2026-01-14 16:41:59.461,-9059892,-6771548,-5428460,-9757158,3062439,-26412960,7952881
2026-01-14 16:41:59.471,25446180,-12806810,606805,5,-44263220,2104187,-20492550,49713140
2026-01-14 16:41:59.481,25437540,-67715490,-54301860,-44254600,24810790,-27160640,37750240
2026-01-14 16:41:59.491,25428910,-67715490,-54319130,-44245960,19515990,-24398800,20736690
2026-01-14 16:41:59.501,-5925647,-67706860,-54327760,-12891410,3338623,-13061520,51086420
2026-01-14 16:41:59.511,25411650,-12783510,578321,-44228700,31829830,-234375,463562
2026-01-14 16:41:59.541,25385750,-67698220,-54388180,-44202810,18417360,-26611330,5970001
2026-01-14 16:41:59.551,25377120,-12751570,541205,5,-44194170,16235350,-33813480,-2357483
2026-01-14 16:41:59.561,-5930823,-12742940,532574,9,-12886230,-8911133,-2532959,-22716520
2026-01-14 16:41:59.571,-5930823,-12726540,514448,3,-12886230,77400210,-38970950,-17227170
2026-01-14 16:41:59.581,25359860,-12717910,505815,-44176910,-16418460,-39123540,-16021730
2026-01-14 16:41:59.591,25351220,-67672330,-54465860,-44168280,-17486570,-24841310,-1386261
2026-01-14 16:41:59.621,25437540,-67637800,-54517660,-44081960,22705080,-5343628,-12245180
2026-01-14 16:41:59.631,25437540,-61732010,-60423450,-44081960,34088140,-60302740,8285522
2026-01-14 16:41:59.641,25523860,-126333200,4177727,-43995650,4397583,-30380250,2015686
2026-01-14 16:41:59.651,25523860,-126160600,4005095,-43995650,-28438570,-14671330,21636960
2026-01-14 16:41:59.681,25618810,-12556490,339223,5,-43917960,48828120,26901240,-40863040
2026-01-14 16:41:59.691,25705130,-12539230,321960,-43831640,9710693,16464230,-11314390
2026-01-14 16:41:59.701,-55001030,-12521960,304700,5,-124537800,10803220,-25848390,28549190
2026-01-14 16:41:59.711,-86291710,-6748239,-5469025,-93247120,9729004,-58166500,5496216
2026-01-14 16:41:59.721,-5412923,-12487440,270171,8,-12368330,12695310,-3744507,99487300
2026-01-14 16:41:59.731,25964080,-12470180,252907,-43572690,13635250,-30166630,103027300
2026-01-14 16:41:59.741,26050390,-12445150,226148,5,-43486380,121154800,-30761720,11755370
2026-01-14 16:41:59.751,26041760,-12427880,208885,5,-43477740,9075928,-35369870,87768550
2026-01-14 16:41:59.761,26128070,-67404740,-54802500,-43391430,5267334,-6982422,55633540
2026-01-14 16:41:59.771,26205760,-12386450,164001,-43296480,7537842,-3289795,4248047
2026-01-14 16:41:59.781,-8197933,-12370050,145875,5,-8892783,9118652,-29037480,-14030460
2026-01-14 16:41:59.791,26274820,-123450200,1191175,-43192910,7006836,37708280,-16357420
2026-01-14 16:41:59.801,26266190,-62759440,61536680,-43184270,6329346,45806880,19165040
2026-01-14 16:41:59.811,26248930,-68003780,55774430,-43167010,8605957,62316900,2558899
2026-01-14 16:41:59.821,-4989974,-67327060,-54983760,-11928110,72143550,8404541,48034670
2026-01-14 16:41:59.831,26223020,-61780340,-60547740,-43141110,7904053,7086182,4284668
2026-01-14 16:41:59.841,26119450,-12263020,28483,48,-43210170,49591060,4034424,38085940
2026-01-14 16:41:59.851,26093550,-67318430,-55061460,-43184270,38604740,19714360,-4383087
2026-01-14 16:41:59.881,25687860,-12207780,-37117,01,-43469110,58776860,57373050,-7659912
2026-01-14 16:41:59.891,-55208200,-67309790,-55173660,-124330600,74157710,41748050,-10510250
2026-01-14 16:41:59.901,25385750,-67309800,-55190930,-43684900,3933716,51574710,-6793213
2026-01-14 16:41:59.911,-5784948,-12168930,-84590,15,-12686830,16906740,-9635925,-3086853
2026-01-14 16:41:59.921,-5873855,-12162030,-94947,65,-12770560,2204895,-36987300,-27809140
2026-01-14 16:41:59.931,-6049080,-67318430,-55285880,-12940610,-23895260,-3366089,-65689090
2026-01-14 16:41:59.941,24764270,-12139590,-124297,-44099220,-8300781,-38482660,6832123
2026-01-14 16:41:59.951,-6400390,-61935720,-60737640,-13279830,-17053220,-87524420,-6450653
2026-01-14 16:41:59.961,24358590,-65866580,53595790,-44384080,-23498540,-92163090,-3616333
2026-01-14 16:41:59.971,24168690,-120834800,-1890334,-44539450,-2614746,-10473630,-43762210
2026-01-14 16:41:59.981,24056480,-59827080,58599490,-44599860,-2746582,-8795166,-657959
2026-01-14 16:41:59.991,-7013238,-67283900,-55510300,-13875420,-23339840,-72509770,-7678223
2026-01-14 16:42:00.001,23754370,-11993710,-289162,5,-44815660,-16491700,-8746338,-836792
2026-01-14 16:42:00.011,23650780,-67249380,-55596610,-44884710,-13623050,-10089110,-35980220
2026-01-14 16:42:00.021,23538580,-11944510,-343542,-44945130,-107788100,-91918940,-27709960
2026-01-14 16:42:00.031,23512680,-11920340,-371162,5,-44919230,-61553960,-107421900,-7472992
2026-01-14 16:42:00.041,-7284273,-62050520,-60899060,-14122290,-30960080,-11126710,-10612490
2026-01-14 16:42:00.051,-7286859,-11880640,-417772,7,-14119690,-27664180,-657959,-49865720
2026-01-14 16:42:00.081,23538580,-62779030,50468540,-44599870,-287323,-11238100,-16833500
2026-01-14 16:42:00.091,23590370,-118020900,-5118582,-44479020,-18676760,22201540,-15002440
2026-01-14 16:42:00.101,-69571290,-62523530,50206140,-137588900,-31921390,20462040,-16381840
2026-01-14 16:42:00.111,23711210,-62438940,50118090,-44254600,-13801580,19622800,-19702150
2026-01-14 16:42:00.121,-6789675,-11780510,-542069,1,-13581080,-11932370,51818850,-21325680
2026-01-14 16:42:00.131,23840680,-62182590,-61060470,-44038810,-25772100,47576900,-23083500
2026-01-14 16:42:00.141,-6619634,-62191210,-61069090,-13405860,-22033690,1838684,-26708980
2026-01-14 16:42:00.151,23909740,-6724936,-5602821,-43935220,-52986140,-6095886,-2878418
2026-01-14 16:42:00.161,23996050,-11783100,-544659,5,-43848900,33035280,-34973140,-32348630
2026-01-14 16:42:00.171,-6533317,-67249380,-56010930,-13319540,12382510,-29846190,-32128910
2026-01-14 16:42:00.181,24013320,-117900000,-5343014,-43866180,2960205,-23284910,-3059082
2026-01-14 16:42:00.191,-6617039,-62439800,50117230,-13408450,19851680,-40100100,-2553711
2026-01-14 16:42:00.201,23961530,-62438940,50118090,-43987020,14816280,-2458191,-21862790
2026-01-14 16:42:00.211,23901100,-117960500,-5230798,-44099230,24276730,-1159668,-16564940
2026-01-14 16:42:00.221,23927000,-62522670,50207000,-44125120,27511600,-65078740,-12042240
2026-01-14 16:42:00.231,23866580,-118012300,-5109950,-44237340,496521,-5429077,-7904053
2026-01-14 16:42:00.241,23901110,-62605530,50296770,-44271860,6958008,-8459473,-58502200
2026-01-14 16:42:00.251,23927000,-62603810,50298500,-44297760,10308840,-6317139,-31585690
2026-01-14 16:42:00.281,24021950,-118012300,-4937322,-44392710,17907720,4196167,881958
2026-01-14 16:42:00.291,24047850,-62683220,50391720,-44418600,2076416,13336180,7727051
2026-01-14 16:42:00.301,24073740,-117900000,-4997742,-44444500,29418940,28533940,9197998
2026-01-14 16:42:00.311,24099640,-62594310,50307990,-44470390,31396480,3012085,7946777
2026-01-14 16:42:00.321,-6840602,-117960500,-4885524,-13702790,3059082,-13381960,77941900
2026-01-14 16:42:00.331,24056480,-62678040,50396900,-44599860,28125,-748,1575,8404541
2026-01-14 16:42:00.341,24073740,-117934600,-4859638,-44617130,27197270,17333980,13549810
2026-01-14 16:42:00.351,24082370,-118012300,-4764682,-44625760,19787600,9803772,14562990
2026-01-14 16:42:00.361,24185960,-57237580,56009990,-44556710,15539550,-1953125,16186520
2026-01-14 16:42:00.371,24194590,-57323900,56096300,-44565340,10437010,-36499020,13977050
2026-01-14 16:42:00.381,24194590,-62847220,50572980,-44565340,7696533,-49682620,1385498
2026-01-14 16:42:00.391,24203220,-62933540,50659300,-44573970,4449463,-7501221,1496582
2026-01-14 16:42:00.401,24289540,-62933540,50659300,-44487660,38909910,-95336910,125
2026-01-14 16:42:00.411,24289540,-63019860,50745620,-44487660,63056940,-9967041,13415530
2026-01-14 16:42:00.421,24280900,-63019860,50745620,-44479020,-76560980,-82458500,15661620
2026-01-14 16:42:00.431,24280900,-63106170,50831930,-44479020,19515990,-50689700,10888670
2026-01-14 16:42:00.461,24358590,-57582850,56355260,-44384080,-118255600,-25817870,37872310
2026-01-14 16:42:00.471,24358590,-57582850,56355260,-44384080,-5355835,-8132935,-124435400
2026-01-14 16:42:00.481,24358590,-57496530,56268940,-44384080,-28213500,11352540,-34118650
2026-01-14 16:42:00.491,24358590,-57496530,56268940,-44384080,-36621100,70648190,-52337650
2026-01-14 16:42:00.501,24280900,-62933540,50659300,-44479020,-10627750,7888794,-58380130
2026-01-14 16:42:00.511,-6659335,-62933540,50659300,-13538780,-26626590,13206480,-25039670
2026-01-14 16:42:00.521,24306800,-118159000,-4566158,-44504920,-4754,066,33843990,4005432
2026-01-14 16:42:00.531,-6656745,-62931810,50661020,-13541370,12779240,33569340,3591919
2026-01-14 16:42:00.541,24332690,-63017260,50748200,-44530810,29159550,46020510,110961900
2026-01-14 16:42:00.551,24263640,-118305700,-4367630,-44634400,-9055,138,7019043,15710450
2026-01-14 16:42:00.561,-6825928,-11838340,-427267,7,-13717460,-18539430,57891850,21972660
2026-01-14 16:42:00.571,-69113810,-11846100,-417770,-138046400,-4421997,4220581,26733400
2026-01-14 16:42:00.581,23935630,-11863370,-400510,5,-44996920,-80200190,24612430,2902832
2026-01-14 16:42:00.591,23849320,-11880640,-383247,-45083240,-113098100,47790530,27172850
2026-01-14 16:42:00.621,23132890,-11950550,-315057,5,-45747870,-14318850,108947800,2536621
2026-01-14 16:42:00.631,-8124135,-67188950,-55484400,-15008760,-20947270,39367680,22912600
2026-01-14 16:42:00.661,-9082246,-65523040,53248800,-15949610,-35742190,-56518560,20544430
2026-01-14 16:42:00.671,21441080,-121119700,-1657282,-47163480,-3046875,-3125,20263670
2026-01-14 16:42:00.681,21052650,-12156850,-124297,-47465580,-20336910,-35003660,22363280
2026-01-14 16:42:00.691,20655590,-12202600,-83727,99,-47759060,-14916990,17181400,18664550
2026-01-14 16:42:00.701,32757200,-12256980,-34527,99,-35536600,-1239624,-45562740,58380130
2026-01-14 16:42:00.711,19930530,-67655060,-55311770,-48242430,-1270752,-16442870,-24765020
2026-01-14 16:42:00.721,-11013150,-68472490,56168900,-17816640,-12878420,-18652340,-8178711
2026-01-14 16:42:00.731,19378110,-12438240,129474,5,-48553170,-803833,-22973630,-18237300
2026-01-14 16:42:00.761,18894730,-68017590,-55173660,-48760330,11340330,-24169920,-6464844
2026-01-14 16:42:00.771,18782530,-70812530,58489950,-48820760,12976070,8003235,-6972656
2026-01-14 16:42:00.781,-11640670,-71071480,58748900,-18397550,25610350,-8441162,-65234380
2026-01-14 16:42:00.791,-11554360,-71244110,58921540,-18311240,30126950,-12548830,-53027340
2026-01-14 16:42:00.801,19032840,-71329570,59008720,-48553170,32666020,-17468260,-39892580
2026-01-14 16:42:00.811,-11206500,-126678400,3487196,-17968560,41723630,-15344240,-23205570
2026-01-14 16:42:00.821,19507580,-71155210,58837810,-48164740,45507810,-11070250,14724730
2026-01-14 16:42:00.831,19706120,-70981710,58666040,-48018010,5439453,16052250,1953125
2026-01-14 16:42:00.861,32550040,-12542680,232190,5,-35294920,39648440,12536620,-2836914
2026-01-14 16:42:00.871,2029307,-12516790,206296,9,-4756917,3239746,24646000,-5258789
2026-01-14 16:42:00.881,-10158620,-12499530,189033,9,-16944840,16992190,10169980,-67285150
2026-01-14 16:42:00.891,20362110,-67879490,-55242710,-47465580,14660650,-25009160,-7636719
2026-01-14 16:42:00.901,-10074890,-12441700,126022,9,-16855930,15271000,-10821530,-78515620
2026-01-14 16:42:00.911,20595180,-68565700,56248300,-47180740,20153810,-1385498,-83691410
2026-01-14 16:42:00.921,20672860,-123484700,293478,5,-47085790,1862793,-23205570,-8930664
2026-01-14 16:42:00.931,20828230,-12289780,-32801,98,-46895890,20373540,-35180660,-10
2026-01-14 16:42:00.941,21078550,-67689580,-55570720,-46628310,18786620,-32202150,-10869140
2026-01-14 16:42:00.951,-9131449,-6762916,-5564840,-15900410,1763916,-28125,-12041020
2026-01-14 16:42:00.961,21484240,-120955700,-2356450,-46170840,16760250,-14624020,-11982420
2026-01-14 16:42:00.971,21734560,-12036000,-296930,5,-45903240,12445070,-3262329,-11572270
2026-01-14 16:42:00.981,21881290,-67508330,-55855570,-45704720,8319092,-1282959,-10322270
2026-01-14 16:42:00.991,22114350,-11953140,-386700,-45419870,44555660,-20983890,-9765625
2026-01-14 16:42:01.001,22433720,-11921200,-423816,-45048710,4373169,-2824707,-86816410
2026-01-14 16:42:01.011,2273584,-6331679,5096659,-4466029,12866210,-33154300,-77197260
2026-01-14 16:42:01.041,23961530,-63152780,50785320,-43123850,23303220,-3947754,-67333980
2026-01-14 16:42:01.051,24419010,-5706154,5704917,-42545520,16296390,-33740230,-66503900
2026-01-14 16:42:01.061,24867850,-11922070,-459206,-41958570,73913580,-12731930,-64453120
2026-01-14 16:42:01.071,32524150,-67706860,-56174940,-34164170,7247925,13708500,-6230469
2026-01-14 16:42:01.081,25325330,-67801800,-56149040,-41207620,-21569820,37524420,-47216800
2026-01-14 16:42:01.091,-4447904,-67896750,-56105880,-11089120,-5449219,57910160,-40014650
2026-01-14 16:42:01.101,-7735364,-62626250,-61428170,-7801655,-9013672,8364258,-3881836
2026-01-14 16:42:01.111,25420280,-68138440,-55933250,-40784660,-12939450,9975586,-44750980
2026-01-14 16:42:01.121,25385760,-68525140,56116240,-40750140,-1515625,12373050,-5336914
2026-01-14 16:42:01.131,-42908060,-68397380,-55674300,-109009400,-14746090,13896480,-5151367
2026-01-14 16:42:01.141,-4376257,-71371000,58967290,-10988130,-11640630,15283200,-23046880
2026-01-14 16:42:01.151,-4459986,-7283579,6043726,-11077030,-73828130,15244140,56152340
2026-01-14 16:42:01.161,25100910,-68759920,-55139140,-41155820,-101135300,14091800,35424800
2026-01-14 16:42:01.171,24721120,-13130500,749228,1,-41639200,34448240,10869140,6855469
2026-01-14 16:42:01.181,24177320,-76534460,64161820,-42303840,5288086,58496100,79345700
2026-01-14 16:42:01.191,-6424555,-13285870,921863,4,-13083030,43920900,-36907200,6147461
2026-01-14 16:42:01.201,-7109050,-68932550,-54655760,-13779610,18322750,-65234380,36401370
2026-01-14 16:42:01.211,33384900,-13322990,971062,1,-33407000,-30044560,-12382810,1739502
2026-01-14 16:42:01.241,21510130,-132487600,9071887,-45506190,-50878900,-16923830,11621090
2026-01-14 16:42:01.251,21536030,-76518060,64178220,-45532080,-6748047,-16289060,2319336
2026-01-14 16:42:01.261,21734550,-13143450,805334,6,-45385340,-7792969,-14248050,3540039
2026-01-14 16:42:01.271,-8121543,-13057130,719018,9,-14838710,-81933590,-12275390,5097656
2026-01-14 16:42:01.281,3350128,-74014020,61675900,-3372226,-8955078,-10449220,6772461
2026-01-14 16:42:01.291,23184680,-12824080,485962,5,-44073330,-93896480,-92089840,75341800
2026-01-14 16:42:01.321,26110820,-12278560,-73369,97,-41129930,-99072260,-76464850,12050780
2026-01-14 16:42:01.331,-58789470,-67663690,-55941880,-65506640,-90966800,-7451172,13408200
2026-01-14 16:42:01.341,28786630,-67456540,-56252620,-38281480,-7495117,-6933594,13994140
2026-01-14 16:42:01.351,66461,5,-67249380,-56580620,-6626539,-53808590,-640625,13173830
2026-01-14 16:42:01.361,-13925480,-11265200,-1131612,-20601220,-17895510,-35302740,1125
2026-01-14 16:42:01.371,3327512,-54370050,41959430,-3330965,44555660,16442870,7265625
2026-01-14 16:42:01.381,15404950,-107947700,-16279340,8763734,12390140,53027340,1550293
2026-01-14 16:42:01.391,59032020,-10601420,-1831644,-7241974,17980960,59277340,-34716800
2026-01-14 16:42:01.401,7192773,-104158400,-20258540,575728,2,40625,28295900,-6347656
2026-01-14 16:42:01.411,84857990,-46273540,33828390,18722100,7294922,12866210,-71240230
2026-01-14 16:42:01.421,39541700,-38774430,37529570,-26594190,11962890,3293457,-63183590
2026-01-14 16:42:01.431,10990710,-98660040,-25808700,4373666,17392580,9458008,-25708010
2026-01-14 16:42:01.441,41570140,-97278980,-27189770,-24652070,20917970,17109380,13183590
2026-01-14 16:42:01.451,42027620,-40404000,27958860,-24246370,21875,23789060,34985350
2026-01-14 16:42:01.481,34043320,-96450340,-27914840,-32386050,10546880,19785160,9682617
2026-01-14 16:42:01.491,40663820,-6571293,-5861772,-25817340,85595700,34375,13798830
2026-01-14 16:42:01.501,9454274,-43761730,31333840,2802702,-18896480,265625,10947270
2026-01-14 16:42:01.511,38574960,-10112010,-2308975,-28044310,-6586914,4169922,-61328120
2026-01-14 16:42:01.521,38316000,-46428910,34018290,-28475900,-84375,-11572270,-14541020
2026-01-14 16:42:01.531,38523160,-10315710,-2081098,-28510420,-61328120,-29824220,-14462890
2026-01-14 16:42:01.541,34207330,-10342470,-2038803,-33085210,28857420,-36640620,-9248047
2026-01-14 16:42:01.551,95915170,-10336430,-2032764,28380950,9145508,-34199220,21514890
2026-01-14 16:42:01.561,40586130,-65928730,-57659580,-27120720,1234375,-28886720,11523440
2026-01-14 16:42:01.571,41319820,-65885570,-57650960,-26473350,13828130,-1984375,21230470
2026-01-14 16:42:01.581,34733860,-46919190,34563820,-33059310,1328125,-9165039,26171880
2026-01-14 16:42:01.591,12793000,-102026400,-21579180,6024041,9194336,33276370,24550780
2026-01-14 16:42:01.601,44384070,-45890300,33521110,-23150150,21850590,87597660,17744140
2026-01-14 16:42:01.611,45229980,-45551070,33169800,-22097090,-34594730,9707031,10439450
2026-01-14 16:42:01.621,15612110,-45384480,32991120,8901843,-6635742,95947260,60498050
2026-01-14 16:42:01.631,46119040,-65937360,-58134330,-20741920,-65722660,8330078,2121582
2026-01-14 16:42:01.641,46162190,-10119770,-2299480,-20439810,-55322260,6479492,-9259033
2026-01-14 16:42:01.651,16178350,-45576970,33143900,9544040,-4741211,41430660,-24328610
2026-01-14 16:42:01.681,15714830,-47147070,34681200,9144393,-21618650,11552730,-76416020
2026-01-14 16:42:01.691,15447240,-10397720,-2076782,8894078,-106933600,9536133,-7324219
2026-01-14 16:42:01.701,44599860,-104702200,-20111800,-20776450,33081060,73095700,-6074219
2026-01-14 16:42:01.711,44107860,-49229030,36742450,-21147600,116882300,52490230,-51708980
2026-01-14 16:42:01.721,33689420,-10621270,-1868759,-31462450,15283200,20019530,-34838870
2026-01-14 16:42:01.731,43244690,-66912740,-58022120,-21838140,16699220,-70251460,-19421390
2026-01-14 16:42:01.741,42787210,-5139212,3889517,-22243830,17370600,-36083980,-3475952
2026-01-14 16:42:01.751,42416050,-46372720,45123020,-22563200,17712400,-55126950,103881800
2026-01-14 16:42:01.761,12829260,-67128530,-57858110,6333057,18786620,-59375,13903810
2026-01-14 16:42:01.771,41708250,-67180320,-57806320,-23236470,17419430,-57958980,20056150
2026-01-14 16:42:01.781,41354350,-67223480,-57763160,-23573110,16662600,-52978520,19421390
2026-01-14 16:42:01.791,41095400,-5389530,4139835,-23832050,18383790,-35083010,14245610
2026-01-14 16:42:01.801,33309630,-5415425,4165731,-31635090,15820310,-2133789,15234380
2026-01-14 16:42:01.811,11361870,-54412350,41917130,4865672,13439940,-4055786,20043940
2026-01-14 16:42:01.821,40344450,-54584980,42089770,-24634800,77819820,925293,2322998
2026-01-14 16:42:01.831,40180440,-110977400,-13957420,-24816070,38269040,24401860,28759770
2026-01-14 16:42:01.841,40025080,-54928520,42436760,-25005960,11453630,24731440,32788090
2026-01-14 16:42:01.851,39947390,-11121910,-1368122,-25100910,-60546880,12890630,40771480
2026-01-14 16:42:01.901,40025070,-67352950,-57461060,-25178600,-11706540,-39746100,625
2026-01-14 16:42:01.911,10771470,-11193560,-1284394,4247646,-11114500,-3630371,5942383
2026-01-14 16:42:01.921,40154550,-67344330,-57417900,-25135440,-109314000,-28295900,53466800
2026-01-14 16:42:01.931,108621000,-11200460,-1274040,43296480,-113586400,-23547360,47387700
2026-01-14 16:42:01.941,40465290,-67318430,-57392000,-24928280,-107299800,-19348140,4362793
2026-01-14 16:42:01.951,40672450,-11188380,-1279216,-24790170,-77697750,-50231940,40283200
2026-01-14 16:42:01.961,11390350,-67275270,-57366110,4837188,-7977295,4142761,4345703
2026-01-14 16:42:01.971,33646270,-67240740,-57348840,-31971730,-105163600,513916,46142580
2026-01-14 16:42:01.981,11830570,-11156440,-1299068,5260143,-14050290,15777590,39624020
2026-01-14 16:42:01.991,12006660,-11136590,-1313741,5429323,-25073240,-82458500,32495120
2026-01-14 16:42:02.001,41734140,-67128530,-57340210,-24125530,-30517580,-1895752,32983400
2026-01-14 16:42:02.011,12187930,-11098610,-1344815,5593325,-31591800,-22973630,40307620
2026-01-14 16:42:02.021,42079420,-54729130,42290890,-23952900,-33911130,-3005371,49951170
2026-01-14 16:42:02.031,42200260,-110338700,-14009210,-23901110,-421875,-3479004,46704100
2026-01-14 16:42:02.041,42312470,-10989850,-1443218,-23840680,-48339840,-47045900,43286130
2026-01-14 16:42:02.051,42329730,-10937190,-1494145,-23857950,-50097660,-54785160,44848630
2026-01-14 16:42:02.081,12803360,-107662900,-16685030,6186316,-3779297,-36035160,41992190
2026-01-14 16:42:02.091,42545520,-10717090,-1722885,-23555840,-23596190,-24365230,39990230
2026-01-14 16:42:02.101,12794730,-66696950,-57771800,6194950,-19699100,-34851070,38964840
2026-01-14 16:42:02.111,42329730,-10664430,-1791075,-23512680,16247560,23364260,3479004
2026-01-14 16:42:02.121,12691150,-62321130,-62320250,6125896,41381840,58447260,2932129
2026-01-14 16:42:02.131,41863620,-62381550,-62380670,-23564470,6279297,9135742,21643070
2026-01-14 16:42:02.141,41293930,-10682560,-1809201,-23857950,73339840,12167970,1673584
2026-01-14 16:42:02.151,33249210,-10716220,-1791074,-31609190,69384770,14111330,-22918700
2026-01-14 16:42:02.161,39688440,-67094010,-58134330,-24841960,5834961,14560550,-17504880
2026-01-14 16:42:02.171,9770190,-63151050,-62249910,3349950,49829100,13896480,-3564453
2026-01-14 16:42:02.181,31992440,-108016800,-17556830,-31881960,40942380,1296875,-58935550
2026-01-14 16:42:02.191,74931570,-51689060,39116160,11385180,27954100,99072260,-8120117
2026-01-14 16:42:02.201,62691860,-51869460,39281020,-543798,1394043,50146480,-9526367
2026-01-14 16:42:02.211,48734430,-108767700,-17271990,-14207740,24032590,48614500,-10859380
2026-01-14 16:42:02.221,31328660,-10909570,-1708209,-31320030,32073980,-34521480,-10664060
2026-01-14 16:42:02.231,-4649020,-10932880,-1696987,-10887990,39855960,-60595700,-10498050
2026-01-14 16:42:02.261,-11454230,-67991700,-58634960,-73136180,3322754,-7363281,-8691406
2026-01-14 16:42:02.271,-21052660,-68052110,-58678120,-82527450,4104004,-671875,-82910160
2026-01-14 16:42:02.281,24591640,-11028690,-1654693,-36675980,50878900,-60791020,-68847660
2026-01-14 16:42:02.291,-3766002,-68138440,-58781700,-9872049,56933590,-52978520,-5566406
2026-01-14 16:42:02.301,23012040,-68155700,-58868020,-37858530,69091800,-3527832,-40576170
2026-01-14 16:42:02.311,22312880,-10965680,-1747051,-38367790,80908200,-2631836,-36157230
2026-01-14 16:42:02.321,-5435366,-109182000,-18031570,-11482720,8261719,-18676760,-43115230
2026-01-14 16:42:02.331,21242550,-10863820,-1869622,-39023800,6948242,-23217770,-5605469
2026-01-14 16:42:02.341,20880020,-68147070,-59290970,-39179180,5522461,-30395510,-66015620
2026-01-14 16:42:02.351,-6416788,-107283100,-20275800,-12400270,43579100,-39770510,-73339840
2026-01-14 16:42:02.361,20388020,-106566600,-21113070,-39205070,3737793,-42773440,-77978510
2026-01-14 16:42:02.371,20267170,-6808663,-5971394,-39084220,3383789,-39526370,-83935540
2026-01-14 16:42:02.381,20224010,-6806937,-5986931,-38868430,30981440,-40698240,-9501953
2026-01-14 16:42:02.391,20258540,-46540260,33734310,-38557690,2401123,-39404300,-10576170
2026-01-14 16:42:02.401,20379380,-45598540,32777050,-38160630,16125490,-4272461,-11083980
2026-01-14 16:42:02.411,-5632168,-10250110,-2585186,-11458550,12854000,-41577150,-11376950
2026-01-14 16:42:02.421,20862760,-101793300,-26697770,-37090310,8392334,-37841800,-11523440
2026-01-14 16:42:02.431,-73077490,-101094200,-27552300,-78839990,12780760,-37353520,-11035160
2026-01-14 16:42:02.461,-26102180,-35431380,34139920,-82656910,983429,-39990230,-12382810
2026-01-14 16:42:02.471,-42939120,-40648280,27714580,-48556620,-38848880,-36669920,-12792970
2026-01-14 16:42:02.481,-837271,3,-40139020,27188050,-6413336,-78552250,-30786130,-13457030
2026-01-14 16:42:02.491,914958,-68172960,-61526570,-54431340,-16577150,-26416020,-13417970
2026-01-14 16:42:02.501,25825970,-68224760,-61664680,-29106010,-22570800,-21447750,-13447270
2026-01-14 16:42:02.511,27249590,-97572450,-32489630,-27250810,-3251953,-17126460,-13544920
2026-01-14 16:42:02.521,27029230,-38795060,25769860,-27022320,-44067380,-11260990,-1421875
2026-01-14 16:42:02.531,15628510,-38545610,25501420,10266510,-5419922,-8087158,-15341800
2026-01-14 16:42:02.541,49027910,-32503950,31197800,-4143208,-66064450,-6390381,-16533200
2026-01-14 16:42:02.551,33711000,-38303920,25225200,28437050,-7441406,4385376,-17666020
2026-01-14 16:42:02.561,30046860,-38312550,25216570,-22278350,-8876953,7800293,-18994140
2026-01-14 16:42:02.571,71703320,-38321180,25207940,19792420,-9785156,39978030,-19980470
2026-01-14 16:42:02.581,56092070,-97486140,-33784380,50940680,-10351560,40802000,-20859380
2026-01-14 16:42:02.591,31695510,-38508490,25365900,-19438530,-10566410,26123050,-21484380
2026-01-14 16:42:02.601,32299730,-38687160,25532490,-18489050,-10673830,-52825930,-22285160
2026-01-14 16:42:02.611,10206090,-38865840,25699080,5158287,-10820310,-99975580,-22988280
2026-01-14 16:42:02.621,33542680,-98521940,-33266480,-16624610,-10976560,-14257810,-23398440
2026-01-14 16:42:02.631,34190060,-9882404,-3305070,-15718280,-10654300,-14831540,-225
2026-01-14 16:42:02.661,25756920,-99972050,-32127090,-23512690,-10820310,8071289,-10419920
2026-01-14 16:42:02.671,36037240,-100343200,-31807720,-13076990,-10332030,12333980,-7475586
2026-01-14 16:42:02.681,35881870,-100714400,-31488350,-13094260,-9746094,14033200,-5654297
2026-01-14 16:42:02.691,2452948,-100999200,-31255290,-2430856,-10126950,13837890,-5595703
2026-01-14 16:42:02.701,34889230,-41573600,28342960,-13827940,-11621090,13300780,-7626953
2026-01-14 16:42:02.711,34302270,-35706300,34382900,-14276790,-13339840,98291020,-11269530
2026-01-14 16:42:02.721,33732580,-41577910,28338650,-14742900,-14199220,5517578,-13632810
2026-01-14 16:42:02.731,11569030,-101171900,-31255300,6730112,-12333980,28051760,-14140630
2026-01-14 16:42:02.741,33059310,-101094200,-31350250,-15278070,-10908200,12011720,-14130860
2026-01-14 16:42:02.751,32972990,-100921500,-31522880,-15364390,-9248047,11608890,-12158200
2026-01-14 16:42:02.761,32808990,-100748900,-31695510,-15545650,-84375,4345703,-10068360
2026-01-14 16:42:02.771,32670890,-40801930,27560930,-15752810,-6586914,98095700,-8881836
2026-01-14 16:42:02.781,32386040,-99937540,-32437840,-16158500,-4243164,12861330,-49438480
2026-01-14 16:42:02.791,32023510,-694849,-628559,9,-16659130,-17468260,13066410,-4324341
2026-01-14 16:42:02.801,31660980,-39155860,25926960,-17159770,38482660,10615230,39990230
2026-01-14 16:42:02.811,31289820,-97978140,-34276380,-17651780,7507324,9135742,55078120
2026-01-14 16:42:02.841,8237207,-9683876,-3538124,3329236,35424800,40161130,9736328
2026-01-14 16:42:02.851,25083650,-6919150,-6302850,-23961530,4440918,16955570,10644530
2026-01-14 16:42:02.861,24551930,-97201280,-35053230,-24441450,45825200,29678340,11796880
2026-01-14 16:42:02.871,25023220,-97641500,-34630280,-23901110,46801760,-17150880,12421880
2026-01-14 16:42:02.881,30210860,-38724280,25495370,-18644420,5029297,-30932620,13222660
2026-01-14 16:42:02.891,8481483,-9903984,-3326648,3602860,6040039,-40820310,14609380
2026-01-14 16:42:02.901,30676970,-40365160,27134530,-18074730,7348633,-5253906,1625
2026-01-14 16:42:02.911,31022240,-41228330,27997700,-17729460,7890625,-6308594,17421880
2026-01-14 16:42:02.921,31289820,-6969214,-6259692,-17479140,8339844,-640625,17109380
2026-01-14 16:42:02.931,9689916,-102552900,-29701590,4811291,87890620,-56689450,16708980
2026-01-14 16:42:02.941,31919930,-43987010,30763280,-16900820,9448242,-55859380,15878910
2026-01-14 16:42:02.951,32196140,-10443460,-2778538,-16659130,10771480,-5239258,15107420
2026-01-14 16:42:02.961,25264910,-45797070,32578530,-23624900,11601560,-41235350,14492190
2026-01-14 16:42:02.971,33180160,-46573060,33356240,-15744180,11914060,-29516600,14023440
2026-01-14 16:42:02.981,33784370,-106817000,-25333970,-15139960,1140625,-32714840,1390625
2026-01-14 16:42:02.991,34733860,-70218670,-61932260,-14190480,11630860,-7006836,13720700
2026-01-14 16:42:03.001,35752390,-108198000,-23952900,-13137410,11191410,14941410,13320310
2026-01-14 16:42:03.011,36943560,-108888600,-23262370,-11911710,10234380,15905760,12080080
2026-01-14 16:42:03.041,24567470,-7056393,-6155248,-24236010,67822260,7714844,70703130
2026-01-14 16:42:03.051,20309470,-111875100,-20206750,15425660,66064450,-78125,60839840
2026-01-14 16:42:03.061,4361585,-11263470,-1941263,-529122,2,5834961,-25952150,42016600
2026-01-14 16:42:03.071,44781130,-7073657,-6125901,-4212256,5419922,-3930664,2734375
2026-01-14 16:42:03.101,25515230,-66400020,-65405650,20577910,7363281,-55566410,15429690
2026-01-14 16:42:03.111,26211800,-66374120,-65362490,21262400,7993164,-48120120,18481440
2026-01-14 16:42:03.121,49148760,-58028160,44861400,-466112,3,7416992,-36889650,10107420
2026-01-14 16:42:03.131,27353770,-71047310,-60568460,-22381930,7211914,-3474121,16357420
2026-01-14 16:42:03.161,28133220,-12106790,-1040981,23138930,64404300,-28173830,4267578
2026-01-14 16:42:03.171,50624770,-122086400,-9356737,647371,6,57910160,-25097660,45117190
2026-01-14 16:42:03.181,50443500,-71453000,-59990140,483371,8,5913086,-2467041,48632810
2026-01-14 16:42:03.191,25215710,-12397670,-744915,1,-24709900,5991211,-20800780,47143560
2026-01-14 16:42:03.201,27431460,-124848500,-6594601,-22442360,5541992,-74035650,37646480
2026-01-14 16:42:03.211,27353780,-7172057,-5973983,-22433720,6010742,-11431890,35546880
2026-01-14 16:42:03.221,49096970,-12642810,-506681,6,-586954,3,6557617,-13659670,19238280
2026-01-14 16:42:03.231,48699900,-71893220,-59618980,-880432,3,6694336,-13000490,7141113
2026-01-14 16:42:03.241,48216540,-68552750,55398080,-1260229,65185550,-24658200,-27389530
2026-01-14 16:42:03.251,25601550,-68986060,55827940,20664230,671875,-26220700,-12719730
2026-01-14 16:42:03.261,47336100,-72091740,-59524030,-1933498,64208980,-3564453,-2010498
2026-01-14 16:42:03.271,26844510,-66447500,-65185540,-22373310,69677740,-45776370,-3059082
2026-01-14 16:42:03.281,26775450,-12918160,-246867,1,-22390560,82958980,-5449219,-33422850
2026-01-14 16:42:03.291,24122080,-12927660,-239099,1,19208930,9291992,-62646480,-28515620
2026-01-14 16:42:03.301,45955030,-12927660,-239100,1,-3141930,10078130,-73046870,-19299320
2026-01-14 16:42:03.311,45592500,-72186700,-59498130,-3469936,11152340,-7324219,-1394043
2026-01-14 16:42:03.321,45307660,-12912990,-258952,1,-3702988,11806640,-6801758,-7800293
2026-01-14 16:42:03.331,22905010,-66499280,-65237330,18009120,12978520,-5751953,-42755130
2026-01-14 16:42:03.341,44634380,-72178060,-59610340,-4238155,140625,-47558590,-23803710
2026-01-14 16:42:03.351,22292160,-12849110,-333183,6,17413540,13583980,-4711914,-19012450
2026-01-14 16:42:03.361,4384030,-68914430,55726960,-482513,6,12783200,-46801760,-8880615
2026-01-14 16:42:03.371,21504090,-68485430,55292780,16647910,11416020,-51464840,-20471190
2026-01-14 16:42:03.381,20980150,-72134900,-59843400,16136050,10732420,-57373050,-33032230
2026-01-14 16:42:03.391,20456200,-72100380,-59929720,15624190,10791020,-60595700,-41479490
2026-01-14 16:42:03.401,41699620,-72074480,-60024660,-6482391,11523440,-59814450,-45166020
2026-01-14 16:42:03.411,41207620,-66080650,52863830,-6853553,12773440,-5498047,-45239260
2026-01-14 16:42:03.421,4070698,-12480540,-741461,1,-721608,8,14023440,-49047850,-4765625
2026-01-14 16:42:03.431,25532490,-12406300,-822599,6,-22252460,15566410,-3762207,-47485350
2026-01-14 16:42:03.441,16293060,-12332070,-903737,15816770,16943360,-26416020,-42260740
2026-01-14 16:42:03.451,39446750,-122664700,-9762425,-8027463,18095700,-10925290,-30615230
2026-01-14 16:42:03.461,39101480,-12201730,-1049613,-8200091,18525390,74646000,-8258057
2026-01-14 16:42:03.471,38756220,-5522269,5509009,-8372724,16572270,5053711,2322998
2026-01-14 16:42:03.481,38592220,-12104200,-1159236,-8381356,13085940,11777340,73095700
2026-01-14 16:42:03.491,38695800,-7178963,-6091374,-8139669,11123050,18769530,8647461
2026-01-14 16:42:03.521,40517080,-5998496,4670252,-5990382,37597660,20644530,21472170
2026-01-14 16:42:03.531,41198980,-5981233,4652989,-5291218,-15710450,19316410,2631836
2026-01-14 16:42:03.541,41811830,-11940200,-1340501,-4695630,-35498050,1734375,3630371
2026-01-14 16:42:03.551,21404820,-71677420,-61112250,16747170,-23449710,14804690,25683590
2026-01-14 16:42:03.561,25290810,-11894450,-1381069,-21389290,14941410,10410160,18518070
2026-01-14 16:42:03.571,43167000,-71582470,-61138150,-3633938,6455078,5522461,38745120
2026-01-14 16:42:03.581,22026310,-7154796,-6113816,17334130,1140625,12194820,68310540
2026-01-14 16:42:03.591,25446180,-11802950,-1462207,-21579190,14169920,-22842410,9326172
2026-01-14 16:42:03.601,42441940,-57990180,44726750,-4635212,15341800,-74523930,11210940
2026-01-14 16:42:03.611,20653870,-57644910,44381480,15944430,13955080,-122680700,11298830
2026-01-14 16:42:03.621,41311190,-66840230,-65828600,-5748698,10039060,-20544430,10126950
2026-01-14 16:42:03.631,19699210,-11658800,-1611535,15000120,5419922,-4140625,7548828
2026-01-14 16:42:03.641,40370340,-71358050,-61379840,-6534182,-24368290,-61279300,45507810
2026-01-14 16:42:03.651,2506639,-11601830,-1675408,-2175183,-703125,-74853520,20043940
2026-01-14 16:42:03.681,38989270,-11586300,-1694399,-7742610,-16113280,-32202150,206604
2026-01-14 16:42:03.691,38747580,-71375310,-61414360,-8018828,-1609375,-16955570,23376460
2026-01-14 16:42:03.701,38505900,-11670890,-1606357,-8295040,-14873050,-37822720,43774420
2026-01-14 16:42:03.711,38264220,-57650950,44375430,-8571254,-13427730,60943600,75
2026-01-14 16:42:03.721,38013900,-71547950,-61189940,-8838838,-11572270,103149400,99560540
2026-01-14 16:42:03.731,16672080,-71625630,-61094990,11985080,-96240230,53649900,12773440
2026-01-14 16:42:03.741,37582320,-60237870,46967530,-9270421,-8881836,-113586400,13974610
2026-01-14 16:42:03.751,24798800,-12090390,-1179951,-22002140,-9350586,-24072270,12861330
2026-01-14 16:42:03.761,3718526,-12185330,-1085002,-956390,1,-11054690,-36938480,10634770
2026-01-14 16:42:03.771,3707304,-122638800,-10081800,-962437,1,-12978520,-39770510,72021490
2026-01-14 16:42:03.781,36883140,-123329400,-9391261,-9779689,-14746090,-6142578,4333496
2026-01-14 16:42:03.791,36701880,-72100380,-60620250,-9943692,-15488280,-57714840,14233400
2026-01-14 16:42:03.801,36373880,-7210900,-6059437,-10306220,-15712890,-18774410,-17675780
2026-01-14 16:42:03.811,14767070,-7210038,-6058573,10092150,-15546880,3022461,-43530270
2026-01-14 16:42:03.821,35096390,-12364010,-901148,5,-11790870,-15351560,47827150,-60839840
2026-01-14 16:42:03.831,34146910,-63599040,50339060,-12912990,-14472660,84228510,-8105469
2026-01-14 16:42:03.841,11772740,-63164000,49910930,7044307,-13984380,77490230,-96484380
2026-01-14 16:42:03.851,31790450,-71824170,-60620250,-15735540,-13203130,7050781,-10351560
2026-01-14 16:42:03.881,27811260,-12106790,-1110035,-20560650,-98291020,36279300,-52783200
2026-01-14 16:42:03.891,45903250,-12084340,-1122120,-2744874,-89746100,21508790,-40576170
2026-01-14 16:42:03.901,33093840,-71461630,-60499400,-15830500,-84228510,10247800,-3659668
2026-01-14 16:42:03.911,24588190,-12092110,-1095361,-24595090,-8198242,10076900,-2998047
2026-01-14 16:42:03.921,9184100,-6643798,-6533315,-40258130,-78271490,12402340,-2578125
2026-01-14 16:42:03.931,24565750,-12142180,-1024582,-25118170,-75878900,10076900,-29101560
2026-01-14 16:42:03.941,-1387113,-71375310,-60188660,-6381400,-7866211,57800290,-3918457
2026-01-14 16:42:03.951,20189490,-122086400,-9356737,-30029600,-7338867,8972168,-44213870
2026-01-14 16:42:03.961,19300420,-122543900,-8778413,-31212140,-72802740,10058590,-5336914
2026-01-14 16:42:03.971,-6737540,-12291500,-828640,-7245774,-7553711,-15541080,-58496100
2026-01-14 16:42:03.981,-5382712,-12327760,-778576,1,-10499570,-765625,-6768799,-69140620
2026-01-14 16:42:03.991,-64003870,-12370910,-718152,6,-115535000,-7705078,-109191900,-71875
2026-01-14 16:42:04.001,16046280,-12405440,-666366,1,-35899140,-8066406,-19165040,-6826172
2026-01-14 16:42:04.011,15329850,-124391100,-6137121,-37081680,-7998047,-28222660,-74072260
2026-01-14 16:42:04.021,-9179784,-66074600,53042500,-14471010,-77783200,-30444340,-8120117
2026-01-14 16:42:04.031,-10102510,-7103004,-5904928,-15447240,-73535150,-3786621,-8442383
2026-01-14 16:42:04.061,12300140,-12574620,-352173,2,-43028900,-47607420,-30395510,-890625
2026-01-14 16:42:04.071,11782230,-70632980,-58324220,-44237340,-31030270,-19812010,-9370117
2026-01-14 16:42:04.081,11281600,-68493190,55630280,-45463040,-24389650,-12927250,-94091800
2026-01-14 16:42:04.091,10875910,-12680790,-147601,8,-46611040,-23706060,-13354490,-9189453
2026-01-14 16:42:04.101,10478850,-6966623,5687410,-47767690,-19641110,-1875,-8857422
2026-01-14 16:42:04.111,1026304,-70149620,-57392000,-4876036,-101745600,-22155760,-91796870
2026-01-14 16:42:04.121,10055900,-12797320,81137,7,-49761600,-41137700,-22937010,-8720703
2026-01-14 16:42:04.131,9848744,-71248420,58571950,-50762880,-10826110,-23242190,-9550781
2026-01-14 16:42:04.141,9822844,-6972665,-5664106,-51600150,7281494,-30664060,-97021490
2026-01-14 16:42:04.151,9805582,-7198469,5938937,-52446060,12731930,-42382810,-9584961
2026-01-14 16:42:04.161,9960950,-69346870,-56174940,-53119330,22692870,-4572754,-9458008
2026-01-14 16:42:04.171,10124950,-12849110,340087,6,-53801220,29907230,-5439453,-9042969
2026-01-14 16:42:04.181,1037527,-12818900,353035,3,-5439682,30664060,-5864258,-921875
2026-01-14 16:42:04.191,32806780,-68682240,-55544830,-32811210,3100586,-6152344,-94677740
2026-01-14 16:42:04.201,31004970,-68440550,-55337670,-35441660,24926760,-61865230,-9316406
2026-01-14 16:42:04.211,31410670,-71422780,59088120,-35847350,2052002,-64208980,-9116211
2026-01-14 16:42:04.221,34023860,-71228580,58937070,-34028270,15344240,-55615230,-84033200
2026-01-14 16:42:04.231,1247277,-126160600,3659824,-5632173,13537600,-5551758,-74658200
2026-01-14 16:42:04.261,-17517120,-125228300,3901516,-24605460,21166990,-6088867,-4946289
2026-01-14 16:42:04.271,15209010,-12496070,399645,4,-56295780,18371580,-6567383,-390625
2026-01-14 16:42:04.281,-16248270,-12478810,416910,3,-23457440,17138670,-6748047,-2758789
2026-01-14 16:42:04.291,-15357480,-66593370,-53697650,-22621890,1538086,-6064453,-55755620
2026-01-14 16:42:04.301,-17588070,-12446870,448847,5,-18319690,13439940,-4404297,22033690
2026-01-14 16:42:04.311,-13234080,-70549260,58580580,-20602080,78308100,-20422360,50097660
2026-01-14 16:42:04.321,21285710,-12416660,479056,4,-52877640,-7116699,50811770,7758789
2026-01-14 16:42:04.331,22563200,-12385590,475603,4,-52083520,-80200190,32666020,9477539
2026-01-14 16:42:04.341,-1352135,-6579926,-5300712,-1427265,-2927246,59814450,10400390
2026-01-14 16:42:04.351,24772900,-12252660,401371,8,-50840560,-5830078,80371100,10849610
2026-01-14 16:42:04.361,25618810,-68317980,56496030,-50478040,-83740230,9926758,9135742
2026-01-14 16:42:04.371,-8169015,-12033420,240823,8,-15827040,-9794922,10253910,5444336
2026-01-14 16:42:04.381,-7885897,-11897900,134654,3,-15592260,-10966800,7939453,22814940
2026-01-14 16:42:04.391,27120720,-11753750,19851,3,-50426240,-11914060,6953125,-1821289
2026-01-14 16:42:04.401,-7750380,-6428007,-5276542,-15555140,-13144530,6894531,-64453120
2026-01-14 16:42:04.411,-11259930,-62287030,50615280,-12045590,-13828130,6357422,-9116211
2026-01-14 16:42:04.421,-7871226,-63736290,-52653220,-15779570,-13828130,54589840,-9970703
2026-01-14 16:42:04.431,27906200,-11265200,-337499,8,-51729630,-14091800,47045900,-97753900
2026-01-14 16:42:04.461,-8180237,-11045090,-428131,2,-16333720,-12861330,5834961,-47827150
2026-01-14 16:42:04.471,28872950,-10984670,-436764,3,-53386900,-11640630,61621100,-1451416
2026-01-14 16:42:04.481,29244120,-5807820,4671030,-53758070,-10068360,65966800,2381897
2026-01-14 16:42:04.491,-8154344,-10877640,-433309,7,-16532250,-10029300,5410156,18884280
2026-01-14 16:42:04.501,29770650,-10822390,-429858,8,-54802500,-10517580,33129880,35717770
2026-01-14 16:42:04.511,30090010,-61129520,-50771510,-55294510,-10292970,19482420,4416504
2026-01-14 16:42:04.521,30418020,-60792880,-50486660,-55795140,-94970700,15332030,46044920
2026-01-14 16:42:04.531,-8595422,-106670200,-3953304,-17299610,-8535156,4840088,48388670
2026-01-14 16:42:04.541,30651080,-56856840,45860090,-57236640,-8017578,-23483280,5517578
2026-01-14 16:42:04.551,42977110,-106091900,-3202354,-45739250,-7529297,-12402340,5644531
2026-01-14 16:42:04.561,-9851330,-10592790,-269307,7,-18805830,-6430664,-9881592,5888672
2026-01-14 16:42:04.571,-14394700,-5917013,-4876033,-15298260,-6645508,30471800,38476560
2026-01-14 16:42:04.581,-10892310,-10609190,-113074,7,-20009080,-60009770,14147950,32617190
2026-01-14 16:42:04.591,30012330,-10643720,-9496,51,-61949530,-45825200,26367190,22924800
2026-01-14 16:42:04.601,2989151,-54477080,53418840,-6286451,-27441410,23852540,32104490
2026-01-14 16:42:04.611,-12155990,-10746430,233055,8,-21507540,-58807370,25170900,39013670
2026-01-14 16:42:04.641,-12566860,-10963950,654281,8,-22132480,28564450,-7489014,6870117
2026-01-14 16:42:04.651,30901400,-64336180,54090380,-65428090,45507810,-15991210,72998050
2026-01-14 16:42:04.661,-12243170,-11134000,950347,3,-21938260,44555660,-36010740,85058590
2026-01-14 16:42:04.671,-11953150,-51223810,-49991210,-21710390,42163090,-44067380,9165039
2026-01-14 16:42:04.681,3267952,-11314400,1253319,-6547989,44628900,-4567871,98535150
2026-01-14 16:42:04.691,-11118460,-11405890,1403511,-20991370,34887700,-46142580,10712890
2026-01-14 16:42:04.701,34026060,-7031360,6036992,-65272730,27294920,-45703120,12236330
2026-01-14 16:42:04.711,-10200050,-56097250,-42787210,-20183450,25585940,-36987300,14208980
2026-01-14 16:42:04.721,35407130,-72760700,62929220,-64927460,21679690,-29077150,15751950
2026-01-14 16:42:04.731,-9373135,-11795180,2015496,-19456660,28076170,-20935060,16015630
2026-01-14 16:42:04.761,-8356326,-55346300,-40931400,-18574500,5839844,-19873050,10029300
2026-01-14 16:42:04.771,-12606990,-120748500,24954180,-13633300,6738281,-23693850,76171870
2026-01-14 16:42:04.781,38764860,-78306540,68777180,-64314610,7729492,-26049800,48461910
2026-01-14 16:42:04.791,39334540,-1215337,267580,3,-64193760,78027340,-2364502,19873050
2026-01-14 16:42:04.801,40094120,-54586710,-39653920,-63917550,8339844,-20166020,-5682373
2026-01-14 16:42:04.811,-6254511,-5433639,-3933454,-16705740,89160160,-16479490,-23828120
2026-01-14 16:42:04.821,4155289,-12198280,2889884,-6347735,9291992,-10247800,-2763672
2026-01-14 16:42:04.831,42347000,-80322900,71076660,-63235650,9433594,-8648682,-21838380
2026-01-14 16:42:04.861,-8354168,-52877640,-37565040,-9427086,76220700,-3149414,51123050
2026-01-14 16:42:04.871,-3065108,-12160300,3186814,-13852970,76171870,-4050293,6791992
2026-01-14 16:42:04.881,-2691356,-12134410,3229973,-13536190,7294922,-47973630,8129883
2026-01-14 16:42:04.891,-7223417,-12107650,3273995,-8313598,6464844,-5004883,890625
2026-01-14 16:42:04.921,-1545070,-11971270,3341322,-12610880,5415039,-52197260,10048830
2026-01-14 16:42:04.931,-1346539,-80586180,72021830,-12464140,5024414,-4584961,10019530
2026-01-14 16:42:04.941,49191920,-80208970,71708500,-62484700,43725580,-41479490,10371090
2026-01-14 16:42:04.951,-865757,-11763250,3324921,-12081750,33203120,-3737793,10957030
2026-01-14 16:42:04.961,-56516750,-4939041,-3438857,-67779360,27490230,-34448240,10927730
2026-01-14 16:42:04.971,-302972,-11600970,3280037,-11608740,17529300,-29077150,10986330
2026-01-14 16:42:04.981,51047720,-48708540,-33948380,-62441540,96069340,-25952150,10644530
2026-01-14 16:42:04.991,3426780,-77216360,69004190,-110459500,43792720,-21679690,10556640
2026-01-14 16:42:05.001,706071,-11315260,3151424,-10718810,31677250,-16125490,10644530
2026-01-14 16:42:05.011,1069464,-11214270,3097045,-10391670,38928980,-64575200,10478520
2026-01-14 16:42:05.021,15174490,-74815900,66743560,-99764900,-23834230,6778717,10595700
2026-01-14 16:42:05.031,-31353690,-11007110,2976202,-42878700,-9643555,8477783,11074220
2026-01-14 16:42:05.041,-25296850,-10900940,2909738,-36851210,-11584470,18151860,10966800
2026-01-14 16:42:05.051,-20104030,-10804270,2851043,-31686010,-18920900,28564450,10712890
2026-01-14 16:42:05.061,-14048910,-71459040,63540350,-25656790,-26123050,29711910,11044920
2026-01-14 16:42:05.071,56779150,-10615230,2729333,-59541290,-31982420,2993164,10869140
2026-01-14 16:42:05.101,5852276,-103623200,25679230,-5847101,-39208980,23840330,92041020
2026-01-14 16:42:05.111,66368950,-39464880,-38185670,-50831940,-4116211,20349120,8540039
2026-01-14 16:42:05.121,17954750,-10203500,2467795,6213942,-49194340,970459,78808590
2026-01-14 16:42:05.131,74344610,-10128410,2422045,-43270580,-47998050,65979000,75341800
2026-01-14 16:42:05.141,24879940,-100541700,23754370,13099430,-46118160,22705080,72558590
2026-01-14 16:42:05.151,80585310,-44401330,-32092570,-37426940,-50341800,12794500,62890620
2026-01-14 16:42:05.161,29215630,-44194180,-32006250,17395410,-5361328,2508545,6660156
2026-01-14 16:42:05.171,30089150,-43987010,-31919930,18248220,-5908203,1026001,6381836
2026-01-14 16:42:05.181,61802790,-97537920,21924450,-56796420,-6586914,99853520,59277340
2026-01-14 16:42:05.191,8443506,-62892970,55360970,-3437136,-6977539,7208252,5810547
2026-01-14 16:42:05.201,62001320,-43374160,-31669610,-56994950,-7006836,88012700,58447260
2026-01-14 16:42:05.211,83761770,-43167000,-31583300,-35424390,-7104492,625,5732422
2026-01-14 16:42:05.221,29274320,-9455137,2007727,17336720,-7451172,39100650,5361328
2026-01-14 16:42:05.231,22177020,-60420000,53000200,20981350,-7631836,-1015625,5966797
2026-01-14 16:42:05.241,25839780,-9298040,1905872,13865920,-71972660,-17468260,60058590
2026-01-14 16:42:05.251,78090760,-423554,4,-313074,2,-41837730,-73291020,-17333980,54248050
2026-01-14 16:42:05.281,15516300,-41725520,-31160350,3473384,-7910156,-234375,5415039
2026-01-14 16:42:05.291,6030692,-8828476,1564059,-6029484,-8066406,-2541504,5073242
2026-01-14 16:42:05.301,60381150,-87223060,14803310,-60375980,-7348633,-18859860,5361328
2026-01-14 16:42:05.311,6044760,-41104030,-31091290,-6044763,-69628900,-16223150,5029297
2026-01-14 16:42:05.321,60512350,-8510828,1312012,-60520980,-5986328,-117492700,46923830
2026-01-14 16:42:05.331,-3436268,-51754650,44574830,-15553420,-45385740,-26657100,37231440
2026-01-14 16:42:05.341,-774606,4,-8302808,1140245,-1987530,-3791504,13049320,28222660
2026-01-14 16:42:05.351,41708250,-8200087,1053062,-79687620,-4909668,22241210,22241210
2026-01-14 16:42:05.361,-18094580,-81068690,9736532,-30242800,-58935550,29760740,1895752
2026-01-14 16:42:05.371,32299720,-40050960,-31160350,-89268780,-62890620,2783203,16101070
2026-01-14 16:42:05.381,2801843,-47146200,40033710,-9361916,-5722656,16320800,13464360
2026-01-14 16:42:05.391,22865300,-78332440,7293762,-98824040,-6274414,5328369,18920900
2026-01-14 16:42:05.401,18575360,-45585590,38486900,-103165800,-72509770,93933100,24609380
2026-01-14 16:42:05.411,1340499,-4480702,3771179,-10835340,-8256836,14208980,23901370
2026-01-14 16:42:05.421,-51181170,-44115620,37022120,-52398930,-8046875,1282959,24475100
2026-01-14 16:42:05.431,-5088026,-40319410,39609890,-6305786,-70703130,13134770,1619873
2026-01-14 16:42:05.441,-56060140,-42909780,35811100,-68235980,-65283200,8972168,13476560
2026-01-14 16:42:05.451,54224180,-39403590,-31617830,-67516960,-5986328,37353520,8911133
2026-01-14 16:42:05.481,-1859262,-41369020,34244440,-14023020,-4104004,-20019530,6021118
2026-01-14 16:42:05.491,5242016,-73205230,1890336,-6916564,-40307620,-27038570,22918700
2026-01-14 16:42:05.501,-8110320,-40858900,33718780,-9325663,-421875,-5545044,-17303470
2026-01-14 16:42:05.511,-2989149,-72859970,1372436,-15137370,-44726560,-73913580,-4937744
2026-01-14 16:42:05.521,-3337004,-40609440,33450330,-15480050,-47485350,-52825930,-61767580
2026-01-14 16:42:05.531,50935510,-72695960,1018537,-70443100,-4868164,-15899660,-48950200
2026-01-14 16:42:05.541,50564350,-72661430,880425,4,-70762470,-47387700,-64453120,-10180660
2026-01-14 16:42:05.551,-4467753,-40278840,33090390,-16593530,-49536130,-11791990,-97473140
2026-01-14 16:42:05.561,6048389,-40284020,33085210,-6070486,-5341797,-125,-109558100
2026-01-14 16:42:05.571,-5596776,-40203750,32992850,-17708740,-55810550,-1385498,-13745120
2026-01-14 16:42:05.581,48182000,-40209790,32986810,-72868590,-5336914,-17944340,-20593260
2026-01-14 16:42:05.591,-7158248,-72782280,414319,8,-19254680,-61035160,-12915040,-27148440
2026-01-14 16:42:05.601,-8112049,-72842700,353899,8,-20199850,-63427740,-11590580,-45092770
2026-01-14 16:42:05.611,-14674100,-40229640,32966960,-15882020,-6923828,-1496582,-59765620
2026-01-14 16:42:05.621,4387482,-40235690,32960910,-7684782,-68115230,-23901370,-7944336
2026-01-14 16:42:05.631,-11834890,-40068230,32783100,-23900250,-68066410,-31762700,-99365230
2026-01-14 16:42:05.641,58367380,-7263552,-30213,88,-62217110,-55859380,-3400879,-11416020
2026-01-14 16:42:05.651,-14689390,-7241974,-60421,01,-26742660,-35717770,-20544430,-12382810
2026-01-14 16:42:05.681,36028610,-38877920,31556540,-84365980,62402340,10048830,-11503910
2026-01-14 16:42:05.691,57694110,-72039950,-1260231,-62648700,6611328,14101560,-82128900
2026-01-14 16:42:05.701,57625060,-7251467,-87182,38,-62648690,5576172,14804690,-34301760
2026-01-14 16:42:05.711,3489786,-4037897,-3311111,-8530684,52685550,11396480,6573486
2026-01-14 16:42:05.721,3486333,-73740400,146739,7,-8527234,4477539,5834961,4267578
2026-01-14 16:42:05.731,-1920116,-74310080,612852,-3120785,4399414,16748050,71728510
2026-01-14 16:42:05.741,59745860,-74715770,897689,4,-60251680,65966800,-52978520,8378906
2026-01-14 16:42:05.751,-19467880,-41675450,34283280,-31459000,8496094,4324341,84375
2026-01-14 16:42:05.781,33404580,-41017720,-33335530,-86230430,125,-9124756,29589840
2026-01-14 16:42:05.791,-20694440,-41104040,-33404580,-32649310,13085940,77819820,1282959
2026-01-14 16:42:05.801,-21044890,-41173090,-33473630,-32989400,13964840,52825930,-8081055
2026-01-14 16:42:05.811,3241194,-7570841,94085,24,-8696412,14794920,-25054930,-2331543
2026-01-14 16:42:05.821,5689137,-75414940,543795,8,-6241567,15615230,-5569458,-39819340
2026-01-14 16:42:05.831,3166098,-75035140,60423,74,-8759427,16328130,-40924070,-4873047
2026-01-14 16:42:05.841,-22350860,-74465460,-578320,3,-34272930,17128910,-9559631,-6074219
2026-01-14 16:42:05.851,30935920,-7379215,-128613,4,-88250240,17871090,2128601,-68066410
2026-01-14 16:42:05.881,29727490,-37505480,29994210,-89458670,16484380,-21377560,-63134770
2026-01-14 16:42:05.891,2931317,-7042583,-465247,3,-8990752,15576170,-1451416,-52246100
2026-01-14 16:42:05.901,56546100,-69459080,-5584695,-62691850,15205080,-20239260,-4663086
2026-01-14 16:42:05.911,28570840,-68483700,-6508285,-90718900,14482420,-1842041,-3713379
2026-01-14 16:42:05.921,-25452220,-6749105,-741460,-37386370,14111330,-15991210,-2866211
2026-01-14 16:42:05.931,-25708580,-66498420,-8320933,-37647910,13369140,-15307620,-19067380
2026-01-14 16:42:05.941,27793990,-31962220,24488920,-91668380,12988280,-1315918,-12060550
2026-01-14 16:42:05.951,-26218710,-6475481,-985736,-38173580,12246090,-92285150,-31677250
2026-01-14 16:42:05.961,27448720,-30396440,22947310,-92186290,11289060,-112854000,23254400
2026-01-14 16:42:05.971,27310620,-63157960,-11195290,-92393440,10019530,-1574707,8300781
2026-01-14 16:42:05.981,27276100,-29174190,21752680,-92531550,91503900,-1895752,14172360
2026-01-14 16:42:05.991,2723293,-6207037,-1200666,-9266102,8232422,-28076170,18188480
2026-01-14 16:42:06.021,2735378,-27766370,20398370,-9278188,69189460,-32177730,20690920
2026-01-14 16:42:06.031,27483260,-27587690,20231780,-92738710,6411133,-3215332,20690920
2026-01-14 16:42:06.041,27604100,-27409010,20065190,-92686920,64941410,-3503418,13366700
2026-01-14 16:42:06.051,-26349910,-27316660,19984920,-38387650,66064450,-33081060,46203610
2026-01-14 16:42:06.081,28778000,-26956710,19654320,-91789220,6694336,-20410160,-53253180
2026-01-14 16:42:06.091,-25129390,-26952400,19658640,-37191300,6933594,-14770510,-6341553
2026-01-14 16:42:06.101,2960666,-26948950,19662090,-9106418,6665039,-113586400,-44830320
2026-01-14 16:42:06.111,3005550,-26946360,19664680,-9064985,6411133,-5883789,-61401370
2026-01-14 16:42:06.121,-23743150,-59696660,-13085620,-35815410,62353520,-66345220,-94055180
2026-01-14 16:42:06.131,31117190,-26856590,19581820,-89639940,6464844,-10681150,-13647460
2026-01-14 16:42:06.141,31635090,-26855720,19582680,-89122040,63623050,-11767580,-1706543
2026-01-14 16:42:06.151,-22100540,-26856590,19581820,-34177980,6591797,-11932370,-19873050
2026-01-14 16:42:06.161,57625060,-26856590,19581810,-63132070,6489258,-9277344,-24560550
2026-01-14 16:42:06.171,33447740,-59610340,-13171940,-87309390,6508789,-13195800,-3083496
2026-01-14 16:42:06.181,34043330,-59636230,-13197830,-86696540,66259770,-89904780,-2956543
2026-01-14 16:42:06.191,-19687120,-59662140,-13223730,-31757660,66796880,-39276120,-2763672
2026-01-14 16:42:06.201,3530355,-59782980,-13171940,-8536729,6386719,3274536,-28881840
2026-01-14 16:42:06.211,5786676,-27129350,19826960,-6275229,6176758,3842163,-3515625
2026-01-14 16:42:06.221,36460190,-27219980,19908960,-84107030,57958980,73661810,-44067380
2026-01-14 16:42:06.231,37038520,-27484110,20162730,-83476930,6147461,-423584,-5107422
2026-01-14 16:42:06.261,-20718690,-6147478,-1210160,-21921780,67578130,-17919920,-68896480
2026-01-14 16:42:06.271,39481280,-39369060,-34345440,-80740690,69970700,-20288090,-7011719
2026-01-14 16:42:06.281,-13932390,-29242390,21857130,-25945950,7114258,-17211910,-7182617
2026-01-14 16:42:06.291,4068110,-29768050,22367260,-7935100,6870117,-10870360,-71191410
2026-01-14 16:42:06.301,41319820,-63762180,-10418430,-78608660,67333980,-14208980,-7314453
2026-01-14 16:42:06.311,41958580,-39904230,-34449020,-77866340,69189460,-13305660,-75878900
2026-01-14 16:42:06.321,42502360,-6515185,-939128,1,-77201700,6743164,-11004640,-75927740
2026-01-14 16:42:06.331,58125700,-32307490,24834190,-61457520,6347656,-6689453,-81933590
2026-01-14 16:42:06.341,43676270,-66722840,-8200095,-75786100,6376953,-64468380,-8359375
2026-01-14 16:42:06.351,-9397304,-33621240,26109950,-21331460,64941410,9741211,-93408200
2026-01-14 16:42:06.361,-8799131,-40681080,-34604380,-20721200,6035156,25756840,-10224610
2026-01-14 16:42:06.371,45316290,-68630440,-6827661,-73800820,54541020,45361330,-11083980
2026-01-14 16:42:06.381,58125700,-69148340,-6482389,-60887830,4255371,59765620,-11767580
2026-01-14 16:42:06.391,45894610,-35467550,27888940,-72998070,2565918,7084961,-11689450
2026-01-14 16:42:06.401,-7525956,-35821450,28225580,-19404870,11260990,65722660,-10458980
2026-01-14 16:42:06.411,45972300,-70417200,-5679643,-72730490,7987976,55615230,-95214850
2026-01-14 16:42:06.421,-7361954,-36352300,28730530,-19223600,-1235199,38793940,-85546870
2026-01-14 16:42:06.431,-7364544,-36442930,28812530,-19221010,45318600,2697754,-8808594
2026-01-14 16:42:06.461,45713350,-32750560,31987000,-72816810,47802740,14501950,-12724610
2026-01-14 16:42:06.471,-788156,9,-36010480,28381810,-1973979,5810547,64575200,-13564450
2026-01-14 16:42:06.481,45169550,-35746350,28128040,-73481450,6308594,-7891846,-13789060
2026-01-14 16:42:06.491,-8563484,-69692140,-6335653,-20438950,5996094,-2088623,-12998050
2026-01-14 16:42:06.501,-8989025,-35210320,27628260,-20876570,5185547,-34545900,-11591800
2026-01-14 16:42:06.511,44142380,-35026470,27466850,-74871140,44262700,-48461910,-99609380
2026-01-14 16:42:06.521,43883430,-34755430,27219980,-75302730,34570310,-5566406,-7783203
2026-01-14 16:42:06.531,43710800,-4062063,-3445766,-75648000,20983890,-60009770,-5361328
2026-01-14 16:42:06.541,43624480,-6793988,-682767,1,-75906940,11834720,-5888672,-32910160
2026-01-14 16:42:06.551,-10326930,-6770684,-676722,8,-22300790,463562,-5551758,-17907720
2026-01-14 16:42:06.561,58315600,-3400446,2658985,-61612890,-12367250,-47973630,-4486084
2026-01-14 16:42:06.571,5841053,-39921500,-33896580,-6172512,-3845215,-36401370,4336548
2026-01-14 16:42:06.581,58505490,-6678324,-670683,6,-61837320,-71777340,-18664550,7696533
2026-01-14 16:42:06.591,4352092,-30145090,29413470,-7701182,-11663820,-13589860,10687260
2026-01-14 16:42:06.641,58798970,-64521770,-7034817,-62700490,-5107422,20031740,-3741455
2026-01-14 16:42:06.651,40378970,-32132270,25009410,-81293100,-64160160,75805660,10543820
2026-01-14 16:42:06.661,39351800,-32029550,24939500,-82510180,-7089844,-38879400,35095220
2026-01-14 16:42:06.671,-16771340,-63770810,-6801759,-28976530,-9033203,-16601560,16662600
2026-01-14 16:42:06.701,58557280,-63589540,-5929963,-64047020,-11201170,-26513670,4621582
2026-01-14 16:42:06.711,32653630,-63416910,-5757331,-90140580,-10888670,-22827150,47583010
2026-01-14 16:42:06.721,-23630070,-63235650,-5576065,-35928480,-8378906,40802000,51220700
2026-01-14 16:42:06.731,3094457,-32165940,25321020,-9222945,-578125,45263670,5566406
2026-01-14 16:42:06.741,30607920,-62881740,-5222167,-92755980,-43139650,7260742,62353520
2026-01-14 16:42:06.751,-25068970,-62804060,-4971843,-37424350,-25024410,10703130,76416020
2026-01-14 16:42:06.761,30607920,-62907640,-4557525,-93101240,-15296940,12998050,10292970
2026-01-14 16:42:06.771,-24967980,-63460070,-3728886,-37352710,-31082150,1078125,10595700
2026-01-14 16:42:06.781,311774,8,-36537880,-30409390,-928079,3,-15975950,6098633,10898440
2026-01-14 16:42:06.791,3183362,-64867030,-1855810,-9225536,11207580,35864260,12910160
2026-01-14 16:42:06.801,-23397020,-65721570,-811372,3,-35816270,-8544922,23217770,14609380
2026-01-14 16:42:06.811,-22615850,-36529240,-29831060,-35043740,-12915040,1373291,16669920
2026-01-14 16:42:06.841,-26135760,-70011500,4048260,-27380620,-6269531,-8380127,23554690
2026-01-14 16:42:06.851,36019980,-7117675,529983,8,-88500550,-69873050,-904541,23535160
2026-01-14 16:42:06.861,36460190,-72350690,6542808,-88077600,-7421875,-13208010,21933590
2026-01-14 16:42:06.871,36891780,-73464180,7673560,-87646020,-65283200,-8709717,20039060
2026-01-14 16:42:06.901,59774340,-7676145,1093630,-64694400,-16638180,-4269409,13652340
2026-01-14 16:42:06.911,3770315,-7782317,1194624,-8673107,-41900640,-19580080,11884770
2026-01-14 16:42:06.921,5975709,-78789920,12878460,-6464265,-12016300,-39794920,10595700
2026-01-14 16:42:06.931,37927580,-37642730,-28320520,-86437590,21606440,-6191406,9975586
2026-01-14 16:42:06.941,-17952160,-37729050,-28286000,-30385220,5380249,-73828130,9033203
2026-01-14 16:42:06.951,38065690,-8076654,1469972,-86230420,14257810,-76904300,82666020
2026-01-14 16:42:06.961,-17782980,-51470670,44858810,-30209140,14367680,-78759770,7993164
2026-01-14 16:42:06.971,38203790,-51645890,45028850,-86023270,11602780,-7519531,80126950
2026-01-14 16:42:06.981,-17699250,-81621110,15398910,-30120230,8062744,-6875,7578125
2026-01-14 16:42:06.991,38177900,-81560690,15286700,-85997380,9326172,-6279297,7558594
2026-01-14 16:42:07.001,-17701840,-81500270,15174480,-30117640,106933600,-5371094,7841797
2026-01-14 16:42:07.011,38065680,-81267220,14889640,-86057790,14428710,-4609375,7758789
2026-01-14 16:42:07.021,-17877060,-37988000,-28441370,-30287680,104003900,-43066410,70947260
2026-01-14 16:42:07.031,-17964240,-37970730,-28510420,-30373140,9906006,-34277340,62646480
2026-01-14 16:42:07.041,37694520,-37953470,-28579470,-86377170,25970460,-18029780,3605957
2026-01-14 16:42:07.051,3741831,-7964446,1305973,-8661886,68115230,7470703,-68847660
2026-01-14 16:42:07.081,5951538,-33872420,-32971270,-6440094,32006840,66503900,-53222660
2026-01-14 16:42:07.091,-17803690,-33932840,-33031690,-30188420,20739750,7207031,-4663086
2026-01-14 16:42:07.101,38497270,-7869494,1159232,-85280940,38085940,6816406,-39282230
2026-01-14 16:42:07.111,39239590,-79109300,11868550,-84469570,-1538086,59472660,-31469730
2026-01-14 16:42:07.121,39990550,-49287720,42553290,-83666820,-3635254,38867190,-2709961
2026-01-14 16:42:07.131,40655180,-38359160,-29071480,-82950390,-36010740,13122560,-29833980
2026-01-14 16:42:07.141,-14451150,-38419580,-29062850,-26808260,-22875980,-6976318,-35205080
2026-01-14 16:42:07.151,-14020430,-5041846,4366678,-26375810,-21533200,-22546390,-3034668
2026-01-14 16:42:07.161,-13847800,-5067741,4392573,-26203170,-2932129,-296875,-14685060
2026-01-14 16:42:07.171,-13847800,-38505900,-28993800,-26203180,-3972168,-31982420,-4537964
2026-01-14 16:42:07.181,-13933250,-38505900,-28959270,-26290360,-44921880,-27294920,6536865
2026-01-14 16:42:07.191,41509720,-38505900,-28924740,-82078590,-49780270,-1817627,15112310
2026-01-14 16:42:07.201,41345720,-81767860,14389000,-82259860,-46606440,-12463380,15393070
2026-01-14 16:42:07.211,-14447700,-81914590,14587530,-26811710,-3942871,-55999760,13659670
2026-01-14 16:42:07.221,41112670,-48760070,48087320,-82544700,-24438480,92041020,105163600
2026-01-14 16:42:07.231,-14704060,-51871180,45148840,-27073250,-14233400,19958500,7495117
2026-01-14 16:42:07.241,-14874960,-82259860,15105430,-27247610,-59051510,24072270,60455320
2026-01-14 16:42:07.251,-15045870,-38419580,-28665790,-27421970,-40039060,3659668,36071780
2026-01-14 16:42:07.261,-15303100,-38402320,-28614000,-27682650,-72265620,3527832,10795590
2026-01-14 16:42:07.271,40163180,-8249288,1556290,-83666820,-9552002,2993164,-18091200
2026-01-14 16:42:07.301,-22081380,-38272850,-28346420,-23321230,-24291990,8215332,-10369870
2026-01-14 16:42:07.311,-16931030,-8306259,1654693,-29334750,-26416020,6752014,-15063480
2026-01-14 16:42:07.321,-17360030,-38195160,-28199680,-29768920,-27685550,-6500244,-13781740
2026-01-14 16:42:07.331,-17702700,-5056779,4990490,-30116780,-26708980,-13964840,-91796870
2026-01-14 16:42:07.341,-18045380,-38134740,-28052940,-30464630,-26586910,-20800780,-29678340
2026-01-14 16:42:07.351,59670760,-33547860,-32536240,-64573560,-20666500,-21289060,6774902
2026-01-14 16:42:07.361,3728022,-54140450,47540680,-8699867,-1706543,-2265625,11230470
2026-01-14 16:42:07.371,3713348,-83960300,18066090,-8719721,-1340332,-22387700,18823240
2026-01-14 16:42:07.381,59670770,-84089770,18281880,-64694410,-13171390,-22814940,23876950
2026-01-14 16:42:07.391,61955570,-54643680,48073240,-62461390,-74279780,-24182130,25219730
2026-01-14 16:42:07.401,369524,1,-54724810,48164740,-875340,4,-29968260,-19946290,23217770
2026-01-14 16:42:07.411,62015990,-8427102,1879113,-62521800,9773254,-15271000,20178220
2026-01-14 16:42:07.421,5977434,-37824000,-27517780,-6483252,105773900,-12890630,11694340
2026-01-14 16:42:07.431,36969460,-54704090,48185450,-87723700,14855960,-7086182,13397220
2026-01-14 16:42:07.441,-19224460,-54609150,48107780,-31702420,20690920,-4144287,-758667
2026-01-14 16:42:07.451,36891780,-83597760,18773890,-87991290,23913570,-36678310,-13415530
2026-01-14 16:42:07.461,36943560,-83321540,18704830,-88043080,2265625,14129640,-15014650
2026-01-14 16:42:07.471,36917670,-83131650,18722100,-88189820,23144530,25894160,-1619873
2026-01-14 16:42:07.481,36891780,-82838180,18670310,-88336560,2088623,2709961,-99365230
2026-01-14 16:42:07.491,36952200,-37038510,-26904930,-88396980,16418460,29052730,-8270264
2026-01-14 16:42:07.501,37098940,-32356690,-31345060,-88371090,15209960,39154050,59448240
2026-01-14 16:42:07.511,-19356530,-8221669,1877390,-31915620,10272220,10852050,18322750
2026-01-14 16:42:07.521,-19349630,-8209584,1889474,-31922520,2973938,11682130,24768070
2026-01-14 16:42:07.531,-19257270,-31985530,-30973900,-31842250,-15716550,982666,31396480
2026-01-14 16:42:07.541,-19251220,-31864690,-30853050,-31848290,-20263670,13903810,33764650
2026-01-14 16:42:07.551,-19332360,-31752470,-30740840,-31939790,-579834,11932370,35961910
2026-01-14 16:42:07.561,-19413500,-8181100,1952485,-32031280,-10412600,9802246,40820310
2026-01-14 16:42:07.571,37323360,-8171602,1961978,-88940770,-17553710,1439209,49951170
2026-01-14 16:42:07.581,-19577500,-81793740,19887380,-32212550,-24584960,14379880,5366211
2026-01-14 16:42:07.591,-19833000,-81811010,20042750,-32474950,-25952150,19995120,5932617
2026-01-14 16:42:07.601,-20002180,-81914590,20284430,-32651040,-20471190,25634770,57128900
2026-01-14 16:42:07.611,-20258540,-82026800,20517490,-32912580,-17211910,30200200,5498047
2026-01-14 16:42:07.621,36356610,-82156270,20733280,-90218260,-20837400,22241210,54296880
2026-01-14 16:42:07.631,3611492,-35830080,-25506600,-9049449,-16992190,13134770,47851560
2026-01-14 16:42:07.641,3587323,-35812820,-25454810,-9077070,-13574220,10803220,43286130
2026-01-14 16:42:07.651,3562291,-31128410,-30087430,-9103828,-16027830,22415160,4567871
2026-01-14 16:42:07.661,3536397,-8289860,2171729,-9129722,-12854000,-8224487,39770510
2026-01-14 16:42:07.671,-21806200,-35847340,-25316700,-34472320,-9881592,55389400,40185550
2026-01-14 16:42:07.681,-22065150,-31102510,-30044270,-34731270,-55358890,-8651733,36401370
2026-01-14 16:42:07.691,-22237780,-35899130,-25247640,-34903900,-61309820,-25848390,33447270
2026-01-14 16:42:07.701,-22410420,-84176090,23029310,-35076540,-637207,-56854250,3383789
2026-01-14 16:42:07.711,-22583910,-84529980,23365940,-35248310,-56884770,-9375,34179690
2026-01-14 16:42:07.721,34310910,-57265980,51147850,-92315760,-39123540,-7476807,34643560
2026-01-14 16:42:07.731,-22758280,-36054500,-25144070,-35419220,-3227234,-7739258,36401370
2026-01-14 16:42:07.741,-22931770,-36097660,-25118170,-35590980,22109980,-848999,37280270
2026-01-14 16:42:07.751,33939740,-36140820,-25109540,-92635130,4333496,-49072260,3864746
2026-01-14 16:42:07.761,33844790,-8614407,2485921,-92712820,40130620,-59417720,39135740
2026-01-14 16:42:07.771,-23194180,-36244400,-25092280,-35846480,4348755,-101989700,375
2026-01-14 16:42:07.781,-23282220,-36287560,-25083640,-35931070,50628660,-106933600,36645510
2026-01-14 16:42:07.791,-23369390,-86990010,25567020,-36016530,670166,-11315920,359375
2026-01-14 16:42:07.801,33439110,-87274860,25800070,-92997660,62438960,-6842041,32592770
2026-01-14 16:42:07.811,-23545480,-59786430,53633770,-36185710,6933594,-1038208,2944336
2026-01-14 16:42:07.821,62892970,-87663280,26102180,-63492020,1274414,-8337402,27563480
2026-01-14 16:42:07.831,3314562,-36511980,-25100910,-9322210,11468510,-109680200,2619629
2026-01-14 16:42:07.841,3305068,-8796539,2631798,-9329977,17602540,-15368650,28100590
2026-01-14 16:42:07.851,60154140,-36555140,-25109540,-66179050,1887207,-16870120,25512700
2026-01-14 16:42:07.861,3303341,-36563780,-25118170,-9328252,19812010,-17053220,2529297
2026-01-14 16:42:07.871,3303341,-36563780,-25118170,-9328252,22460940,-13891600,20751950
2026-01-14 16:42:07.881,60162770,-36546510,-25118180,-66170420,2541504,-23937990,16711430
2026-01-14 16:42:07.891,-23548070,-60051420,53886680,-36183120,2614746,-30615230,17370600
2026-01-14 16:42:07.901,-23288260,-87602860,25989970,-35925040,2536621,-28564450,16491700
2026-01-14 16:42:07.911,-23027580,-87318020,25756920,-35667810,26464840,-27319340,15588380
2026-01-14 16:42:07.921,34215960,-87033170,25523860,-92220820,27197270,-22143560,15783690
2026-01-14 16:42:07.931,-22247280,-36322080,-25118170,-34894410,26586910,-14611820,18127440
2026-01-14 16:42:07.941,3520860,-8635127,2499733,-9131448,24523930,-6726074,23730470
2026-01-14 16:42:07.951,60542560,-36175340,-25092280,-66032310,17150880,-59509280,27905270
2026-01-14 16:42:07.961,-20512310,-36089030,-25075010,-33176710,19824220,-45928960,3088379
2026-01-14 16:42:07.971,-25520500,-36011340,-25066380,-26787450,21069340,6877899,33154300
2026-01-14 16:42:07.981,37824000,-35933660,-25040490,-88923510,13793950,-4537964,3137207
2026-01-14 16:42:07.991,3854907,-84555890,23685320,-8826754,12359620,-58380130,25341800
2026-01-14 16:42:08.001,-17910720,-56813680,50736990,-30599290,8135986,-7232666,18261720
2026-01-14 16:42:08.011,-22843460,-53819610,53213150,-24112840,5392456,-597229,13623050
2026-01-14 16:42:08.021,-16437300,-8344239,2289984,-29137940,32684330,5706787,10675050
2026-01-14 16:42:08.031,6350702,-30748610,-29690370,-6355124,-12527470,7366943,42114260
2026-01-14 16:42:08.041,-15050190,-35433020,-24885120,-27762920,-7165527,9033203,18777850
2026-01-14 16:42:08.051,-19993810,-35363970,-24850590,-21265600,-120788600,11999510,-14862060
2026-01-14 16:42:08.061,-13576760,-35286280,-24807430,-26301580,-12915040,9625244,-8453369
2026-01-14 16:42:08.071,4440133,-35217230,-24772900,-8289862,-14465330,72021490,-53649900
2026-01-14 16:42:08.081,45126400,-30455130,-29414160,-82242600,-18200680,53497310,-9729004
2026-01-14 16:42:08.091,-17230460,-35061860,-24703850,-18504670,-21264650,-41534420,-16296390
2026-01-14 16:42:08.101,46481570,-34984170,-24660690,-81008260,-21398930,-6958008,-1875
2026-01-14 16:42:08.111,63605080,-54335520,48381400,-63936540,-25976560,-9979248,-20703120
2026-01-14 16:42:08.121,47923060,-80896050,21475600,-79687620,-27807620,-7824707,-24621580
2026-01-14 16:42:08.131,48639480,-80662990,21363390,-79022980,-31713870,-10028080,-25585940
2026-01-14 16:42:08.141,49364550,-80343620,21164860,-78366980,-33496090,-18029780,-28076170
2026-01-14 16:42:08.151,62519220,-30034770,-29023150,-65264090,-37231440,-20825200,-23352050
2026-01-14 16:42:08.161,50978670,-34509430,-24444900,-76873700,-38671880,-20202640,-24487300
2026-01-14 16:42:08.171,51695100,-34431740,-24401740,-76209060,-53222660,-16772460,-26049800
2026-01-14 16:42:08.181,-5254100,-7925603,2052613,-18051420,-57373050,-18774410,-23962400
2026-01-14 16:42:08.191,64001450,-7885032,2024125,-64023540,-5395508,-12756350,-29101560
2026-01-14 16:42:08.201,53594070,-34181430,-24341320,-74482720,-546875,-7739258,-31201170
2026-01-14 16:42:08.211,54137860,-34086480,-24332690,-73990710,-5019531,10803220,-34887700
2026-01-14 16:42:08.221,-3085822,-51081380,45248100,-15903860,-4963379,7879639,-39526370
2026-01-14 16:42:08.231,-2738831,-7669242,1842863,-15560320,-5209961,15429690,-42871100
2026-01-14 16:42:08.241,55234080,-7606229,1785028,-73015340,-6401367,15881350,-33764650
2026-01-14 16:42:08.251,-2217478,-33715320,-24462170,-15045870,-6743164,28344730,-23596190
2026-01-14 16:42:08.261,55605250,-74741660,16581450,-72695960,-65234380,36547850,-12561040
2026-01-14 16:42:08.271,55605250,-33603110,-24574380,-72695960,-6147461,4567871,-3265381
2026-01-14 16:42:08.281,55518930,-33559950,-24634800,-72782280,-578125,50341800,-8487,701
2026-01-14 16:42:08.291,-2390974,-7323975,1497596,-15217640,-51660160,4765625,17425540
2026-01-14 16:42:08.301,55061450,-46592910,40759620,-73187970,-42944340,47192380,-4447937
2026-01-14 16:42:08.311,54690290,-43450550,42866190,-73507340,-3166504,50146480,-22628780
2026-01-14 16:42:08.321,-9862343,-45654650,39798920,-9990510,-3137207,45581060,-117370600
2026-01-14 16:42:08.331,-4039623,-71642900,12947510,-16849030,-2919922,33813480,-17663570
2026-01-14 16:42:08.341,62899010,-3361171,-2523904,-65125980,-28686520,29125980,-21008300
2026-01-14 16:42:08.351,-5514778,-33672160,-25368490,-18308650,-33544920,24658200,-16845700
2026-01-14 16:42:08.361,51142670,-7088328,1163548,-76692420,-37670900,19372560,-11767580
2026-01-14 16:42:08.371,62493320,-33862060,-25644710,-65238200,-37231440,15002440,-12878420
2026-01-14 16:42:08.381,-8380494,-7097825,1119529,-21139830,-40283200,9893799,-16149900
2026-01-14 16:42:08.391,47836740,-34155530,-25938180,-79601300,-39257810,-58059690,-15710450
2026-01-14 16:42:08.401,46628300,-7147023,1104853,-80637100,-39624020,-9655762,-3945923
2026-01-14 16:42:08.411,45419870,-34543960,-26257560,-81672900,-34960940,-30044560,3741455
2026-01-14 16:42:08.421,4410785,-34768390,-26430190,-8277777,-3552246,-14099120,5432129
2026-01-14 16:42:08.431,-14210320,-72851330,11221170,-26876450,-3173828,-11608890,20263670
2026-01-14 16:42:08.441,-15430840,-45400020,39190390,-28072800,-2010498,-1451416,-12672420
2026-01-14 16:42:08.451,-16565040,-45682270,39426040,-29182830,-10284420,-18933100,234375
2026-01-14 16:42:08.461,-17699250,-74249660,11203910,-30292870,7092285,-24926760,-46966550
2026-01-14 16:42:08.471,3789306,-74663980,11134860,-8778416,32861330,-36328120,-18078610
2026-01-14 16:42:08.481,-19623250,-74983350,10988130,-32166800,52441410,-29370120,-20910640
2026-01-14 16:42:08.491,-20325870,-75302730,10841380,-32845250,69628900,-63671880,-34423830
2026-01-14 16:42:08.501,-2102762,-75423570,10547910,-3352460,9194336,-64404300,-4206543
2026-01-14 16:42:08.511,3466481,-75458100,10168110,-9008019,11630860,-6796875,-50683590
2026-01-14 16:42:08.521,3422461,-45923100,39357850,-9033049,13515630,-59033200,-5571289
2026-01-14 16:42:08.531,-22092770,-45595090,38995320,-34531020,15625,-44067380,-58740230
2026-01-14 16:42:08.541,33629010,-451777,8,385489,1,-90598060,16660160,-32641600,-5722656
2026-01-14 16:42:08.551,-22366400,-37418300,-29131900,-34775290,17285160,-2614746,-51123050
2026-01-14 16:42:08.561,-27864600,-44165690,37489950,-29104450,17734380,-20898440,-48950200
2026-01-14 16:42:08.571,33637630,-73697230,6749970,-90261420,17265620,-1842041,-44799800
2026-01-14 16:42:08.581,59109700,-73075750,5990378,-64720300,16533200,-8709717,-40673830
2026-01-14 16:42:08.591,59109710,-7245425,523076,8,-64668510,16103520,-6290436,-31591800
2026-01-14 16:42:08.601,3441449,-71815540,4488472,-8931197,15419920,9391785,-25585940
2026-01-14 16:42:08.611,-20918860,-71168160,3754780,-33288060,14462890,-362854,-1607666
2026-01-14 16:42:08.621,35156820,-70607100,3107401,-88500560,14111330,-39764400,-15539550
2026-01-14 16:42:08.631,-20059150,-7003739,246867,-32421430,13623050,-56915280,-20092770
2026-01-14 16:42:08.641,36071770,-37392410,-30245390,-87516540,13535160,-17590330,-2536621
2026-01-14 16:42:08.651,3666735,-69156980,1450120,-8690373,13701170,-25634770,-3569336
2026-01-14 16:42:08.661,61523990,-68759910,984009,3,-62012540,13457030,-28320310,-4104004
2026-01-14 16:42:08.671,-17474820,-68440540,612847,8,-29826750,12792970,-3269043,-45654300
2026-01-14 16:42:08.681,-22170110,-68216130,319372,-23405130,12167970,-2932129,-48535160
2026-01-14 16:42:08.691,3972297,-67991700,25895,73,-8374454,11513670,-22375490,-49389650
2026-01-14 16:42:08.701,-14888770,-37237900,30434420,-27233800,10869140,-20336910,-5131836
2026-01-14 16:42:08.711,-14028200,-67801810,-302108,3,-26368040,10087890,-1673584,-59521480
2026-01-14 16:42:08.721,59757080,-67844960,-345266,7,-63606810,9633789,-18432620,-6269531
2026-01-14 16:42:08.731,43356900,-68069380,-224426,7,-79955200,9121094,-14050290,-67285150
2026-01-14 16:42:08.741,44271860,-68302430,-112214,7,-78971200,8745117,-15478520,-72998050
2026-01-14 16:42:08.751,4518684,-37781700,30926430,-7798720,8774414,-15795900,-79589840
2026-01-14 16:42:08.761,-9296314,-69139710,431583,7,-21605080,8330078,-12188720,-8520508
2026-01-14 16:42:08.771,-13886210,-69648980,785484,-15116220,79345700,-12426760,-8701172
2026-01-14 16:42:08.781,47897160,-38091580,-30944560,-75000620,7495117,-21728520,-8339844
2026-01-14 16:42:08.791,-6461674,-34967780,-34240990,-18742820,6767578,9277344,-7832031
2026-01-14 16:42:08.801,-5517366,-71539320,2175184,-17788160,57910160,10797120,-79589840
2026-01-14 16:42:08.811,-4572198,-72134900,2615396,-16834360,58691410,7550049,-8691406
2026-01-14 16:42:08.821,51608780,-72540590,2900241,-70943740,6352539,10040280,-10322270
2026-01-14 16:42:08.831,52696380,-72765010,3021085,-69787090,6489258,22460940,-12246090
2026-01-14 16:42:08.841,-1300792,-41470880,34487860,-13545690,6899414,769043,-13994140
2026-01-14 16:42:08.851,54828390,-72911750,3046977,-67603270,64160160,19165040,-15673830
2026-01-14 16:42:08.861,-47395660,-41388020,34398090,-59637100,48901370,31591800,-16396480
2026-01-14 16:42:08.871,1718568,-41215380,34225460,-10522880,30029300,36157230,-16162110
2026-01-14 16:42:08.881,57590530,-72402480,2520445,-64841140,83618160,3371582,-14833980
2026-01-14 16:42:08.891,-23224380,-40694030,33711000,-35471000,-50750730,2244873,-12890630
2026-01-14 16:42:08.901,39671180,-40346170,33368330,-82829550,-17358400,20825200,-1125
2026-01-14 16:42:08.911,45739240,-71358050,1665913,-76813270,-15917970,14501950,-10488280
2026-01-14 16:42:08.921,-2500598,-38393690,-31177610,-14762750,-770874,123535200,-11347660
2026-01-14 16:42:08.931,6131942,-7036541,93221,73,-6138848,91308590,88012700,-12753910
2026-01-14 16:42:08.941,61397970,-69856140,578321,3,-61396240,20874020,5718994,-14228520
2026-01-14 16:42:08.951,61449410,-69251920,146737,3,-61448380,3125,-17303470,-14863280
2026-01-14 16:42:08.961,71004150,-68716760,-181270,7,-52014470,36010740,-10925290,-15107420
2026-01-14 16:42:08.971,19105350,-68164330,-492008,3,6789672,31347660,-21728520,-14121090
2026-01-14 16:42:08.981,78919400,-37539140,-30858240,-44392700,22692870,-30419920,-12353520
2026-01-14 16:42:08.991,83321550,-37357880,-30746030,-40163180,97351070,-37109380,-10400390
2026-01-14 16:42:09.001,87723710,-37167980,-30625180,-35933660,-17028810,-43408200,-82666020
2026-01-14 16:42:09.011,9213450,-35827490,29082700,-3171279,-78308100,-45092770,-67626950
2026-01-14 16:42:09.021,9740846,-35551280,28841010,-2662873,-13098150,-45532230,-5371094
2026-01-14 16:42:09.031,102682400,-65393570,-1346545,-21544660,-19555660,-33251950,-40600580
2026-01-14 16:42:09.041,51106420,-35168030,28533720,38662990,-18249510,-16015630,-27172850
2026-01-14 16:42:09.051,11152990,-34975540,28380940,-1312879,-17614750,8477783,-26464840
2026-01-14 16:42:09.061,11508610,-64280080,-1268854,-977971,9,-17358400,27783200,-21984860
2026-01-14 16:42:09.071,59770890,-63891660,-1225698,47261870,-21166990,42285160,-22399900
2026-01-14 16:42:09.081,59782110,-63598180,-1104856,47250650,-40454100,3791504,-10571290
2026-01-14 16:42:09.091,114551000,-63382380,-889066,8,-10970860,-4580078,34375,-7904053
2026-01-14 16:42:09.101,111210500,-34612150,28226430,-14535740,-47070310,3359375,-1182251
2026-01-14 16:42:09.111,43788140,-63391020,-34530,03,42528600,-70947260,29052730,61035160
2026-01-14 16:42:09.121,66705580,-63529120,517899,3,-59454980,-8125,19494630,13256840
2026-01-14 16:42:09.131,34802910,-63580920,984007,8,22166140,-78808590,18701170,7147217
2026-01-14 16:42:09.141,84003460,-63632700,1450117,-42571420,-7998047,17590330,103027300
2026-01-14 16:42:09.151,19285750,-34164170,-27621360,6609273,-89208980,66101070,1381836
2026-01-14 16:42:09.161,71254470,-6347731,212336,-55717460,-10996090,-33984380,11151120
2026-01-14 16:42:09.171,8404404,-35588390,29494430,7132610,-93603520,-32910160,35498050
2026-01-14 16:42:09.181,72316170,-62631430,2106127,-55052820,-7529297,-9544373,72753900
2026-01-14 16:42:09.191,73274280,-35288870,29276050,-54284600,-6557617,19165040,99072260
2026-01-14 16:42:09.201,74223770,-62165320,2399601,-53507750,-6015625,26733400,10507810
2026-01-14 16:42:09.211,18478690,-35426980,29483210,5689998,-48828120,54785160,12929690
2026-01-14 16:42:09.221,65393560,-32843520,-26283450,-62631430,-5,88623050,15175780
2026-01-14 16:42:09.231,21944300,-32774470,-26093550,9129722,-54248050,10947270,16386720
2026-01-14 16:42:09.241,25401290,-63416910,4773314,12578070,-49560550,10917970,16298830
2026-01-14 16:42:09.251,87456130,-64098820,5645109,-40845090,-3984375,953125,16855470
2026-01-14 16:42:09.261,64461340,-32739940,-25575650,-63908920,-3527832,6586914,16601560
2026-01-14 16:42:09.271,32579220,-39681540,33860330,31295170,-33398440,35205080,16591800
2026-01-14 16:42:09.281,4181011,-66886840,8726622,2896960,-32836910,16784670,16513670
2026-01-14 16:42:09.291,4526278,-6791402,977105,5,3242229,-32495120,-11169430,16845700
2026-01-14 16:42:09.301,46988250,-68872130,10711910,34149500,-39086910,-859375,17285160
2026-01-14 16:42:09.311,10560860,-43738420,37917220,-2274448,-4260254,-11114500,16230470
2026-01-14 16:42:09.321,104719500,-33318260,-24980070,-23581730,-36108400,-2553711,15371090
2026-01-14 16:42:09.331,46117310,-71841430,13439510,33294090,-23913570,-28564450,14033200
2026-01-14 16:42:09.341,44388390,-72678700,14155950,31570350,-11706540,-26757810,12089840
2026-01-14 16:42:09.351,9944551,-29322240,-29321360,-2866580,-6439209,-1706543,10654300
2026-01-14 16:42:09.361,9682149,-7427556,1549385,-3122077,20889280,-15234380,97265620
2026-01-14 16:42:09.371,35746350,-48434050,42543800,22949030,9863281,-19177250,91845700
2026-01-14 16:42:09.381,89847100,-7551851,1649509,-38057050,18518070,-28759770,89697260
2026-01-14 16:42:09.391,85505370,-34207320,-24919650,-42347000,18200680,-38427740,94384770
2026-01-14 16:42:09.401,23654240,-34276380,-24936910,10872450,125,-57470700,10263670
2026-01-14 16:42:09.411,19335810,-34336800,-24962800,6559209,83496100,-63427740,10957030
2026-01-14 16:42:09.421,72497430,-34388590,-24997330,-55234090,15037540,-62060550,11386720
2026-01-14 16:42:09.431,63840380,-34431750,-25040490,-63839340,-6530762,-60253900,12412110
2026-01-14 16:42:09.441,6383122,-34457640,-25100910,-6381398,-1430664,-5566406,13740230
2026-01-14 16:42:09.451,6377081,-4959415,4362794,-6382260,-22595220,-4609375,14814450
2026-01-14 16:42:09.461,63770120,-7624356,1646058,-63771500,-29858400,-3232422,15507810
2026-01-14 16:42:09.471,52523740,-34561220,-25359860,-74966100,-34716800,-17456060,16484380
2026-01-14 16:42:09.481,-14899910,-48665380,42657740,-16174120,-4807129,-33355710,17255860
2026-01-14 16:42:09.491,-15211600,-48328740,42303840,-27946770,-58691410,41534420,18173830
2026-01-14 16:42:09.501,36874510,-34707960,-25731020,-90390900,-6738281,7366943,18691410
2026-01-14 16:42:09.511,3078054,-34768380,-25895020,-9638128,-68115230,1184082,18476560
2026-01-14 16:42:09.521,2468658,-34846070,-26059030,-10237170,-7192383,3213501,17753910
2026-01-14 16:42:09.531,-3767467,-73999340,12835300,-5036845,-7084961,18405910,16826170
2026-01-14 16:42:09.541,1420774,-73619550,12179290,-11260890,-72265620,-18005370,14716800
2026-01-14 16:42:09.551,9822844,-73153440,11436970,-116855600,-7524414,7696533,1328125
2026-01-14 16:42:09.561,457478,-35182700,-26827240,-12196560,-7558594,10345460,11523440
2026-01-14 16:42:09.571,-67327,-7240248,1011632,-12707550,-77685540,-33966060,10507810
2026-01-14 16:42:09.581,56321670,-72031320,9451681,-69959720,-87109380,-1381836,94921870
2026-01-14 16:42:09.591,-1029758,-40451570,39823010,-13644090,-96191410,-18762210,8964844
2026-01-14 16:42:09.601,-1554564,-71012780,7880720,-14155090,-10927730,-23364260,8666992
2026-01-14 16:42:09.611,62096260,-35579760,-27828520,-63770810,-12050780,-32763670,80615230
2026-01-14 16:42:09.621,54068810,-69907930,6223436,-71677420,-12675780,-3527832,75878900
2026-01-14 16:42:09.631,-2869167,-40486870,34090800,-15429980,-1328125,-41235350,6923828
2026-01-14 16:42:09.641,-3134161,-68630450,4393522,-15682890,-13203130,-46777340,5517578
2026-01-14 16:42:09.651,53179740,-35821450,-28691690,-72169430,-12197270,-44482420,3383789
2026-01-14 16:42:09.661,-8696154,-67094010,2304658,-9948267,-10458980,-37304690,14855960
2026-01-14 16:42:09.671,-83515770,-66377570,1294752,-96023060,-8276367,-13269040,18774410
2026-01-14 16:42:09.681,-2299479,-6576472,35389,98,-14791240,-8276367,9655762,3359375
2026-01-14 16:42:09.691,54353660,-65238190,-500638,7,-70408570,-9379883,68725580,47753900
2026-01-14 16:42:09.701,54871550,-35067900,28461220,-69718030,-10048830,15856930,49023440
2026-01-14 16:42:09.711,55216820,-34567260,27926050,-69200130,-9379883,24816900,4411621
2026-01-14 16:42:09.721,55467140,-3646016,-3029720,-68759920,-7597656,31225590,17871090
2026-01-14 16:42:09.731,-185582,5,-36615560,-30521600,-12589300,-61865230,51220700,5923462
2026-01-14 16:42:09.741,55872830,-3350036,2674867,-67957170,-60595700,75927740,16748050
2026-01-14 16:42:09.751,56019570,-3695217,-3096184,-67586010,-62597660,10615230,50439450
2026-01-14 16:42:09.761,5607999,-63952080,-4393525,-6730120,-7368164,13007810,8828125
2026-01-14 16:42:09.771,55777880,-33219000,26339550,-67344320,-8457031,13876950,10244140
2026-01-14 16:42:09.781,55467140,-64504500,-4773317,-67378850,-97558590,13603520,11289060
2026-01-14 16:42:09.791,54888820,-37910310,-31902670,-67663700,-1078125,13369140,13134770
2026-01-14 16:42:09.801,-880432,-38221050,-32161620,-13102880,-12285160,10419920,13535160
2026-01-14 16:42:09.811,53153850,-38583580,-32437830,-68690860,-12675780,6826172,13310550
2026-01-14 16:42:09.821,-2646470,-34832260,27661060,-14789510,-12216800,4621582,12392580
2026-01-14 16:42:09.831,-3620124,-68095280,-4393523,-15714830,-11582030,3474121,10175780
2026-01-14 16:42:09.841,-4681820,-6946771,-386699,-16724730,-9746094,26660160,79296870
2026-01-14 16:42:09.851,-5660650,-37549500,30122810,-17644870,-7788086,21789550,5527344
2026-01-14 16:42:09.861,-6555756,-38720830,31195730,-18476100,-4814453,10333250,2932129
2026-01-14 16:42:09.871,46058620,-7431869,-198530,8,-72471540,-6097412,45196530,16577150
2026-01-14 16:42:09.881,4500557,-41072100,33332940,-7279956,18139650,8050537,10482790
2026-01-14 16:42:09.891,-8562620,-42076820,34227180,-20267170,44091800,-7318115,-25268560
2026-01-14 16:42:09.901,43115210,-7882442,-79413,54,-73153440,7890625,-28125,-63964840
2026-01-14 16:42:09.911,-9762422,-43828190,35755850,-21311610,12509770,-30004880,-10712890
2026-01-14 16:42:09.921,-10404620,-81206790,-586952,3,-21877850,15810550,-42260740,-15087890
2026-01-14 16:42:09.931,55329030,-44708620,36429120,-58678120,20273440,-61035160,-21992190
2026-01-14 16:42:09.941,-11769290,-82510180,-1199808,-23102680,2421875,-6665039,-27519530
2026-01-14 16:42:09.951,-12490900,-82743230,-1778124,-23762140,26367190,-7055664,-30859380
2026-01-14 16:42:09.961,-13208190,-44399610,35874970,-24425910,27363280,-7866211,-33203120
2026-01-14 16:42:09.971,-1383571,-82631020,-3219616,-2500686,28261720,-7919922,-33417970
2026-01-14 16:42:09.981,35640180,-8219940,-416911,7,-75691150,28046880,-62109380,-29980470
2026-01-14 16:42:09.991,-14906900,-47215260,-39567590,-26007240,27382810,-56103520,-25546880
2026-01-14 16:42:10.001,-20162380,-81034160,-6111228,-21269660,25917970,-55126950,-20957030
2026-01-14 16:42:10.011,-15363520,-80404050,-7034816,-26413790,24199220,-54833980,-16220700
2026-01-14 16:42:10.021,-15373010,-7975666,-794113,3,-26404290,22539060,-40356440,-11269530
2026-01-14 16:42:10.031,-15122690,-39613340,30821120,-26136710,21328120,-3239746,-8095703
2026-01-14 16:42:10.041,34716590,-39018620,30207410,-75285460,20585940,-35668940,-6074219
2026-01-14 16:42:10.051,35087760,-38423030,29594560,-74793460,20507810,-30517580,-56640620
2026-01-14 16:42:10.061,52946690,-7762462,-1081551,-56813680,20351560,-3100586,-6376953
2026-01-14 16:42:10.071,-13161580,-7717580,-1140244,-24127260,19970700,-3701172,-78808590
2026-01-14 16:42:10.081,-12303590,-76813270,-11903080,-23258910,19238280,-4284668,-87402340
2026-01-14 16:42:10.091,37901680,-36465370,27581650,-71565220,18984380,-48657230,-92333980
2026-01-14 16:42:10.101,-10240620,-36126140,27230340,-21178680,17890620,-49365230,-9296875
2026-01-14 16:42:10.111,40145920,-35786920,26879030,-69148340,16396480,-5703125,-97558590
2026-01-14 16:42:10.121,-7659747,-35447700,26527720,-18580540,14873050,-68359380,-9926758
2026-01-14 16:42:10.131,-6195816,-7538041,-1392289,-17109700,12841800,-7661133,-10585940
2026-01-14 16:42:10.141,44427230,-47750420,-41656470,-64625350,11162110,-8408203,-11533200
2026-01-14 16:42:10.151,4611904,-7496610,-1454438,-6286449,94628900,-8886719,-13066410
2026-01-14 16:42:10.161,-1200666,-7483661,-1476016,-12092110,76171870,-8286133,-15097660
2026-01-14 16:42:10.171,523080,5,-34349750,25381440,-10363190,58740230,-7661133,-17734380
2026-01-14 16:42:10.181,-26497520,-74569040,-15183120,-37376880,46606440,-6508789,-19375
2026-01-14 16:42:10.191,4056025,-34098560,25114720,-6818161,35717770,-63183590,-20820310
2026-01-14 16:42:10.201,5437093,-34015700,25024950,-5430188,2697754,-6225586,-21523440
2026-01-14 16:42:10.211,27010240,-74508620,-15467960,16148130,14172360,-4477539,-215625
2026-01-14 16:42:10.221,45133300,-74629460,-15416170,34278110,-101623500,-19763180,-20039060
2026-01-14 16:42:10.231,11208230,-74836620,-15278060,358211,2,-1529541,12005620,-19052730
2026-01-14 16:42:10.241,81381150,-74948830,-15217650,70536320,-37817380,36279300,-19023440
2026-01-14 16:42:10.251,63442810,-7513871,-1506230,-44971030,-52490230,4868164,-18652340
2026-01-14 16:42:10.261,64970610,-7525092,-1500188,-43391430,-64160160,4411621,-19140620
2026-01-14 16:42:10.271,17673350,-48156110,-42131200,6840600,-8310547,42797850,-19511720
2026-01-14 16:42:10.281,6778454,-7519052,-1511407,-4050845,-9213867,47021480,-21386720
2026-01-14 16:42:10.291,20261130,-34381690,25349500,9431829,-10322270,55859380,-23359380
2026-01-14 16:42:10.301,70210040,-34208190,25177730,-38100210,-11806640,42236330,-26367190
2026-01-14 16:42:10.311,22594270,-33860330,24835050,11759790,-10976560,47973630,-2953125
2026-01-14 16:42:10.321,72428380,-33509880,24494960,-36002710,-10761720,3400879,-31757810
2026-01-14 16:42:10.331,56183570,-73654080,-16339760,-52351110,-10703130,91796870,-31855470
2026-01-14 16:42:10.341,74465460,-73127540,-16676390,-34241860,-88720700,19116210,-3265625
2026-01-14 16:42:10.351,26248060,-7265281,-1689220,15356610,-76953130,44848630,-31835940
2026-01-14 16:42:10.361,26779770,-4736201,-4183774,15860700,-61279300,734375,-29765620
2026-01-14 16:42:10.371,76252220,-7185005,-1695264,-33266470,-5288086,9086914,-27949220
2026-01-14 16:42:10.381,26901480,-7161702,-1671957,15911630,-5078125,9428711,-27070310
2026-01-14 16:42:10.391,76226320,-7143572,-1636569,-34103740,-5078125,86572260,-26074220
2026-01-14 16:42:10.401,75855150,-7131488,-1589958,-34941020,-5649414,82373050,-25
2026-01-14 16:42:10.411,25159600,-46075880,-40482550,14028190,-6767578,82373050,-21972660
2026-01-14 16:42:10.421,74569030,-71245840,-14622060,-37280200,-69091800,74121100,-17412110
2026-01-14 16:42:10.431,23056070,-33000620,24486340,11815900,-63720700,71435540,-12382810
2026-01-14 16:42:10.441,21704350,-33480540,25042210,10405480,-63378900,32910160,-60498050
2026-01-14 16:42:10.451,20438940,-71660160,-11928970,9081383,-41503900,67977900,66337580
2026-01-14 16:42:10.461,14036220,-44427230,-38350530,12894600,-23376460,-40576170,7167969
2026-01-14 16:42:10.471,69554030,-4405605,-3789308,-45212710,-16174320,-6879883,15205080
2026-01-14 16:42:10.481,58764440,-35302680,27190630,-56571990,-6359863,-8520508,20878910
2026-01-14 16:42:10.491,15635420,-35607380,27576470,4044801,9979248,-10322270,28203120
2026-01-14 16:42:10.501,67111270,-31854850,31846900,-49330020,18322750,-81933590,34433590
2026-01-14 16:42:10.511,66394840,-35965600,28081430,-50512560,25610350,-5317383,39589840
2026-01-14 16:42:10.521,13031240,-35933660,28113370,1297340,19873050,-27246090,4296875
2026-01-14 16:42:10.531,65419460,-70848780,-6801761,-52299320,25585940,5807495,4453125
2026-01-14 16:42:10.541,68049540,-35795560,28078830,56246580,2849121,36157230,45
2026-01-14 16:42:10.551,65281350,-70304990,-6430603,-53024380,3857422,55908200,43554690
2026-01-14 16:42:10.561,65574830,-70210040,-6163017,-52972580,52246100,5644531,4046875
2026-01-14 16:42:10.571,12669570,-35912940,28306710,795839,1,7104492,2944336,37285160
2026-01-14 16:42:10.581,13455060,-35985450,28406840,1564058,83740230,-52886960,34335940
2026-01-14 16:42:10.591,60369930,-36146000,28591560,-58695390,94091800,-17590330,33457030
2026-01-14 16:42:10.601,15282380,-70123730,-5213531,3362035,9375,-15673830,33730470
2026-01-14 16:42:10.611,16150730,-36298780,28784040,4220025,9038086,-2409668,34199220
2026-01-14 16:42:10.621,60801510,-69951090,-5040897,-58609070,79785150,-3166504,35507810
2026-01-14 16:42:10.631,71383950,-32656900,31908020,-48078430,64453120,-37109380,37578120
2026-01-14 16:42:10.641,18145510,-35765340,28281680,6195815,4716797,-43847660,38984380
2026-01-14 16:42:10.651,18491640,-35333760,27850100,6540218,3564453,-5336914,39511720
2026-01-14 16:42:10.661,72514700,-34905630,27415060,-46964940,31518560,-49560550,38886720
2026-01-14 16:42:10.671,72652800,-6823337,-677589,6,-46757780,17175290,-46191410,37363280
2026-01-14 16:42:10.681,18999180,-6780181,-738009,7068478,7836914,-3815918,34277340
2026-01-14 16:42:10.691,72445640,-33376960,25836320,-46723260,-54138180,-32592770,30527340
2026-01-14 16:42:10.701,72195330,-32785690,25219160,-46818200,-21374510,-23669430,26152340
2026-01-14 16:42:10.711,18286200,-66274000,-9650210,6400384,-30981440,-35717770,22109380
2026-01-14 16:42:10.721,17845990,-38376420,-37824000,5977433,-36254880,-42626950,17822270
2026-01-14 16:42:10.731,70658890,-30753790,23107850,-47871270,-5644531,-15563970,13759770
2026-01-14 16:42:10.741,69976980,-64772080,-11946240,-48397800,-79345700,39526370,6645508
2026-01-14 16:42:10.751,15838260,-29741300,22048750,4014591,-10585940,99316410,-38671880
2026-01-14 16:42:10.761,15055370,-63943440,-13189200,3243780,-12617190,14384770,-12910160
2026-01-14 16:42:10.771,14703190,-2898517,2125118,2905422,-12177730,21230470,-15351560
2026-01-14 16:42:10.781,14781740,-2891093,2115278,2999507,-13105470,18232420,-10410160
2026-01-14 16:42:10.791,68242020,-41423400,-36399780,-49424970,-13476560,12246090,-5205078
2026-01-14 16:42:10.801,15629370,-29365820,21561060,3878211,-12304690,128125,90148930
2026-01-14 16:42:10.811,15620740,-65039670,-13249620,3886840,-12802730,8378906,5341797
2026-01-14 16:42:10.821,15266840,-30340340,22485510,3550206,-13203130,40795900,890625
2026-01-14 16:42:10.831,67206220,-30700270,22816100,-49770240,-11699220,9753418,13066410
2026-01-14 16:42:10.841,13260840,-66602000,-12567710,1585636,-11367190,-91918940,17060550
2026-01-14 16:42:10.851,63943440,-27107440,27099480,-52549640,-11259770,-1463623,1703125
2026-01-14 16:42:10.861,43789350,-31101650,23105270,32169390,-11054690,-18920900,17685550
2026-01-14 16:42:10.871,18705960,-6757739,-1285257,17547070,-10175780,30444340,1625
2026-01-14 16:42:10.881,5775452,-43236060,-37677260,-5778908,-8178711,79589840,1234375
2026-01-14 16:42:10.891,36002710,-69208760,-12239720,-79161090,-48339840,12333980,76416020
2026-01-14 16:42:10.901,16805870,-30016640,29196640,-97943620,-48291020,14238280,7758789
2026-01-14 16:42:10.911,51194460,-35118830,26856590,-63106170,-3996582,15380860,5991211
2026-01-14 16:42:10.921,-2165687,-7435324,-892515,-13543960,-2607422,16054690,14855960
2026-01-14 16:42:10.931,46956310,-38726000,30327380,-66291260,-15136720,16005860,-29296880
2026-01-14 16:42:10.941,-5673599,-36849220,36002110,-16941390,10858150,13886720,-6333008
2026-01-14 16:42:10.951,43270580,-4251011,3396649,-68820340,3486328,87060540,-11035160
2026-01-14 16:42:10.961,4177730,-82864080,-3280036,-6974396,52001950,49362180,-15195310
2026-01-14 16:42:10.971,-9296315,-47500100,-39282750,-20396650,8798828,-64990230,-22324220
2026-01-14 16:42:10.981,-9923834,-46403880,37668620,-20977560,10917970,-13144530,-29257810
2026-01-14 16:42:10.991,39282750,-46945090,38163220,-70874680,13994140,-15214840,-36074220
2026-01-14 16:42:11.001,38963380,-86817380,-1363806,-70900580,16894530,-15644530,-45078120
2026-01-14 16:42:11.011,38790740,-42640910,42640030,-70900580,19785160,-14541020,-53671880
2026-01-14 16:42:11.021,38592220,-46718070,37872330,-71047310,22363280,-12451170,-59257810
2026-01-14 16:42:11.031,53205640,-4178170,4177286,-56502940,23535160,-12001950,-615625
2026-01-14 16:42:11.041,-11422290,-48182010,-39947390,-22413870,2375,-11025390,-58984380
2026-01-14 16:42:11.051,37590940,-45042660,36267700,-72635540,22539060,-11826170,-53632810
2026-01-14 16:42:11.061,37021250,-83761770,-3487199,-73619550,19160160,-12578130,-4671875
2026-01-14 16:42:11.071,53619960,-44037940,35373460,-57469690,15136720,-13046880,-39960940
2026-01-14 16:42:11.081,-14704060,-43488100,34887500,-25864820,11308590,-13720700,-34667970
2026-01-14 16:42:11.091,34578490,-8140528,-389289,7,-77564220,81347660,-11376950,-29785160
2026-01-14 16:42:11.101,-22137830,-8077520,-378066,3,-23264780,37597660,-11435550,-25800780
2026-01-14 16:42:11.111,-18246500,-8012782,-365118,8,-29572980,22607420,-10800780,-23105470
2026-01-14 16:42:11.121,3172142,-42300390,34003620,-8213040,45204160,-13916020,-21914060
2026-01-14 16:42:11.131,-20690990,-79048880,-3090140,-32134870,-12634280,-26210940,-22167970
2026-01-14 16:42:11.141,2997782,-41526990,33395950,-8504791,-23901370,-40976560,-18984380
2026-01-14 16:42:11.151,-22531260,-40536070,32487900,-34092530,-3154297,-57304690,-115625
2026-01-14 16:42:11.161,-22847180,-39027250,31061950,-34467140,-27905270,-7453125,-64331060
2026-01-14 16:42:11.171,-22905880,-42744060,-36132190,-34581080,-16796880,-83125,9375
2026-01-14 16:42:11.181,-22706480,-42131200,-36002720,-34435200,-59228520,-89609380,19492190
2026-01-14 16:42:11.191,5611452,-6661063,-1085002,-6163879,-9086914,-90625,24277340
2026-01-14 16:42:11.201,33370060,-6320972,-1366396,-84814830,-134375,-81484380,2515625
2026-01-14 16:42:11.211,36486080,-59601710,-16788610,-82061330,-18388670,-68867180,25234380
2026-01-14 16:42:11.221,57504210,-55795140,-20232650,-61336680,-2109375,-55234380,26992190
2026-01-14 16:42:11.231,-9153890,-5161741,-2416869,-21056970,-18837890,-42890620,32050780
2026-01-14 16:42:11.241,-4918329,-12845660,5280859,-16833490,-57373050,-22910160,35683590
2026-01-14 16:42:11.251,-1204119,-80101940,4488472,-13124460,3643799,5073242,403125
2026-01-14 16:42:11.261,1296477,-3780673,-3789305,-10618690,-5065918,30566410,4921875
2026-01-14 16:42:11.271,56140410,-33301000,-42623210,-62873120,-6124878,48828120,58046880
2026-01-14 16:42:11.281,-19958160,438231,5,-1201787,-31831890,9844971,8390625,79921870
2026-01-14 16:42:11.291,-11349790,6937278,-14641910,-23176910,39135740,1271875,103046900
2026-01-14 16:42:11.301,51030460,8613550,-16418310,-66567470,9663086,14640630,121953100
2026-01-14 16:42:11.311,58366510,-26205760,-53136590,-58368240,1765625,140390600,1275
2026-01-14 16:42:11.321,5788399,-39041060,-41768670,-5783224,17207030,13671880,12671880
2026-01-14 16:42:11.331,57289110,9344653,-17586180,-57287730,20429690,151484400,12140630
2026-01-14 16:42:11.341,56684900,8656708,-17065680,-56683520,41445310,160625,101015600
2026-01-14 16:42:11.351,47405160,7275642,-15857250,-64668500,56289060,138671900,56210940
2026-01-14 16:42:11.361,24272270,5806532,-14564230,-86420330,5078125,990625,26386720
2026-01-14 16:42:11.371,3694356,4248515,-13187470,-105548100,41484380,74921870,31933590
2026-01-14 16:42:11.381,46412510,-39593490,-51677840,-61259000,30898440,70078130,50859380
2026-01-14 16:42:11.391,42286570,-26766820,-66472530,-63693130,16835940,56015620,62851560
2026-01-14 16:42:11.401,-9380906,-76122740,-19153690,-19794160,9954834,33359380,67304690
2026-01-14 16:42:11.411,32515520,-56537460,-40827820,-69631720,-32836910,14882810,671875
2026-01-14 16:42:11.421,27034410,-62622790,-36900410,-72954910,-18530270,6713867,62382810
2026-01-14 16:42:11.431,2096632,-69053400,-32627730,-7672699,-33984380,-17148440,47734380
2026-01-14 16:42:11.441,47605070,-24429020,23390450,-47671360,-7402344,-33867190,29804690
2026-01-14 16:42:11.451,42528260,-34991080,24394840,-50244980,-17285160,-4359375,83251950
2026-01-14 16:42:11.461,40698340,-5759051,-5032268,-49588970,-42226560,-53476560,-15615230
2026-01-14 16:42:11.471,-557604,5,-48295940,37330260,-9351558,-78046870,-101796900,-36386720
2026-01-14 16:42:11.481,-884749,-60344030,-51090880,-9438738,-76914060,-13953130,-65585940
2026-01-14 16:42:11.491,3622712,-61569740,-51677840,-4680960,-53359380,-16203130,-14390630
2026-01-14 16:42:11.501,-1236056,-10888860,-582637,7,-9329114,-73671870,-20828120,-1634375
2026-01-14 16:42:11.511,-46951990,-57060550,45483750,-54901770,-509375,-19828120,-2175
2026-01-14 16:42:11.521,-44308110,-6302847,-5325741,-52194010,-24609380,-13828130,-200625
2026-01-14 16:42:11.531,-721606,5,-51734800,40106210,-8617866,25664060,-53046880,-17265620
2026-01-14 16:42:11.541,-712113,-10231120,-1375026,-8644622,6484375,66064450,-98828130
2026-01-14 16:42:11.551,35165440,-48327880,36780430,-44988290,94375,68476560,-28007810
2026-01-14 16:42:11.561,-50055940,-46472070,35010940,-58185260,93828130,109375,37148440
2026-01-14 16:42:11.571,35130910,-60775620,-53058900,-47128940,99453130,110546900,99140620
2026-01-14 16:42:11.581,34638910,-95863380,-17315140,-48259700,996875,1215625,101640600
2026-01-14 16:42:11.591,-3365488,-44819100,33556500,-11705420,79335940,106640600,131171900
2026-01-14 16:42:11.601,-37331990,-45248960,33989810,-120627700,41132810,40273440,9265625
2026-01-14 16:42:11.611,-7337530,-60620250,-52402900,-8164962,11259770,-84765620,38691410
2026-01-14 16:42:11.621,-69276090,-48500510,37125700,-77462370,-42822260,-246875,-72753900
2026-01-14 16:42:11.631,-63371160,-61794150,-52799940,-71455590,-6538086,-4489746,-39863280
2026-01-14 16:42:11.641,-5703638,-10527190,-1015085,-6501551,-13066410,1058197,-66054690
2026-01-14 16:42:11.651,-1588229,-6302849,-5308480,-9477579,-2671875,-11621090,-96015620
2026-01-14 16:42:11.661,-47268770,-57012210,45359450,-55102880,-37402340,-22226560,-11171880
2026-01-14 16:42:11.671,34250480,-11008840,-650829,7,-44056070,-4046875,-21308590,-10953130
2026-01-14 16:42:11.681,-44486790,-11002790,-627520,7,-52360600,-31933590,-38500980,-91640620
2026-01-14 16:42:11.691,-915820,5,-10974310,-599038,2,-8872499,-23515620,3713379,-62148440
2026-01-14 16:42:11.701,-977105,8,-6270912,-5229932,-9035637,-16855470,-10302730,-34296880
2026-01-14 16:42:11.711,-1076370,-5827502,4685877,-9247113,-17304690,-371875,-9838867
2026-01-14 16:42:11.721,36106300,-10980350,-346131,8,-46792300,-21835940,-59609380,10241700
2026-01-14 16:42:11.731,-1329276,-59220190,47985210,-9736531,-27988280,-73085940,6665039
2026-01-14 16:42:11.741,36900410,-109406500,-2028442,-48328750,-30371090,-69609380,-10595700
2026-01-14 16:42:11.751,37331990,-60594360,-49925600,-49053810,-27636720,-56875,-23964840
2026-01-14 16:42:11.761,3777221,-10780100,-180402,2,-4975298,-25585940,-4625,-3859375
2026-01-14 16:42:11.771,43750510,-10670470,-191624,9,-44965850,-18701170,-37792970,-52226560
2026-01-14 16:42:11.781,38859800,-10549630,-208888,-51116780,-72509770,-22226560,-61210940
2026-01-14 16:42:11.791,3948993,-56422660,45776360,-5181597,6298828,9716797,-63984380
2026-01-14 16:42:11.801,-15467960,-57685470,-47603690,-108137600,19033200,35488280,-54765620
2026-01-14 16:42:11.811,-61332620,-5526858,4485884,-62272960,18583980,50546880,-40117190
2026-01-14 16:42:11.821,41526980,-10105960,-179540,1,-53870280,109375,40546880,-23457030
2026-01-14 16:42:11.831,42217520,-5568291,-4591189,-54526280,8208008,29921880,-12753910
2026-01-14 16:42:11.841,42916690,-54949240,-45385350,-55156400,82714850,23925780,28881840
2026-01-14 16:42:11.851,-1127299,-54206920,-44919240,-11060630,11025390,26796880,19365230
2026-01-14 16:42:11.861,-1061698,-53473220,-44530800,-11108970,9736328,38066410,29101560
2026-01-14 16:42:11.871,44643020,-43556980,42587120,-56848210,6269531,48515620,26503910
2026-01-14 16:42:11.881,45048710,-8955360,-651693,3,-57322950,35595700,57265620,2203125
2026-01-14 16:42:11.891,-100730,1,-45074600,35545240,-1131874,4477539,61992190,15302730
2026-01-14 16:42:11.901,-9943692,-86851900,-7785771,-113661900,54296880,66054690,14101560
2026-01-14 16:42:11.911,-56765340,-44065560,34655310,-67185500,51708980,60859380,11591800
2026-01-14 16:42:11.921,-57006160,-44389250,35022160,-67462580,17919920,4625,103125
2026-01-14 16:42:11.931,-61882800,-87076330,-6283856,-62931210,12225340,37578120,8261719
2026-01-14 16:42:11.941,46239880,-8792220,-523081,3,-58755810,19067380,30488280,5283203
2026-01-14 16:42:11.951,-5767080,-47119440,37816230,-6817903,26293940,23125,27416990
2026-01-14 16:42:11.961,46222620,-9026139,-273625,8,-58876650,13415530,13144530,7775879
2026-01-14 16:42:11.971,46162200,-51004560,-42010360,-58885290,48339840,24487300,-19787600
2026-01-14 16:42:11.981,-1139379,-50574700,41266310,-11635500,17565920,-546875,-4555664
2026-01-14 16:42:11.991,-115407,5,-47059030,-46128530,-1163811,44067380,-10,-6196289
2026-01-14 16:42:12.001,-1167868,-51349830,-41958570,-11641540,7133789,-13496090,-8144531
2026-01-14 16:42:12.011,45911880,-51401620,-42010360,-58721280,9111328,-16923830,-11474610
2026-01-14 16:42:12.021,4588599,-9344651,-5179,229,-5867813,10205080,-19023440,-13457030
2026-01-14 16:42:12.031,45885980,-9296310,-60423,29,-58643600,11074220,-21699220,-14755860
2026-01-14 16:42:12.041,45903240,-92367540,-1217070,-58626340,11230470,-24863280,-15332030
2026-01-14 16:42:12.051,-1108309,-47242880,-46341740,-11562990,9140625,-2796875,-15654300
2026-01-14 16:42:12.061,-5769498,-4921694,3986194,-6815484,5839844,-31875,-15742190
2026-01-14 16:42:12.071,-57087310,-9085698,-264127,2,-67554080,18322750,-36875,-16503910
2026-01-14 16:42:12.081,46231250,-90382260,-3029722,-58522750,-23864750,-40898440,-14296880
2026-01-14 16:42:12.091,46403880,-89985200,-3323198,-58470960,-5019531,-42382810,-13662110
2026-01-14 16:42:12.101,-53789140,-89579520,-3608036,-64292170,-7158203,-43320310,-11875
2026-01-14 16:42:12.111,46861360,-47205760,37902540,-58358750,-7915039,-41523440,-12783200
2026-01-14 16:42:12.121,-305561,5,-88543720,-4298576,-10846570,-8569336,-39648440,-15
2026-01-14 16:42:12.131,-1130748,-50495290,-42157100,-106765200,-6923828,-36601560,-17480470
2026-01-14 16:42:12.141,97535,5,-50348560,-42079410,-10490080,-6044922,-33457030,-20429690
2026-01-14 16:42:12.151,4808704,-46511780,-45691770,-5803077,-51708980,-29511720,-21777340
2026-01-14 16:42:12.161,48458220,-45425050,36230590,-57918540,-49267580,-25507810,-2328125
2026-01-14 16:42:12.171,861443,-45154020,35983730,-9803858,-41992190,-24003910,-24570310
2026-01-14 16:42:12.181,4927825,-44967570,35824900,-5765098,-3996582,-2328125,-23925780
2026-01-14 16:42:12.191,49718450,-85798840,-5351639,-57486960,-5395508,-2453125,-21582030
2026-01-14 16:42:12.201,18359570,-44250280,35161120,-89139300,-27563480,-23632810,-16806640
2026-01-14 16:42:12.211,22045300,-4345872,3439894,-85747060,-61920170,-18144530,-12324220
2026-01-14 16:42:12.221,-22907600,-42409140,33376960,-33716180,73051460,-11796880,-10068360
2026-01-14 16:42:12.231,51703730,-81448480,-8597150,-56658310,9698486,-57958980,-8935547
2026-01-14 16:42:12.241,-15888320,-39015160,30038230,-26752150,-16357420,758667,-63671880
2026-01-14 16:42:12.251,36408400,-76960010,-12567720,-72488800,-26757810,5566406,-40795900
2026-01-14 16:42:12.261,-9474990,-74249660,-15036380,-20390610,-5878906,90234380,-25097660
2026-01-14 16:42:12.271,-6616180,-71289000,-17772620,-17552510,-7475586,12050780,-15783690
2026-01-14 16:42:12.281,-4016319,-68172960,-20698760,-14973370,-10429690,13857420,-13586430
2026-01-14 16:42:12.291,47690000,-24980060,16106700,-62018580,-6582031,15634770,-20715330
2026-01-14 16:42:12.301,49925600,-21864890,13007070,-59938350,-76171870,12832030,-23730470
2026-01-14 16:42:12.311,2479881,-18748860,9908300,-8522053,-21044920,18232420,-6713867
2026-01-14 16:42:12.321,40439400,-55829660,-32351520,-69787090,265625,26953120,-12392580
2026-01-14 16:42:12.331,5522891,-14406260,5619220,-5523927,12878420,35527340,-11689450
2026-01-14 16:42:12.341,5538945,-13266020,4515230,-5537220,-42504880,38847660,-15527340
2026-01-14 16:42:12.351,65902840,-5174687,-3534674,-45186820,-23486330,46914060,12226560
2026-01-14 16:42:12.361,21107900,-51194460,-35484810,9966130,21691900,55351560,22324220
2026-01-14 16:42:12.371,73999340,-50987300,-35277660,-37746310,5878906,57421880,2328125
2026-01-14 16:42:12.381,24592500,-5111679,-3471661,13386860,7373047,53867190,23613280
2026-01-14 16:42:12.391,76899590,-90196600,89342230,-35467550,77441410,46875,23691410
2026-01-14 16:42:12.401,29799990,-14526250,6017139,18537380,69189460,35507810,27675780
2026-01-14 16:42:12.411,85772940,-16150730,7672692,-27077560,7783203,20683590,32910160
2026-01-14 16:42:12.421,59869290,-5608860,-2846729,-53136590,8227539,55078120,37011720
2026-01-14 16:42:12.431,9280775,-57737270,-26663240,-2030172,64404300,-5600586,4265625
2026-01-14 16:42:12.441,60473510,-21479060,13047640,-52705000,3071289,-12265630,4609375
2026-01-14 16:42:12.451,96294960,-60870570,-23409100,-16883550,18579100,-14433590,45898440
2026-01-14 16:42:12.461,9542316,-24327510,15896090,-1773810,-7110596,-13203130,41835940
2026-01-14 16:42:12.471,43633980,-25712030,17273710,32324760,-21911620,-12626950,3609375
2026-01-14 16:42:12.481,60128240,-64936080,-19533480,-52877640,-2607422,-12578130,31914060
2026-01-14 16:42:12.491,9271280,-66204940,-18385470,-2020678,-16308590,-12246090,29257810
2026-01-14 16:42:12.501,93532820,-44841540,-39852440,-19300420,58807370,-12265630,2703125
2026-01-14 16:42:12.511,43616720,-30221220,21741460,32342020,27563480,-11777340,271875
2026-01-14 16:42:12.521,60214560,-31003240,22513130,-52446060,32202150,-10712890,29414060
2026-01-14 16:42:12.531,9512967,-45238610,-39748860,-1744463,30419920,-9863281,31152340
