Timestamp,Rotation X,Rotation Y,Rotation Z,Rotation W,Acceleration X,Acceleration Y,Acceleration Z
2026-01-14 16:41:57.511,-57725180,-13601790,-23255460,-67261460,-32409670,-8201599,-65727230
2026-01-14 16:41:57.521,-1498460,-13601790,-23255460,-11034730,-33203120,-17349240,29449460
2026-01-14 16:41:57.571,-1596861,-13617330,-23274450,-11126230,72143550,-9681702,-2381897
2026-01-14 16:41:57.581,41259400,-13616460,-23275310,-54017020,8068848,66375730,-39123540
2026-01-14 16:41:57.591,-163312,3,-13616470,-23275310,-1115904,6359863,-7511139,-12680050
2026-01-14 16:41:57.601,41207610,29848330,-66757370,-54017020,6506348,-13648990,15888210
2026-01-14 16:41:57.671,-60328500,-13644950,-23315880,-69837150,66223140,-29663090,4421997
2026-01-14 16:41:57.681,-60502000,46514380,-50212180,-70008920,58441160,-25177000,33172610
2026-01-14 16:41:57.751,40801930,-13691560,-23372850,-54077440,9173584,11077880,-38238520
2026-01-14 16:41:57.761,40776030,29891490,-66955900,-54086070,119140600,77819820,-57861330
2026-01-14 16:41:57.771,-1930043,-13688970,-23375440,-11414530,10601810,38085940,-7940674
2026-01-14 16:41:57.781,-1948170,2991739,-6696453,-11430930,7269287,6664276,-75683590
2026-01-14 16:41:57.851,40534340,-18012750,-18982610,-54172390,8856201,-30227660,-6317139
2026-01-14 16:41:57.861,40517080,3001236,-6699045,-54172390,10961910,36712650,-7940674
2026-01-14 16:41:57.931,40370340,-13569850,-23287400,-54163760,2331543,-20690920,-6335449
2026-01-14 16:41:57.941,40361710,-13561220,-23278760,-54172390,8834839,44441220,-51757810
2026-01-14 16:41:57.951,40353070,30184960,-67007690,-54181020,23239140,20904540,-53100580
2026-01-14 16:41:57.961,40344440,46756050,-50436600,-54189650,5756378,22338870,-5505371
2026-01-14 16:41:58.031,-2275310,-13524970,-23245960,-11725270,2746582,2817154,-6964111
2026-01-14 16:41:58.041,-65364220,3022816,-6698176,-74814180,3756714,13259890,-9509277
2026-01-14 16:41:58.071,-23262370,30236760,-66955900,-117779200,22033690,83862300,-9436035
2026-01-14 16:41:58.081,-23340050,30245390,-66947260,-117874100,-4512787,8526611,-96191410
2026-01-14 16:41:58.091,-23512680,30262650,-66930000,-118046800,13282780,54595950,-7562256
2026-01-14 16:41:58.101,4018043,-13466280,-23183820,-5437093,-14877320,55419920,-110961900
2026-01-14 16:41:58.171,-2476429,48414630,-48778020,-11938470,2445221,-15792850,-11175540
2026-01-14 16:41:58.181,40102760,-13274650,-22995650,-54534920,-686,6455,-26474000,-10858150
2026-01-14 16:41:58.191,-2491966,-13248760,-22969750,-11957460,-856781,-52734380,-10797120
2026-01-14 16:41:58.201,-2500597,3052161,-6668831,-11966090,-9254456,-47729490,-9185791
2026-01-14 16:41:58.251,-2540302,-1792253,-1801976,-12012700,-27572630,-38482660,-56030270
2026-01-14 16:41:58.261,-2539440,-13093390,-22814380,-12013570,-45684820,-42938230,-42236330
2026-01-14 16:41:58.351,-2530810,30607920,-66463890,-12022200,-4144287,-10681150,45043940
2026-01-14 16:41:58.361,-2529082,-13076120,-22779850,-12023920,-53710940,29815670,37628180
2026-01-14 16:41:58.371,-2528219,-13077850,-22778130,-12024790,-39276120,22964480,-11634830
2026-01-14 16:41:58.381,-2526493,-17443060,-18412920,-12026510,-4486084,6939697,-1889038
2026-01-14 16:41:58.391,-72376250,30564760,-66403470,-73326420,-14976500,10595700,-15960690
2026-01-14 16:41:58.401,-25411650,3056482,-6638620,-120463600,-9056091,39154050,-56915280
2026-01-14 16:41:58.491,40206340,46681820,-50234620,-54949240,2268982,-10144040,-35339360
2026-01-14 16:41:58.501,40206340,-12900040,-22593410,-54949240,41656500,-39031980,-3152466
2026-01-14 16:41:58.511,40214970,-12881910,-22577010,-54940610,4321289,53222660,-357666
2026-01-14 16:41:58.521,40214960,30771920,-66196320,-54940600,60150140,18188480,-3994751
2026-01-14 16:41:58.571,-25532500,30866880,-66153160,-120688100,-30380250,-2041626,89538580
2026-01-14 16:41:58.581,-25437550,30875510,-66144520,-120610400,-13977050,-9017944,11126710
2026-01-14 16:41:58.591,-25437550,30884140,-66135890,-120610400,573349,-3765869,9106445
2026-01-14 16:41:58.601,-68178140,30892770,-66127260,-77697150,-21533970,12893680,9918213
2026-01-14 16:41:58.671,-68520820,-12706680,-22406960,-78045020,20507810,1939392,-13404850
2026-01-14 16:41:58.681,-72892940,-17054630,-18024490,-73845530,11642460,3375244,-3060913
2026-01-14 16:41:58.731,40232230,3102226,-6591148,-55113240,-11482240,484,9434,-10864260
2026-01-14 16:41:58.741,-2689631,-12572030,-22265400,-12225900,7331848,8270264,-11248780
2026-01-14 16:41:58.751,-2714662,-12546140,-22239510,-12252660,4951477,-9613037,-11682130
2026-01-14 16:41:58.761,-2721570,31091290,-65825150,-12263020,-5935669,-15609740,-1361084
2026-01-14 16:41:58.831,-2740558,-12358830,-22047020,-12295820,-31585690,-111694300,-8441162
2026-01-14 16:41:58.841,40275400,-12341570,-22029760,-55294510,-25482180,-12384030,-64453120
2026-01-14 16:41:58.891,40422130,-12289780,-21977970,-55216820,-6036377,-4473877,19416810
2026-01-14 16:41:58.901,-2588640,-12289780,-21977970,-12154260,-45532230,-44891360,20889280
2026-01-14 16:41:58.911,-68672740,31315720,-65583460,-78238360,-38909910,-28640750,43151860
2026-01-14 16:41:58.921,-68413790,46737070,-50162110,-77979410,-32958980,-21850590,5593872
2026-01-14 16:41:58.971,4064655,-12287190,-21980560,-5500967,-59280400,8282471,9509277
2026-01-14 16:41:58.981,-2371985,-12295820,-21989190,-11939330,3656006,17990110,82336420
2026-01-14 16:41:58.991,-2354722,-12295820,-21989190,-11922070,20751950,692749,86242670
2026-01-14 16:41:59.001,-2328827,-12295820,-21989190,-11896170,-3364563,892334,6854248
2026-01-14 16:41:59.071,-69869340,31341610,-65557560,-70826940,-38360600,42907720,-11001590
2026-01-14 16:41:59.081,-65559300,31350250,-65548930,-75137000,-4586792,21255490,-11016850
2026-01-14 16:41:59.091,-22450980,-12246610,-21934810,-118245300,-39978030,-32958980,4241,466
2026-01-14 16:41:59.101,-22364670,-12237980,-21926180,-118159000,-10852810,-13664250,16756060
2026-01-14 16:41:59.171,-2208846,-12221590,-21908050,-11791730,32482150,1149292,-46569820
2026-01-14 16:41:59.181,-2200215,-12220720,-21908920,-11783100,154953,8850098,-54382320
2026-01-14 16:41:59.251,-2173456,-12212090,-21900280,-11758070,13931270,-15174870,-29022220
2026-01-14 16:41:59.261,-2164825,-12212090,-21900280,-11749440,13839720,-5316162,-20568850
2026-01-14 16:41:59.271,4097455,-12221590,-21908050,-5487157,15306470,-14289860,2904892
2026-01-14 16:41:59.281,-2147561,-12221590,-21908050,-11732170,11688230,-96206660,25878910
2026-01-14 16:41:59.351,-2121667,46711170,-50136220,-11706280,2545166,7926941,3463745
2026-01-14 16:41:59.361,-2113037,31289820,-65557570,-11697640,10818480,-13587950,26443480
2026-01-14 16:41:59.431,40983190,-12316530,-22003000,-54811130,37353520,10284420,-7736206
2026-01-14 16:41:59.441,-2125119,-12315670,-22003860,-11702830,29327390,-24307250,22399900
2026-01-14 16:41:59.451,-2125119,-12307040,-21995230,-11702820,13008120,-34542080,20095820
2026-01-14 16:41:59.461,-2125121,31298450,-65600730,-11702820,8255005,-22613520,2116394
2026-01-14 16:41:59.531,-2144972,3135025,-6560073,-11717500,-11001590,-15487670,1146698
2026-01-14 16:41:59.541,-2154467,3135025,-6560073,-11725270,-23529050,27313230,33599860
2026-01-14 16:41:59.571,47150520,31350240,-65618000,-48540220,16403200,-58898930,50476070
2026-01-14 16:41:59.581,47150520,31341610,-65626630,-48540220,4058838,-11639400,9613037
2026-01-14 16:41:59.591,-2156193,-16666210,-17636070,-11723540,35888670,-1586914,78186030
2026-01-14 16:41:59.601,-2157056,-12301000,-22001280,-11722680,66452020,26359560,9716797
2026-01-14 16:41:59.691,-65485060,-12287190,-21997820,-75038600,50109860,-2545166,-9048462
2026-01-14 16:41:59.701,-22675410,3143661,-6568703,-118193500,65727230,583,6487,8102417
2026-01-14 16:41:59.711,-22761730,31453830,-65687050,-118279800,-13015750,-7156372,13244630
2026-01-14 16:41:59.721,-22942990,-12241430,-21957250,-118443800,-24246220,-56671140,19226070
2026-01-14 16:41:59.751,4063789,31522870,-65669780,-5482839,17730710,-52734380,12878420
2026-01-14 16:41:59.761,40620660,-17059960,-17069680,-54828390,32684330,-9780884,-15098570
2026-01-14 16:41:59.771,-2349543,-12185340,-21909780,-11892720,1275,539,71899420,-46936040
2026-01-14 16:41:59.781,-2359040,31600560,-65661150,-11900490,14427190,69847100,-3616333
2026-01-14 16:41:59.851,40430760,-16430730,-17405430,-54845660,9674072,-6463623,-15686040
2026-01-14 16:41:59.861,-2445355,-12025650,-21775990,-11969540,20214840,-22631840,-2076416
2026-01-14 16:41:59.871,-2429820,31894040,-65661140,-11950550,2019043,-11920170,-17883300
2026-01-14 16:41:59.881,46868260,31937190,-65669780,-48304570,6335449,9039307,-16223150
2026-01-14 16:41:59.891,40413500,-11966950,-21731110,-54742080,6939697,-12384030,-10241700
2026-01-14 16:41:59.901,-2390975,-11947100,-21716430,-11903080,8258057,-33996580,-8508301
2026-01-14 16:41:59.931,-65769050,-11932420,-21713840,-75272520,15490720,-18981930,5053711
2026-01-14 16:41:59.941,-65339190,32101200,-65747460,-74839210,22973630,-18286130,25894160
2026-01-14 16:41:59.951,-2217480,32118460,-65781990,-11714040,23815920,-91796870,32714840
2026-01-14 16:41:59.961,40551600,-11935020,-21728520,-54379550,24731440,-25024410,25802610
2026-01-14 16:42:00.011,-197668,2,32291090,-65885570,-1145422,97473140,770874,15594480
2026-01-14 16:42:00.021,-1943854,-16288920,-17271030,-11417980,7196045,10620120,-18173220
2026-01-14 16:42:00.031,-1927454,-11840930,-21667230,-11399850,46905520,10070800,-40740970
2026-01-14 16:42:00.041,40706970,32420570,-65876940,-53999750,5126953,8129883,-9832764
2026-01-14 16:42:00.091,47286310,32714050,-65825160,-47299570,11314390,15332030,-27124020
2026-01-14 16:42:00.101,4721800,32783100,-65807890,-4735060,-33416750,7574463,-2680664
2026-01-14 16:42:00.191,-1842001,-11287640,-21201980,-11260880,9857178,-15209960,-11383060
2026-01-14 16:42:00.201,-60462290,-11275550,-21196800,-69876000,10107420,-12854000,-6726074
2026-01-14 16:42:00.211,-17703570,-11281590,-21208020,-111771600,7006836,4951477,-7434845
2026-01-14 16:42:00.221,40603400,3340460,-6591148,-53447320,6454468,-4309082,115600600
2026-01-14 16:42:00.271,40845080,3325786,-6611001,-53102060,869751,17807010,29882810
2026-01-14 16:42:00.281,-1362942,-11492210,-21428990,-10755930,54534910,-52223210,31298830
2026-01-14 16:42:00.371,41181720,-1174769,-2169142,-52592790,5633545,6732178,21655270
2026-01-14 16:42:00.381,-52195740,-11755480,-21700890,-61569740,814209,725708,2142334
2026-01-14 16:42:00.391,-9771056,-11762380,-21711250,-103476500,6335449,38269040,20288090
2026-01-14 16:42:00.401,-51680420,33024790,-66498420,-61049240,519104,-25604250,20629880
2026-01-14 16:42:00.471,-820010,-16203900,-17200680,-10176740,-11773680,88134770,1352539
2026-01-14 16:42:00.481,-811380,5,33154260,-66541580,-10168110,-9698486,9338379,1161499
2026-01-14 16:42:00.551,-791527,5,33214690,-66602000,-10136170,-15161130,-847168,15979000
2026-01-14 16:42:00.561,41259400,33206060,-66610640,-52169840,-85632320,-84350580,15148930
2026-01-14 16:42:00.571,41250770,3319744,-6663654,-52161210,-91308590,-39489740,15075680
2026-01-14 16:42:00.581,-785483,5,-11745120,-21728510,-10124960,-6304932,907135,1505127
2026-01-14 16:42:00.591,-786347,-11771020,-21754410,-10124090,-26489260,-16555790,14648440
2026-01-14 16:42:00.601,41224880,-11788280,-21771670,-52135320,-309906,-826416,14331060
2026-01-14 16:42:00.611,-788072,5,3311111,-6672284,-10122370,21331790,-12536620,12731930
2026-01-14 16:42:00.621,41198980,-11839200,-21824330,-52109420,60699460,-14355470,11315920
2026-01-14 16:42:00.711,-49384400,48331340,-51727030,-58684160,5830078,7385254,-26171880
2026-01-14 16:42:00.721,-7293768,-11965220,-21974520,-100256900,76953130,13574220,-3857422
2026-01-14 16:42:00.791,-278804,-11445600,-21510130,-9561306,11083980,71777340,-44677740
2026-01-14 16:42:00.801,-43521760,-11321300,-21392740,-52807720,10986330,65478520,-5073242
2026-01-14 16:42:00.811,-67328,-11180610,-21257220,-9358462,11269530,39794920,-5131836
2026-01-14 16:42:00.821,-41271490,-11039910,-21121710,-50569530,10966800,4411621,-5620117
2026-01-14 16:42:00.871,6482388,-10199180,-20287890,-87102220,42871100,3491211,-94384770
2026-01-14 16:42:00.881,-34673440,35381230,-65488510,-44047430,39038090,16638180,-10263670
2026-01-14 16:42:00.971,-27191500,-8268280,-18351800,-36682890,13378910,-46264650,-10146480
2026-01-14 16:42:00.981,-30685260,37288840,-63563650,-31635430,1060791,-7080078,-95751950
2026-01-14 16:42:00.991,1715974,37452830,-63416910,-7792675,10595700,-9267578,-8666992
2026-01-14 16:42:01.001,17971150,-7799578,-17888280,-77184430,1171875,-10244140,-77783200
2026-01-14 16:42:01.051,45221340,38022530,-62899020,-50175920,-16296390,-49072260,-20080570
2026-01-14 16:42:01.061,23987420,-7376627,-17465330,-71461630,-23242190,-2788086,-14733890
2026-01-14 16:42:01.151,-12877600,37513260,-62527850,-22512270,6524658,-45361330,-61865230
2026-01-14 16:42:01.161,31048140,-7492291,-17487770,-65402200,115478500,-10048830,-57666020
2026-01-14 16:42:01.171,3185951,3747010,-6241564,-6465987,8258057,-13867190,-48510740
2026-01-14 16:42:01.181,-10534960,3744421,-6238974,-20193800,13183590,-16015630,-40893560
2026-01-14 16:42:01.231,-3883391,-12172910,-13169690,-13552590,-86035150,-7128906,-9663086
2026-01-14 16:42:01.241,-71124140,37098940,-62545110,-80793340,-74072260,-5625,-11464840
2026-01-14 16:42:01.331,42614580,-7452587,-17389370,-54526290,-16067510,13173830,-36157230
2026-01-14 16:42:01.341,41898140,48365000,-50812940,-55536190,60821530,4284668,38964840
2026-01-14 16:42:01.351,-71070620,37418310,-61517940,-80846860,26342770,-48535160,14404300
2026-01-14 16:42:01.361,-3210985,37470100,-61241730,-13016560,43286130,-8300781,27109380
2026-01-14 16:42:01.411,-2570513,3725432,-6080152,-12448600,-12587890,5258789,61523440
2026-01-14 16:42:01.421,41734140,37090300,-60861940,-57098520,-70996100,-50097660,53710940
2026-01-14 16:42:01.511,-8483212,38410950,-60766980,-18274980,13027340,-54921880,3642578
2026-01-14 16:42:01.521,34008800,4959935,-4982031,-63701760,14172360,-24511720,70947260
2026-01-14 16:42:01.531,32886680,38790740,-60801520,-64651240,-16430660,-13208010,10214840
2026-01-14 16:42:01.541,3204941,-6019730,-15991040,-6536768,13085940,50097660,14179690
2026-01-14 16:42:01.611,-16975910,-10843630,-11840410,-26700360,-47998050,-28149410,1484375
2026-01-14 16:42:01.621,-18006540,-6424555,-16380330,-27741340,-47021480,-37158200,13671880
2026-01-14 16:42:01.691,-24882530,3837644,-6064613,-34676020,-5783081,79785150,15649410
2026-01-14 16:42:01.701,-26257560,-6005055,-15902130,-36063140,-4284668,7270508,17932130
2026-01-14 16:42:01.711,45816930,-5809978,-15700150,-52377000,-68310540,6044922,23095700
2026-01-14 16:42:01.721,-29868180,-5607997,-15487810,-39703110,-78564460,37036130,27124020
2026-01-14 16:42:01.791,4453944,-4157878,-13934110,-5512188,-5253906,-13720700,2088623
2026-01-14 16:42:01.801,44315020,-3940357,-13702790,-55501670,-52490230,-97961420,17822270
2026-01-14 16:42:01.831,-15139960,-32886680,-130079300,-115371000,-61083980,-38842770,11517330
2026-01-14 16:42:01.841,-1818695,-3071150,-12776600,-11853880,-6196289,-4411621,715332
2026-01-14 16:42:01.851,43089310,40750140,-56166310,-57366100,-6489258,-4663086,6641388
2026-01-14 16:42:01.861,-2412555,47647710,-49147890,-12468450,-73095700,-54296880,-6311035
2026-01-14 16:42:01.871,425969,7,-68104780,-77770520,-580655,8,-78515620,-57666020,-14379880
2026-01-14 16:42:01.881,42364260,4117312,-5536358,-58384650,-82666020,-50146480,-18457030
2026-01-14 16:42:01.971,40344440,-706932,-10255290,-60974150,-12050780,-8862305,6512451
2026-01-14 16:42:01.981,-5522547,42346990,-52998480,-15659580,-11640630,-122924800,7897949
2026-01-14 16:42:01.991,3983518,-419499,5,-9938510,-6158700,-12070310,-34228520,10406490
2026-01-14 16:42:02.001,-6087057,-289160,-9792634,-16234450,-12861330,-54833980,16308590
2026-01-14 16:42:02.031,-6998561,4254554,-5202310,-17152860,-11601560,-10195310,16320800
2026-01-14 16:42:02.041,-7301535,52653,5,-9392124,-17454110,-9838867,-10097660,16186520
2026-01-14 16:42:02.051,38065680,98403,5,-9334294,-63425540,-86376950,-8725586,21203610
2026-01-14 16:42:02.061,37737670,1286124,-92954500,-63701750,-7036133,-75683590,24572750
2026-01-14 16:42:02.151,34354060,4276998,-5114269,-65876940,12568360,7607422,-16005860
2026-01-14 16:42:02.161,33965640,-36133050,-45522590,-66092730,12412110,52685550,-18330080
2026-01-14 16:42:02.311,-12844800,12533190,-81068690,-22769490,16523440,11376950,-13417970
2026-01-14 16:42:02.321,3181632,12041180,-81439850,-6751695,15078130,11376950,-12558590
2026-01-14 16:42:02.331,-17396280,-30550090,-39884380,-18390650,13261720,17565920,-11904300
2026-01-14 16:42:02.341,-12976860,1067740,-8249291,-22930910,12021480,914917,-11845700
2026-01-14 16:42:02.411,48309760,-38906410,-48100880,-51973040,14931640,-28173830,-1234375
2026-01-14 16:42:02.421,31868140,101857,-9078796,-68518230,14794920,-2590332,-11523440
2026-01-14 16:42:02.431,-13301410,41198980,-50469400,-23348680,14472660,-22424320,-10986330
2026-01-14 16:42:02.441,31980350,-214062,-9367094,-68595910,1421875,-2705078,-10615230
2026-01-14 16:42:02.511,32610470,3933457,-5131532,-68708130,15703130,-1295166,-71875
2026-01-14 16:42:02.521,3271405,-1645197,-10698100,-6870814,15175780,-21728520,-68896480
2026-01-14 16:42:02.551,-12721360,-2214887,-11233260,-22892930,13164060,-3010254,-5776367
2026-01-14 16:42:02.561,49127180,-2409961,-11417980,-52674790,12412110,-37402340,-6176758
2026-01-14 16:42:02.571,-17159600,37875790,-52100790,-18178480,11875,-4104004,-6376953
2026-01-14 16:42:02.581,33387320,-28260100,-118133100,-68587300,12324220,-27856440,-6425781
2026-01-14 16:42:02.591,-12420120,-3028854,-12007520,-22624480,12412110,-19799800,-5800781
2026-01-14 16:42:02.601,-12331210,-3239467,-12211230,-22540750,12695310,4827881,-43554690
2026-01-14 16:42:02.691,34854700,-4951126,-13883190,-67689590,11230470,23815920,17468260
2026-01-14 16:42:02.701,35053230,3502736,-5427598,-67542850,12060550,5161133,32958980
2026-01-14 16:42:02.711,35269020,34820180,-54465870,-67396110,12724610,8251953,49780270
2026-01-14 16:42:02.721,49771100,-5549301,-14476180,-52945830,13222660,11601560,65234380
2026-01-14 16:42:02.771,36563770,-6334783,-15244400,-66515680,12939450,20141600,8652344
2026-01-14 16:42:02.781,36788190,-6484111,-15388550,-66394840,-16003420,-38726810,89404300
2026-01-14 16:42:02.811,37452830,33050680,-55769250,-66023680,-7734375,-9527588,99902340
2026-01-14 16:42:02.821,-8942416,-7060710,-15934070,-19300430,-94970700,-5618286,10175780
2026-01-14 16:42:02.851,-8478895,-7426692,-16275880,-18866250,-12265630,-5571289,90283200
2026-01-14 16:42:02.861,38445480,-7532860,-16376880,-65497150,-11611330,-55810550,9248047
2026-01-14 16:42:02.951,39792010,31686880,-56856840,-64375020,-10996090,32373050,12431640
2026-01-14 16:42:02.961,39921500,-8174193,-17030290,-64262820,-11660160,10601810,11591800
2026-01-14 16:42:02.971,-6847510,43035800,-45559700,-17269390,-125,-13687130,11601560
2026-01-14 16:42:02.981,-6724939,-8197502,-17058780,-17150280,-121875,11360170,11484380
2026-01-14 16:42:02.991,-6610137,3168689,-5692589,-17040650,-11074220,62805180,1078125
2026-01-14 16:42:03.001,40465290,-12159090,-13045400,-63874390,-10244140,-10253910,10166020
2026-01-14 16:42:03.031,40922770,-8070614,-16943980,-63555020,-10458980,-46850580,10341800
2026-01-14 16:42:03.041,41095400,31919940,-56848210,-63434180,-10673830,-4987793,10800780
2026-01-14 16:42:03.051,41268030,31988990,-56830950,-63313330,-10898440,-5649414,11523440
2026-01-14 16:42:03.061,-5636486,32058040,-56813680,-16098070,-1109375,-5708008,12041020
2026-01-14 16:42:03.131,51417160,-7682188,-16607340,-53388630,-11494140,6222534,13720700
2026-01-14 16:42:03.141,42675000,-7653704,-16584040,-62148060,-11455080,10290530,13486330
2026-01-14 16:42:03.211,-3967982,-7526821,-16503760,-14434750,-11904300,-7434082,12441410
2026-01-14 16:42:03.221,-392828,-11574650,-12473200,-1438814,-11474610,-1184082,11416020
2026-01-14 16:42:03.231,43149740,-7526820,-16521030,-61379840,-10732420,-54351810,10859380
2026-01-14 16:42:03.241,43149740,32990260,-57055370,-61310780,-10380860,-6557617,10439450
2026-01-14 16:42:03.311,-3665874,45393290,-45636350,-14029060,-12509770,-22021480,8876953
2026-01-14 16:42:03.321,42908050,-7620040,-16738540,-60568460,-12802730,-21362300,8745117
2026-01-14 16:42:03.391,4236425,-7733980,-16987130,-5986930,-11162110,-93444820,6567383
2026-01-14 16:42:03.401,-82252090,3399158,-5876440,-92453000,-11386720,-769043,64990230
2026-01-14 16:42:03.411,-36287560,-7762460,-17062230,-138072300,-11181640,15859600,60791020
2026-01-14 16:42:03.421,-81843810,-7792672,-17118330,-91998110,-10068360,27905270,6333008
2026-01-14 16:42:03.491,41380250,-7877265,-17396280,-58315590,-3461914,95166020,7402344
2026-01-14 16:42:03.501,-79101530,35070500,-60430350,-89043490,-18798830,12109380,7480469
2026-01-14 16:42:03.591,-2916646,35976820,-61975420,-12620370,27038570,-8769531,9454346
2026-01-14 16:42:03.601,-2841550,36037240,-62139420,-12522830,6427765,-11005860,107666000
2026-01-14 16:42:03.611,-71043860,-8182824,-18022930,-80700980,2696991,-1203125,9033203
2026-01-14 16:42:03.621,-2674094,-8232029,-18094580,-12310500,21850590,-11982420,93444820
2026-01-14 16:42:03.671,-65756100,-8475438,-18438120,-75285470,3503418,4019165,-3125
2026-01-14 16:42:03.681,40560240,36425670,-63391020,-54543550,36694340,8325195,-45043940
2026-01-14 16:42:03.771,-1988739,-8049036,-18191250,-11355830,9824219,11347660,-12871090
2026-01-14 16:42:03.781,-1968023,-7919561,-18079040,-11324760,9038086,9013672,-12744140
2026-01-14 16:42:03.791,-1947307,3799664,-6375355,-11293680,8417969,6269531,-13701170
2026-01-14 16:42:03.801,-1925730,38203790,-63701750,-11263470,8051758,3720703,-14013670
2026-01-14 16:42:03.851,-59993590,39084220,-63356480,-69308890,54345700,34423830,-14570310
2026-01-14 16:42:03.861,-1790210,-6898436,-17149410,-11105510,59521480,18835450,-14726560
2026-01-14 16:42:03.871,-1772946,-6783634,-17039790,-11088250,64990230,8203125,-14755860
2026-01-14 16:42:03.881,-1747054,39489910,-63123430,-11062350,6816406,-17578120,-14365230
2026-01-14 16:42:03.951,-13085620,-6273496,-16565910,-106204100,8701172,-26513670,-10585940
2026-01-14 16:42:03.961,40681080,40085500,-62873120,-52437420,8955078,-23388670,-10078130
2026-01-14 16:42:04.031,-46700810,-6054255,-16370830,-56016120,11923830,-97229010,-8378906
2026-01-14 16:42:04.041,-339227,40422130,-62760900,-9656253,11484380,-45196530,-8417969
2026-01-14 16:42:04.051,-44022400,-5957579,-16277610,-53342880,11015630,34454340,-84375
2026-01-14 16:42:04.061,-58696,-5896297,-16218050,-9384357,10751950,11779790,-87841800
2026-01-14 16:42:04.131,43382790,-5289488,-15599160,-50495300,12822270,-19250490,-8286133
2026-01-14 16:42:04.141,1349992,41190350,-61871840,-8048171,12958980,-14697270,-8378906
2026-01-14 16:42:04.211,29598010,-4333961,-14603930,-65333140,12763670,-14355470,-9550781
2026-01-14 16:42:04.221,-10782690,41975830,-60637510,-20291340,13085940,-18566900,-9370117
2026-01-14 16:42:04.231,34405850,42079420,-60464880,-60818770,13710940,-15209960,-9165039
2026-01-14 16:42:04.241,-6020593,-3923097,-14168890,-15558590,13867190,-12194820,-90478510
2026-01-14 16:42:04.311,11467180,-2935633,-13119280,1825599,93847660,3828125,-5682373
2026-01-14 16:42:04.321,14064440,-28199680,-129932600,4407332,76953130,6455078,10040280
2026-01-14 16:42:04.331,60188660,43011640,-58600440,-36537880,5854492,5214844,17504880
2026-01-14 16:42:04.341,19086360,-2617124,-12764520,9398168,39453120,904541,17089840
2026-01-14 16:42:04.471,40260720,42666360,-56615160,30346380,-29589840,-42358400,8227539
2026-01-14 16:42:04.481,53274700,42666370,-56459790,-46024090,-40600580,-4494629,8535156
2026-01-14 16:42:04.491,37699700,-1869622,-11768430,36705330,-52734380,-46606440,8847656
2026-01-14 16:42:04.501,87861810,-62470880,-72355870,-11730450,-6503906,-38964840,84472660
2026-01-14 16:42:04.571,91176380,-1122981,-10892310,-9693368,-10214840,-5822754,2536621
2026-01-14 16:42:04.581,45880800,-993507,5,-10745570,35774840,-10996090,-26538090,10418700
2026-01-14 16:42:04.671,45010730,2848452,-93308400,34745950,-14287110,-10748290,-80859380
2026-01-14 16:42:04.681,91271320,4341736,-91694270,-11514650,-14023440,60180660,-8408203
2026-01-14 16:42:04.691,91245420,-37412260,-47005510,-11661390,-13876950,18688960,-8955078
2026-01-14 16:42:04.701,44943400,-35862880,-45447490,34640640,-13466800,28442380,-9301758
2026-01-14 16:42:04.751,91418060,-27764640,-37318190,-12006660,-14560550,70703130,-11533200
2026-01-14 16:42:04.761,44707760,-26127220,-35675580,34358380,-15449220,77783200,-11533200
2026-01-14 16:42:04.851,52358010,-13974680,-23486790,-51584610,-86816410,-37158200,-12607420
2026-01-14 16:42:04.861,9099510,-13111510,-22623620,-1296478,-8544922,-45751950,-11611330
2026-01-14 16:42:04.871,44645610,30547500,-64556300,34247900,-8129883,-48754880,-10654300
2026-01-14 16:42:04.881,45163510,31324340,-63779450,34765800,-7519531,-51464840,-10078130
2026-01-14 16:42:04.931,95621680,34285010,-60870570,-8269142,-5410156,-16137700,-7416992
2026-01-14 16:42:04.941,4973223,34802910,-60352660,3934664,-5288086,-4522705,-7006836
2026-01-14 16:42:05.011,56830950,-4560113,-14084310,-46870000,-21508790,31103520,-8041992
2026-01-14 16:42:05.021,10225080,-8328012,-9280604,-143286,5,-19787600,2668457,-8183594
2026-01-14 16:42:05.031,56282830,46800940,-48475490,45916200,-1328125,20397950,-8183594
2026-01-14 16:42:05.041,10360600,39783390,-55493040,-2587,918,-960083,1038208,-81884770
2026-01-14 16:42:05.111,57512840,41621940,-53706280,-45963660,-15466310,-3330078,-5205078
2026-01-14 16:42:05.121,57616420,-1276623,-10807720,-45860090,-2980957,-30297850,-46875
2026-01-14 16:42:05.191,11712320,-6602887,-7553062,1356036,-3413086,-22106930,-37280270
2026-01-14 16:42:05.201,58410540,40327190,-54655770,-45186810,-43579100,-17272950,-38427740
2026-01-14 16:42:05.211,7207618,40214970,-54716180,6171476,-42504880,-5441284,-42285160
2026-01-14 16:42:05.221,72681290,40102760,-54776610,62318100,-37475580,-38726810,-42529300
2026-01-14 16:42:05.291,122198600,-1996507,-11468910,18497670,-5673828,38269040,-55078120
2026-01-14 16:42:05.301,122371300,-1910191,-11382590,18670310,-60058590,11022950,-5214844
2026-01-14 16:42:05.371,58937070,41570150,-53309230,-44608490,-35375980,43029780,-48242190
2026-01-14 16:42:05.381,12348470,-1210161,-10701550,1997369,-34545900,11340330,-44140620
2026-01-14 16:42:05.391,12363150,-1208435,-10703280,2017222,-21191410,19641110,-44848630
2026-01-14 16:42:05.401,58911180,-1119527,-10619550,-44513540,-20251460,-13702390,-42016600
2026-01-14 16:42:05.531,12635910,40335810,-55872830,2417734,-13122560,-5698242,24572750
2026-01-14 16:42:05.541,80801970,-3122943,-12759350,70597600,-25561520,-51953120,30395510
2026-01-14 16:42:05.551,76554490,40137280,-56364840,75535610,-32592770,-3635254,33691410
2026-01-14 16:42:05.561,81391520,4003368,-5660656,71216500,-37939450,-36157230,34350580
2026-01-14 16:42:05.651,57745900,-6419375,-16195610,-43003000,-8901367,8989258,953125
2026-01-14 16:42:05.661,1230099,-6845781,-16632370,223473,7,-37841800,56103520,8886719
2026-01-14 16:42:05.731,56192200,-5635618,-15598300,-42916690,6635742,26635740,64501950
2026-01-14 16:42:05.741,11533640,-5273953,-15269430,1655555,70166020,-17358400,51171880
2026-01-14 16:42:05.751,55812400,40042340,-60240460,-42657730,90625,-42919920,4177246
2026-01-14 16:42:05.761,11485300,40275390,-60300870,1669368,10039060,-6357422,3413086
2026-01-14 16:42:05.811,11781370,5068692,-5090790,2081097,17275390,-1508789,66748050
2026-01-14 16:42:05.821,75362290,49744340,-51988580,65679280,16601560,21643070,69433590
2026-01-14 16:42:05.831,5552756,3968844,-6213079,-4116445,14726560,5410156,76660160
2026-01-14 16:42:05.841,77852530,50941720,-50963820,68195410,13076170,7451172,7714844
2026-01-14 16:42:05.851,1223883,40189080,-61768260,259038,3,11572270,6972656,7709961
2026-01-14 16:42:05.861,12338970,-98480500,-108679700,2697394,10966800,6230469,84375
2026-01-14 16:42:05.951,12779190,-38064820,-48251920,3137612,68408200,-11859130,79785150
2026-01-14 16:42:05.961,56218100,1207573,-8976081,-40232240,7006836,-7171631,78271490
2026-01-14 16:42:05.971,8509879,47526000,-54258700,7545035,68603520,-11273190,7890625
2026-01-14 16:42:05.981,5631303,-24260180,-34435200,-4020635,66796880,-17089840,76123050
2026-01-14 16:42:05.991,12916430,24945540,-76735580,3259321,69384770,-21704100,7626953
2026-01-14 16:42:06.001,129621800,-18224060,-28386990,32998890,7651367,-30859380,7944336
2026-01-14 16:42:06.011,130079300,30927290,-70633000,33404580,8564453,-23535160,8125
2026-01-14 16:42:06.021,56589260,33490900,-68017590,-40137290,9003906,-16003420,80078130
2026-01-14 16:42:06.111,13666530,24030580,13948790,3942087,10048830,12805180,86279300
2026-01-14 16:42:06.121,13729540,7539767,-2533397,3999918,10351560,2043457,86376950
2026-01-14 16:42:06.191,14025610,56675580,-43555430,4256281,8569336,-27734380,48999020
2026-01-14 16:42:06.201,49805620,56900000,-43261950,-47973980,88427740,-28076170,46557620
2026-01-14 16:42:06.211,14060130,11995440,1987874,4273542,95214850,-28295900,5004883
2026-01-14 16:42:06.221,58160220,11990260,1993050,-39792020,96484380,-296875,50927740
2026-01-14 16:42:06.291,58617700,55337670,-43943860,-39973280,8964844,-12597660,609375
2026-01-14 16:42:06.301,9850208,103968500,4790580,8863266,8808594,-41748050,71435540
2026-01-14 16:42:06.371,59282340,53870280,-44548080,-40068230,3244629,39990230,67578130
2026-01-14 16:42:06.381,14614290,9663159,-168318,2,4668872,26831060,3317871,6694336
2026-01-14 16:42:06.391,14653130,5411110,4428998,4699084,24182130,40649420,6381836
2026-01-14 16:42:06.401,14683340,55832260,46021500,4720665,21350100,28759770,6015625
2026-01-14 16:42:06.471,1486634,7996901,7022212,484841,5,-17297360,-6064453,22314450
2026-01-14 16:42:06.481,14887910,56546100,-40836450,4861362,-18005370,-60595700,2175293
2026-01-14 16:42:06.551,60447620,4845651,-4823555,-40422130,-2199707,-11035160,26098630
2026-01-14 16:42:06.561,15094210,16568500,6909655,5000330,-18481440,-11230470,22924800
2026-01-14 16:42:06.571,15132190,60853300,-35648820,5031406,-18688960,-16296390,19482420
2026-01-14 16:42:06.581,6065478,18372520,8730940,-4042213,-2783203,-4724121,14941410
2026-01-14 16:42:06.611,60836040,17658250,16695810,-40327180,-31982420,-52337650,-51879880
2026-01-14 16:42:06.621,15373880,23453990,13834850,5255828,-32080080,-17468260,-6604004
2026-01-14 16:42:06.631,60965510,68276540,-27880310,-40197700,-3803711,-30737300,-103393600
2026-01-14 16:42:06.641,61025940,26471620,16859380,-40120020,-4362793,-41137700,-15539550
2026-01-14 16:42:06.711,16133460,36636280,27065480,6015415,-86279300,11162110,-8294678
2026-01-14 16:42:06.721,61751000,51151300,-44470390,-39464010,-6801758,10673830,-11248780
2026-01-14 16:42:06.731,16266390,39907680,30354150,6141439,-5214844,9326172,-19604490
2026-01-14 16:42:06.741,61906370,84754420,-10694640,-39360430,-38500980,8334961,-27368160
2026-01-14 16:42:06.811,17201200,53352380,-41751410,7122861,57910160,-11682130,-3857422
2026-01-14 16:42:06.821,62717750,66986110,57482630,-37910310,43310550,-18664550,-33276370
2026-01-14 16:42:06.871,19001770,13341980,3921368,9016648,-32666020,-10136720,-3564453
2026-01-14 16:42:06.881,19383290,56097250,-37849890,9411980,-46362300,-95166020,-39990230
2026-01-14 16:42:06.891,64573560,5644254,-3719392,-35001440,-49804690,-92333980,-43359380
2026-01-14 16:42:06.901,15688930,47665830,-45642570,14694570,-55078120,-8486328,-50634770
2026-01-14 16:42:06.931,65902830,16204240,6980432,-33154260,-70654300,-21459960,-73876950
2026-01-14 16:42:06.941,6620493,58013480,-33844800,-3271402,-77783200,-2109375,-8378906
2026-01-14 16:42:06.971,22671950,58902540,-31833620,12821490,-11191410,-11993410,-12626950
2026-01-14 16:42:06.981,67223480,18510630,9473260,-31143080,-12011720,-1295166,-13642580
2026-01-14 16:42:06.991,23220930,59429080,-30564760,13394630,-11767580,-10864260,-13652340
2026-01-14 16:42:07.001,23465200,59679390,-29969170,13651000,-11982420,117126500,-128125
2026-01-14 16:42:07.031,68112540,20410460,11544000,-29718860,-12900390,13652340,-11699220
2026-01-14 16:42:07.041,68224760,20751410,11910850,-29485800,-12753910,10205080,-12626950
2026-01-14 16:42:07.131,68673600,23086280,14375190,-27414200,-23278810,-35791020,-51708980
2026-01-14 16:42:07.141,68708130,23299480,14593570,-27103460,-2854004,-26098630,-45751950
2026-01-14 16:42:07.171,49602780,20019880,19150660,-45328370,-1821289,-13232420,-43945310
2026-01-14 16:42:07.181,6888075,63235650,-23616260,-2573963,-14440920,-28671260,7147217
2026-01-14 16:42:07.191,6893254,63434180,-23348670,-2537709,-10986330,6732178,892334
2026-01-14 16:42:07.201,68975710,24619260,15949610,-25023220,-38330080,15344240,10784910
2026-01-14 16:42:07.211,26858320,24873030,16213740,17491230,19866940,2841797,85510260
2026-01-14 16:42:07.221,6901886,64072920,-22416460,-2430677,103393600,3935547,3744507
2026-01-14 16:42:07.231,6903611,45306800,-41079000,-2396151,15722660,4152832,13828280
2026-01-14 16:42:07.241,69027500,6458220,-2166553,-23624890,14331060,3071289,-836792
2026-01-14 16:42:07.251,69027500,26091830,17480870,-23296890,1303711,13806150,-22717280
2026-01-14 16:42:07.261,27620500,6510008,-2085414,18420860,9832764,335083,-38208010
2026-01-14 16:42:07.271,6901888,26740060,18161900,-2266676,12207030,4940033,-4909668
2026-01-14 16:42:07.281,69010240,27059440,18498540,-22364670,10308840,-24963380,-6171875
2026-01-14 16:42:07.291,69010230,6579927,-1961983,-22071190,6463623,-43945310,-70751950
2026-01-14 16:42:07.301,6900162,27654160,19129520,-2178634,8758545,-11505130,-8017578
2026-01-14 16:42:07.311,28272190,27929510,19423860,19219290,-4019165,-3425293,-8359375
2026-01-14 16:42:07.321,69010240,28179830,19691430,-21259810,-41748050,-41455080,-85498050
2026-01-14 16:42:07.331,47424150,24592250,23745130,-42621480,-5331421,-40649420,-796875
2026-01-14 16:42:07.341,69053390,28612270,20156680,-20767810,-3213501,-41308590,-69140620
2026-01-14 16:42:07.351,24720340,66774630,-17625880,23824200,-6774902,-3623047,-60253900
2026-01-14 16:42:07.361,69113820,44614540,-39665140,-20293070,-13903810,-23449710,-56152340
2026-01-14 16:42:07.371,6913972,29109460,20695300,-2006000,-18859860,-14001470,-47216800
2026-01-14 16:42:07.381,69165610,29251020,20847210,-19844220,-18151860,-6518555,-3708496
2026-01-14 16:42:07.391,6919149,44485060,-39449340,-1964567,-20727540,10787960,-3347168
2026-01-14 16:42:07.401,6921739,67223480,-16607340,-1944713,-2154541,15344240,-26635740
2026-01-14 16:42:07.411,29404660,29616140,21241680,20555470,-21191410,15185550,-18640140
2026-01-14 16:42:07.421,29490980,29733530,21365980,20659050,-23059080,36315920,-14624020
2026-01-14 16:42:07.431,6923465,44361630,-39227510,-1892924,-19836430,-25619510,-11993410
2026-01-14 16:42:07.441,29631680,29958810,21606800,20829100,-21472170,-46203610,-12805180
2026-01-14 16:42:07.451,69251930,30058080,21714700,-18635780,-22399900,-12809750,-15148930
2026-01-14 16:42:07.461,69260550,44281350,-39083360,-18506310,-22961430,-73242190,-14892580
2026-01-14 16:42:07.471,2981986,30248840,21921000,2105526,-2052002,-109680200,-17468260
2026-01-14 16:42:07.481,6927780,44213160,-38978920,-1828187,-2310791,-27734380,-21252440
2026-01-14 16:42:07.491,69295080,30404210,22093630,-18195570,-19140620,-45532230,-31811520
2026-01-14 16:42:07.501,69320980,44140660,-38878790,-18117880,-16723630,-55029300,-3491211
2026-01-14 16:42:07.511,69372770,67801800,-15096800,-18048830,-13928220,-28149410,-30004880
2026-01-14 16:42:07.521,46281310,30526780,22247280,-41140290,-13684080,17913820,-33422850
2026-01-14 16:42:07.531,69467720,30547500,22278350,-17971140,-16552730,15307620,-359375
2026-01-14 16:42:07.541,30147850,43945580,-38659540,21400510,-2043457,25708010,-4255371
2026-01-14 16:42:07.551,6954539,67715490,-14820590,-1796248,-25683590,17858890,-5385742
2026-01-14 16:42:07.561,6957129,6768960,-1477743,-1798841,-20275880,9020996,-5131836
2026-01-14 16:42:07.571,6960583,30567350,22327550,-1802292,-10437010,14001470,-34326170
2026-01-14 16:42:07.581,6963173,30564760,22330140,-1804882,-46463010,8416748,-20874020
2026-01-14 16:42:07.591,30186690,43798840,-38512810,21413460,4171753,-6958008,-14880370
2026-01-14 16:42:07.601,46465160,67542860,-14717010,-41301700,45654300,28442380,-11773680
2026-01-14 16:42:07.611,30233300,30506930,22284390,21453170,6262207,14013670,-88256830
2026-01-14 16:42:07.621,6977845,67473800,-14717010,-1802291,2897644,7116699,-64331060
2026-01-14 16:42:07.631,30319620,30468940,22253320,21539480,17501830,32714840,-11584470
2026-01-14 16:42:07.641,46491060,30458590,22246410,-41293060,-47851560,10595700,-13220220
2026-01-14 16:42:07.651,46488470,67387480,-14682480,-41278390,-34606940,17199710,-9399414
2026-01-14 16:42:07.661,69985620,67361580,-14656590,-17729460,-64697260,14331060,-7476807
2026-01-14 16:42:07.671,70037410,6734433,-1460483,-17625880,-9484863,3213501,-4321289
2026-01-14 16:42:07.681,70089200,67335700,-14561640,-17505030,-17407230,-30380250,-3503418
2026-01-14 16:42:07.711,7027910,6728391,-1437174,-1707345,-4008789,-22064210,-24938960
2026-01-14 16:42:07.721,31069710,30551810,22394880,22343090,-50390620,-12237550,-30615230
2026-01-14 16:42:07.731,46279590,30573390,22425090,-40917590,-56396480,93811030,-3005371
2026-01-14 16:42:07.741,70477620,4070100,-4069572,-16667770,-6044922,16687010,-33276370
2026-01-14 16:42:07.751,70538040,6719759,-1411282,-16538290,-6279297,7080078,-37963870
2026-01-14 16:42:07.761,31427930,30621730,22497590,22727200,-68310540,7513428,-36987300
2026-01-14 16:42:07.771,70641620,30644170,22526940,-16313860,-70458980,9698486,-38989260
2026-01-14 16:42:07.781,31577260,6716305,-1395743,22888610,-7558594,52581790,-47607420
2026-01-14 16:42:07.791,7071931,6716306,-1390563,-1611534,-79052740,-23765560,-5439453
2026-01-14 16:42:07.801,7074521,27051060,26240890,-1602038,-8232422,-17883300,-52001950
2026-01-14 16:42:07.811,70788360,67137160,-13827950,-15942700,-9794922,-7626953,-43530270
2026-01-14 16:42:07.821,31836200,30690780,22601170,23164830,-703125,-13740230,-65234380
2026-01-14 16:42:07.831,31922520,30652800,22570100,23251140,-58935550,22045900,-7182617
2026-01-14 16:42:07.841,7100415,6698180,-1377616,-1570965,-40722660,15673830,-35327150
2026-01-14 16:42:07.851,7100414,43033210,-37707470,-1564058,-34594730,625,-1850586
2026-01-14 16:42:07.861,71004150,67024950,-13715730,-15554270,-44262700,-66259770,-38598630
2026-01-14 16:42:07.891,71064580,30707180,22636560,-15269430,-42456060,-160,3365,-4074707
2026-01-14 16:42:07.901,45929140,30707180,22636560,-40335810,-43188480,-17318730,-49536130
2026-01-14 16:42:07.911,7112500,67024960,-13663940,-1507088,-4440918,4525757,-4807129
2026-01-14 16:42:07.921,7115091,30705460,22638290,-1497594,-40429690,-59417720,-49658200
2026-01-14 16:42:07.931,7117680,30705460,22638290,-1488099,-35620120,-6628418,-58251950
2026-01-14 16:42:07.941,32508610,6699042,-1366396,23908010,-3540039,74646000,-60498050
2026-01-14 16:42:07.951,3255695,6699043,-1366394,2396326,-3395996,10070800,-5595703
2026-01-14 16:42:07.961,71245840,30687330,22621890,-14622050,-33544920,2697754,-6015625
2026-01-14 16:42:07.971,71263100,30688190,22621020,-14535740,-32104490,45703120,-60791020
2026-01-14 16:42:07.981,7126309,43010770,-37678120,-1444941,-29248050,46289060,-60498050
2026-01-14 16:42:07.991,7123721,67042220,-13698470,-1437171,-2763672,3479004,-59814450
2026-01-14 16:42:08.001,45599410,67076740,-13715730,-39905960,-26953120,23291020,-6142578
2026-01-14 16:42:08.011,71194050,6712854,-1375029,-14190470,-24108890,19396970,-57958980
2026-01-14 16:42:08.021,32798640,30745160,22650380,24274000,-24023440,12927250,-55859380
2026-01-14 16:42:08.031,32825390,67232110,-13802050,24316290,-23486330,7727051,-52490230
2026-01-14 16:42:08.041,71073210,43241240,-37896510,-13862460,-20361330,-4119873,-5019531
2026-01-14 16:42:08.051,71030050,30802990,22678860,-13732990,-22009280,-11242680,-4440918
2026-01-14 16:42:08.061,70978260,6743065,-1393155,-13594890,-17797850,-7885742,-4494629
2026-01-14 16:42:08.071,32962640,30832340,22684040,24524320,-12402340,10154720,-40673830
2026-01-14 16:42:08.081,33003210,67577380,-14043740,24587330,-12390140,-9887695,-33935550
2026-01-14 16:42:08.091,33044640,3086340,2268748,24649470,-59143060,-8166504,-24938960
2026-01-14 16:42:08.101,70762470,67741380,-14155950,-12947510,-8288574,-91308590,-21264650
2026-01-14 16:42:08.111,70702040,30903980,22698710,-12766240,-15344240,-15124510,-23303220
2026-01-14 16:42:08.121,7062437,30929020,22708210,-1258497,-22094730,-3786621,-25268560
2026-01-14 16:42:08.131,33228490,68008960,-14354470,24931730,-14135740,-4284668,-3088379
2026-01-14 16:42:08.141,7051215,3096095,2271079,-1224835,-18078610,-36523440,-34716800
2026-01-14 16:42:08.151,44193310,30976490,22712520,-38360020,-2319336,-13745120,-2277832
2026-01-14 16:42:08.161,70382670,30991160,22715110,-11980760,-2487793,-44555660,-2277832
2026-01-14 16:42:08.171,70330890,30997200,22709070,-11859920,-2746582,-103125,-25219730
2026-01-14 16:42:08.181,70304990,27242170,26412320,-11764970,-30297850,-8647461,-27978520
2026-01-14 16:42:08.191,43913640,30947140,22638290,-38052730,-29077150,-5576172,-2614746
2026-01-14 16:42:08.201,41242060,68328340,-14846480,-40655270,-23486330,-36132810,-27197270
2026-01-14 16:42:08.211,43859260,30843570,22517450,-37986270,-24157720,-18234250,-23522950
2026-01-14 16:42:08.221,70279090,68302440,-15062280,-11514650,-22705080,23791500,-16503910
2026-01-14 16:42:08.231,7026182,68302440,-15183120,-1148010,-1673584,24841310,-46844480
2026-01-14 16:42:08.241,7023594,30679560,22318920,-1145422,-7611084,24279780,-15457150
2026-01-14 16:42:08.251,43741010,68328340,-15433440,-37862840,-25268560,46557620,19210820
2026-01-14 16:42:08.261,43686630,44607630,-39326770,-37813640,55725100,5908203,2645874
2026-01-14 16:42:08.271,40983100,6844056,-1570103,-40396320,12792970,44677740,32989500
2026-01-14 16:42:08.281,69925190,30553540,22116930,-11333390,18603520,3461914,57495120
2026-01-14 16:42:08.291,6980433,44926140,-39664270,-1129884,23852540,23669430,8093262
2026-01-14 16:42:08.301,69692140,6869950,-1613263,-11272970,32714840,10394290,29159550
2026-01-14 16:42:08.311,69562660,30503480,21994370,-11247070,3503418,-12158200,362854
2026-01-14 16:42:08.321,33148220,68880760,-16451980,25081060,3671875,-22473140,8111572
2026-01-14 16:42:08.331,29465510,45404340,-40170090,28660180,41796880,-24731440,12878420
2026-01-14 16:42:08.341,69226030,30418880,21837270,-11169380,48779300,-4597168,2286377
2026-01-14 16:42:08.351,69131080,69087920,-16952610,-11143490,5810547,-61816410,29492190
2026-01-14 16:42:08.361,69044760,6913108,-1715117,-11108970,64208980,-5390625,37597660
2026-01-14 16:42:08.371,68975710,69156980,-17332410,-11074440,64746100,-46313480,48779300
2026-01-14 16:42:08.381,68906660,6917424,-1753959,-11022650,6875,-45263670,55322260
2026-01-14 16:42:08.391,32933290,30069300,21375470,24950720,7832031,-40234380,67871100
2026-01-14 16:42:08.401,32928110,2997693,2126066,24955900,89160160,-27807620,7841797
2026-01-14 16:42:08.411,32930700,69200130,-18169680,24970570,9711914,-19091800,90722660
2026-01-14 16:42:08.421,6869949,69200140,-18394100,-1078093,10683590,-24902340,95751950
2026-01-14 16:42:08.431,32935880,6920876,-1860991,24999920,11738280,-30981440,10009770
2026-01-14 16:42:08.441,42517900,69217390,-18842940,-36720870,12636720,-17333980,99853520
2026-01-14 16:42:08.451,32948830,29489250,20660770,25038760,13525390,-10510250,10019530
2026-01-14 16:42:08.461,32951420,29388260,20537340,25053440,14716800,-10064700,10263670
2026-01-14 16:42:08.471,32945380,29288130,20413050,25059480,16025390,11619570,11074220
2026-01-14 16:42:08.481,32947100,29187140,20289610,25075020,17939450,16870120,11728520
2026-01-14 16:42:08.491,68311070,6922603,-1997372,-10288950,20117190,14025880,12480470
2026-01-14 16:42:08.501,42141560,29002430,20060010,-36337620,21855470,109436000,12832030
2026-01-14 16:42:08.511,42081140,69243290,-20388020,-36277200,225,16381840,12089840
2026-01-14 16:42:08.521,6814705,47343870,-42477340,-1010767,22871090,37402340,10908200
2026-01-14 16:42:08.531,6810390,69234660,-20759180,-1006450,2328125,42529300,10673830
2026-01-14 16:42:08.541,68069380,69226030,-20940450,-10047270,23847660,5654297,11357420
2026-01-14 16:42:08.551,68034860,28571700,19541240,-10030000,24628910,83447260,11542970
2026-01-14 16:42:08.561,6800897,28500060,19457520,-1003863,25878910,69677740,11044920
2026-01-14 16:42:08.571,32878910,47645980,-42865760,25074150,27128910,42163090,10888670
2026-01-14 16:42:08.581,29358310,28361090,19303010,28577490,27480470,41455080,10595700
2026-01-14 16:42:08.591,41962890,28293770,19232230,-36171030,27304690,32055660,99658200
2026-01-14 16:42:08.601,32861650,4767705,-4293828,25039620,27070310,14123540,94677740
2026-01-14 16:42:08.611,3287547,28145300,19087220,2504309,26503910,-1275,539,9394531
2026-01-14 16:42:08.621,68216130,28065030,19012120,-10263060,25742190,34484860,88623050
2026-01-14 16:42:08.631,32934150,47567430,-42875250,25070700,24882810,60668940,87158200
2026-01-14 16:42:08.641,68449180,6853550,-2178638,-10375270,23828120,42053220,88183590
2026-01-14 16:42:08.651,33030830,47412060,-42754410,25129390,23359380,21839140,92333980
2026-01-14 16:42:08.661,68751280,4732575,-4268539,-10470220,22421880,-16308590,9345703
2026-01-14 16:42:08.671,4263615,68017600,-21803610,-3679248,21582030,-28344730,10263670
2026-01-14 16:42:08.681,6913109,23460110,22563970,-1052200,20957030,-375,11376950
2026-01-14 16:42:08.691,69355500,2737709,1843982,-10522020,19931640,-41845700,12265630
2026-01-14 16:42:08.701,33550460,2725278,1833971,25541990,18525390,-36694340,12529300
2026-01-14 16:42:08.711,30094420,27135390,18249950,29291500,17128910,-27563480,11914060
2026-01-14 16:42:08.721,70089200,4654804,-4203025,-10409800,15410160,-19165040,11542970
2026-01-14 16:42:08.731,70339520,66636530,-21665510,-10349380,13925780,-12817380,11435550
2026-01-14 16:42:08.741,34203010,66386210,-21622350,26115130,12519530,14907840,11337890
2026-01-14 16:42:08.751,34367880,66144520,-21570560,26261010,11708980,13562010,11396480
2026-01-14 16:42:08.761,34540510,65902830,-21518770,26416380,10898440,23779300,11738280
2026-01-14 16:42:08.771,7134943,26461260,17750180,-1006452,10449220,38964840,12207030
2026-01-14 16:42:08.781,34876280,26369760,17686300,26719350,10283200,3540039,11669920
2026-01-14 16:42:08.791,35038560,26286040,17631920,26867810,9941406,23706060,11640630
2026-01-14 16:42:08.801,72022690,65039660,-21225290,-9822842,9086914,29370120,11474610
2026-01-14 16:42:08.811,72229850,64841140,-21130340,-9736526,82421870,39990230,11191410
2026-01-14 16:42:08.821,72428380,26106500,17535240,-9658842,7236328,5371094,10224610
2026-01-14 16:42:08.831,7261829,22213530,21359170,-958978,5751953,5390625,87939460
2026-01-14 16:42:08.841,72782280,26027950,17510210,-9529370,41210940,45922850,68896480
2026-01-14 16:42:08.851,35852520,44634390,-40284030,27607550,28466800,15563970,5161133
2026-01-14 16:42:08.861,35954380,64055660,-20586550,27695590,21789550,-46783450,39038090
2026-01-14 16:42:08.871,36040700,6390891,-2047435,27764640,17822270,-9729004,29003910
2026-01-14 16:42:08.881,36120100,44222660,-39884380,27823340,16760250,-12658690,21618650
2026-01-14 16:42:08.891,73619550,63589540,-20241280,-9555262,19641110,-18005370,18286130
2026-01-14 16:42:08.901,36253030,25826830,17469640,27914840,20446780,-27905270,18945310
2026-01-14 16:42:08.911,7393027,43810930,-39484740,-967608,7,15600590,-20532230,15063480
2026-01-14 16:42:08.921,36362650,63114800,-19887380,27977850,70495610,-20031740,4673004
2026-01-14 16:42:08.931,36400630,41579030,-41146940,27991660,-61279300,-5292969,-8062744
2026-01-14 16:42:08.941,36438610,62812700,-19619800,28005470,-18566900,-8066406,-1541748
2026-01-14 16:42:08.951,7455176,43226560,-38912450,-1005588,-23791500,-77734380,-20910640
2026-01-14 16:42:08.961,7471576,62476060,-19369480,-1016808,-2993164,-57910160,-19177250
2026-01-14 16:42:08.971,45810020,25612770,17459290,-39350080,-26098630,-3071289,-13134770
2026-01-14 16:42:08.981,36587940,6213941,-1910191,28046040,-26708980,-15783690,-53863520
2026-01-14 16:42:08.991,36625920,61992680,-18972420,28059850,-32861330,-748291,7678223
2026-01-14 16:42:09.001,75311360,61854580,-18834320,-10556530,-3125,48103330,12878420
2026-01-14 16:42:09.011,36714830,25548890,17505900,28109050,-35424800,10321050,12188720
2026-01-14 16:42:09.021,46351230,42239960,-37931030,-39861930,-37060550,47088620,7269287
2026-01-14 16:42:09.031,75656620,61543840,-18385470,-10677380,-49829100,-1689148,9094238
2026-01-14 16:42:09.041,75760210,61466150,-18221470,-10677380,-4699707,-17944340,4434204
2026-01-14 16:42:09.051,36928030,61397100,-18066100,28275640,-52685550,-123291000,11703490
2026-01-14 16:42:09.061,36991900,41782480,-37439020,28332610,-6064453,16223150,-4095459
2026-01-14 16:42:09.071,37054920,6126762,-1771222,28390440,-58691410,20715330,-20202640
2026-01-14 16:42:09.081,37126560,61224460,-17530930,28456910,-7011719,12243650,-21130370
2026-01-14 16:42:09.091,46650750,41457940,-37073040,-40080320,-69091800,57159420,-28027340
2026-01-14 16:42:09.101,7629537,61155420,-17151140,-1047019,-6777344,-2418518,-33007810
2026-01-14 16:42:09.111,76355790,22478860,21698040,-10427060,-7338867,-3322754,-21130370
2026-01-14 16:42:09.121,76433470,26059890,18272390,-10349370,-875,-54541020,-12731930
2026-01-14 16:42:09.131,46703400,61060460,-16590080,-40079450,-10410160,-92578130,-12298580
2026-01-14 16:42:09.141,76606110,61008680,-16417450,-10176740,-10957030,-12539060,-11621090
2026-01-14 16:42:09.151,76726950,40825230,-36359200,-10055890,-11894530,-17602540,-15930180
2026-01-14 16:42:09.161,37786020,60853300,-16106710,29109460,-12695310,79248050,-40966800
2026-01-14 16:42:09.171,7692548,60801520,-15934070,-982282,1,-14697270,11015630,-67041020
2026-01-14 16:42:09.181,4672068,26320570,18667720,-3999313,-16279300,13955080,-90185540
2026-01-14 16:42:09.191,38041520,26388750,18754900,29371860,-16748050,16357420,-11855470
2026-01-14 16:42:09.201,77080850,6075836,-1540757,-9598420,-17148440,16630860,-14121090
2026-01-14 16:42:09.211,77089490,60801520,-15226280,-9589786,-16738280,15068360,-15332030
2026-01-14 16:42:09.221,7707223,26720210,19131240,-962430,8,-15322270,12744140,-16142580
2026-01-14 16:42:09.231,38015620,26861770,19283160,29345960,-14482420,10400390,-16005860
2026-01-14 16:42:09.241,7696002,27021460,19451480,-973651,8,-13222660,8491211,-14589840
2026-01-14 16:42:09.251,76873690,27183730,19617200,-9805580,-12480470,5961914,-13388670
2026-01-14 16:42:09.261,37787740,6140572,-1424228,29125000,-11787110,2454834,-12636720
2026-01-14 16:42:09.271,37714380,27529000,19962470,29060260,-11474610,-87524420,-12070310
2026-01-14 16:42:09.281,33759000,61751000,-13931520,32894800,-11152340,-22021480,-12080080
2026-01-14 16:42:09.291,46461710,61923630,-13810680,-39803240,-11132810,-35253900,-13085940
2026-01-14 16:42:09.301,37571950,40321140,-35482220,28960990,-11425780,-42797850,-14052730
2026-01-14 16:42:09.311,46285630,403670,6,-355057,3,-39634060,-12060550,-43432620,-14570310
2026-01-14 16:42:09.321,76122740,28208310,20612430,-9624316,-12392580,-4873047,-15253910
2026-01-14 16:42:09.331,46104360,28290310,20685810,-39452800,-12470700,-63378900,-15146480
2026-01-14 16:42:09.341,75976000,40528300,-35620330,-9425786,-121875,-7373047,-15058590
2026-01-14 16:42:09.351,7591559,28386120,20762630,-933083,1,-11953130,-82958980,-14570310
2026-01-14 16:42:09.361,75863790,28408570,20774710,-9244520,-11503910,-92333980,-13691410
2026-01-14 16:42:09.371,37585760,28412020,20771260,29085290,-10947270,-8510742,-12919920
2026-01-14 16:42:09.381,45794490,62821330,-13672570,-39123930,-99902340,-7011719,-12431640
2026-01-14 16:42:09.391,37612520,2836971,2070996,29127590,-9614258,-45214840,-125
2026-01-14 16:42:09.401,37609930,28339510,20671130,29130180,-10,-28930660,-12373050
2026-01-14 16:42:09.411,75742940,62864490,-13922890,-9020094,-10507810,-3395996,-12070310
2026-01-14 16:42:09.421,75725680,28271320,20583950,-9037360,-10976560,-43408200,-11123050
2026-01-14 16:42:09.431,7570841,62855850,-14104160,-907186,6,-10957030,-53515620,-9584961
2026-01-14 16:42:09.441,7570841,62829960,-14199100,-912365,1,-10751950,-54785160,-8745117
2026-01-14 16:42:09.451,7570842,2810128,2039146,-919273,5,-10507810,-38061520,-88378900
2026-01-14 16:42:09.461,37464920,28034820,20319820,28964450,-10166020,-18005370,-8120117
2026-01-14 16:42:09.471,75717050,62717740,-14483950,-9391258,-10351560,-12365720,-7729492
2026-01-14 16:42:09.481,75717050,6266596,-1457030,-9494840,-10927730,-5166626,-7241211
2026-01-14 16:42:09.491,75717050,6263143,-1465662,-9615686,-1140625,10604860,-7163086
2026-01-14 16:42:09.501,37263800,24305070,23531670,28716720,-12216800,-91796870,-7680664
2026-01-14 16:42:09.511,37200790,27727520,19988360,28641620,-14052730,-20385740,-82421870
2026-01-14 16:42:09.521,75717050,6250196,-1494146,-10030010,-16191410,-10021970,-9995117
2026-01-14 16:42:09.531,46236430,62450170,-15045010,-39683260,-17763670,-22167970,-11357420
2026-01-14 16:42:09.541,46314110,6238976,-1517450,-39778210,-19414060,-39160160,-12128910
2026-01-14 16:42:09.551,75742940,6230343,-1531262,-10573800,-20761720,-37158200,-12529300
2026-01-14 16:42:09.561,36799420,6221710,-1546798,28145300,-21601560,-19604490,-12509770
2026-01-14 16:42:09.571,7574294,62130790,-15640590,-1102262,-21464840,-19348140,-115625
2026-01-14 16:42:09.581,36589670,27000740,19213240,27888940,-228125,-24707030,-10761720
2026-01-14 16:42:09.591,36471410,61966790,-16046280,27748250,-23925780,-61309820,-10732420
2026-01-14 16:42:09.601,36344530,26713300,18896460,27598920,-2453125,14501950,-10859380
2026-01-14 16:42:09.611,75648000,41444120,-36914220,-12015290,-26289060,30786130,-10732420
2026-01-14 16:42:09.621,36045010,41550290,-37049740,27259690,-27421880,56347660,-10253910
2026-01-14 16:42:09.631,7548400,6178553,-1707346,-1255908,-27070310,90527340,-9926758
2026-01-14 16:42:09.641,7535451,61802780,-17366930,-1284391,-2765625,89697260,-97314460
2026-01-14 16:42:09.651,35429570,3978821,-3974404,26597640,-26582030,46240230,-96191410
2026-01-14 16:42:09.661,35176660,42163140,-37766160,26332650,-25566410,15234380,-7885742
2026-01-14 16:42:09.671,74741670,6207038,-1829055,-13784790,-24199220,6484375,-55566410
2026-01-14 16:42:09.681,34613020,62243000,-18618520,25756920,-23613280,14199220,-37524420
2026-01-14 16:42:09.691,74146090,6245881,-1895519,-14397630,-23339840,18066410,-23852540
2026-01-14 16:42:09.701,33951830,43180810,-38837360,25106090,-22695310,19033200,-20483400
2026-01-14 16:42:09.711,7333471,6305438,-1961980,-1500185,-21210940,15263670,-35424800
2026-01-14 16:42:09.721,72851330,25912290,17574090,-15329850,-19013670,10751950,-5073242
2026-01-14 16:42:09.731,32728720,63848500,-20275800,23929590,-16289060,8334961,-44677740
2026-01-14 16:42:09.741,32259160,26100460,17610340,23484200,-13837890,65625,-33789060
2026-01-14 16:42:09.751,7112501,26219570,17646590,-1634838,-10820310,4074707,-1821289
2026-01-14 16:42:09.761,3125444,26348180,17690620,2253818,-69433590,3713379,-8227539
2026-01-14 16:42:09.771,30727900,26478520,17732910,22046160,-32373050,54003900,9173584
2026-01-14 16:42:09.781,30189280,2221371,2220486,21548980,4949951,4375,2746582
2026-01-14 16:42:09.791,29631680,26787540,17855480,21036250,45092770,-114746100,48486330
2026-01-14 16:42:09.801,29080970,6756874,-2268406,20533890,97021490,-7885742,6269531
2026-01-14 16:42:09.811,28539770,27104320,17987540,20039290,15849610,-12080080,71240230
2026-01-14 16:42:09.821,28015820,68647700,-23365940,19561970,19287110,-10478520,103125
2026-01-14 16:42:09.831,6535903,69139710,-23702580,-1873070,21855470,-7290039,12431640
2026-01-14 16:42:09.841,64685770,69588560,-24013320,-18955150,275,-12880860,11728520
2026-01-14 16:42:09.851,64081550,27554900,18123920,-19162310,33671880,-18251950,9921875
2026-01-14 16:42:09.861,26249790,27595460,18100620,17961650,37265620,-14375,11982420
2026-01-14 16:42:09.871,63063020,27616180,18062640,-19490320,39140620,-28344730,11259770
2026-01-14 16:42:09.881,62614160,50326120,-45761690,-19628420,40546880,-3347168,8125
2026-01-14 16:42:09.891,6219983,50582470,-46023220,-1974925,415625,-67089840,5546875
2026-01-14 16:42:09.901,25068110,71289000,-25782810,16899090,41445310,-5595703,36279300
2026-01-14 16:42:09.911,24824700,27567840,17817500,16676400,41679690,-48266600,16723630
2026-01-14 16:42:09.921,61198580,27500520,17712190,-20129070,42539060,-26733400,7897949
2026-01-14 16:42:09.931,42636160,71634270,-26611450,-38570630,42382810,13378910,5996704
2026-01-14 16:42:09.941,24185090,27336510,17479140,16073040,42265620,40649420,1348877
2026-01-14 16:42:09.951,23992600,71737840,-27146610,15885740,421875,46435550,18554690
2026-01-14 16:42:09.961,60274980,7176375,-2739696,-20759180,41640620,5258789,24182130
2026-01-14 16:42:09.971,20007620,71763740,-27638620,19197450,40664060,5810547,2800293
2026-01-14 16:42:09.981,19869510,7173784,-2788895,19059340,39316410,7446289,31933590
2026-01-14 16:42:09.991,59860660,71694700,-28122000,-21173500,37734380,87402340,34643560
2026-01-14 16:42:10.001,5978297,71642900,-28346420,-2128568,36875,7036133,32250980
2026-01-14 16:42:10.011,59748450,26499240,16486500,-21389290,365625,34960940,3256836
2026-01-14 16:42:10.021,59739820,26341280,16316450,-21466970,35585940,7623291,30151370
2026-01-14 16:42:10.031,23184680,26172100,16140370,15053640,33789060,-16552730,32543940
2026-01-14 16:42:10.041,42637020,7115091,-2921824,-38811460,3234375,-37695310,37939450
2026-01-14 16:42:10.051,5995560,70969630,-29416750,-2163094,30039060,-47143560,4831543
2026-01-14 16:42:10.061,6009373,25587740,15550820,-2164823,28242190,-54248050,5834961
2026-01-14 16:42:10.071,60257720,25379710,15344530,-21656870,27480470,-6303711,74609380
2026-01-14 16:42:10.081,4299178,7029636,-3000370,-3911270,27265620,-6953125,9970703
2026-01-14 16:42:10.091,60646140,52110280,-48120720,-21613710,27109380,-6816406,11689450
2026-01-14 16:42:10.101,6086195,24756510,14742040,-2155328,26621090,-6142578,13369140
2026-01-14 16:42:10.111,43256780,69605820,-30452550,-39296560,25800780,-52441410,1453125
2026-01-14 16:42:10.121,61293520,24411240,14414030,-21363390,25214840,-41015620,15068360
2026-01-14 16:42:10.131,24275720,5185305,-4799816,15999670,24433590,-3737793,15566410
2026-01-14 16:42:10.141,61725100,69027500,-30720130,-21104440,23730470,-2944336,15507810
2026-01-14 16:42:10.151,61932260,24039210,14078260,-20966340,23203120,-33398440,15546880
2026-01-14 16:42:10.161,62139420,51634680,-47836740,-20810970,22675780,-5307617,14853520
2026-01-14 16:42:10.171,62337950,23904560,13971230,-20664230,21855470,-6459961,14970700
2026-01-14 16:42:10.181,6254511,6847508,-3068561,-2050886,20117190,-3515625,16259770
2026-01-14 16:42:10.191,6274363,68380130,-30625180,-2034483,17939450,14367680,16533200
2026-01-14 16:42:10.201,25535080,68293810,-30538860,17226240,16484380,12536620,14853520
2026-01-14 16:42:10.211,25717210,68233380,-30426650,17406640,15986330,-19836430,13144530
2026-01-14 16:42:10.221,25898470,51127990,-47342140,17587900,14580080,-2915039,11777340
2026-01-14 16:42:10.231,26088370,23886430,14058410,17777800,12597660,-19458010,10527340
2026-01-14 16:42:10.241,26269640,68060750,-30012330,17959060,98828130,14221190,91308590
2026-01-14 16:42:10.251,26442270,6800895,-2985697,18131700,7001953,2166748,75
2026-01-14 16:42:10.261,26606270,67974440,-29684330,18295700,4362793,31640620,5644531
2026-01-14 16:42:10.271,26761640,24103950,14358790,18451070,23474120,25732420,3774414
2026-01-14 16:42:10.281,64305980,67948540,-29313170,-18817050,119506800,121521000,23803710
2026-01-14 16:42:10.291,64435450,24265360,14559900,-18687580,46020510,48858640,14050290
2026-01-14 16:42:10.301,27143160,24357720,14674710,18829130,-3338623,5718994,89660650
2026-01-14 16:42:10.311,27255380,67948540,-28674420,18941350,-27145390,16809080,7281494
2026-01-14 16:42:10.321,64772080,50194050,-46239020,-18350940,23788450,29760740,14428710
2026-01-14 16:42:10.331,27475480,68060750,-28199680,19170090,59509280,29589840,16479490
2026-01-14 16:42:10.341,6491881,68147070,-27940730,-1804880,236969,25439450,13769530
2026-01-14 16:42:10.351,6497062,25096590,15506800,-1787618,-1685791,38476560,4208374
2026-01-14 16:42:10.361,65031040,25295120,15722590,-17677670,-4387207,61328120,-7354736
2026-01-14 16:42:10.371,65074190,25518680,15965140,-17479140,-7001953,7832031,-2487793
2026-01-14 16:42:10.381,65091460,4978060,-4558218,-17271980,-8779297,5810547,-40771480
2026-01-14 16:42:10.391,28129760,6884623,-2634389,19914140,-10039060,14990230,-59228520
2026-01-14 16:42:10.401,43396600,21976590,21026410,-38569770,-10527340,-2434082,-72314460
2026-01-14 16:42:10.411,2833432,69191500,-25670600,2015844,-11132810,-6386719,-7451172
2026-01-14 16:42:10.421,6515189,26727120,17259900,-1641743,-11757810,-10,-79296870
2026-01-14 16:42:10.431,65195030,26942910,17492950,-16184390,-12539060,-11464840,-79589840
2026-01-14 16:42:10.441,43068600,6957131,-2473840,-38138190,-13535160,-94189460,-7607422
2026-01-14 16:42:10.451,25221150,69657620,-24462170,24410980,-15019530,-48120120,-74853520
2026-01-14 16:42:10.461,6539357,27466850,18073860,-1545069,-16826170,-36895750,-7949219
2026-01-14 16:42:10.471,29168150,69821620,-23952900,21102720,-18378910,3659668,-87060540
2026-01-14 16:42:10.481,29305400,49109910,-44491970,21258950,-19453120,6567383,-984375
2026-01-14 16:42:10.491,25821740,27909650,18563280,25018820,-19511720,58691410,-11279300
2026-01-14 16:42:10.501,29547950,7003740,-2328827,21534300,-19023440,41430660,-12226560
2026-01-14 16:42:10.511,29653250,7009782,-2310701,21653420,-18681640,30322270,-12382810
2026-01-14 16:42:10.521,6570431,28244560,18936170,-1419046,-17832030,25878910,-11855470
2026-01-14 16:42:10.531,65747460,7015826,-2282218,-14060990,-17158200,30664060,-10585940
2026-01-14 16:42:10.541,29916520,28380940,19093260,21942580,-1609375,18029780,-9707031
2026-01-14 16:42:10.551,65859670,48764640,-44008590,-13845200,-14873050,-11248780,-9296875
2026-01-14 16:42:10.561,65928730,70140980,-22528670,-13758880,-14160160,-3527832,-87646480
2026-01-14 16:42:10.571,66015050,28435320,19176990,-13689830,-13837890,-51660160,-8388672
2026-01-14 16:42:10.581,30218630,70037410,-22442360,22244690,-14052730,-6113281,-8095703
2026-01-14 16:42:10.591,3029888,48563520,-43812650,2231980,-14472660,-64746100,-7709961
2026-01-14 16:42:10.601,66325790,4850570,-4376693,-13551730,-15166020,-74365230,-71875
2026-01-14 16:42:10.611,30464630,28224710,19007810,22464800,-15693360,-8198242,-66015620
2026-01-14 16:42:10.621,6661063,2812459,1891804,-1352584,-1609375,-8979492,-58203120
2026-01-14 16:42:10.631,66757370,48321840,-43640020,-13517200,-16386720,-80322260,-48950200
2026-01-14 16:42:10.641,66921380,69200140,-22658150,-13525830,-17324220,-7036133,-44018560
2026-01-14 16:42:10.651,67094000,27720620,18545150,-13525830,-18310550,-78222660,-35473630
2026-01-14 16:42:10.661,43091040,27560070,18394960,-37718690,-20371090,-8613281,-30932620
2026-01-14 16:42:10.671,67456540,48053400,-43494150,-13577620,-22988280,-9946289,-31298830
2026-01-14 16:42:10.681,40908010,27177690,18035020,-40367840,-25800780,-97021490,-3178711
2026-01-14 16:42:10.691,67853590,68043490,-23279630,-13698470,-28085940,-63183590,-24914550
2026-01-14 16:42:10.701,68060750,26693450,17569770,-13784790,-30664060,-39138790,-692749
2026-01-14 16:42:10.711,31297590,67447900,-23702580,23081960,-34042970,11542970,15930180
2026-01-14 16:42:10.721,6844916,45756760,-45324660,-1401782,-37441410,25449220,27856440
2026-01-14 16:42:10.731,68595920,25899340,16792920,-14181840,-38105470,29746090,44036860
2026-01-14 16:42:10.741,44251140,66653790,-24427640,-38820090,-35234380,15126950,-6777344
2026-01-14 16:42:10.751,68759920,25427190,16315590,-14656580,-3078125,-3708496,-11484380
2026-01-14 16:42:10.761,31119770,47636480,-43514000,22741870,-25292970,-11699220,-8208008
2026-01-14 16:42:10.771,6888074,47642530,-43577010,-1526078,-18886720,-83740230,-21691900
2026-01-14 16:42:10.781,68906660,65704310,-25618810,-15545640,-12402340,134375,11816410
2026-01-14 16:42:10.791,30784870,24383610,15235770,22317190,-64404300,15644530,17163090
2026-01-14 16:42:10.801,30654530,65436720,-26231660,22171320,-25561520,12324220,46920780
2026-01-14 16:42:10.811,45087550,24024540,14835260,-39830860,-19180300,93896480,-123168900
2026-01-14 16:42:10.821,26570100,65350410,-26784090,25720580,2421875,8339844,-25
2026-01-14 16:42:10.831,26440630,23773360,14534010,25591100,4580078,8823242,-34179690
2026-01-14 16:42:10.841,68354230,48230340,-44422050,-16564180,75439460,10292970,-36621100
2026-01-14 16:42:10.851,68198860,23592960,14300090,-16667760,11484380,11044920,-31396480
2026-01-14 16:42:10.861,6803487,23520450,14199970,-1674544,15742190,12685550,-892334
2026-01-14 16:42:10.871,29765470,65540300,-27940730,21299520,19375,15126950,1411438
2026-01-14 16:42:10.881,29647210,65626620,-28130630,21193350,21679690,16005860,-19424440
2026-01-14 16:42:10.891,67508330,19183640,18243300,-16892190,23730470,14003910,-9698486
2026-01-14 16:42:10.901,67335700,2340997,1398242,-16943980,25917970,10244140,-1060791
2026-01-14 16:42:10.911,25504700,23403060,13954830,24662590,28710940,4050293,-9442139
2026-01-14 16:42:10.921,29188010,65971890,-28665790,20772130,31289060,-3010254,-35186770
2026-01-14 16:42:10.931,6696452,66006410,-28752110,-1719427,32929690,-8149414,-11962890
2026-01-14 16:42:10.941,29017100,23326230,13841750,20597760,33300780,-10253910,-4119873
2026-01-14 16:42:10.951,66878220,65971890,-28907480,-17401450,32363280,-10576170,55122380
2026-01-14 16:42:10.961,6687822,23216620,13726950,-1750503,31015620,-8095703,1817627
2026-01-14 16:42:10.971,28859140,23164820,13675160,20410460,29160160,-45703120,2692871
2026-01-14 16:42:10.981,66869580,65825150,-29054220,-17720830,27207030,-41918940,27929690
2026-01-14 16:42:10.991,66869580,65790620,-29088750,-17824410,24375,-6274414,2902832
2026-01-14 16:42:11.001,28710680,65764730,-29097380,20230920,2140625,-7578125,36279300
2026-01-14 16:42:11.011,6686095,6573883,-2910601,-1802293,18320310,-6816406,37304690
2026-01-14 16:42:11.021,24783350,23050020,13565540,23933820,15820310,-5395508,38232420
2026-01-14 16:42:11.031,4274544,6573884,-2910601,-4225930,13505860,-48779300,38427740
2026-01-14 16:42:11.041,44944260,65773360,-29106010,-40094990,11113280,-64697260,39892580
2026-01-14 16:42:11.051,28438780,23104400,13614740,19933130,9169922,-8876953,36108400
2026-01-14 16:42:11.061,28369720,23141520,13646680,19864070,7475586,-13505860,28149410
2026-01-14 16:42:11.071,66558840,23195900,13695870,-18480410,6269531,-20683590,14001470
2026-01-14 16:42:11.081,6646388,66023670,-29028320,-1854081,59472660,-29726560,6829834
2026-01-14 16:42:11.091,28123720,23322780,13810680,19626700,55566410,-39863280,-11968990
2026-01-14 16:42:11.101,24222290,66213570,-28959270,23372760,5673828,-5140625,-42089840
2026-01-14 16:42:11.111,66170420,49481940,-45742700,-18748000,73779300,-65429690,-7084961
2026-01-14 16:42:11.121,66084100,66386210,-28890220,-18834310,94189460,-8046875,-7998047
2026-01-14 16:42:11.131,66032310,23539440,14008340,-18886110,10458980,-934375,-46801760
2026-01-14 16:42:11.141,44817380,66403470,-28924740,-40101030,9863281,-96328130,17932130
2026-01-14 16:42:11.151,66110000,66325780,-29002430,-18808420,76123050,-86640620,10009770
2026-01-14 16:42:11.161,28033090,23297750,13766650,19544700,3762207,-67304690,16484380
2026-01-14 16:42:11.171,28218670,6604956,-2924412,19738910,-13146970,-48945310,17519530
2026-01-14 16:42:11.181,66532950,6590284,-2939088,-18161040,-77783200,-37070310,15986330
2026-01-14 16:42:11.191,66688320,22866170,13335070,-17884830,-14560550,-24609380,15292970
2026-01-14 16:42:11.201,6684367,49463810,-45881660,-1759133,-18710940,-107055700,18574220
2026-01-14 16:42:11.211,66990430,65393560,-30003700,-17306510,-20273440,30214840,20410160
2026-01-14 16:42:11.221,67085370,65238200,-30262660,-17038920,-20664060,63085940,22148440
2026-01-14 16:42:11.231,67128530,6513462,-3053889,-16805870,-20410160,9109375,21152340
2026-01-14 16:42:11.241,29400350,21937400,12347610,21025890,-23183590,9921875,11425780
2026-01-14 16:42:11.251,29377040,21776850,12162890,21014670,-27617190,890625,1048584
2026-01-14 16:42:11.261,66947260,21546390,11909980,-16693660,-31347660,88359380,-32104490
2026-01-14 16:42:11.271,6689546,64711660,-31894040,-1688353,-29511720,1015625,578125
2026-01-14 16:42:11.281,29089610,6445270,-3241195,20697890,-21992190,123203100,3109375
2026-01-14 16:42:11.291,29013650,64176500,-33016150,20618480,-196875,154921900,47226560
2026-01-14 16:42:11.301,28931650,20053970,10295000,20545110,-31914060,160,27539060
2026-01-14 16:42:11.311,28780590,19680220,9874634,20402690,-46210940,118515600,2770996
2026-01-14 16:42:11.321,24829010,19247770,9392123,23991740,-44101560,92578130,-11505130
2026-01-14 16:42:11.331,28384400,18785110,8870770,20022030,-33632810,79882820,71533200
2026-01-14 16:42:11.341,28162570,18353530,8370134,19829550,-26347660,5765625,10898440
2026-01-14 16:42:11.351,27937270,51633820,-49046040,19657780,-28320310,22148440,6826172
2026-01-14 16:42:11.361,6463398,17625020,7458630,-1741871,-40703120,-15625,-19360350
2026-01-14 16:42:11.371,27476350,17273710,6998561,19359120,-47929690,-41210940,-81640620
2026-01-14 16:42:11.381,27202720,16934480,6543671,19183900,-4984375,-57148440,-12509770
2026-01-14 16:42:11.391,41875700,11910590,10859770,-37294010,-5578125,-72773440,-18183590
2026-01-14 16:42:11.401,61664680,5323846,-5301750,-16521020,-61757810,-8359375,-2828125
2026-01-14 16:42:11.411,60784260,64435450,-42942580,-16521020,-68710940,-9234375,-42421880
2026-01-14 16:42:11.421,25396980,15897820,5059887,17726870,-72070310,-106875,-43359380
2026-01-14 16:42:11.431,59057920,15649230,4721524,-17263350,-71992190,-125234400,-31132810
2026-01-14 16:42:11.441,58263800,15284110,4275266,-17833040,-71328130,-1240625,-27753910
2026-01-14 16:42:11.451,23296890,64720290,-46144930,15701020,-64921880,-8875,-30664060
2026-01-14 16:42:11.461,5670147,14346710,3192856,-1936084,-43164060,-50039060,-26679690
2026-01-14 16:42:11.471,21572280,64262820,-47707270,13921170,-24882810,-28515620,-16513670
2026-01-14 16:42:11.481,55475770,6388303,-4824245,-21898560,-20136720,-16533200,-6538086
2026-01-14 16:42:11.491,19782070,12976860,1766040,11947960,33476560,26484380,32636720
2026-01-14 16:42:11.501,54629870,126333200,14190470,-24367210,70976560,10171880,5203125
2026-01-14 16:42:11.511,14470660,12494350,1281803,14462710,78828130,92265620,49101560
2026-01-14 16:42:11.521,17911590,12488310,1287845,9899668,11078130,26210940,53242190
2026-01-14 16:42:11.531,53766700,12504710,1305970,-26628720,15234380,41235350,5671875
2026-01-14 16:42:11.541,53525010,12582390,1366392,-26697760,16484380,18984380,54414060
2026-01-14 16:42:11.551,13795310,63304700,-49131490,12997400,1421875,30800780,56835940
2026-01-14 16:42:11.561,53179750,12822350,1558015,-26231660,55,5125,33320310
2026-01-14 16:42:11.571,17409220,12880180,1638291,9435284,-40976560,5375,-13945310
2026-01-14 16:42:11.581,17139050,7955900,6838789,9049447,-7993164,57421880,-90283200
2026-01-14 16:42:11.591,16794650,13304860,2214887,8582473,98046870,28808590,29550780
2026-01-14 16:42:11.601,5395660,13890950,2871757,-2901105,122421900,-23417970,44609380
2026-01-14 16:42:11.611,54232810,63934810,-45652930,-29183690,70664060,-5296875,3390625
2026-01-14 16:42:11.621,16924120,64435440,-44565330,8556580,14189450,-34921880,17646480
2026-01-14 16:42:11.631,17145090,64970610,-43391430,8749931,-24375,-19228520,3190918
2026-01-14 16:42:11.641,55208190,17045830,6276951,-29088740,-43867190,-24785160,-7426758
2026-01-14 16:42:11.651,5542399,17848580,7148752,-2925274,-51210940,-37636720,-17421880
2026-01-14 16:42:11.661,17318590,66463900,-39912860,8818120,-50195310,-4234375,-27597660
2026-01-14 16:42:11.671,17270250,19258130,8673968,8745613,-48164060,-5125,-38359380
2026-01-14 16:42:11.681,55648400,67275270,-38169260,-29736110,-40898440,-65351560,-44570310
2026-01-14 16:42:11.691,55657030,54084350,-51083980,-29744750,-28320310,-68789060,-45117190
2026-01-14 16:42:11.701,17284930,20596040,10098190,8748204,-25976560,-55625,-41914060
2026-01-14 16:42:11.711,17360020,68034860,-36788200,8828480,-23632810,-4046875,-41054690
2026-01-14 16:42:11.721,17417860,21099260,10630770,8891489,-12128910,-32128910,-36015620
2026-01-14 16:42:11.731,13649700,6838875,-3617536,12797750,17137530,-253125,-321875
2026-01-14 16:42:11.741,55855570,6856140,-3588189,-29252740,12441410,-8305664,-28808590
2026-01-14 16:42:11.751,17636240,68777180,-35562500,9139218,25683590,15292970,-22753910
2026-01-14 16:42:11.761,55864200,22156650,11731310,-28898840,32324220,33183590,-19160160
2026-01-14 16:42:11.771,5582968,22548520,12133550,-2867442,3375,40898440,-18085940
2026-01-14 16:42:11.781,14102260,22999960,12597070,13260150,36757810,42226560,-17451170
2026-01-14 16:42:11.791,17995320,23477290,13086480,9608782,41640620,35546880,-19707030
2026-01-14 16:42:11.801,18141190,53760660,-50009330,9790910,50195310,34375,-18154300
2026-01-14 16:42:11.811,18363020,24387070,14023880,10052450,53007810,43710940,-15654300
2026-01-14 16:42:11.821,18609890,7137531,-3211847,10340750,50039060,53632810,-13740230
2026-01-14 16:42:11.831,18892150,7170332,-3163510,10662710,48515620,60859380,-11074220
2026-01-14 16:42:11.841,42466110,25554940,15238360,-39448480,48007810,63359380,-8930664
2026-01-14 16:42:11.851,19469600,25890710,15593120,11310950,49960940,5890625,-6611328
2026-01-14 16:42:11.861,19774300,26181590,15906450,11644990,5125,53398440,-2434082
2026-01-14 16:42:11.871,20099720,7256648,-2994329,11992850,50390620,49570310,14343260
2026-01-14 16:42:11.881,56848210,26664110,16442470,-24065110,48164060,41640620,33325200
2026-01-14 16:42:11.891,42079410,22269900,21251010,-38730320,45859380,31894530,42407230
2026-01-14 16:42:11.901,57495580,27009370,16856790,-23296890,42539060,24257810,35351560
2026-01-14 16:42:11.911,57866740,27144890,17032020,-22942990,40117190,15527340,2939453
2026-01-14 16:42:11.921,21859720,27237250,17164080,13771840,37949220,7651367,29882810
2026-01-14 16:42:11.931,58643600,27311480,17279750,-22321510,34609380,1673584,2553711
2026-01-14 16:42:11.941,22551110,72324800,-27595460,14444250,30722660,-37890620,14233400
2026-01-14 16:42:11.951,22885160,7219532,-2736242,14766210,2671875,-6826172,4095459
2026-01-14 16:42:11.961,5977435,27394350,17473100,-2151875,2296875,-83984380,-121398900
2026-01-14 16:42:11.971,4264652,7189322,-2700851,-3876744,19589840,-11689450,-32592770
2026-01-14 16:42:11.981,6039584,27365000,17502450,-2113896,16992190,-15410160,-58740230
2026-01-14 16:42:11.991,60654780,27318390,17480000,-21018130,15605470,-190625,-73779300
2026-01-14 16:42:12.001,6087918,51332570,-46861360,-2093179,15322270,-24511720,-7866211
2026-01-14 16:42:12.011,24200630,27188910,17385060,16005710,15117190,-30898440,-8022461
2026-01-14 16:42:12.021,43064290,71150900,-26749560,-39022930,14453130,-35820310,-8017578
2026-01-14 16:42:12.031,6139708,48917910,-48913490,-2081095,14560550,-39550780,-7211914
2026-01-14 16:42:12.041,24487200,70866050,-26913560,16254310,15498050,-40664060,-40722660
2026-01-14 16:42:12.051,24569200,26734020,16959510,16327670,15673830,-38496100,-2859497
2026-01-14 16:42:12.061,24640840,26613180,16838670,16394140,15302730,-36074220,23364260
2026-01-14 16:42:12.071,43300800,70503520,-27276090,-39183480,15,-35371100,39916990
2026-01-14 16:42:12.081,24786720,7042583,-2738832,16541740,15751950,-33964840,6826172
2026-01-14 16:42:12.091,6193227,26343010,16556410,-2046569,15693360,-30214840,91796870
2026-01-14 16:42:12.101,61966790,26311070,16519300,-20344860,15244140,-27128910,10107420
2026-01-14 16:42:12.111,43183410,70391300,-27560940,-39007400,1609375,-27871090,11113280
2026-01-14 16:42:12.121,25050840,70443090,-27560930,16847300,17646480,-27734380,12753910
2026-01-14 16:42:12.131,61949530,26403430,16599570,-19896010,19130860,-25839840,13125
2026-01-14 16:42:12.141,61906370,70632990,-27440100,-19714740,20117190,-25019530,12353520
2026-01-14 16:42:12.151,61871840,26614040,16803280,-19507580,20917970,-25,13134770
2026-01-14 16:42:12.161,61820050,26753880,16939660,-19265890,19882810,-18369140,13984380
2026-01-14 16:42:12.171,21793170,7109046,-2706894,20985410,17451170,-8198242,12646480
2026-01-14 16:42:12.181,25523000,51315300,-46878620,17480010,15,14733890,9711914
2026-01-14 16:42:12.191,25599820,2730112,1747999,17593080,12363280,5102539,47265620
2026-01-14 16:42:12.201,25668870,27509150,17686300,17696660,10800780,3762207,-3289795
2026-01-14 16:42:12.211,61466150,7191049,-2631801,-17927990,87646480,28955080,-49121100
2026-01-14 16:42:12.221,6143161,51393850,-46800080,-1770354,58251950,69433590,-9013672
2026-01-14 16:42:12.231,41667680,28014100,18199890,-37277610,23144530,10478520,-14365230
2026-01-14 16:42:12.241,2597701,51359330,-46713760,1809633,44403080,7626953,-18261720
2026-01-14 16:42:12.251,6148340,72298900,-25705120,-1723742,-59417720,47094730,-19677730
2026-01-14 16:42:12.261,26168640,72273010,-25627440,18301740,-29052730,6479492,-19404300
2026-01-14 16:42:12.271,41561510,28213490,18432070,-37090300,-5209961,10419920,-17421880
2026-01-14 16:42:12.281,26442270,72160800,-25567020,18580550,-10449220,19033200,-12070310
2026-01-14 16:42:12.291,61975420,28127180,18363020,-16607340,-16582030,33203120,-6791992
2026-01-14 16:42:12.301,41527850,5110644,-4646605,-36951340,-22792970,47109380,-19360350
2026-01-14 16:42:12.311,62225740,51095200,-46459990,-16080810,-27089840,565625,11222840
2026-01-14 16:42:12.321,23644140,28063300,18306050,22863320,-30644530,5953125,-28271480
2026-01-14 16:42:12.331,62303420,72014060,-25592910,-15519750,-32871090,52109380,-91552740
2026-01-14 16:42:12.341,62303420,28135800,18371650,-15295320,-31601560,38476560,-13525390
2026-01-14 16:42:12.351,62286160,28164290,18394960,-15139960,-28457030,24511720,-128125
2026-01-14 16:42:12.361,27497920,51184100,-46526460,19769130,-23574220,11347660,-98535150
2026-01-14 16:42:12.371,27563520,72143540,-25584280,19841630,-19619140,-107788100,-48461910
2026-01-14 16:42:12.381,27647250,72100380,-25627440,19930540,-17539060,-8847656,-11035160
2026-01-14 16:42:12.391,6247606,7201406,-2566197,-1467384,-19394530,-11298830,22399900
2026-01-14 16:42:12.401,27888940,71901840,-25705120,20172230,-22304690,-11357420,3972168
2026-01-14 16:42:12.411,28038270,7175510,-2576556,20316370,-25351560,-10458980,4477539
2026-01-14 16:42:12.421,41085910,27762060,18020350,-36219370,-28730470,-10068360,5698242
2026-01-14 16:42:12.431,6317523,27643800,17914180,-1421636,-31269530,-85791020,6088867
2026-01-14 16:42:12.441,6338239,27524680,17808870,-1413004,-33144530,-84765620,5917969
2026-01-14 16:42:12.451,28637310,27397800,17694070,20873980,-34082030,-87402340,3840332
2026-01-14 16:42:12.461,41371620,70891940,-26024500,-36399760,-3390625,-12285160,32421880
2026-01-14 16:42:12.471,41466560,70719310,-26076290,-36477450,-32851560,-16025390,39892580
2026-01-14 16:42:12.481,28919560,27052530,17383330,21109620,-31367190,-16171880,5439453
2026-01-14 16:42:12.491,28988610,70408560,-26197130,21161410,-30234380,-14052730,67041020
2026-01-14 16:42:12.501,41716880,26846230,17192570,-36693240,-29121090,-12548830,7915039
2026-01-14 16:42:12.511,64400920,26765100,17118330,-14130050,-28417970,-11982420,93310540
2026-01-14 16:42:12.521,6446997,70097830,-26352510,-1416455,-28496090,-10576170,10351560
2026-01-14 16:42:12.531,64495870,70046040,-26387040,-14207740,-29765620,-9633789,10224610
2026-01-14 16:42:12.541,64504500,70011520,-26438820,-14250890,-31230470,-10683590,91259770
2026-01-14 16:42:12.551,2903264,6998562,-2648198,2115192,-33183590,-12939450,81933590
2026-01-14 16:42:12.561,64478620,69959720,-26542400,-14397630,-35449220,-13095700,8071289
2026-01-14 16:42:12.571,6446135,26475070,16821410,-1451847,-37480470,-8544922,10263670
2026-01-14 16:42:12.581,28865180,6986477,-2672368,20956840,-39785160,13586430,14335940
2026-01-14 16:42:12.591,64426810,48552220,-48122540,-14742890,-41484380,13134770,16015630
2026-01-14 16:42:12.601,64357760,26254100,16576260,-14881000,-41835940,14521480,10146480
2026-01-14 16:42:12.611,64254180,69812980,-27103460,-15088170,-39199220,-38867190,27807620
2026-01-14 16:42:12.621,28384400,26120310,16416580,20436350,-34941410,-20625,20605470
2026-01-14 16:42:12.631,28212630,6972666,-2744874,20245590,-30371090,-22988280,39770510
2026-01-14 16:42:12.641,42334910,25850140,16117060,-37525340,-25429690,-20410160,53759770
2026-01-14 16:42:12.651,42411740,25687000,15934930,-37638420,-19667970,-18632810,515625
2026-01-14 16:42:12.661,27695590,69493620,-28216950,19675040,-14902340,-1375,45092770
2026-01-14 16:42:12.671,63684490,25352950,15561180,-16659130,-12216800,-43310550,44995120
2026-01-14 16:42:12.681,27352050,6937276,-2878665,19310780,-99853520,9194336,31298830
2026-01-14 16:42:12.691,6335650,25076740,15233180,-1707344,-8232422,17988280,-3900528
2026-01-14 16:42:12.701,26955860,6940729,-2933908,18912860,-6376953,20429690,-37646480
2026-01-14 16:42:12.711,40424810,24884260,14976820,-39970610,-37646480,209375,-5649414
2026-01-14 16:42:12.721,42419500,51683880,-47718490,-37924120,-12194820,24707030,-78027340
2026-01-14 16:42:12.731,62372480,24718530,14745490,-17902100,21398930,28964840,-11005860
2026-01-14 16:42:12.741,25986520,24650340,14641050,17965970,765625,29453120,-12216800
2026-01-14 16:42:12.751,42222700,69812980,-30642440,-37879240,15166020,27675780,-11152340
2026-01-14 16:42:12.761,6144027,24575240,14491720,-1852357,22851560,26328120,-82128900
2026-01-14 16:42:12.771,25205350,24558840,14439060,17227960,30410160,23515620,-65283200
2026-01-14 16:42:12.781,24979200,70279100,-31281190,17022530,35078120,20703120,-6933594
2026-01-14 16:42:12.791,60482140,24609770,14422660,-18860210,37636720,16650390,-9428711
2026-01-14 16:42:12.801,60197300,70624370,-31522880,-18920630,39257810,10585940,-12607420
2026-01-14 16:42:12.811,4150541,2471335,1447445,-3740536,39492190,42285160,-16064450
2026-01-14 16:42:12.821,59757080,24766000,14508120,-19015580,38554690,-8337402,-18486330
2026-01-14 16:42:12.831,5960170,71021420,-31695510,-1906734,36328120,-28149410,-19375
2026-01-14 16:42:12.841,24103950,24829010,14548690,16240500,33457030,-3022461,-18945310
2026-01-14 16:42:12.851,24009000,24848860,14563360,16145550,30742190,-4873047,-18105470
2026-01-14 16:42:12.861,5934276,2485836,1457113,-1934358,28613280,-74902340,-15449220
2026-01-14 16:42:12.871,23858810,20246370,19217640,15985000,26699220,-83935540,-121875
2026-01-14 16:42:12.881,23792350,20263630,19234910,15913360,25488280,-10888670,-8173828
2026-01-14 16:42:12.891,5922193,24926550,14641050,-1961978,25996090,-16210940,-5541992
2026-01-14 16:42:12.901,23708620,7125446,-3160057,15824450,2578125,-23203120,-13476560
2026-01-14 16:42:12.911,20160570,5160912,-5121139,19372500,26484380,-2625,18261720
2026-01-14 16:42:12.921,23745740,25096590,14816270,15873650,23339840,-27324220,37573240
2026-01-14 16:42:12.931,39311270,71435740,-31350240,-39271490,20058590,-30820310,50390620
2026-01-14 16:42:12.941,41205020,25267500,14990630,-37205100,15527340,-34296880,50634770
2026-01-14 16:42:12.951,24048710,71582480,-31134450,16226690,9838867,-36660160,4790039
2026-01-14 16:42:12.961,5930824,25453080,15184840,-1872209,61376950,-3859375,28442380
2026-01-14 16:42:12.971,24341320,71711950,-30901390,16555550,31811520,-428125,14990230
2026-01-14 16:42:12.981,24480290,25617950,15365240,16710060,3684082,-49960940,5041504
2026-01-14 16:42:12.991,21138450,71798260,-30642440,20362640,7397461,-60351560,21862790
2026-01-14 16:42:13.001,5963624,7182417,-3053024,-1782440,11933590,-7234375,26660160
2026-01-14 16:42:13.011,24955030,7181552,-3041803,17219330,15537110,-8171875,41870120
2026-01-14 16:42:13.021,59921080,25846690,15637140,-17332400,17998050,-85546870,61865230
2026-01-14 16:42:13.031,60119610,25873450,15679430,-17064820,17578120,-85234380,76708980
2026-01-14 16:42:13.041,22171840,25889840,15714830,21400860,14248050,-80234380,8823242
2026-01-14 16:42:13.051,60568460,52862100,-48698180,-16460600,98583980,-68789060,11289060
2026-01-14 16:42:13.061,60827410,25895890,15760570,-16132600,5161133,-521875,16347660
2026-01-14 16:42:13.071,61060460,7140985,-2977067,-15778700,17321780,-30429690,20917970
2026-01-14 16:42:13.081,61267620,25863950,15757980,-15398910,-15991210,-5102539,22148440
2026-01-14 16:42:13.091,27016280,25851860,15752800,19370340,-21521000,18544920,19111330
2026-01-14 16:42:13.101,6153520,71254470,-29718860,-1471697,-31347660,27402340,18164060
2026-01-14 16:42:13.111,23979570,25688720,15587940,23218430,-5834961,44375,19970700
2026-01-14 16:42:13.121,27592010,5257639,-4850053,19985780,-95703130,90078130,20097660
2026-01-14 16:42:13.131,2770682,25102640,14982860,2009542,-17314450,140859400,13652340
2026-01-14 16:42:13.141,27698180,20169980,19155930,20069510,-23300780,16609380,46801760
2026-01-14 16:42:13.151,40680220,19247670,19146020,-35934520,-2609375,1678125,1899414
2026-01-14 16:42:13.161,23872280,23723290,13531010,23101300,-18212890,15828130,91748050
2026-01-14 16:42:13.171,6204447,6908792,-3314563,-1558880,-60009770,143046900,19785160
2026-01-14 16:42:13.181,41392330,68492340,-34051960,-36793370,-14501950,140390600,24160160
2026-01-14 16:42:13.191,26712440,21594720,11309220,18845540,15063480,148359400,19033200
2026-01-14 16:42:13.201,26506140,53196150,-50055950,18602990,32788090,148359400,88183590
2026-01-14 16:42:13.211,61897740,20214520,9840968,-17323770,29815670,1278125,-4975586
2026-01-14 16:42:13.221,6162153,19613750,9181512,-1765177,-11923830,87734380,-23085940
2026-01-14 16:42:13.231,25573920,66291260,-38704430,17653500,-31425780,41015620,-409375
2026-01-14 16:42:13.241,25142340,18470060,7891075,17239180,-51210940,-22521970,-50625
2026-01-14 16:42:13.251,60093720,65859680,-40827820,-18678940,-68242190,-29960940,-565625
2026-01-14 16:42:13.261,5934277,17193430,6422829,-1905010,-7796875,-40117190,-5859375
2026-01-14 16:42:13.271,5844505,65505780,-43322380,-1948166,-73515620,-41132810,-5375
2026-01-14 16:42:13.281,22559740,65453980,-44530810,14815410,-6953125,-559375,-48710940
2026-01-14 16:42:13.291,21634430,15461920,4356405,13928070,-64335940,-8640625,-45585940
2026-01-14 16:42:13.301,55242720,10002820,8883285,-21596450,-44296880,-106953100,-34570310
2026-01-14 16:42:13.311,19746680,65419460,-47241160,12069670,-16601560,-110625,-15927730
2026-01-14 16:42:13.321,18989680,14542640,3221340,11324760,46044920,-89453130,-36035160
2026-01-14 16:42:13.331,52799950,9415863,8279068,-23642160,-8232117,-46640620,-7192383
2026-01-14 16:42:13.341,17895190,65971890,-47983480,10261340,-32167970,-4125,-19091800
2026-01-14 16:42:13.351,17386780,66187680,-47819480,9733941,-78320310,-10046880,-22324220
2026-01-14 16:42:13.361,16921540,14866330,3467342,9232439,-49648440,-118125,17099610
2026-01-14 16:42:13.371,16624610,14660900,3258456,8907888,-52001950,-55625,61679690
2026-01-14 16:42:13.381,16445930,87749520,86610300,8689511,18359380,63671880,76523440
2026-01-14 16:42:13.391,16282790,9165543,8028751,8472852,5796875,47421880,753125
2026-01-14 16:42:13.401,51315300,143518800,29977800,-27094820,11515630,39453120,7875
2026-01-14 16:42:13.411,50995930,65730200,-48035270,-27120720,1884375,-29355470,86328130
2026-01-14 16:42:13.421,15893500,57991040,-56188750,8154347,161875,-4165039,70195310
2026-01-14 16:42:13.431,15967740,14893950,3456985,8270008,43867190,1296875,27597660
2026-01-14 16:42:13.441,15874510,15038970,3639976,8121541,-85791020,-14931640,3635254
2026-01-14 16:42:13.451,40561100,66101360,-47077150,-38211560,43203120,-60234380,23125
2026-01-14 16:42:13.461,15678570,57102840,-55160710,7678740,91875,-97109380,478125
2026-01-14 16:42:13.471,16014350,10483770,9369078,7929919,8359375,-80234380,56679690
2026-01-14 16:42:13.481,16590080,15732950,4655062,8459040,35605470,-18974610,47617190
2026-01-14 16:42:13.491,17216740,56136960,-54020470,9058082,-45751950,28652340,36210940
2026-01-14 16:42:13.501,54543550,65920100,-43598590,-27250190,-27421880,38085940,24179690
2026-01-14 16:42:13.511,18158450,17288380,6396933,9963543,-33652340,1859375,12490230
2026-01-14 16:42:13.521,18490770,17967690,7133215,10287230,-35625,4255371,-42785640
2026-01-14 16:42:13.531,55691560,18640960,7858273,-26395660,-40585940,-7366943,-13945310
2026-01-14 16:42:13.541,5591599,19272800,8538453,-2625754,-40898440,-3334961,-25097660
2026-01-14 16:42:13.551,56071360,67939910,-38972010,-26188500,-39765620,-43603520,-34941410
2026-01-14 16:42:13.561,19135560,20319820,9666610,10902670,-32519530,-5756836,-39804690
2026-01-14 16:42:13.571,42690530,68535500,-37685890,-39672900,-24785160,-8383789,-41445310
2026-01-14 16:42:13.581,56373460,21067330,10472810,-26007230,-24140620,-6591797,-42148440
2026-01-14 16:42:13.591,19423860,21331460,10761110,11184060,-2046875,-30651090,-4203125
2026-01-14 16:42:13.601,56615150,21561920,11014010,-25765540,-10410160,-14880370,-4265625
2026-01-14 16:42:13.611,19688850,69156980,-36132190,11454230,117370600,-11455080,-4171875
2026-01-14 16:42:13.621,19866660,69260560,-35855980,11638950,12197270,-8520508,-34824220
2026-01-14 16:42:13.631,20094540,22122980,11626870,11877190,19287110,13808590,-2453125
2026-01-14 16:42:13.641,20343990,69476350,-35346710,12145630,21132810,38769530,-18242190
2026-01-14 16:42:13.651,20583950,22523490,12055000,12406310,19882810,53554690,-17792970
2026-01-14 16:42:13.661,57486950,69830250,-34699330,-24065110,22382810,58007810,-16884770
2026-01-14 16:42:13.671,5756462,70046040,-34310900,-2378023,24941410,575,-16865230
2026-01-14 16:42:13.681,57633690,70270460,-33913850,-23521310,27636720,58203120,-17539060
2026-01-14 16:42:13.691,21244280,70494880,-33499530,13144320,31953120,58515620,-16015630
2026-01-14 16:42:13.701,21365120,24007280,13626820,13282420,359375,509375,-14902340
2026-01-14 16:42:13.711,57814960,70917840,-32679520,-22873940,38378900,3859375,-14189450
2026-01-14 16:42:13.721,21672410,24547620,14208600,13613880,37792970,31738280,-13203130
2026-01-14 16:42:13.731,5809118,24742700,14427840,-2239055,35019530,29492190,-11455080
2026-01-14 16:42:13.741,22096220,7120268,-3172142,14053230,30566410,278125,-91748050
2026-01-14 16:42:13.751,22319780,7120268,-3147973,14278520,24882810,26054690,-8120117
2026-01-14 16:42:13.761,42075960,53215130,-49225570,-38371240,20292970,20664060,-80078130
2026-01-14 16:42:13.771,42130340,53099470,-49099550,-38385910,17451170,14072270,-66064450
2026-01-14 16:42:13.781,22935220,70995520,-30961820,14871510,15039060,9785156,-49438480
2026-01-14 16:42:13.791,23088000,70883310,-30849600,15012210,12363280,6616211,-34204100
2026-01-14 16:42:13.801,59636240,7077111,-3077195,-21277080,10898440,29077150,-17956540
2026-01-14 16:42:13.811,23319330,7065888,-3071151,15212460,10625,-14587400,-43945310
2026-01-14 16:42:13.821,23388380,52602290,-48612730,15264260,9399414,-6875,21118160
2026-01-14 16:42:13.831,6006782,7045173,-3062519,-2134613,7558594,-11591800,4336548
2026-01-14 16:42:13.841,23448810,24926550,14830940,15290150,6230469,-14951170,39489740
2026-01-14 16:42:13.851,19778270,52408940,-48443550,18960680,5913086,-18046880,9814453
2026-01-14 16:42:13.861,60309510,24805710,14727360,-21605080,7006836,-20976560,24829100
2026-01-14 16:42:13.871,60361300,70063300,-30685600,-21708660,8491211,-22285160,37719730
2026-01-14 16:42:13.881,43026310,24638250,14566810,-39164500,9741211,-20957030,52001950
2026-01-14 16:42:13.891,23406510,24551940,14480500,15177080,98046870,-17675780,48168940
2026-01-14 16:42:13.901,60456250,24466480,14393320,-21924450,99316410,-16035160,36206060
2026-01-14 16:42:13.911,6044762,24381890,14305270,-2200212,10566410,-15507810,17749020
2026-01-14 16:42:13.921,19583460,5233642,-4848153,18758440,11396480,-17324220,-16647340
2026-01-14 16:42:13.931,6038718,69640350,-31229400,-2218337,14072270,-20253910,-11680600
2026-01-14 16:42:13.941,23155330,24183360,14089480,14893090,17412110,-19746090,15856930
2026-01-14 16:42:13.951,43223970,6957994,-3142794,-39432940,19921880,-1734375,23901370
2026-01-14 16:42:13.961,23019810,69571300,-31522880,14752400,23691410,-17832030,33691410
2026-01-14 16:42:13.971,60154140,52480580,-48682640,-22502770,27167970,-20,4736328
2026-01-14 16:42:13.981,4318945,24034900,13909950,-3943293,2984375,-21035160,57666020
2026-01-14 16:42:13.991,22902420,24028850,13898720,14645360,32167970,-21699220,7036133
2026-01-14 16:42:14.001,60041930,24040080,13904760,-22442350,334375,-20820310,79833980
2026-01-14 16:42:14.011,60041920,69692140,-31695510,-22338770,33886720,-19931640,82128900
2026-01-14 16:42:14.021,43022850,52597970,-48789680,-39237000,33105470,-20429690,7729492
2026-01-14 16:42:14.031,23138930,24161780,14024740,14926750,32714840,-20683590,79589840
2026-01-14 16:42:14.041,2326235,69830240,-31488350,1506230,30742190,-19511720,8066406
2026-01-14 16:42:14.051,6024910,24318880,14195650,-2163097,28125,-17900390,7631836
2026-01-14 16:42:14.061,23561880,24407790,14296640,15384230,25332030,-15839840,7167969
2026-01-14 16:42:14.071,23721570,24513960,14414900,15552550,21679690,-14423830,56152340
2026-01-14 16:42:14.081,60602980,24626170,14544370,-21018130,19287110,-15517580,37890620
2026-01-14 16:42:14.091,6073247,24738380,14673850,-2083685,18232420,-17431640,23327640
2026-01-14 16:42:14.101,20510760,70063300,-30392120,19695580,18037110,-17138670,41064450
2026-01-14 16:42:14.111,60982780,52138770,-48144030,-20465700,16972660,-10390630,6513672
2026-01-14 16:42:14.121,24499280,25116450,15107160,16363070,15361330,-4350586,6772461
2026-01-14 16:42:14.131,24665870,70244570,-29692960,16541740,13759770,-12365720,7426758
2026-01-14 16:42:14.141,24829880,25437540,15459330,16723010,12353520,29345700,9355469
2026-01-14 16:42:14.151,42527400,70451730,-29192320,-38334120,10439450,6381836,9970703
2026-01-14 16:42:14.161,61483420,7057258,-2893340,-19136420,83251950,7036133,97265620
2026-01-14 16:42:14.171,25407330,7070204,-2866580,17371250,6479492,7866211,8330078
2026-01-14 16:42:14.181,25617950,7083152,-2838096,17609480,36669920,10869140,61328120
2026-01-14 16:42:14.191,42088040,51671800,-47385300,-37720410,12939450,14980470,4165039
2026-01-14 16:42:14.201,26039170,26593330,16703150,18085950,5419922,15712890,14050290
2026-01-14 16:42:14.211,26241150,71237210,-27474620,18315550,120910600,12294920,-18774410
2026-01-14 16:42:14.221,61992690,27040450,17188250,-17004400,1484375,7602539,-5131836
2026-01-14 16:42:14.231,26654610,27264010,17430800,18782520,8215332,7314453,-64697260
2026-01-14 16:42:14.241,26874720,71634270,-26490610,19028530,-11315920,10839840,-65478520
2026-01-14 16:42:14.251,62277530,51229850,-46670600,-15908170,-43774420,15498050,-8691406
2026-01-14 16:42:14.261,27313210,27905340,18136010,19522260,-83251950,19199220,-12148440
2026-01-14 16:42:14.271,62458800,71988160,-25497970,-15191740,-13291020,21660160,-13203130
2026-01-14 16:42:14.281,62536480,7210902,-2518726,-14837850,-18085940,26308590,-12763670
2026-01-14 16:42:14.291,62605540,7222123,-2488515,-14475320,-24101560,3203125,-109375
2026-01-14 16:42:14.301,62657320,28705490,19010390,-14130050,-29316410,36953120,-10234380
2026-01-14 16:42:14.311,6268322,7246291,-2436722,-1377615,-32304690,38789060,-10927730
2026-01-14 16:42:14.321,28424100,72601010,-24142790,20810970,-33105470,32246090,-12714840
2026-01-14 16:42:14.331,40378970,7273914,-2395291,-35424390,-30253910,21328120,-14433590
2026-01-14 16:42:14.341,62665960,29354600,19690570,-12843930,-27265620,93603520,-13476560
2026-01-14 16:42:14.351,28810800,29464220,19805380,21287440,-23574220,-19848630,-11816410
2026-01-14 16:42:14.361,6270912,29522050,19868390,-1230013,-20976560,-98339840,-7705078
2026-01-14 16:42:14.371,39939620,25212170,24247320,-34862470,-19394530,-12646480,-39208980
2026-01-14 16:42:14.381,29332160,29549670,19909820,21870940,-20683590,-12646480,-19445800
2026-01-14 16:42:14.391,29547950,7286859,-2344365,22103990,-23144530,-9897461,-6359863
2026-01-14 16:42:14.401,6320110,50572980,-45635660,-1110031,-25117190,-59277340,-8514404
2026-01-14 16:42:14.411,63365120,50509110,-45578700,-10815480,-27792970,-40698240,-7373047
2026-01-14 16:42:14.421,30177190,50446100,-45520860,22769490,-28066410,-4831543,-28027340
2026-01-14 16:42:14.431,30347240,72523330,-23340050,22944720,-29628910,-32910160,-45458980
2026-01-14 16:42:14.441,30484480,72445640,-23296890,23083690,-30078120,-27978520,-5341797
2026-01-14 16:42:14.451,30579430,72376590,-23262360,23178640,-29472660,-4946289,-5605469
2026-01-14 16:42:14.461,30650210,7231616,-2323649,23245960,-28867190,-6567383,-58154300
2026-01-14 16:42:14.471,30695960,29305400,19757040,23286530,-27695310,-8125,-5834961
2026-01-14 16:42:14.481,27370610,29302810,19759630,26629150,-26875,-11972660,-44213870
2026-01-14 16:42:14.491,3979977,50150030,-45247240,-3439807,-25546880,-14677730,-31323240
2026-01-14 16:42:14.501,3982569,29265690,19727690,-3442397,-24746090,-15488280,-25024410
2026-01-14 16:42:14.511,64141970,29239800,19701790,-10142220,-24101560,-19570310,-2454834
2026-01-14 16:42:14.521,64167860,29196640,19658630,-10168110,-24257810,-21699220,-21008300
2026-01-14 16:42:14.531,64202390,7205723,-2332282,-10202640,-25507810,-19140620,-20446780
2026-01-14 16:42:14.541,3994652,71996790,-23400470,-3454479,-26679690,-15664060,-27392580
2026-01-14 16:42:14.551,64288710,28983440,19440250,-10288960,-27871090,-1296875,-38061520
2026-01-14 16:42:14.561,64323240,71832790,-23616260,-10375270,-28222660,-11279300,-38989260
2026-01-14 16:42:14.571,64349130,71755110,-23745740,-10470220,-2765625,-11162110,-38793940
2026-01-14 16:42:14.581,40176990,28661480,19106210,-34797730,-27402340,-12265630,-36889650
2026-01-14 16:42:14.591,30601880,71556580,-24065110,23087140,-27128910,-12421880,-37402340
2026-01-14 16:42:14.601,40346170,28375770,18804960,-34991080,-26972660,-12011720,-43945310
2026-01-14 16:42:14.611,30474990,28215220,18637510,22920550,-2765625,-90625,-42993160
2026-01-14 16:42:14.621,30399890,28030500,18442430,22823010,-29804690,-52685550,-45385740
2026-01-14 16:42:14.631,3800793,23500680,22540670,-3800260,-33398440,2775879,-22644040
2026-01-14 16:42:14.641,64556290,27594600,17980640,-11713180,-37714840,21015620,2109375
2026-01-14 16:42:14.651,30123680,70719300,-25610180,22477750,-39707030,40898440,-33422850
2026-01-14 16:42:14.661,64435450,7064163,-2592958,-12231080,-37421880,29550780,-17919920
2026-01-14 16:42:14.671,29673110,27006780,17325500,21978830,-28046880,14245610,-18457030
2026-01-14 16:42:14.681,29411570,50730940,-46340870,21687950,-16943360,-8144531,-11308590
2026-01-14 16:42:14.691,29157800,26576060,16841260,21406550,-7241211,-16662600,-45507810
2026-01-14 16:42:14.701,28927330,26357680,16593530,21153650,16308590,6503906,284729
2026-01-14 16:42:14.711,28701180,26165190,16371700,20913680,7734375,11845700,24646000
2026-01-14 16:42:14.721,41432040,70218670,-28027050,-36511980,1109375,17558590,18652340
2026-01-14 16:42:14.731,28300670,70227300,-28311900,20502820,11933590,17773440,-61523440
2026-01-14 16:42:14.741,63192480,51500890,-47331790,-14768790,11640630,15556640,-14733890
2026-01-14 16:42:14.751,63011220,7027910,-2881256,-14950060,1125,1640625,-23010250
2026-01-14 16:42:14.761,27748240,70296350,-29054220,19950390,12128910,16533200,-32177730
2026-01-14 16:42:14.771,6266595,70304980,-29287270,-1532982,14453130,153125,-30322270
2026-01-14 16:42:14.781,27389170,25379710,15396320,19584410,18164060,12578130,-14367680
2026-01-14 16:42:14.791,6236383,52055900,-48002470,-1573552,22363280,10410160,8795166
2026-01-14 16:42:14.801,6222575,25150970,15124420,-1594269,25664060,91259770,2253418
2026-01-14 16:42:14.811,62096260,70235940,-30219490,-16141230,29375,5371094,20166020
2026-01-14 16:42:14.821,2673835,24928280,14863740,1890597,32597660,-11505130,19677730
2026-01-14 16:42:14.831,41472600,24822970,14744620,-36937520,34824220,-6616211,21606440
2026-01-14 16:42:14.841,6179417,20176110,19167060,-1671955,36308590,-8876953,33007810
2026-01-14 16:42:14.851,26356820,7007192,-3093593,18493360,36445310,-8100586,39990230
2026-01-14 16:42:14.861,26258420,70011510,-31082660,18384610,35683590,-67285150,38232420
2026-01-14 16:42:14.871,26178140,69951090,-31194870,18292250,34355470,-50927740,43847660
2026-01-14 16:42:14.881,26097000,24359450,14241400,18200750,32597660,-39404300,41625980
2026-01-14 16:42:14.891,6161288,69847510,-31367510,-1747048,30292970,-24157720,2783203
2026-01-14 16:42:14.901,41809240,69804350,-31410670,-37412260,29257810,-16799930,20983890
2026-01-14 16:42:14.911,41860170,6977848,-3145384,-37482180,28535160,3793335,19360350
2026-01-14 16:42:14.921,41911960,69752560,-31462460,-37551230,28515620,14884950,120910600
2026-01-14 16:42:14.931,25688730,24204940,14085170,17728600,28496090,-11682130,-45013430
2026-01-14 16:42:14.941,25599820,24204080,14086030,17627600,28828120,-49072260,-15905760
2026-01-14 16:42:14.951,61466160,69726660,-31419290,-18394100,29121090,-84716800,-748291
2026-01-14 16:42:14.961,61457520,69700780,-31393400,-18523570,29980470,-1015625,871582
2026-01-14 16:42:14.971,6147478,69666240,-31358870,-1860986,29902340,-10449220,15576170
2026-01-14 16:42:14.981,25433230,6964035,-3131573,17414400,2875,-11953130,3059082
2026-01-14 16:42:14.991,25462580,24215300,14126600,17436840,29863280,-11972660,2841797
2026-01-14 16:42:15.001,25516960,24218750,14140410,17486050,28808590,-1421875,5292969
2026-01-14 16:42:15.011,61759630,69536780,-31143090,-18583990,29707030,-15625,6220703
2026-01-14 16:42:15.021,42343540,24258460,14204280,-38000080,29121090,-14140630,64990230
2026-01-14 16:42:15.031,6201856,50394560,-50009080,-1829050,27910160,-15917970,7416992
2026-01-14 16:42:15.041,26065930,6945908,-3078920,18041930,28300780,-17119140,7636719
2026-01-14 16:42:15.051,62337950,24416420,14408850,-17815780,27402340,-18515620,9379883
2026-01-14 16:42:15.061,42266720,6945047,-3043530,-37766170,26855470,-19990230,10791020
2026-01-14 16:42:15.071,62717750,24602860,14636730,-17159770,25449220,-21484380,11425780
2026-01-14 16:42:15.081,62924900,24728880,14786920,-16762710,23789060,-24335940,12050780
2026-01-14 16:42:15.091,6314934,24862680,14946610,-1633112,21601560,-26445310,1171875
2026-01-14 16:42:15.101,27725800,69510870,-29373590,19800200,18837890,-2328125,13496090
2026-01-14 16:42:15.111,41911960,25187230,15329850,-37085130,15205080,-15351560,15302730
2026-01-14 16:42:15.121,28439640,25396110,15569810,20571000,11728520,-12382810,15869140
2026-01-14 16:42:15.131,6405565,69700770,-28251470,-1428539,9038086,-11660160,15966800
2026-01-14 16:42:15.141,64254180,25882080,16119650,-13707100,66796880,-9946289,15927730
2026-01-14 16:42:15.151,41340540,26159150,16429530,-36206420,27294920,-8491211,11748050
2026-01-14 16:42:15.161,64625340,26444000,16748900,-12507290,-18884280,-13476560,21057130
2026-01-14 16:42:15.171,6480661,7017551,-2639566,-1194624,-74853520,-21074220,-4741211
2026-01-14 16:42:15.181,65022410,26957580,17340170,-11419710,-14765630,-14794920,-49438480
2026-01-14 16:42:15.191,30998070,2714402,1756803,23381480,-25078120,7944336,-19726560
2026-01-14 16:42:15.201,65540300,70192780,-25152700,-10366640,-39375,40507810,-2479248
2026-01-14 16:42:15.211,40603400,7017553,-2482471,-35010070,-53554690,78085940,-10556640
2026-01-14 16:42:15.221,65885570,70244570,-24513960,-9399890,-60195310,90703130,-22460940
2026-01-14 16:42:15.231,40302150,70399940,-24237740,-34620780,-53984380,61992190,-24960940
2026-01-14 16:42:15.241,65816520,49619180,-44966710,-8761148,-43710940,32460940,-17041020
2026-01-14 16:42:15.251,65773360,28120270,18663400,-8459038,-37753900,22285160,-9379883
2026-01-14 16:42:15.261,39824820,49639040,-44946860,-34062310,-38339840,33652340,-64501950
2026-01-14 16:42:15.271,32626000,7084877,-2380617,25275270,-42695310,5015625,-10498050
2026-01-14 16:42:15.281,6559210,28312750,18833450,-750091,3,-46679690,546875,-15537110
2026-01-14 16:42:15.291,32697640,28385260,18881780,25428050,-4859375,47304690,-17802730
2026-01-14 16:42:15.301,39051420,50039540,-45305930,-33247480,-47421880,32890620,-17226560
2026-01-14 16:42:15.311,64892930,28462950,18890420,-7060704,-44453120,18183590,-14101560
2026-01-14 16:42:15.321,32342880,71737850,-24419010,25178600,-39316410,2175293,-11435550
2026-01-14 16:42:15.331,64254180,28448270,18784250,-7129762,-3265625,-20253910,-8198242
2026-01-14 16:42:15.341,31896630,28394750,18682390,24778950,-24335940,-46367190,-27075200
2026-01-14 16:42:15.351,3834795,28279960,18520980,-3272526,-1765625,-70117180,16711430
2026-01-14 16:42:15.361,38336720,28109910,18311230,-32753750,-13164060,-86796870,47631840
2026-01-14 16:42:15.371,31312260,27875990,18044510,24189410,-10380860,-946875,6640625
2026-01-14 16:42:15.381,31186240,27595460,17738090,24039210,-8066406,-96328130,91552740
2026-01-14 16:42:15.391,6340828,7170333,-2704304,-838998,3,-609375,-9625,12841800
2026-01-14 16:42:15.401,63529120,71401210,-27483250,-8666198,-6743164,-91015620,14355470
2026-01-14 16:42:15.411,27734430,71038680,-27914840,27007650,-10566410,-79453130,10693360
2026-01-14 16:42:15.421,6390893,26096140,16199070,-930493,3,-17382810,-66210940,5966797
2026-01-14 16:42:15.431,30899670,25656790,15757980,23514410,-24316410,-47617190,32617190
2026-01-14 16:42:15.441,30804720,25198440,15301370,23350400,-29726560,-24414060,40008540
2026-01-14 16:42:15.451,64547660,24733200,14834390,-10737800,-31230470,-1315918,-36083980
2026-01-14 16:42:15.461,40680220,51459460,-47597640,-35347570,-23535160,20527340,-7159424
2026-01-14 16:42:15.471,30247980,68406020,-30771920,22577870,-4038086,52773440,9370117
2026-01-14 16:42:15.481,64754820,23297750,13352330,-12429610,16904300,90234380,10878910
2026-01-14 16:42:15.491,29758560,67793170,-32075310,22014230,315625,92109380,15332030
2026-01-14 16:42:15.501,6443546,22359490,12322580,-1319782,32578120,61132810,-76708980
2026-01-14 16:42:15.511,64375020,21724200,11645850,-13568990,21015620,59179690,-19384770
2026-01-14 16:42:15.521,64426820,20955120,10843970,-13983310,12539060,9046875,-17119140
2026-01-14 16:42:15.531,41947350,20090220,9948002,-36928900,14853520,138984400,-13745120
2026-01-14 16:42:15.541,28910930,19265030,9081382,20997410,25117190,133125,96240230
2026-01-14 16:42:15.551,28856550,64539020,-37832630,20948210,34394530,7453125,21425780
2026-01-14 16:42:15.561,28923010,64012500,-38997900,21054380,23710940,48671880,19970700
2026-01-14 16:42:15.571,64150600,16834360,6453901,-13810680,-7163086,63125,-14101560
2026-01-14 16:42:15.581,29099960,63209750,-41544250,21395330,-41445310,72460940,-5703125
2026-01-14 16:42:15.591,40557650,63071650,-42787220,-35539190,-63984380,29179690,-75507810
2026-01-14 16:42:15.601,62312060,63045750,-44038800,-12956140,-8484375,-56171880,-73945310
2026-01-14 16:42:15.611,27763780,14203420,3370668,20297380,-99296870,-150625,-52578120
2026-01-14 16:42:15.621,27015410,13307450,2350403,19595630,-996875,-185,-19892580
2026-01-14 16:42:15.631,26238560,12180160,1095358,18870570,-86875,-9625,-10351560
2026-01-14 16:42:15.641,25308070,61578360,-50564350,17988410,-721875,31796880,-27578120
2026-01-14 16:42:15.651,24119490,10414110,-919274,7,16829180,-56914060,108359400,-31738280
2026-01-14 16:42:15.661,22709930,61656050,-52748160,15424810,-12714840,56835940,-13317870
2026-01-14 16:42:15.671,5428460,10158620,-1354310,-1875662,31132810,-19882810,25839840
2026-01-14 16:42:15.681,53525010,62165320,-53240160,-20016850,44648440,-6171875,34667970
2026-01-14 16:42:15.691,16461380,103442000,-11773600,15717510,571875,-74101560,45898440
2026-01-14 16:42:15.701,53386910,6215670,-5267913,-21777720,79726560,-36855470,70625
2026-01-14 16:42:15.711,19630150,10664430,-772535,2,12048090,20585940,-10869140,65820310
2026-01-14 16:42:15.721,19797610,10874180,-498911,2,12139590,-5463867,-11875,63476560
2026-01-14 16:42:15.731,16483570,59870160,48543680,15712580,33105470,-22734380,85546870
2026-01-14 16:42:15.741,20134240,11269510,-65601,66,12458960,119921900,12539060,99921870
2026-01-14 16:42:15.751,54310500,11516380,119114,9,-21251180,138984400,525,871875
2026-01-14 16:42:15.761,5384439,11819350,351308,8,-2040527,66601560,56640620,53320310
2026-01-14 16:42:15.771,38531800,12133550,641331,4,-35182710,-53808590,43242190,16757810
2026-01-14 16:42:15.781,53749440,12553050,1102262,-20655600,39804690,33339840,31074220
2026-01-14 16:42:15.791,54025650,13183160,1801428,-21363390,130703100,-14179690,778125
2026-01-14 16:42:15.801,20217970,13967780,2656829,12616920,137421900,-61054690,953125
2026-01-14 16:42:15.811,20689260,65367670,-47016740,13060590,71679690,-46210940,74492190
2026-01-14 16:42:15.821,21311600,15651810,4494512,13663940,75097660,-6459961,42539060
2026-01-14 16:42:15.831,56433890,66377580,-44245960,-20353490,-39667970,28759770,10742190
2026-01-14 16:42:15.841,57072630,17581860,6621356,-20180860,-57421880,-16289060,-12871090
2026-01-14 16:42:15.851,57607790,55610430,-52993300,-20111800,-5453125,-27578120,-27910160
2026-01-14 16:42:15.861,22872210,6782769,-3986108,15055370,-53046880,-28144530,-4359375
2026-01-14 16:42:15.871,2305605,68207490,-38652640,1519955,-4875,-28828120,-57304690
2026-01-14 16:42:15.881,58695380,20765220,10153440,-20232650,-37246100,-29257810,-64101560
2026-01-14 16:42:15.891,58945700,21303840,10754200,-20293060,-27402340,-28046880,-65039060
2026-01-14 16:42:15.901,23404790,6895844,-3598546,15455010,-20742190,-22695310,-65234380
2026-01-14 16:42:15.911,23510960,22088460,11644130,15538740,-11005860,-20390620,-63671880
2026-01-14 16:42:15.921,5960170,69174240,-34837440,-2034482,22729490,-22734380,-57890620
2026-01-14 16:42:15.931,23758690,22588230,12231950,15739860,14511720,-14794920,-50273440
2026-01-14 16:42:15.941,23916640,69182870,-33948380,15875380,22421880,-119018600,-43515620
2026-01-14 16:42:15.951,42315920,22968020,12698060,-38303920,31230470,14599610,-34921880
2026-01-14 16:42:15.961,20645150,69200140,-33050680,19837400,36132810,27792970,-27597660
2026-01-14 16:42:15.971,24492380,23450530,13268610,16404500,4109375,38144530,-18154300
2026-01-14 16:42:15.981,6112089,23756100,13619060,-1977516,43007810,46875,-13681640
2026-01-14 16:42:15.991,6132806,24114310,14020430,-1951621,39003900,50585940,-15615230
2026-01-14 16:42:16.001,42484240,6974395,-3078057,-38256440,35546880,521875,-17207030
2026-01-14 16:42:16.011,25393520,6995972,-3013319,17333270,34765620,51992190,-16513670
2026-01-14 16:42:16.021,61811420,2533743,1536953,-18635790,37578120,47460940,-12363280
2026-01-14 16:42:16.031,25825110,25756920,15830490,17799380,41445310,40546880,-83203130
2026-01-14 16:42:16.041,62070370,26177280,16290560,-17962520,44765620,36640620,-36865230
2026-01-14 16:42:16.051,6219120,70900570,-27569570,-1758269,44179690,32382810,-24060060
2026-01-14 16:42:16.061,6231205,71142260,-26930830,-1718563,39980470,29140620,-17565920
2026-01-14 16:42:16.071,62424270,27412470,17644870,-16797240,36269530,27832030,-10910030
2026-01-14 16:42:16.081,62510580,27824200,18096300,-16417440,3359375,2234375,8831787
2026-01-14 16:42:16.091,6259689,71832790,-25066380,-1607215,30292970,10947270,3515625
2026-01-14 16:42:16.101,6267457,50629090,-45873030,-1575278,26914060,15222170,-16577150
2026-01-14 16:42:16.111,6275228,28958400,19344440,-1546795,24394530,-46533200,-33447270
2026-01-14 16:42:16.121,62829960,7236797,-2340913,-15234910,22714840,-98095700,-4584961
2026-01-14 16:42:16.131,27840600,29535860,19992680,20047930,21796880,-14179690,-48120120
2026-01-14 16:42:16.141,41327590,7257514,-2256322,-36512850,20136720,-15244140,-5415039
2026-01-14 16:42:16.151,63071650,72635540,-22243830,-14699730,178125,-14394530,-68359380
2026-01-14 16:42:16.161,41287890,30075340,20609850,-36431710,15185550,-13486330,-8144531
2026-01-14 16:42:16.171,63218380,7267871,-2180364,-14501220,13925780,-125,-79003900
2026-01-14 16:42:16.181,28297220,30198770,20762630,20523540,13476560,-14462890,-81591800
2026-01-14 16:42:16.191,63330590,72626900,-21665510,-14440790,12275390,-19228520,-10126950
2026-01-14 16:42:16.201,28363680,49664060,-44576560,20577910,1109375,-22285160,-10302730
2026-01-14 16:42:16.211,6346869,72454270,-21786350,-1450982,10419920,-22128910,-8486328
2026-01-14 16:42:16.221,2838354,29911340,20480370,2057533,10371090,-21230470,-5205078
2026-01-14 16:42:16.231,63563650,72229860,-22183410,-14622050,10498050,-20722660,-2541504
2026-01-14 16:42:16.241,6358955,7211765,-2245099,-1468248,11367190,-20234380,2508545
2026-01-14 16:42:16.251,28353320,49841880,-44916640,20519220,13056640,-21308590,35327150
2026-01-14 16:42:16.261,63589550,71901860,-23081100,-14768790,14541020,-23164060,6298828
2026-01-14 16:42:16.271,63563650,71815540,-23409100,-14794690,1546875,-23339840,8671875
2026-01-14 16:42:16.281,24750200,28778000,19231370,23966970,16992190,-24257810,10976560
2026-01-14 16:42:16.291,6346008,28609690,19037160,-1479468,19023440,-25878910,14501950
2026-01-14 16:42:16.301,28232480,71651530,-24332690,20415640,20566410,-26542970,16982420
2026-01-14 16:42:16.311,6335648,71617000,-24591640,-1469108,21855470,-27382810,17949220
2026-01-14 16:42:16.321,28254920,28220400,18580540,20462250,22988280,-28085940,18789060
2026-01-14 16:42:16.331,63296070,71582480,-24971440,-14475310,23242190,-28164060,18837890
2026-01-14 16:42:16.341,41247320,28071070,18401870,-36351430,21914060,-25820310,18134770
2026-01-14 16:42:16.351,6327017,71591100,-25204490,-1413865,20273440,-20371090,16015630
2026-01-14 16:42:16.361,6326155,28027910,18341450,-1395741,18896480,-14677730,12841800
2026-01-14 16:42:16.371,63244280,28057260,18363890,-13767520,18232420,-10126950,92578130
2026-01-14 16:42:16.381,38641680,23755920,22786060,-38145700,17988280,-7807617,5917969
2026-01-14 16:42:16.391,63114800,28217810,18514070,-13430880,19287110,-8256836,5859375
2026-01-14 16:42:16.401,28708090,72014060,-25057750,21079420,19638670,-46972660,76904300
2026-01-14 16:42:16.411,28763330,28454310,18743680,21162280,17695310,-11151120,7001953
2026-01-14 16:42:16.421,6288174,72307540,-24833330,-1281800,16669920,-21252440,59814450
2026-01-14 16:42:16.431,62829960,72445650,-24695230,-12559080,16318360,-14587400,6689453
2026-01-14 16:42:16.441,6279542,72575120,-24565750,-1226558,13886720,37060550,44848630
2026-01-14 16:42:16.451,3990769,7268734,-2441901,-3482535,11298830,47070310,18493650
2026-01-14 16:42:16.461,29289000,29107730,19402280,21845040,96533200,6425781,13781740
2026-01-14 16:42:16.471,62829960,7284271,-2410830,-11333390,578125,12236330,-64331060
2026-01-14 16:42:16.481,6289902,7289450,-2393564,-1102265,15722660,13144530,-47753900
2026-01-14 16:42:16.491,62985330,72929020,-23745740,-10729170,-11779790,11962890,-67529300
2026-01-14 16:42:16.501,63097540,25177640,24212790,-10444320,-5024414,13515630,-6958008
2026-01-14 16:42:16.511,30203090,72920380,-23340050,22864450,-10390630,18222660,-91259770
2026-01-14 16:42:16.521,39299150,50506520,-45529490,-33949230,-16494140,275,-10654300
2026-01-14 16:42:16.531,6351185,72894490,-22899830,-959839,2,-21992190,371875,-12939450
2026-01-14 16:42:16.541,30784870,29906160,20347440,23491100,-25839840,4578125,-15107420
2026-01-14 16:42:16.551,6366722,72972180,-22425090,-906322,4,-2875,51640620,-16347660
2026-01-14 16:42:16.561,31062810,25922470,24969880,23817380,-28847660,53828120,-17763670
2026-01-14 16:42:16.571,31160340,73222500,-21950350,23944270,-29101560,48320310,-19580080
2026-01-14 16:42:16.581,31230260,73377860,-21725930,24046980,-26328120,34335940,-221875
2026-01-14 16:42:16.591,6347733,73524600,-21527390,-806195,2,-22050780,19697270,-22597660
2026-01-14 16:42:16.601,6341692,26620430,25670250,-788070,5,-18369140,7133789,-19804690
2026-01-14 16:42:16.611,38328090,30997210,21500640,-32762380,-15175780,-14831540,-15800780
2026-01-14 16:42:16.621,6338239,7376630,-2114761,-755271,3,-15263670,-47583010,-10410160
2026-01-14 16:42:16.631,31559130,73766290,-21095820,24477710,-16953120,-36157230,-6972656
2026-01-14 16:42:16.641,31675660,26800480,25852730,24602860,-18583980,-19958500,-47045900
2026-01-14 16:42:16.651,63606810,49975670,-44713800,-7069336,-20644530,-5917969,-43164060
2026-01-14 16:42:16.661,6373628,73559130,-21026760,-692257,2,-2171875,-11201170,-5551758
2026-01-14 16:42:16.671,38193430,30929880,21481650,-32482710,-2203125,-13388670,-6459961
2026-01-14 16:42:16.681,64064290,73291540,-21052660,-6680914,-23710940,-13994140,-6147461
2026-01-14 16:42:16.691,64245550,4970551,-4450063,-6603232,-24570310,-13330080,-56640620
2026-01-14 16:42:16.701,29305400,30633810,21225280,28595880,-25117190,-9067383,-50878900
2026-01-14 16:42:16.711,32607010,30541450,21145010,25501420,-25214840,-77490230,-40649420
2026-01-14 16:42:16.721,64711660,72704590,-21173500,-6430596,-2359375,-11083980,-22436520
2026-01-14 16:42:16.731,3853612,30386950,21006040,-3269245,-22539060,-14199220,18707280
2026-01-14 16:42:16.741,32851290,7250606,-2121667,25723250,-22773440,-15019530,14709470
2026-01-14 16:42:16.751,65005140,30293730,20926630,-6309754,-23535160,-14580080,14160160
2026-01-14 16:42:16.761,65065560,30256610,20894690,-6266592,-24375,-13798830,58624270
2026-01-14 16:42:16.771,65108720,49348150,-44236470,-6223432,-25957030,-11787110,-11480710
2026-01-14 16:42:16.781,38611200,7234208,-2122531,-32720950,-28203120,-10634770,-34594730
2026-01-14 16:42:16.791,33010980,7234205,-2122530,25874310,-30214840,-9355469,-4794922
2026-01-14 16:42:16.801,32978170,49348140,-44236470,25838060,-31328120,-9736328,-5961914
2026-01-14 16:42:16.811,32921200,49356780,-44245100,25774180,-31621090,-12626950,-6591797
2026-01-14 16:42:16.821,65048300,30222940,20859300,-6508282,-31503910,-15087890,-70751950
2026-01-14 16:42:16.831,29542160,30191000,20822180,28825220,-31132810,-16259770,-6743164
2026-01-14 16:42:16.841,65013770,72324800,-21432450,-6836280,-30078120,-17158200,-61376950
2026-01-14 16:42:16.851,32595790,30058940,20678040,25391800,-28710940,-178125,-53466800
2026-01-14 16:42:16.861,65013770,29951050,20561510,-7233338,-27304690,-16142580,-40307620
2026-01-14 16:42:16.871,32417980,72134900,-21864030,25172560,-25253910,-13212890,-32080080
2026-01-14 16:42:16.881,65022410,29702450,20292200,-7639032,-24238280,-9482422,-35888670
2026-01-14 16:42:16.891,6501376,71962270,-22278350,-785479,4,-2515625,-49682620,-4194336
2026-01-14 16:42:16.901,32113280,7187595,-2250279,24803980,-26660160,24389650,-5810547
2026-01-14 16:42:16.911,31977770,29250150,19795020,24646020,-28242190,49902340,-96777340
2026-01-14 16:42:16.921,64927460,29095650,19621520,-8666198,-29257810,4140625,-12597660
2026-01-14 16:42:16.931,28292990,71634260,-23296890,27553950,-30371090,55029300,-14990230
2026-01-14 16:42:16.941,31403760,7153068,-2360765,23977070,-29414060,66064450,-16484380
2026-01-14 16:42:16.951,31164660,7140984,-2395291,23698260,-25390620,4645996,-15488280
2026-01-14 16:42:16.961,30899670,28267010,18706560,23393570,-19824220,34472660,-12802730
2026-01-14 16:42:16.971,64599460,7115090,-2469526,-10858650,-13681640,6176758,-7714844
2026-01-14 16:42:16.981,30385220,27783630,18171400,22803160,-8984375,13242190,-21191410
2026-01-14 16:42:16.991,26715810,27547990,17906410,25954670,-5498047,25566410,35620120
2026-01-14 16:42:17.001,6422828,70883310,-25860490,-1207568,-31762700,4234375,55566410
2026-01-14 16:42:17.011,29620450,70909200,-26179870,21979700,19973760,46523440,52001950
2026-01-14 16:42:17.021,29303670,2714316,1739627,21657730,74365230,30800780,-29003910
2026-01-14 16:42:17.031,40762220,71125000,-26723670,-35731670,16152340,16152340,-8872986
2026-01-14 16:42:17.041,63097540,27043040,17220190,-13396360,22148440,13154300,40771480
2026-01-14 16:42:17.051,6280407,7135806,-2721567,-1367257,25273440,16542970,56689450
2026-01-14 16:42:17.061,62510580,26973980,17082080,-13931530,26992190,16953120,53564450
2026-01-14 16:42:17.071,27842330,71608370,-27621360,20201570,28632810,12099610,4453125
2026-01-14 16:42:17.081,61958160,7172059,-2781992,-14414900,30410160,42285160,42382810
2026-01-14 16:42:17.091,23911720,71806900,-28009790,23148170,31738280,-36157230,39257810
2026-01-14 16:42:17.101,61509310,26824660,16817090,-14863740,32441410,-88916020,40844730
2026-01-14 16:42:17.111,40535200,52313130,-47969670,-35906900,32304690,-9506836,39697260
2026-01-14 16:42:17.121,6122447,26620080,16572820,-1528668,31035160,-7792969,33325200
2026-01-14 16:42:17.131,26636490,21978920,20972290,18973280,29785160,-66015620,28637700
2026-01-14 16:42:17.141,6102594,7174648,-2907148,-1572691,28300780,-63134770,33666990
2026-01-14 16:42:17.151,26330060,52606600,-48366720,18640970,278125,-6748047,23205570
2026-01-14 16:42:17.161,40747550,26126360,16013480,-36281520,25683590,-8071289,3569336
2026-01-14 16:42:17.171,60758360,7155659,-2969299,-16426080,2515625,-7421875,35888670
2026-01-14 16:42:17.181,2587777,25870850,15733810,1814379,246875,-53222660,23632810
