Timestamp,Rotation X,Rotation Y,Rotation Z,Rotation W,Acceleration X,Acceleration Y,Acceleration Z
2026-01-14 16:41:57.811,-50971940,6894121,-11301450,-51814040,74179690,-35878900,7373047
2026-01-14 16:41:57.821,-932222,-12956140,-31151710,-9348104,7421875,-36171880,76123050
2026-01-14 16:41:57.851,41513260,-12990670,-31186240,-42541990,74257810,-3625,6855469
2026-01-14 16:41:57.861,3686674,9095575,-9099995,-4715397,74101560,-3640625,68115230
2026-01-14 16:41:57.871,-9443048,-13007930,-31203500,-93446500,740625,-36230470,67089840
2026-01-14 16:41:57.881,-47254100,-13016560,-31212130,-55652720,74140620,-36132810,6977539
2026-01-14 16:41:57.891,-51411430,6885489,-11310080,-51495400,74140620,-36230470,71484380
2026-01-14 16:41:57.901,-47255830,-13033830,-31229400,-55651000,74492190,-3625,7182617
2026-01-14 16:41:57.931,-950349,-13059720,-31238030,-9342062,74921870,-35722660,7265625
2026-01-14 16:41:57.941,-951211,5,6873403,-11304900,-9341198,74648440,-35214840,7089844
2026-01-14 16:41:57.951,36794240,-13068350,-31263930,-47088370,74726560,-35273440,6855469
2026-01-14 16:41:57.961,-47286040,-13068350,-31263920,-55672580,75,-34960940,6845703
2026-01-14 16:41:57.971,-47286900,-13076990,-31272560,-55671710,7484375,-35097660,72314460
2026-01-14 16:41:57.981,36766620,-13076990,-31272560,-47064210,74375,-35,73046870
2026-01-14 16:41:58.031,36731230,-13076980,-31307080,-47030540,73867180,-35429690,7138672
2026-01-14 16:41:58.041,36731230,-13085620,-31315720,-47030540,73984380,-35371100,75097660
2026-01-14 16:41:58.051,36731230,-13085620,-31315720,-47030540,73828130,-35527340,75878900
2026-01-14 16:41:58.061,-47317980,6894121,-11335980,-55692420,73789060,-35371100,7294922
2026-01-14 16:41:58.071,-962432,3,6894119,-11335980,-9336882,73945310,-3546875,7163086
2026-01-14 16:41:58.081,-962433,-13102880,-31332980,-9336883,73828130,-35371100,7402344
2026-01-14 16:41:58.151,-4731022,-13094250,-31376140,-5568294,74257810,-34707030,75390620
2026-01-14 16:41:58.161,-4731022,6916561,-11365330,-5568293,74101560,-34746100,72216800
2026-01-14 16:41:58.171,-4730158,6916561,-11365330,-5567429,73945310,-34785160,7055664
2026-01-14 16:41:58.181,-4730158,6925193,-11373960,-5567429,73789060,-35078120,70654300
2026-01-14 16:41:58.211,36706200,-21336640,-23168280,-47003790,7359375,-35332030,64453120
2026-01-14 16:41:58.221,-4730159,-21336640,-23168280,-5567431,73867180,-35351560,7128906
2026-01-14 16:41:58.251,-959843,5,-13076990,-31427930,-9334294,7359375,-34824220,66748050
2026-01-14 16:41:58.261,-958980,5,-13068360,-31436560,-9333431,73671870,-34746100,6113281
2026-01-14 16:41:58.271,36734680,-13059720,-31445190,-47027090,73671870,-34804690,65234380
2026-01-14 16:41:58.281,-47263600,-13051090,-31453820,-55643230,73632820,-34492190,7416992
2026-01-14 16:41:58.291,-9537996,-13042460,-31462450,-93351550,73828130,-34667970,7963867
2026-01-14 16:41:58.301,41401050,-21330590,-23174320,-42429780,7375,-35253900,7963867
2026-01-14 16:41:58.331,-47225620,-1299928,-3148833,-55612160,74023440,-35136720,86328130
2026-01-14 16:41:58.341,-47225620,7028775,-11477540,-55612160,73710940,-35039060,8515625
2026-01-14 16:41:58.351,-947758,5,7037405,-11486170,-9334293,73671870,-35273440,7680664
2026-01-14 16:41:58.361,-947758,5,7046037,-11494800,-9334293,74140620,-35117190,7714844
2026-01-14 16:41:58.431,36801140,7063302,-11512070,-47081460,7375,-34863280,90234380
2026-01-14 16:41:58.441,-946895,7063300,-11512060,-9333430,73359380,-35058590,8911133
2026-01-14 16:41:58.471,36774390,7060712,-11514660,-47056440,73554690,-35332030,82958980
2026-01-14 16:41:58.481,36765760,-13007930,-31566040,-47047810,7359375,-35390620,8051758
2026-01-14 16:41:58.491,-47229080,-13025200,-31566030,-55608700,73789060,-35292970,7290039
2026-01-14 16:41:58.501,-47229940,7039997,-11500840,-55607840,7390625,-35527340,67333980
2026-01-14 16:41:58.511,-9538004,-13059720,-31583300,-93299780,73789060,-35117190,65966800
2026-01-14 16:41:58.521,-47231660,7028775,-11494800,-55606110,73398440,-35175780,62402340
2026-01-14 16:41:58.571,-47234250,-13102880,-31643720,-55603520,73984380,-34921880,61621100
2026-01-14 16:41:58.581,-47234250,-13111510,-31652350,-55603520,73945310,-3453125,6503906
2026-01-14 16:41:58.591,-47234250,7039996,-11518100,-55603520,74023440,-34355470,66552740
2026-01-14 16:41:58.601,-47234250,7048628,-11526740,-55603520,740625,-34277340,67333980
2026-01-14 16:41:58.611,-956390,7057258,-11535370,-9325662,74101560,-33984380,7236328
2026-01-14 16:41:58.621,-956389,8,-1308562,-3169551,-9325662,73710940,-33789060,74072260
2026-01-14 16:41:58.651,-955526,5,7091784,-11569900,-9324798,7296875,-34355470,89746100
2026-01-14 16:41:58.661,-955527,5,-13059720,-31738670,-9324799,72773440,-34492190,9057617
2026-01-14 16:41:58.671,-957254,5,-13059720,-31738670,-9324799,72617180,-34316410,9301758
2026-01-14 16:41:58.681,36688070,-13051090,-31747300,-46970120,7265625,-34550780,89697260
2026-01-14 16:41:58.691,36688070,-13059720,-31755930,-46970120,728125,-34628900,8569336
2026-01-14 16:41:58.701,36679440,-13059720,-31755930,-46961490,728125,-346875,8256836
2026-01-14 16:41:58.751,-953801,5,-13068360,-31799090,-9323073,7296875,-34570310,7602539
2026-01-14 16:41:58.761,-952937,7121132,-11609600,-9322208,7296875,-34453120,72314460
2026-01-14 16:41:58.771,-50939830,-13085620,-31816350,-51777100,72773440,-34277340,66845700
2026-01-14 16:41:58.781,-947759,3,-13085620,-31833620,-9322209,72695310,-34589840,6777344
2026-01-14 16:41:58.791,-47143620,-13085620,-31833610,-55521520,72617180,-34453120,66552740
2026-01-14 16:41:58.801,3676660,-13085620,-31850880,-4702969,72617180,-34589840,6455078
2026-01-14 16:41:58.831,-929632,5,-13085620,-31902670,-9321346,72890620,-35136720,5864258
2026-01-14 16:41:58.841,-925316,7175511,-11676070,-9320482,72695310,-35136720,5595703
2026-01-14 16:41:58.851,36881420,-13068350,-31954460,-47122040,73007810,-35292970,5683594
2026-01-14 16:41:58.861,36909900,-13059720,-31980350,-47145340,7328125,-35253900,62060550
2026-01-14 16:41:58.871,-910643,-21580910,-23476430,-9319620,7328125,-35371100,62353520
2026-01-14 16:41:58.881,-46918330,7249745,-11757200,-55332490,73320310,-35058590,62890620
2026-01-14 16:41:58.931,-8787048,7359369,-11872000,-93187560,7375,-35390620,8857422
2026-01-14 16:41:58.941,-876117,-12930250,-32213410,-9317894,74023440,-35292970,9604492
2026-01-14 16:41:58.951,-8726620,-12921610,-32239300,-93178930,74179690,-35253900,9536133
2026-01-14 16:41:58.961,41716710,9450218,-9902000,-42735590,740625,-35097660,9707031
2026-01-14 16:41:58.971,37141230,-12912980,-32282470,-47328340,73828130,-34765620,96240230
2026-01-14 16:41:58.981,-8692096,-12904350,-32308360,-93161660,73359380,-34707030,89404300
2026-01-14 16:41:58.991,37142960,-12895720,-32334250,-47326610,73164060,-34511720,87353520
2026-01-14 16:41:59.001,37143820,7474169,-11998890,-47325740,7359375,-34121100,87109380
2026-01-14 16:41:59.031,-8666200,-12904350,-32429200,-93118500,73359380,-33261720,8334961
2026-01-14 16:41:59.041,37137780,-1290433,-3244648,-47314520,73320310,-33144530,83154300
2026-01-14 16:41:59.071,-8640304,-12930240,-32506880,-93092610,72109380,-32871090,8535156
2026-01-14 16:41:59.081,37140370,-21747500,-23706890,-47311940,7203125,-325,875
2026-01-14 16:41:59.091,-864032,-12938880,-32550040,-9307536,72148440,-32832030,8671875
2026-01-14 16:41:59.101,-863169,-12938880,-32567310,-9306672,72734380,-33164060,86083980
2026-01-14 16:41:59.131,-865758,5,-12956140,-32619100,-9304083,72890620,-3390625,6665039
2026-01-14 16:41:59.141,-865757,5,7560484,-12119730,-9304082,72773440,-33847660,6015625
2026-01-14 16:41:59.171,-864031,5,7592422,-12156850,-9302356,73007810,-34179690,6254883
2026-01-14 16:41:59.181,4168338,-12947510,-32714050,-4269987,73242190,-34121100,63134770
2026-01-14 16:41:59.191,-862305,5,-12930250,-32731310,-9300630,734375,-33554690,65771480
2026-01-14 16:41:59.201,37118790,-12930250,-32748570,-47281720,73320310,-3359375,76708980
2026-01-14 16:41:59.211,-46586880,-12912980,-32765830,-55025200,73242190,-33691410,8339844
2026-01-14 16:41:59.221,-46586880,-12912980,-32783100,-55025200,73164060,-33847660,8413086
2026-01-14 16:41:59.251,-8631672,-12904350,-32843520,-92980400,72929690,-33886720,86572260
2026-01-14 16:41:59.261,-46590330,7689962,-12266470,-55021740,72734380,-34042970,83935540
2026-01-14 16:41:59.271,37067000,7698592,-12275110,-47229940,72382820,-34140620,8408203
2026-01-14 16:41:59.281,37058370,-12895720,-32886680,-47221300,72460940,-34296880,8540039
2026-01-14 16:41:59.311,-873527,5,-12904350,-32947100,-9292862,72578130,-34375,8300781
2026-01-14 16:41:59.321,-46632620,-21931360,-23937360,-55048500,7296875,-34296880,8520508
2026-01-14 16:41:59.351,-8838832,7741753,-12335530,-92894080,72578130,-33554690,77197260
2026-01-14 16:41:59.361,-46665420,-12938880,-33033420,-55067490,72382820,-33398440,7651367
2026-01-14 16:41:59.371,-888199,5,7747792,-12346750,-9286819,72265620,-33320310,77978510
2026-01-14 16:41:59.381,-890790,5,-12964780,-33059310,-9285956,71953130,-33203120,76171870
2026-01-14 16:41:59.391,-46696500,7744341,-12350200,-55088210,71992190,-32851560,72802740
2026-01-14 16:41:59.401,-8959680,-12982030,-33093840,-92842290,72070310,-32988280,73339840
2026-01-14 16:41:59.431,-46737930,-13016560,-33145630,-55115830,71953130,-32910160,6870117
2026-01-14 16:41:59.441,-906326,3,7764192,-12382140,-9280776,71992190,-33222660,68310540
2026-01-14 16:41:59.451,41345550,-13016570,-33180160,-42364440,72226560,-33144530,69433590
2026-01-14 16:41:59.461,-46769000,-13025200,-33188790,-55136540,7203125,-33222660,67578130
2026-01-14 16:41:59.491,36697560,-13025200,-33240580,-46891570,721875,-33457030,66748050
2026-01-14 16:41:59.501,-918410,8,7810803,-12439110,-9275598,72304690,-33476560,6616211
2026-01-14 16:41:59.531,-9244524,-12999300,-33318260,-92730080,721875,-33144530,80029300
2026-01-14 16:41:59.541,36634550,-12990670,-33326900,-46833740,71796870,-33476560,7861328
2026-01-14 16:41:59.551,-928769,5,-22149740,-24185090,-9272146,715625,-334375,76953130
2026-01-14 16:41:59.561,-46843230,7876406,-12511610,-55183150,71523440,-33359380,7661133
2026-01-14 16:41:59.571,-46844090,7885037,-12520240,-55182290,71796870,-33125,8125
2026-01-14 16:41:59.581,36571540,-12973410,-33395950,-46775910,71796870,-33398440,8647461
2026-01-14 16:41:59.591,-937401,5,-12973410,-33413210,-9268693,71757810,-32949220,84472660
2026-01-14 16:41:59.601,-9391260,-12956140,-33430470,-92686930,71640620,-33105470,81591800
2026-01-14 16:41:59.651,-46916610,7957543,-12603110,-55230640,71835940,-328125,82373050
2026-01-14 16:41:59.661,-952938,3,-12947510,-33525420,-9263514,71757810,-32519530,78759770
2026-01-14 16:41:59.691,36390280,-12938880,-33568580,-46611910,71132820,-32480470,81103520
2026-01-14 16:41:59.701,-4696753,-1293888,-3358584,-5526602,70859380,-32929690,8144531
2026-01-14 16:41:59.711,-9650212,8005882,-12658350,-92600610,70703130,-32558590,7558594
2026-01-14 16:41:59.721,-46988250,-12930250,-33611740,-55279830,70742190,-32558590,71972660
2026-01-14 16:41:59.731,36335030,-22244690,-24314570,-46563570,71015620,-32714840,7265625
2026-01-14 16:41:59.741,-971064,8,-12921620,-33637640,-9257472,71445310,-32695310,71484380
2026-01-14 16:41:59.771,-47019320,8055082,-12712730,-55300550,71328130,-32773440,6928711
2026-01-14 16:41:59.781,-47019320,8063713,-12721360,-55300550,7109375,-32773440,72998050
2026-01-14 16:41:59.791,-47020180,-1287843,-3369804,-55299680,71210940,-32851560,76416020
2026-01-14 16:41:59.801,-47020180,8089608,-12747250,-55299680,715625,-32890620,7578125
2026-01-14 16:41:59.811,-9771052,8098241,-12755890,-92548820,71640620,-32851560,75927740
2026-01-14 16:41:59.821,36272020,8106871,-12764520,-46505740,71875,-32617190,7495117
2026-01-14 16:41:59.871,-9822844,8161252,-12813720,-92548820,73203130,-3234375,75341800
2026-01-14 16:41:59.881,40851040,-12766240,-33741220,-41874930,74179690,-32304690,8144531
2026-01-14 16:41:59.891,40851040,-12748980,-33723950,-41874930,75976560,-31855470,10498050
2026-01-14 16:41:59.901,-4706595,-12757620,-33680790,-5534026,77070310,-30410160,13251950
2026-01-14 16:41:59.911,-50806640,10195050,-10659080,-51634070,765625,-29707030,14335940
2026-01-14 16:41:59.921,-4709184,-12809400,-33577210,-5536615,74765620,-29238280,14677730
2026-01-14 16:41:59.991,36349710,-13310040,-33059320,-46600680,69765620,-30195310,15048830
2026-01-14 16:42:00.001,36348840,745088,2,-1209127,-46601550,70429690,-30703120,12978520
2026-01-14 16:42:00.011,-9796952,7353328,-11998890,-92747340,7015625,-30996090,8466797
2026-01-14 16:42:00.021,36347120,-13663940,-32826260,-46603280,69921870,-31269530,42578120
2026-01-14 16:42:00.051,-967610,8,7016689,-11679520,-9278187,70039060,-34472660,-1138916
2026-01-14 16:42:00.061,-46996010,-14035100,-32627730,-55323850,70898440,-36035160,-117614700
2026-01-14 16:42:00.091,-46638670,-14207740,-32575940,-55042460,74140620,-39921880,27905270
2026-01-14 16:42:00.101,41667340,-14268160,-32567310,-42681390,74765620,-40390620,46557620
2026-01-14 16:42:00.111,-822600,-14337210,-32550040,-9290272,75117180,-40273440,6323242
2026-01-14 16:42:00.121,-791526,-14414900,-32541410,-9291998,75078130,-40117190,72998050
2026-01-14 16:42:00.131,-763041,6667969,-11372230,-9292860,74921870,-39667970,7788086
2026-01-14 16:42:00.141,37772210,-14587530,-32541410,-47802220,74648440,-39355470,8100586
2026-01-14 16:42:00.171,-45510500,6483253,-11228940,-54133540,74140620,-37753900,75878900
2026-01-14 16:42:00.181,38220190,-14975950,-32601840,-48165610,7390625,-36816410,71435540
2026-01-14 16:42:00.191,-6396076,-15070900,-32627730,-92902720,73242190,-36171880,6508789
2026-01-14 16:42:00.201,-45259320,-15165850,-32653620,-53918620,7296875,-35371100,58984380
2026-01-14 16:42:00.231,-45141070,-15424800,-32739940,-53812450,715625,-30566410,25927730
2026-01-14 16:42:00.241,38420450,-15502490,-32748570,-48310620,709375,-28320310,32983400
2026-01-14 16:42:00.271,-6102592,-15752800,-32722680,-92781860,6734375,-2625,5571289
2026-01-14 16:42:00.281,-613717,60145510,-108690000,-9276457,67070310,-25761720,4284668
2026-01-14 16:42:00.291,-6188916,59774340,-108370700,-92747340,6640625,-26347660,32373050
2026-01-14 16:42:00.301,38304780,-15942700,-32705420,-48201860,6578125,-26679690,26293940
2026-01-14 16:42:00.311,-45179050,-15985860,-32696780,-53826260,65390620,-27480470,29833980
2026-01-14 16:42:00.321,38267660,-16003120,-32696790,-48169920,65273440,-28300780,29467770
2026-01-14 16:42:00.351,-635292,5,-15977230,-32739940,-9272146,67539060,-31367190,32080080
2026-01-14 16:42:00.361,38212420,59713920,-108431100,-48121580,6890625,-32851560,3720703
2026-01-14 16:42:00.371,-45248970,60067820,-108767700,-53877180,70117180,-33476560,3491211
2026-01-14 16:42:00.381,-645651,-15873650,-32826260,-9270420,70898440,-34472660,25268560
2026-01-14 16:42:00.411,-6542808,8590108,-8638718,-92686920,72070310,-35644530,11726380
2026-01-14 16:42:00.421,-6542812,62458800,-111037900,-92686920,725,-35898440,41534420
2026-01-14 16:42:00.451,-45277450,-15278060,-33093840,-53900490,72734380,-3484375,39526370
2026-01-14 16:42:00.461,-643060,5,6580789,-11407620,-9271281,7265625,-34179690,5449219
2026-01-14 16:42:00.471,-45236880,-15010480,-33171520,-53872010,72578130,-3328125,69873050
2026-01-14 16:42:00.481,-633566,5,-14872380,-33206050,-9273872,7203125,-32304690,86279300
2026-01-14 16:42:00.491,-6309756,-23054330,-24903240,-92747340,71835940,-31699220,10126950
2026-01-14 16:42:00.501,-45204940,6929512,-11714910,-53852150,7125,-309375,11367190
2026-01-14 16:42:00.531,-635293,-14259530,-33283740,-9280778,70585940,-30214840,11982420
2026-01-14 16:42:00.541,-4528524,-14147320,-33292370,-5392726,70585940,-30214840,12402340
2026-01-14 16:42:00.551,-45323200,7266146,-11999750,-53958320,70742190,-30097660,12353520
2026-01-14 16:42:00.561,-654282,5,-13940150,-33309630,-9282503,70976560,-29960940,12197270
2026-01-14 16:42:00.571,-45425910,7378358,-12094700,-54045500,71289060,-29941410,11757810
2026-01-14 16:42:00.581,-45482020,-13750260,-33326890,-54092980,71523440,-30019530,109375
2026-01-14 16:42:00.611,-45680550,7568254,-12250070,-54256980,70898440,-31191410,89990230
2026-01-14 16:42:00.621,-45747010,-13413620,-33318260,-54311360,709375,-31601560,8496094
2026-01-14 16:42:00.651,-45962800,-13137410,-33283740,-54492620,71289060,-32382810,7753906
2026-01-14 16:42:00.661,-49862160,-22147150,-24170410,-50714100,71210940,-32929690,6723633
2026-01-14 16:42:00.691,-46244200,-21959840,-24012450,-54729130,71757810,-32929690,60839840
2026-01-14 16:42:00.701,-8174200,-12610870,-33223310,-92919980,70117180,-32070310,59033200
2026-01-14 16:42:00.711,-826051,-1250729,-3320605,-9293724,6859375,-30957030,5649414
2026-01-14 16:42:00.721,-834684,5,-12412350,-33162890,-9295451,6796875,-30019530,7163086
2026-01-14 16:42:00.731,3719905,-12326030,-33128370,-4733956,67226560,-28300780,82666020
2026-01-14 16:42:00.741,-46520410,-12248350,-33085210,-54970820,6625,-259375,81591800
2026-01-14 16:42:00.791,-8234616,8369275,-12830120,-93153030,65273440,-13652340,-10869140
2026-01-14 16:42:00.801,-790663,-11514650,-32886680,-9320482,675,-10810550,-8930664
2026-01-14 16:42:00.811,-745777,5,10752860,-10757280,-9327387,69414060,-9819336,-2854004
2026-01-14 16:42:00.821,-689671,5,8605780,-13007930,-9335156,6890625,-10283200,4043579
2026-01-14 16:42:00.831,-620619,-11074440,-32791730,-9342062,68632820,-11279300,-22106930
2026-01-14 16:42:00.841,-4501764,8724034,-13096840,-5383230,67695310,-13125,-52001950
2026-01-14 16:42:00.871,-201119,8818982,-13174520,-9364504,7640625,-21171880,14941410
2026-01-14 16:42:00.881,-72507,5,-10841380,-32783100,-9365368,775,-26933590,20253910
2026-01-14 16:42:00.891,42460070,8730078,-13108060,-51763290,78476560,-3234375,23710940
2026-01-14 16:42:00.901,-41031530,-11160760,-32843520,-50585060,79960940,-36230470,28730470
2026-01-14 16:42:00.911,334046,-1142833,-3288668,-9348967,79414060,-39316410,3484375
2026-01-14 16:42:00.921,4461366,-11773600,-32973000,-5347668,78320310,-428125,39980470
2026-01-14 16:42:00.971,47594190,-14725630,-34129640,-55657900,83515620,-43867190,42382810
2026-01-14 16:42:00.981,48081020,-15476590,-34483540,-55982450,86796870,-44140620,34804690
2026-01-14 16:42:00.991,-3343654,-16244810,-34820180,-4392056,85546870,-46210940,26113280
2026-01-14 16:42:01.001,14950060,-17038920,-35165440,-90632580,8484375,-46757810,20625
2026-01-14 16:42:01.011,1615848,-17841670,-35502080,-9013196,8375,-44804690,14970700
2026-01-14 16:42:01.021,17358300,-1863575,-3584735,-89605410,81640620,-48515620,47875980
2026-01-14 16:42:01.051,-27849240,-20905910,-36943560,-38752770,79140620,-52070310,-66748050
2026-01-14 16:42:01.061,-26804810,75603110,-81493370,-37777380,77421870,-5328125,-82958980
2026-01-14 16:42:01.071,-25725840,-22252460,-37685890,-36767480,76171870,-54492190,-98535150
2026-01-14 16:42:01.081,-24631350,45557980,-106532100,-35738580,7625,-56015620,-11835940
2026-01-14 16:42:01.091,-28530190,-23452260,-38505900,-29647300,77109380,-55390620,-12333980
2026-01-14 16:42:01.101,53361010,4346051,-10638540,-58954340,76679690,-53671880,-12158200
2026-01-14 16:42:01.151,3509634,45316290,-112643400,-7963581,8953125,-42265620,-10400390
2026-01-14 16:42:01.161,36347980,-25946810,-42157100,-78694980,9359375,-37558590,-13154300
2026-01-14 16:42:01.171,-14365700,-26084920,-42778580,-25892440,9671875,-34511720,-16855470
2026-01-14 16:42:01.181,-13365290,-26153970,-43434580,-24907560,96640620,-325,-20058590
2026-01-14 16:42:01.191,39576230,5464716,-12489170,-75950100,9375,-32226560,-19892580
2026-01-14 16:42:01.201,56059270,-26067650,-44798400,-59518850,890625,-31953120,-13837890
2026-01-14 16:42:01.231,42562790,7084019,-14357070,-72652810,77695310,-50273440,78125
2026-01-14 16:42:01.241,-8696415,-25463440,-47940320,-20185170,79804690,-55625,46801760
2026-01-14 16:42:01.251,-8182828,11420140,-12161600,-19628430,8390625,-61132810,58691410
2026-01-14 16:42:01.261,-7761603,8612685,-16108430,-19151960,88671870,-68671870,37548830
2026-01-14 16:42:01.271,4352088,-24945540,-50909620,-6969215,9515625,-77695310,-17199710
2026-01-14 16:42:01.281,43382790,-2474698,-5207492,-68984340,103515600,-86640620,-89941410
2026-01-14 16:42:01.331,40525710,-39176580,-42962440,-65056930,13765630,-46210940,-5375
2026-01-14 16:42:01.341,-7325702,-2128570,-6187184,-17688890,120,-20507810,-51796880
2026-01-14 16:42:01.351,37737680,21218560,-22060660,-63701760,91171870,8515625,-4578125
2026-01-14 16:42:01.361,35735130,-19801050,-65583470,-63201120,621875,36503900,-27285160
2026-01-14 16:42:01.371,-9998073,-19412640,-67318430,-19608580,36796880,61601560,-7006836
2026-01-14 16:42:01.381,30288550,-1938671,-6888078,-62657330,18710940,70234380,30488280
2026-01-14 16:42:01.411,18350940,20643520,-30162520,-61699210,840625,65976560,16625
2026-01-14 16:42:01.421,13465410,-24021950,-74102930,-60939620,139453100,56523440,18875
2026-01-14 16:42:01.431,8329564,-2608490,-7487116,-60067820,19875,54257810,18828120
2026-01-14 16:42:01.441,2986554,-28605370,-75112820,-59126970,2725,22285160,17875
2026-01-14 16:42:01.451,-276213,8,-3191993,-7478483,-5783222,329375,-35234380,971875
2026-01-14 16:42:01.461,-9374002,-53181470,-56682480,-56813690,-5534375,-30703120,2925
2026-01-14 16:42:01.511,30340340,20637470,-30582890,-35847350,64648440,139453100,30734380
2026-01-14 16:42:01.521,31353690,-47047810,-52078340,-36767480,75429690,26109380,18046880
2026-01-14 16:42:01.531,7172922,18874880,-28823750,-61863220,148046900,23578120,4396875
2026-01-14 16:42:01.541,5791848,-29796540,-71694690,-62467430,15453130,152265600,22765620
2026-01-14 16:42:01.551,30470670,-50149170,-53620820,-36373010,934375,-20397950,-114296900
2026-01-14 16:42:01.561,30124540,9279915,-19774300,-36183980,-7348633,-9875,-29515620
2026-01-14 16:42:01.591,-25695630,-39230960,-63209750,-33051550,47578120,-75585940,-10921880
2026-01-14 16:42:01.601,-24851450,6686097,-16792060,-32514650,63867190,-42265620,-58125
2026-01-14 16:42:01.611,36827900,-38557690,-61207200,-42462660,703125,-38867190,-34277340
2026-01-14 16:42:01.621,1288709,5837601,-15689800,-6864771,75234380,-40078120,-22714840
2026-01-14 16:42:01.631,1398331,5243743,-14971640,-6951951,76132820,-35703120,-24707030
2026-01-14 16:42:01.641,-23497140,4571336,-14176660,-32021780,76796870,-37851560,-29746090
2026-01-14 16:42:01.691,18894730,1618442,-10569490,-74344610,83125,-46796880,-32285160
2026-01-14 16:42:01.701,-22842000,52049000,-60853300,-32331660,88125,-42578120,-24433590
2026-01-14 16:42:01.711,-22596000,-38065680,-48492750,-32249660,93125,-37597660,-15371090
2026-01-14 16:42:01.721,46334830,511860,-9017512,-51790050,96328130,-321875,-78027340
2026-01-14 16:42:01.731,2262358,1044432,-84581780,-7698590,975,-31152340,-3395996
2026-01-14 16:42:01.741,23314150,37051470,-37871480,-77659180,990625,-33007810,-25048830
2026-01-14 16:42:01.771,24488060,-1915365,-5816887,-79799820,10140630,-43710940,46166990
2026-01-14 16:42:01.781,-22726340,9506928,-17078630,-33241440,98671870,-51953120,40795900
2026-01-14 16:42:01.791,-23040530,3545893,-10955320,-33635050,965625,-56875,4404297
2026-01-14 16:42:01.801,24617540,-1982692,-5262733,-82052700,9515625,-57226560,7583008
2026-01-14 16:42:01.811,-23756100,-7166015,84591,52,-34490440,90078130,-57148440,12001950
2026-01-14 16:42:01.821,-24149700,-43218790,-25955450,-34942750,88984380,-56367190,17519530
2026-01-14 16:42:01.871,22675410,-31013600,-30461180,-86860540,79960940,-53007810,23632810
2026-01-14 16:42:01.881,2207983,-6042172,34526,76,-8749066,7609375,-52890620,21875
2026-01-14 16:42:01.891,-32788020,-32636360,-26076290,-33883040,73710940,-52929690,20976560
2026-01-14 16:42:01.901,-28540630,-37828310,32088250,-39476960,72851560,-54648440,19423830
2026-01-14 16:42:01.911,19861480,-39577080,33964770,-89260140,72265620,-5609375,16972660
2026-01-14 16:42:01.921,1901557,-31255290,-23607630,-8982984,725,-55546880,15380860
2026-01-14 16:42:01.951,16167120,-29701590,-21449710,-91435330,67421870,-58125,14355470
2026-01-14 16:42:01.961,-33040320,-29157790,-20836860,-43747050,65351560,-60546880,11572270
2026-01-14 16:42:01.971,49335200,-28605370,-20267170,-57162400,63710940,-60078120,9506836
2026-01-14 16:42:01.981,48968350,-28035680,-19749270,-56942300,63398440,-57617190,68115230
2026-01-14 16:42:01.991,-35312180,-43251590,38576680,-45842820,62773440,-54609380,5239258
2026-01-14 16:42:02.001,48196680,-63097540,17349670,-56453740,60429690,-546875,4189453
2026-01-14 16:42:02.051,46155290,-35730820,31596240,-55059730,58476560,-3875,1743164
2026-01-14 16:42:02.061,517902,-33966500,29907890,-9536275,58984380,-34609380,41992190
2026-01-14 16:42:02.071,45371540,-2294297,-1695263,-54496940,59140620,-30878910,59765620
2026-01-14 16:42:02.081,3487196,-22399190,-16840400,-95742530,60585940,-2796875,69140620
2026-01-14 16:42:02.091,-41690980,-44694810,6059436,-51548360,62929690,-26289060,81689460
2026-01-14 16:42:02.101,-42189900,-41734140,3668464,-51981670,65390620,-2578125,10185550
2026-01-14 16:42:02.131,-54379,-32455100,-4143203,-9638993,709375,-25371090,17783200
2026-01-14 16:42:02.141,-1398336,-19222740,-16995770,-96450330,71953130,-28398440,17900390
2026-01-14 16:42:02.151,42181270,-25972710,-9917797,-52059360,74570310,-31386720,16542970
2026-01-14 16:42:02.161,-313330,-22476880,-13154670,-9652802,78007810,-33398440,15039060
2026-01-14 16:42:02.171,-4563394,-28942000,-6499651,-5489056,81484380,-33710940,11484380
2026-01-14 16:42:02.181,-4790580,8251886,-43538170,-96528020,8484375,-31035160,6386719
2026-01-14 16:42:02.231,-47863500,-15364380,-19801060,-56666080,89296870,-31835940,-9231567
2026-01-14 16:42:02.241,-883022,8441776,-43693540,-9618275,8875,-33105470,32318120
2026-01-14 16:42:02.251,-9356736,12179300,-47551900,-96087790,88046870,-33671880,8294678
2026-01-14 16:42:02.261,37779980,-14397630,-21113080,-48364140,87421870,-33574220,29467770
2026-01-14 16:42:02.271,-1029761,35333760,-38898640,-9588925,8609375,-33476560,578125
2026-01-14 16:42:02.281,37193020,38691480,-42273620,-47846240,8390625,-35097660,8144531
2026-01-14 16:42:02.311,36301370,-13232350,-23314150,-47046080,82890620,-4109375,10195310
2026-01-14 16:42:02.321,-53447940,51758980,-55446420,-54275360,83046870,-42617190,11103520
2026-01-14 16:42:02.331,-49902300,38082950,-75337250,-58114470,83359380,-43203120,11660160
2026-01-14 16:42:02.341,-50081840,-12852560,-24816060,-58228410,840625,-42851560,11103520
2026-01-14 16:42:02.351,-53889360,-12783510,-25351220,-54697110,8375,-42109380,10800780
2026-01-14 16:42:02.361,-14414890,-12748980,-25886390,-94465040,83671870,-4046875,98583980
2026-01-14 16:42:02.391,-50966580,52912160,-93308400,-58741990,8171875,-36738280,6645508
2026-01-14 16:42:02.401,-51145260,5456947,-9562166,-58839530,81171870,-35507810,5834961
2026-01-14 16:42:02.411,3255349,5594189,-9770193,-4357787,8046875,-34414060,5083008
2026-01-14 16:42:02.421,3709893,5703811,-9954047,-3820379,79960940,-32773440,33740230
2026-01-14 16:42:02.451,-1910191,-14406260,-30530230,-9197050,79648440,-26054690,9075928
2026-01-14 16:42:02.461,3048447,-14820590,-30979080,-4160727,78320310,-23984380,-26901240
2026-01-14 16:42:02.491,-20672860,5556213,-10395130,-90762060,74179690,-19121090,-13000490
2026-01-14 16:42:02.501,29214760,54284600,-103502400,-40356530,734375,-19472660,41015620
2026-01-14 16:42:02.511,-52237170,-17220190,-32826260,-59145960,72226560,-19892580,24658200
2026-01-14 16:42:02.521,-21346130,-17712190,-33128370,-89985200,71914060,-20976560,-18676760
2026-01-14 16:42:02.531,-52220780,50322660,-101940100,-59041520,71796870,-2203125,-4597168
2026-01-14 16:42:02.541,-2168278,-18670310,-33706690,-8949321,72578130,-23984380,-68896480
2026-01-14 16:42:02.571,-2209710,-26549300,-27985620,-8880268,75351560,-26542970,-1125
2026-01-14 16:42:02.581,-22209300,42821740,-98047180,-88586880,75585940,-26660160,-11738280
2026-01-14 16:42:02.591,27508280,-21052650,-34846070,-38575820,75507810,-27441410,-11865230
2026-01-14 16:42:02.601,27377080,39049700,-95604430,-38430800,746875,-28125,-12861330
2026-01-14 16:42:02.631,-22502780,-23055200,-35398500,-87602860,70898440,-28398440,-16582030
2026-01-14 16:42:02.641,26967940,56691110,-62598630,-37959510,69921870,-28359380,-17128910
2026-01-14 16:42:02.671,26825510,23201940,-84003460,-37756670,7296875,-23730470,-19111330
2026-01-14 16:42:02.681,26802210,-25506600,-35812820,-37710920,753125,-19707030,-20253910
2026-01-14 16:42:02.691,26796170,-25938180,-35864610,-37682440,76015620,-14453130,-21972660
2026-01-14 16:42:02.701,-22071190,1653832,-7875539,-86584330,74648440,-10244140,-21640620
2026-01-14 16:42:02.711,-21933090,14544380,-77124010,-86498010,71054690,-8310547,-19697270
2026-01-14 16:42:02.721,26931680,-27051670,-35838710,-37754080,66875,-7788086,-16757810
2026-01-14 16:42:02.751,2732873,-27837150,-35622920,-3808209,59023440,-13076170,-55029300
2026-01-14 16:42:02.761,27505690,34369600,-40725970,-38233140,5875,-13896480,-4008789
2026-01-14 16:42:02.771,-20465700,-28199680,-35450280,-86567060,5921875,-13916020,-19897460
2026-01-14 16:42:02.781,27901880,3193724,-66895480,-38579270,60429690,-12548830,-81970220
2026-01-14 16:42:02.811,28526820,34528,-63839860,-39128240,59804690,-99902340,15307620
2026-01-14 16:42:02.821,28737430,-828640,-62976700,-39314690,58164060,-10791020,14465330
2026-01-14 16:42:02.851,29385670,-3012452,-60672040,-39892150,52226560,-16064450,4375
2026-01-14 16:42:02.861,34330500,-3487194,-60110980,-35378900,50351560,-18691410,66064450
2026-01-14 16:42:02.871,34564760,-378065,8,-5971394,-35610750,49296880,-21601560,93115230
2026-01-14 16:42:02.881,-48645530,-31402030,-31954460,-55711420,48242190,-24707030,12734380
2026-01-14 16:42:02.891,-1650376,-423814,8,-5896297,-8762876,48476560,-27675780,15947270
2026-01-14 16:42:02.901,-1617579,-4428046,-58634970,-8774961,50039060,-30019530,18095700
2026-01-14 16:42:02.931,-1523493,-5118580,-57426530,-8810351,56640620,-35390620,22167970
2026-01-14 16:42:02.941,-14967330,-5463848,-56908620,-88215710,5953125,-35683590,21621090
2026-01-14 16:42:02.951,-14734270,-5714166,-56468410,-88327920,615625,-36367190,21484380
2026-01-14 16:42:02.961,-14544370,-28519050,-33508160,-88414240,63789060,-37089840,2078125
2026-01-14 16:42:02.991,-14138680,-6603226,-54940600,-88647300,71523440,-34277340,15986330
2026-01-14 16:42:03.001,-1404376,-6516914,-54854290,-8872499,72851560,-33164060,15107420
2026-01-14 16:42:03.031,32410210,23777930,-24386810,-42685360,70742190,-31152340,15859380
2026-01-14 16:42:03.041,-1376755,-6352910,-54345020,-8900120,68710940,-30527340,17607420
2026-01-14 16:42:03.051,-51016130,-6344278,-54163750,-51769850,66289060,-3046875,19189450
2026-01-14 16:42:03.061,-1365533,-6508284,-53809860,-8914794,63515620,-3140625,20390620
2026-01-14 16:42:03.071,-13612160,-6663650,-53447330,-89225620,60898440,-31972660,21113280
2026-01-14 16:42:03.081,-47658920,-6819022,-53084800,-55230630,58828120,-32597660,21171880
2026-01-14 16:42:03.111,-47728840,-2957589,-2962009,-55333350,57890620,-34257810,21171880
2026-01-14 16:42:03.121,-13491310,-7725344,-51228980,-89639940,58320310,-34804690,2015625
2026-01-14 16:42:03.131,-1347407,-7941140,-50754240,-8972626,5890625,-3546875,18525390
2026-01-14 16:42:03.141,-4782554,-8234618,-50184550,-5546111,5984375,-35996100,16933590
2026-01-14 16:42:03.171,-1337048,-8648938,-48872540,-9012331,65625,-37363280,13417970
2026-01-14 16:42:03.181,33275960,-8666200,-48544540,-43632250,68125,-37773440,13056640
2026-01-14 16:42:03.211,-1313743,-8225984,-47931690,-9059805,7390625,-37402340,13935550
2026-01-14 16:42:03.221,33635900,-8036088,-47741790,-44014640,74570310,-37519530,14921880
2026-01-14 16:42:03.231,33728260,-7759874,-47638210,-44112170,75429690,-37558590,16259770
2026-01-14 16:42:03.241,-1293889,17274570,-22776400,-9096921,75078130,-37402340,17548830
2026-01-14 16:42:03.251,-1288711,-7207450,-47431060,-9109006,73789060,-37734380,18291020
2026-01-14 16:42:03.261,-48114680,19926830,-20469410,-55948780,7203125,-38164060,18925780
2026-01-14 16:42:03.291,34133090,-6111222,-47025360,-44570520,67929690,-38320310,21347660
2026-01-14 16:42:03.301,34161580,-6024908,-46766420,-44611080,6625,-38574220,21757810
2026-01-14 16:42:03.311,-12904360,-5947218,-46516090,-91728800,64882810,-39003900,21074220
2026-01-14 16:42:03.321,-1296480,-5783220,-46352090,-9180649,64648440,-38398440,19638670
2026-01-14 16:42:03.351,-1312016,17549920,-22673680,-9203091,61835940,-37285160,15927730
2026-01-14 16:42:03.361,-13163310,-5282580,-45678820,-92108590,61367190,-37050780,15126950
2026-01-14 16:42:03.391,-1322374,18293110,-23311560,-9230711,63359380,-37109380,13291020
2026-01-14 16:42:03.401,-1322374,-3815200,-46110410,-9237618,6390625,-375,13291020
2026-01-14 16:42:03.411,34327300,-3349088,-46334830,-44894200,64921880,-37851560,12958980
2026-01-14 16:42:03.421,34359240,-22520040,-26922190,-44931320,65078120,-38046880,11962890
2026-01-14 16:42:03.431,-1319783,-207159,8,-4712894,-9257471,65703120,-38085940,10751950
2026-01-14 16:42:03.441,-1315469,20857580,-25753460,-9263512,66875,-37792970,10585940
2026-01-14 16:42:03.471,3463026,1942126,-50193180,-4521271,70585940,-38339840,10146480
2026-01-14 16:42:03.481,-1289573,317646,3,-5120309,-9289408,73554690,-3859375,99902340
2026-01-14 16:42:03.491,-1281806,4574788,-52394260,-9295450,79101560,-38046880,9658203
2026-01-14 16:42:03.501,-12731720,29627450,-30103740,-93006290,859375,-34648440,85595700
2026-01-14 16:42:03.531,-1250732,11359280,-58557280,-9310986,9375,-26738280,8183594
2026-01-14 16:42:03.541,-12446880,13232360,-60309500,-93135770,9109375,-25058590,9238281
2026-01-14 16:42:03.571,35119690,19498950,-66299890,-45672780,79023440,-1765625,12773440
2026-01-14 16:42:03.581,-12351930,-1886880,-2788030,-93161660,72851560,-17099610,14951170
2026-01-14 16:42:03.591,-1232604,-18609890,-28070210,-9315304,665625,-17294920,16787110
2026-01-14 16:42:03.601,-48689550,2623168,-7285994,-56772250,61523440,-18564450,19121090
2026-01-14 16:42:03.611,-48680920,2858813,-7516460,-56763620,58164060,-19599610,20800780
2026-01-14 16:42:03.621,35133500,30849610,-77391590,-45676230,56445310,-20664060,21875
2026-01-14 16:42:03.651,-48692140,3741833,-8394301,-56752390,56679690,-24785160,21367190
2026-01-14 16:42:03.661,-1249868,-16987140,-29554850,-9298041,57929690,-2671875,20742190
2026-01-14 16:42:03.671,34886630,41526990,-88120770,-45439720,59023440,-28515620,19384770
2026-01-14 16:42:03.681,-1274036,-16667760,-29995070,-9285956,61015620,-3015625,18095700
2026-01-14 16:42:03.711,-13318680,-16374280,-30702870,-92609230,67773440,-33476560,12294920
2026-01-14 16:42:03.721,39463960,70746060,-75474500,-39464060,69414060,-33183590,9819336
2026-01-14 16:42:03.751,33564260,-16365650,-31747300,-44207120,71132820,-29902340,3461914
2026-01-14 16:42:03.761,-14587530,5380990,-10225080,-91961860,70078130,-28632810,17321780
2026-01-14 16:42:03.771,-1482926,54578080,-103381600,-9180647,68632820,-27558590,4055023
2026-01-14 16:42:03.781,-1507092,-16590080,-32575940,-9165113,67148440,-27128910,-13464360
2026-01-14 16:42:03.791,-1527809,-16702290,-32860780,-9149576,66484380,-26074220,-25024410
2026-01-14 16:42:03.801,-154684,3,56675580,-106635700,-913401,3,66992190,-24765620,-3239746
2026-01-14 16:42:03.831,-49645080,58496860,-109648200,-57146000,71796870,-16367190,-54785160
2026-01-14 16:42:03.841,-49630400,-17271980,-34259110,-57108880,72539060,-13291020,-63134770
2026-01-14 16:42:03.851,-1602904,-17358300,-34535330,-9062396,71523440,-11025390,-6855469
2026-01-14 16:42:03.861,-16046290,60715210,-112954100,-90503100,6984375,-10048830,-6791992
2026-01-14 16:42:03.891,-15873650,6339969,-11648440,-90226900,63085940,-11669920,-32202150
2026-01-14 16:42:03.901,-1573555,6431461,-11764110,-9015784,6125,-12207030,-22131350
2026-01-14 16:42:03.951,-1477744,-17556820,-36667350,-8995932,58046880,-16113280,29052730
2026-01-14 16:42:03.961,-4847895,-17574090,-36805460,-5601612,58125,-16533200,23168940
2026-01-14 16:42:03.971,-1436312,-17599980,-36934940,-8990753,58164060,-16621090,13391110
2026-01-14 16:42:03.981,-1416460,-17643140,-37047150,-8988164,58828120,-16982420,20462040
2026-01-14 16:42:03.991,32761520,6986479,-12469320,-43145420,59648440,-171875,-12805180
2026-01-14 16:42:04.001,32858200,-17746720,-37219780,-43221390,6015625,-17060550,-2454834
2026-01-14 16:42:04.031,33183610,-17945250,-37401050,-43482920,60703120,-17089840,-70214850
2026-01-14 16:42:04.041,-1293889,-26753870,-28696000,-8982985,60664060,-16914060,-7763672
2026-01-14 16:42:04.051,-47414660,-18091990,-37461470,-55129640,60390620,-16875,-9536133
2026-01-14 16:42:04.061,33597930,-18143780,-37478730,-43828190,60078120,-17099610,-9223633
2026-01-14 16:42:04.071,33756750,-18195570,-37478730,-43962850,5953125,-16708980,-10185550
2026-01-14 16:42:04.081,-11859920,-26900610,-28825480,-89924780,59179690,-16113280,-11054690
2026-01-14 16:42:04.131,3511106,6775865,-12334660,-4512898,57226560,-13417970,-14541020
2026-01-14 16:42:04.141,35406260,6773277,-12319990,-45386210,57265620,-12832030,-15566410
2026-01-14 16:42:04.151,-9011472,-18109250,-37219780,-90390900,57460940,-12548830,-15527340
2026-01-14 16:42:04.161,-4538536,-18022940,-37133460,-5358544,57421880,-12333980,-15537110
2026-01-14 16:42:04.171,-7941144,-1791069,-3703851,-90598060,5734375,-12402340,-153125
2026-01-14 16:42:04.181,36769210,-17781240,-36926300,-46578240,57695310,-12568360,-15371090
2026-01-14 16:42:04.211,37955200,6880310,-12264750,-47619220,5875,-14951170,-13925780
2026-01-14 16:42:04.221,-488554,5,-17185660,-36330720,-9123681,59375,-16044920,-13789060
2026-01-14 16:42:04.231,38792480,-17030290,-36140820,-48352920,59570310,-16943360,-14013670
2026-01-14 16:42:04.241,-354763,5,-16849030,-35942300,-9152165,60429690,-18134770,-14355470
2026-01-14 16:42:04.251,-42818280,6909657,-12149080,-51698550,61210940,-19726560,-14433590
2026-01-14 16:42:04.261,-2149288,6913112,-12111100,-91797860,61992190,-21484380,-14755860
2026-01-14 16:42:04.311,42486820,9082854,-9578830,-51581160,69335940,-28359380,-15185550
2026-01-14 16:42:04.321,42976250,-15234900,-33810280,-52006700,72539060,-28730470,-15585940
2026-01-14 16:42:04.331,43474290,-15001850,-33473630,-52440870,75976560,-28476560,-15751950
2026-01-14 16:42:04.341,3927412,-14742900,-33128370,-92919980,80078130,-27734380,-16142580
2026-01-14 16:42:04.351,44472980,-14466690,-32765840,-53306630,83046870,-26816410,-15791020
2026-01-14 16:42:04.361,-38895190,6788814,-11441280,-48768100,85703130,-26347660,-14443360
2026-01-14 16:42:04.391,-37733360,6847510,-11261740,-47892840,86640620,-25253910,-6269531
2026-01-14 16:42:04.401,4701587,6891530,-11217720,-5551116,840625,-25507810,-18469240
2026-01-14 16:42:04.411,-36976370,6946774,-11179740,-47320570,803125,-26210940,2709961
2026-01-14 16:42:04.421,10340750,-1162682,-2977065,-93998930,76210940,-27324220,73583980
2026-01-14 16:42:04.431,1107443,-19316820,-21131200,-9412842,72539060,-28085940,11083980
2026-01-14 16:42:04.441,1176496,-10668750,-28829790,-9423200,69765620,-28222660,1453125
2026-01-14 16:42:04.491,14423530,-8579881,-26533770,-94749890,64257810,-24433590,1359375
2026-01-14 16:42:04.501,1477742,-8234617,-26102180,-9484485,63828120,-23808590,10419920
2026-01-14 16:42:04.511,-34429160,-7906613,-25687860,-45431100,63242190,-23808590,7338867
2026-01-14 16:42:04.521,-34324720,-7604503,-25264910,-45362900,6203125,-24628910,4111328
2026-01-14 16:42:04.531,5531514,-7302397,-24859220,-5539470,61640620,-25273440,49041750
2026-01-14 16:42:04.541,1577865,71358050,-102829100,-9522460,61367190,-25664060,-14440920
2026-01-14 16:42:04.571,1631386,-6214806,-23219200,-9550085,5953125,-26933590,-5498047
2026-01-14 16:42:04.581,52091290,70037410,-98798140,-59999630,59375,-27089840,-59716800
2026-01-14 16:42:04.591,16719550,82668140,-85476870,-95647580,59609380,-27402340,-5551758
2026-01-14 16:42:04.601,1696986,-5325744,-22088450,-9570801,5953125,-275,-52734380
2026-01-14 16:42:04.611,52577260,-4989107,-21751820,-60428630,5984375,-27304690,-48486330
2026-01-14 16:42:04.621,1756542,70943730,-97028660,-9578566,603125,-27128910,-44189450
2026-01-14 16:42:04.671,1953343,75941470,-98590990,-9578566,6265625,-30175780,21569820
2026-01-14 16:42:04.681,19999590,-2149282,-19792430,-95751170,62421880,-315625,27514650
2026-01-14 16:42:04.691,-31798230,-9715811,-11500840,-43418190,62539060,-33105470,41308590
2026-01-14 16:42:04.701,2099222,-1208434,-19283160,-9565622,62460940,-34414060,6430664
2026-01-14 16:42:04.711,-3118279,-8967446,-10799090,-4289425,6234375,-34960940,9423828
2026-01-14 16:42:04.721,2206255,-241686,-18817050,-9551812,6234375,-35078120,12402340
2026-01-14 16:42:04.751,2367668,1208434,-18161040,-9525053,63085940,-34003900,22285160
2026-01-14 16:42:04.761,5612311,-71668790,-91297220,-6321842,62851560,-32910160,25683590
2026-01-14 16:42:04.771,2468655,-68423280,-88327920,-9505204,62617190,-32109380,28417970
2026-01-14 16:42:04.781,56561640,-6535038,-8553129,-63539480,61914060,-30449220,30605470
2026-01-14 16:42:04.791,-28582060,9501749,-10955320,-40626700,60429690,-28945310,32675780
2026-01-14 16:42:04.801,-28306720,-59731190,-80447210,-40384160,58867190,-27265620,34160160
2026-01-14 16:42:04.831,5741185,4376259,-17133870,-6413938,55195310,-24609380,32324220
2026-01-14 16:42:04.841,-2735035,-61060460,-63235650,-3952792,54804690,-24082030,29375
2026-01-14 16:42:04.851,-27141440,4920057,-17056190,-39339720,54335940,-24160160,26015620
2026-01-14 16:42:04.861,-26942050,-48380540,-70563940,-39159320,5453125,-24375,22324220
2026-01-14 16:42:04.891,2889018,-44936500,-67620540,-9385222,5515625,-26738280,11777340
2026-01-14 16:42:04.901,58256040,5878172,-16943980,-64710800,55234380,-27070310,9785156
2026-01-14 16:42:04.931,-25382300,6370178,-16849030,-37749760,55273440,-27773440,9628906
2026-01-14 16:42:04.941,-25111270,-39774750,-63114800,-37502900,5578125,-28046880,10302730
2026-01-14 16:42:04.951,31048140,6689552,-16788610,-93127140,56367190,-27929690,11181640
2026-01-14 16:42:04.961,-24550210,6853552,-16762710,-36993630,5703125,-27949220,121875
2026-01-14 16:42:04.971,59297010,-36710500,-60482140,-65396160,58085940,-28300780,12685550
2026-01-14 16:42:04.981,-2396240,7190184,-16736820,-3645933,59179690,-28789060,13457030
2026-01-14 16:42:05.011,33559940,-33007520,-57452430,-92186290,59921880,-26621090,17695310
2026-01-14 16:42:05.021,60091990,7872091,-16762720,-65895930,60195310,-25976560,18808590
2026-01-14 16:42:05.031,-22423360,8027461,-16797240,-35046320,603125,-24980470,19140620
2026-01-14 16:42:05.041,34768380,-30746020,-55743360,-91685650,59726560,-23945310,19228520
2026-01-14 16:42:05.071,35812810,-29261370,-54811130,-91210900,5921875,-22324220,17558590
2026-01-14 16:42:05.081,60850720,12442560,-13279830,-66345640,58945310,-21679690,17011720
2026-01-14 16:42:05.111,36926300,-2849312,-5471620,-90684380,58125,-21015620,14755860
2026-01-14 16:42:05.121,-20320690,9020102,-17358300,-33092120,5828125,-20898440,14003910
2026-01-14 16:42:05.131,-20161000,12848250,-13685520,-32941060,58398440,-2140625,12607420
2026-01-14 16:42:05.141,61311650,-40788110,-43457030,-66592510,59140620,-21972660,11962890
2026-01-14 16:42:05.151,-19867530,-28967900,-55795140,-32664850,5921875,-21171880,11787110
2026-01-14 16:42:05.161,3788440,-41291340,-43989600,-9015786,58632810,-2140625,10634770
2026-01-14 16:42:05.211,61594760,9434424,-18376840,-66706440,58789060,-21308590,62939450
2026-01-14 16:42:05.221,-19028530,-31238030,-59221920,-31863830,5859375,-21035160,56347660
2026-01-14 16:42:05.231,-18914590,-31660980,-59834760,-31753340,58320310,-20429690,5239258
2026-01-14 16:42:05.241,38980640,9555268,-18808420,-89441410,5796875,-19560550,48242190
2026-01-14 16:42:05.251,-18703980,-3259319,-6114678,-31549630,5734375,-18935550,4741211
2026-01-14 16:42:05.261,61733740,-4603787,-4891055,-66740110,56523440,-18300780,4494629
2026-01-14 16:42:05.291,-18364750,9676108,-19585270,-31215590,54921880,-17910160,40014650
2026-01-14 16:42:05.301,-18295700,9684740,-19749270,-31146530,54257810,-17851560,3725586
2026-01-14 16:42:05.311,-18235280,-36296190,-65902840,-31086110,53828120,-18164060,34765620
2026-01-14 16:42:05.321,-18183490,9684740,-20077270,-31034320,5359375,-18164060,32470700
2026-01-14 16:42:05.331,39688440,9676110,-20241280,-88802670,54023440,-18271480,35864260
2026-01-14 16:42:05.341,39731600,-38652640,-68725390,-88742250,553125,-18291020,35961910
2026-01-14 16:42:05.371,39835170,-41104030,-71625630,-88586870,60390620,-16738280,43701170
2026-01-14 16:42:05.381,-23699300,9607054,-21052650,-24983350,61132810,-16445310,45141600
2026-01-14 16:42:05.391,6395068,9589790,-21190760,-6443683,62148440,-16972660,37768560
2026-01-14 16:42:05.401,61757040,9581162,-21320240,-66613220,61875,-17451170,32641600
2026-01-14 16:42:05.431,39956020,9538004,-21639610,-88362450,61523440,-19755860,37109380
2026-01-14 16:42:05.441,39981910,9538005,-21725930,-88336560,60429690,-20039060,44189450
2026-01-14 16:42:05.471,-17729460,-46153560,-77624650,-30556130,59257810,-22695310,5722656
2026-01-14 16:42:05.481,39981910,-46386620,-77909500,-88267500,59140620,-23378910,6489258
2026-01-14 16:42:05.491,-17739820,-60741960,-63899420,-30563030,59414060,-24257810,69140620
2026-01-14 16:42:05.501,39930120,-46688720,-78297920,-88267500,59921880,-25078120,74365230
2026-01-14 16:42:05.511,-17776940,9572528,-22088450,-30594970,60507810,-25488280,8671875
2026-01-14 16:42:05.521,-17804560,-4681819,-7851371,-30619140,61132810,-25644530,93896480
2026-01-14 16:42:05.551,39662540,9650216,-22200670,-88345180,63085940,-26855470,10097660
2026-01-14 16:42:05.561,39576220,9676112,-22226560,-88379710,6296875,-27089840,9692383
2026-01-14 16:42:05.571,-18076450,9719268,-22235190,-30865140,62695310,-27636720,9375
2026-01-14 16:42:05.581,3936904,-46481560,-78505080,-8844879,62421880,-27402340,9213867
2026-01-14 16:42:05.611,6130819,9943690,-22286980,-6626796,60820310,-26933590,8129883
2026-01-14 16:42:05.621,38842540,10030010,-22286980,-88647300,60234380,-26640620,8017578
2026-01-14 16:42:05.651,38290100,15697570,-16895640,-88854460,58359380,-26074220,77001950
2026-01-14 16:42:05.661,-19078590,-43123850,-75820630,-31779240,58789060,-25371090,8334961
2026-01-14 16:42:05.671,37824000,10496120,-22286980,-89027090,603125,-24375,88916020
2026-01-14 16:42:05.681,-25149330,10591070,-22295620,-26416290,63085940,-23144530,9501953
2026-01-14 16:42:05.691,-19646560,10686010,-22304240,-32298860,66757810,-21425780,9121094
2026-01-14 16:42:05.701,-19872700,10772330,-22321510,-32504300,70625,-19648440,8276367
2026-01-14 16:42:05.731,35968180,-40033700,-73386500,-89726260,7296875,-21835940,12597660
2026-01-14 16:42:05.741,35622920,-39740230,-73162070,-89847100,72226560,-24375,-11315920
2026-01-14 16:42:05.751,35294910,16167130,-17289250,-89985210,72070310,-26679690,-26586910
2026-01-14 16:42:05.761,-21297790,11160760,-22312880,-33806820,72382820,-28808590,-44384770
2026-01-14 16:42:05.811,-22072060,11497390,-22045300,-34517200,80390620,-32929690,-80322260
2026-01-14 16:42:05.821,59373840,-3489784,-6850963,-65043120,82265620,-32929690,-68359380
2026-01-14 16:42:05.831,-22135070,11808130,-21872660,-34575040,82890620,-32246090,-5073242
2026-01-14 16:42:05.841,33870690,-3187675,-6566117,-90546260,821875,-31503910,-25219730
2026-01-14 16:42:05.891,-21580050,13430890,-21182130,-34059720,73867180,-28300780,9790039
2026-01-14 16:42:05.901,59673350,-19179580,-54017020,-65209710,71679690,-27578120,11337890
2026-01-14 16:42:05.951,-20798020,-953798,5,-4535945,-33322580,65234380,-27714840,11884770
2026-01-14 16:42:05.961,-20700480,-8079246,-44056060,-33230220,65585940,-28554690,10869140
2026-01-14 16:42:05.971,35786920,15580180,-20552020,-89544990,66523440,-29296880,9555664
2026-01-14 16:42:05.981,-20523530,-21922720,-25551480,-33061900,6703125,-2984375,8208008
2026-01-14 16:42:05.991,-20426860,-20794570,-24435410,-32968680,67226560,-29941410,73583980
2026-01-14 16:42:06.001,36123560,-3400876,-39930120,-89346460,67382820,-29726560,671875
2026-01-14 16:42:06.011,36227140,-2494550,-39110120,-89294670,6796875,-29628910,6328125
2026-01-14 16:42:06.021,3632207,-1674544,-38376420,-8923425,68867180,-29882810,5839844
2026-01-14 16:42:06.051,60253400,-15764890,-19452340,-65492830,71835940,-30078120,6772461
2026-01-14 16:42:06.061,36814100,-14985450,-18678080,-89001200,72890620,-29785160,7739258
2026-01-14 16:42:06.091,3730608,4151836,-32981630,-8876814,73984380,-30058590,10224610
2026-01-14 16:42:06.101,37487360,17237460,-19965060,-88673190,73867180,-30410160,10966800
2026-01-14 16:42:06.111,60588310,5869543,-31419300,-65675820,7375,-30996090,11660160
2026-01-14 16:42:06.121,37918950,6689554,-30685600,-88466030,734375,-30722660,12421880
2026-01-14 16:42:06.151,3858358,9296314,-28286000,-8812939,70429690,-29023440,1546875
2026-01-14 16:42:06.161,-18276710,10012740,-27621360,-30958360,69453130,-28945310,16210940
2026-01-14 16:42:06.191,39317270,-5277402,-9051176,-87775500,66015620,-28710940,18466800
2026-01-14 16:42:06.201,-23489640,12067080,-25705130,-24761430,65,-28652340,18818360
2026-01-14 16:42:06.211,-17677670,-4670598,-8449545,-30400760,646875,-28769530,19570310
2026-01-14 16:42:06.221,-17606030,-4584281,-8363229,-30334300,64765620,-28769530,1953125
2026-01-14 16:42:06.231,39740230,-4670595,-8449548,-87576970,64804690,-28710940,19511720
2026-01-14 16:42:06.241,-17524890,12153400,-25618810,-30260060,64921880,-28925780,19072270
2026-01-14 16:42:06.271,39809280,10798230,-26853140,-87576970,65742190,-30605470,17177730
2026-01-14 16:42:06.281,39783380,10159490,-27422830,-87602860,66132810,-3140625,16054690
2026-01-14 16:42:06.291,39757490,-7532858,-11284190,-87628750,66328120,-31582030,15341800
2026-01-14 16:42:06.301,39722960,8519466,-28890210,-87663290,66953120,-32089840,14013670
2026-01-14 16:42:06.331,39602120,5334380,-31747300,-87784130,68398440,-33378910,11015630
2026-01-14 16:42:06.341,39567590,4143208,-32800370,-87818660,69375,-33554690,10078130
2026-01-14 16:42:06.371,-17813190,-16214600,-19865800,-30558720,72382820,-32441410,8256836
2026-01-14 16:42:06.381,39558960,16244820,-20129070,-87930870,7359375,-31367190,7285156
2026-01-14 16:42:06.391,-17792470,-18990540,-22614120,-30544910,74726560,-30605470,65283200
2026-01-14 16:42:06.401,-17772620,15830490,-20267170,-30530230,75195310,-29746090,55322260
2026-01-14 16:42:06.411,-17726870,-5584692,-41544250,-30489670,74921870,-28183590,51904300
2026-01-14 16:42:06.421,39783380,15433440,-20405280,-87896340,74335940,-2625,4675293
2026-01-14 16:42:06.451,40102760,-27139710,-30692510,-87801390,7078125,-22460940,2758789
2026-01-14 16:42:06.461,-17372970,14691110,-20750540,-30170290,6828125,-21328120,22302250
2026-01-14 16:42:06.471,-17283200,-14078260,-49450860,-30087430,65820310,-20898440,121276900
2026-01-14 16:42:06.481,-17211560,14319950,-20983600,-30020960,6359375,-20761720,10473630
2026-01-14 16:42:06.511,40629300,13741630,-21389290,-87568340,58007810,-21796880,-7952881
2026-01-14 16:42:06.521,40655190,-38384190,-41890380,-87542450,5734375,-22988280,-16418460
2026-01-14 16:42:06.551,40672450,-28415470,-63252920,-87525180,58398440,-259375,-3293457
2026-01-14 16:42:06.561,40672450,12593620,-22140250,-87525180,59648440,-27128910,-4741211
2026-01-14 16:42:06.571,-17006990,12351930,-22278350,-29828480,61054690,-28164060,-6254883
2026-01-14 16:42:06.581,-16980230,-49717580,-53171980,-29803450,6265625,-28984380,-7685547
2026-01-14 16:42:06.591,61789840,11903080,-22537300,-66459580,63867190,-29335940,-83154300
2026-01-14 16:42:06.601,40870980,11687290,-22649510,-87430230,65078120,-29628910,-86279300
2026-01-14 16:42:06.611,6185628,-54565990,-57991040,-6649672,66210940,-29667970,-8354492
2026-01-14 16:42:06.621,-16676400,11316130,-22848040,-29520330,66640620,-28671880,-7597656
2026-01-14 16:42:06.651,-16220640,10901810,-23037940,-29095650,659375,-26777340,-66259770
2026-01-14 16:42:06.661,-16024700,10806860,-23081100,-28911790,65351560,-25898440,-5395508
2026-01-14 16:42:06.711,4349500,10608330,-23124260,-8616999,58242190,-16601560,48242190
2026-01-14 16:42:06.721,43797110,-45566600,-79247400,-86023260,56992190,-14677730,6142578
2026-01-14 16:42:06.731,-14398500,-45411240,-79057500,-27396070,57109380,-12705080,76416020
2026-01-14 16:42:06.741,-1419223,-45178180,-78772660,-2720533,57734380,-1078125,93652340
2026-01-14 16:42:06.751,-13996260,-45022820,-78582760,-27021460,59726560,-79345700,10322270
2026-01-14 16:42:06.761,-19692990,10608330,-22917100,-20996720,61796880,-4453125,11591800
2026-01-14 16:42:06.791,63315920,10642860,-22744460,-67315840,63515620,7489014,9902344
2026-01-14 16:42:06.801,45411240,10677390,-22675410,-85289570,62851560,-13183590,76220700
2026-01-14 16:42:06.811,65356410,-42735420,-76036420,-65396190,5984375,-37768560,64453120
2026-01-14 16:42:06.821,45549340,10772330,-22476880,-85255050,55859380,-55322260,5996094
2026-01-14 16:42:06.851,4565292,10970860,-21984880,-8530683,47265620,-91503900,61083980
2026-01-14 16:42:06.861,45652920,-37271570,-70106460,-85341360,46679690,-11923830,70947260
2026-01-14 16:42:06.871,45652930,11126230,-21570550,-85393150,47773440,-15097660,80859380
2026-01-14 16:42:06.881,-13350610,11203920,-21337500,-26458670,49453120,-17138670,9897461
2026-01-14 16:42:06.911,63580050,-29667060,-61828680,-67586880,55585940,-22539060,14169920
2026-01-14 16:42:06.921,-13508570,11626870,-20431170,-26628720,559375,-24257810,15283200
2026-01-14 16:42:06.951,4544576,12049820,-19749270,-8580747,53164060,-26132810,175
2026-01-14 16:42:06.961,45419860,-20646960,-52377000,-85850640,51601560,-26171880,17304690
2026-01-14 16:42:06.971,-13694150,-18696200,-50357190,-26822930,496875,-26308590,17128910
2026-01-14 16:42:06.981,4535943,-16736820,-48346010,-8594559,48242190,-25996090,16376950
2026-01-14 16:42:06.991,-13753710,-1485510,-4642977,-26884210,47109380,-25976560,15009770
2026-01-14 16:42:07.001,45324920,-12964780,-44522180,-85997380,46210940,-25410160,14296880
2026-01-14 16:42:07.051,45221340,-4980475,-36451570,-86118220,47460940,-1953125,12226560
2026-01-14 16:42:07.061,65456140,13758890,-17660410,-65866150,50195310,-16894530,11796880
2026-01-14 16:42:07.071,-14013530,-2788031,-34155540,-27142300,54492190,-15507810,9375
2026-01-14 16:42:07.081,4495375,-2037074,-33352790,-8629948,60117190,-15380860,55371100
2026-01-14 16:42:07.091,-14216370,-15526660,-18654780,-27336510,65078120,-16396480,13134770
2026-01-14 16:42:07.101,4468618,15466240,-15797690,-8644621,68945310,-18095700,-27075200
2026-01-14 16:42:07.131,-14545240,500638,-30711500,-27646390,67773440,-24921880,-11298830
2026-01-14 16:42:07.141,-14571130,1087592,-30090020,-27672280,64492190,-26640620,-11523440
2026-01-14 16:42:07.151,-14561640,14181840,-16961240,-27664520,61171880,-28125,-10751950
2026-01-14 16:42:07.161,4445311,2339184,-28752110,-8661021,58789060,-29023440,-92089840
2026-01-14 16:42:07.211,4518681,14285420,-16529660,-8629084,59023440,-325,40478520
2026-01-14 16:42:07.221,6375267,4091413,-26706400,-6782856,60703120,-328125,58447260
2026-01-14 16:42:07.231,63821740,3832466,-26965350,-67863090,62578120,-32070310,7363281
2026-01-14 16:42:07.241,45877350,3400885,-27396930,-85928320,63867190,-30878910,8330078
2026-01-14 16:42:07.271,-12797320,1381069,-29520320,-26010690,65820310,-27441410,69189460
2026-01-14 16:42:07.281,46947680,543800,-30409390,-85306830,65234380,-24941410,6669922
2026-01-14 16:42:07.311,-11850430,-16225820,-19336680,-25110410,59492190,-15019530,5986328
2026-01-14 16:42:07.321,-11647580,-3236877,-34397220,-24916190,57695310,-12949220,578125
2026-01-14 16:42:07.331,-11462000,-18377700,-21500640,-24739240,565625,-13085940,5175781
2026-01-14 16:42:07.341,-17289760,-5584692,-36883140,-18618000,56328120,-14482420,50439450
2026-01-14 16:42:07.351,-11171980,13430890,-17936620,-24459580,55742190,-16181640,5029297
2026-01-14 16:42:07.361,48734440,-8182824,-39636650,-84158830,55117190,-175,52441410
2026-01-14 16:42:07.411,-10745570,-15217640,-46930420,-24040080,57851560,-19101560,5883789
2026-01-14 16:42:07.421,-10719680,-16590080,-48320120,-24014180,58632810,-20253910,625
2026-01-14 16:42:07.431,-10693780,-17971140,-49701180,-23988290,59726560,-21855470,64697260
2026-01-14 16:42:07.441,-10677380,-19248640,-51013200,-23970160,609375,-23046880,5830078
2026-01-14 16:42:07.451,49148760,15536160,-16262940,-83761780,61953120,-240625,5571289
2026-01-14 16:42:07.461,49166020,-21630970,-53464600,-83744510,6265625,-23847660,5024414
2026-01-14 16:42:07.471,49183280,15556010,-16329410,-83709980,63046880,-22753910,50439450
2026-01-14 16:42:07.481,-10593650,-23650790,-55587980,-23881250,63007810,-22363280,48095700
2026-01-14 16:42:07.491,4922642,-24574380,-56563360,-8364957,63164060,-228125,4477539
2026-01-14 16:42:07.501,-10542730,11894450,-20163590,-23828600,6328125,-22753910,40673830
2026-01-14 16:42:07.511,49269590,-26059020,-58186120,-83571870,63085940,-22871090,34570310
2026-01-14 16:42:07.521,49304120,-41029800,-44251150,-83537340,6234375,-23339840,21325680
2026-01-14 16:42:07.531,49355910,-26922190,-59221920,-83485550,61953120,-23398440,14233400
2026-01-14 16:42:07.541,49416340,-41711700,-44950310,-83425140,61132810,-22226560,11590580
2026-01-14 16:42:07.551,-10301040,-27172510,-59662140,-23586910,603125,-19619140,15124510
2026-01-14 16:42:07.561,-10231990,-27207040,-59800240,-23517860,5984375,-17832030,16809080
2026-01-14 16:42:07.571,-10180200,-26973980,-59688030,-23466070,596875,-17841800,20178220
2026-01-14 16:42:07.581,-10137040,-26835880,-59653500,-23422910,59609380,-19423830,1697998
2026-01-14 16:42:07.591,49683910,-26516500,-59454980,-83157550,60859380,-23046880,-8468628
2026-01-14 16:42:07.601,49744330,-26188500,-59265080,-83097130,6328125,-2609375,-24612430
2026-01-14 16:42:07.631,-9745162,-38810600,-42154510,-23037940,58710940,-16542970,58691410
2026-01-14 16:42:07.641,-9656257,-22709940,-56183570,-22954210,56210940,-12841800,6645508
2026-01-14 16:42:07.651,50262240,-21415180,-54888820,-82751860,54882810,-10488280,71240230
2026-01-14 16:42:07.661,50331290,-20129060,-53585440,-82734600,546875,-10195310,76660160
2026-01-14 16:42:07.671,50357180,-18661670,-52118050,-82725970,55585940,-12314450,6459961
2026-01-14 16:42:07.681,-9520738,-17107970,-50564340,-22830780,57265620,-13671880,625
2026-01-14 16:42:07.691,5036581,-15373010,-48846640,-8275188,56953120,-13232420,6484375
2026-01-14 16:42:07.701,-9563032,-1363804,-4712894,-22874800,57109380,-15410160,52685550
2026-01-14 16:42:07.711,5029675,-11799500,-45342180,-8280366,58984380,-20527340,35888670
2026-01-14 16:42:07.721,50262240,-9857370,-43486380,-82820910,6109375,-24746090,23730470
2026-01-14 16:42:07.731,-9635540,14406270,-19343580,-22940400,61914060,-29316410,1184082
2026-01-14 16:42:07.741,-9609644,-20919730,-24310250,-22914510,63945310,-34335940,-50146480
2026-01-14 16:42:07.751,-9531960,-3228248,-37340620,-22836820,68554690,-35449220,-77001950
2026-01-14 16:42:07.761,50469400,-543792,-34846080,-82596500,69570310,-31152340,-515625
2026-01-14 16:42:07.771,-9252294,2477289,-31997620,-22564060,6578125,-2640625,-63964840
2026-01-14 16:42:07.781,-9085701,5481115,-29131900,-22402650,634375,-23222660,-3262329
2026-01-14 16:42:07.791,-8901846,8657570,-26093550,-22223970,62578120,-22011720,-1977539
2026-01-14 16:42:07.801,-8682602,17398000,-17508490,-22011630,60585940,-22363280,-35180660
2026-01-14 16:42:07.811,51548360,-22415590,-25921780,-81811010,59375,-21894530,-20495600
2026-01-14 16:42:07.821,-8253607,17600500,-17599470,-21594720,58046880,-19726560,17004400
2026-01-14 16:42:07.831,-8052489,52195730,16857660,-21398780,55820310,-16875,49560550
2026-01-14 16:42:07.841,-7868636,24030580,-11428340,-21220110,5421875,-13710940,67333980
2026-01-14 16:42:07.851,52394260,107550700,71988170,-81155000,52109380,-11826170,76464850
2026-01-14 16:42:07.861,-13574430,29321800,-6361544,-14910090,52304690,-12021480,85302740
2026-01-14 16:42:07.871,-745172,5,3172141,-410004,7,-2080838,52382810,-14287110,92626950
2026-01-14 16:42:07.881,-13367270,34034690,-1924863,-14702930,53164060,-15732420,9003906
2026-01-14 16:42:07.891,52834480,36434300,336633,1,-80714780,54375,-15322270,6948242
2026-01-14 16:42:07.901,52912160,22441490,18817910,-80619840,54882810,-15664060,4716797
2026-01-14 16:42:07.911,-7091785,40983190,4592050,-20443260,55039060,-17246090,55322260
2026-01-14 16:42:07.921,-6997700,20776440,-15787330,-20347450,55859380,-19951170,5986328
2026-01-14 16:42:07.931,-6895843,45385340,8648940,-20242140,5578125,-20410160,7011719
2026-01-14 16:42:07.941,-6784497,47456940,10547910,-20129060,5625,-22089840,77783200
2026-01-14 16:42:07.951,-6655021,49442230,12360560,-19999590,56523440,-22128910,83154300
2026-01-14 16:42:07.961,53533650,21898560,-15338490,-79894780,55820310,-21992190,93652340
2026-01-14 16:42:07.971,53680380,36482640,32743390,-79748040,55664060,-22871090,9638672
2026-01-14 16:42:07.981,-6188911,22390560,-15139960,-19533480,54375,-2109375,10791020
2026-01-14 16:42:07.991,-6016276,56632420,18981050,-19360840,5296875,-20039060,11621090
2026-01-14 16:42:08.001,54224180,58237910,20482960,-79256030,5140625,-18759770,11582030
2026-01-14 16:42:08.011,-5668421,59575820,21734550,-19018170,50976560,-18916020,1203125
2026-01-14 16:42:08.021,54586710,2314155,-1476882,-78945300,5046875,-18369140,13427730
2026-01-14 16:42:08.031,54759340,44712080,40914130,-78789920,51015620,-19091800,12275390
2026-01-14 16:42:08.041,-5172098,62527850,24479430,-18530480,50351560,-19208980,18242190
2026-01-14 16:42:08.051,55095980,23452260,-14665220,-78505080,5078125,-2125,190625
2026-01-14 16:42:08.061,-4867403,19093710,-19092820,-18230960,490625,-21816410,17558590
2026-01-14 16:42:08.071,-4736200,1913222,-1912337,-18103210,49804690,-21523440,16914060
2026-01-14 16:42:08.081,-4614494,6318387,2485923,-17983230,51171880,-23105470,14824220
2026-01-14 16:42:08.091,5565706,45508780,41671140,-7804759,51796880,-24609380,16103520
2026-01-14 16:42:08.101,-4396110,44735380,40890830,-17770030,53085940,-26796880,17001950
2026-01-14 16:42:08.111,55915990,61293520,22778980,-77857700,53515620,-27070310,17177730
2026-01-14 16:42:08.121,-10189610,19693170,-18873160,-11527690,52460940,-25996090,16816410
2026-01-14 16:42:08.131,56166300,41809240,37947430,-77659180,51640620,-24804690,15683590
2026-01-14 16:42:08.141,-3958487,5783223,1916232,-17344490,51914060,-2390625,1546875
2026-01-14 16:42:08.151,56373470,38879660,35007480,-77521060,52070310,-25078120,15410160
2026-01-14 16:42:08.161,5645980,35411180,35023280,-7745200,51992190,-24804690,14785160
2026-01-14 16:42:08.171,56537460,5273957,1389697,-77408860,51132810,-21953120,14472660
2026-01-14 16:42:08.181,56571990,33277700,29388260,-77374330,49726560,-20664060,12646480
2026-01-14 16:42:08.191,-3702988,31036910,27140580,-17099350,51015620,-21035160,11142580
2026-01-14 16:42:08.201,65932180,46101780,7069339,-68014140,50507810,-22910160,11035160
2026-01-14 16:42:08.211,56537460,43469110,4350361,-77408860,51054690,-24003910,11757810
2026-01-14 16:42:08.221,-3765136,40586140,1363802,-17158040,521875,-24179690,12597660
2026-01-14 16:42:08.231,56459780,37530520,-1795391,-77434750,52773440,-22988280,13544920
2026-01-14 16:42:08.241,-3846274,34310910,-5135846,-17232270,53554690,-2203125,14541020
2026-01-14 16:42:08.251,56321680,19803480,-19781380,-77503810,55117190,-22304690,15986330
2026-01-14 16:42:08.261,56235360,27189780,-12515930,-77538340,56757810,-22695310,16640630
2026-01-14 16:42:08.271,56149040,23469530,-16391550,-77572860,59296880,-22949220,16123050
2026-01-14 16:42:08.281,56045460,1997373,-2002551,-77607380,61210940,-225,15019530
2026-01-14 16:42:08.291,-4170828,-22226560,-62363850,-17529210,62382810,-21855470,14130860
2026-01-14 16:42:08.301,-4260596,19317690,-20957700,-17612070,6296875,-21054690,12773440
2026-01-14 16:42:08.311,55682930,-10236300,-14277660,-77745500,63984380,-2078125,10634770
2026-01-14 16:42:08.321,-4459124,-14287150,-18340580,-17793330,63867190,-2140625,8388672
2026-01-14 16:42:08.331,55398080,-18251670,-22317200,-77857700,64257810,-22382810,6425781
2026-01-14 16:42:08.341,-4667149,-3866990,-44643020,-17982370,64179690,-22324220,390625
2026-01-14 16:42:08.351,-4767276,-7690822,-48587700,-18072140,64335940,-23125,2927246
2026-01-14 16:42:08.361,5495786,-31904830,-32314830,-7798719,66015620,-23769530,24719240
2026-01-14 16:42:08.371,65260640,16961240,-24160060,-67580830,65703120,-22910160,20141600
2026-01-14 16:42:08.381,65200210,-19257260,-60499410,-67537670,63125,-2046875,23583980
2026-01-14 16:42:08.391,54517660,16305240,-25057750,-78099390,6171875,-18662110,20947270
2026-01-14 16:42:08.401,5431912,15968600,-25515230,-7815981,60976560,-19179690,19042970
2026-01-14 16:42:08.411,54103340,15640600,-25981340,-78220230,61132810,-21601560,2770996
2026-01-14 16:42:08.421,53861650,-3479425,-7655435,-78289290,61914060,-22910160,35546880
2026-01-14 16:42:08.431,53611320,-38687160,-80602580,-78366980,634375,-23320310,39233400
2026-01-14 16:42:08.441,-5961899,14682480,-27405570,-19139010,65507810,-234375,4284668
2026-01-14 16:42:08.451,53050260,-65385800,-69613590,-78513710,67578130,-22285160,50341800
2026-01-14 16:42:08.461,-12273470,14104160,-28363680,-13587030,68867180,-209375,5258789
2026-01-14 16:42:08.471,-6580791,13836580,-28821160,-19694030,69726560,-18955080,6015625
2026-01-14 16:42:08.481,-6817301,-56951780,-99799420,-19906370,70703130,-18798830,6015625
2026-01-14 16:42:08.491,-7062440,-79590070,-83893830,-20127340,71835940,-19355470,53466800
2026-01-14 16:42:08.501,51367090,-8268881,-8700989,-79040240,725,-20117190,45751950
2026-01-14 16:42:08.511,50995930,12895730,-30469810,-79169720,73046870,-20078120,42749020
2026-01-14 16:42:08.521,50624770,1267997,-3082373,-79316460,72929690,-19003910,3400879
2026-01-14 16:42:08.531,50236340,12464140,-31160350,-79463190,71992190,-17929690,23059080
2026-01-14 16:42:08.541,49856550,-7420647,-11793460,-79618570,71835940,-17705080,9484863
2026-01-14 16:42:08.551,49450860,12032560,-31764560,-79782570,70859380,-1734375,91674810
2026-01-14 16:42:08.561,64489040,20904190,-22927460,-64519970,70429690,-17910160,-111694300
2026-01-14 16:42:08.571,48613590,-8182824,-12567720,-80153730,71367180,-19902340,-36035160
2026-01-14 16:42:08.581,-9654528,-8441777,-12826670,-22507090,73046870,-21054690,-57666020
2026-01-14 16:42:08.591,47759060,20828230,-23003410,-80542150,74140620,-21269530,-7055664
2026-01-14 16:42:08.601,-10290680,10772330,-33024780,-23096630,75273440,-20058590,-9375
2026-01-14 16:42:08.611,46913150,10522010,-33223310,-80921940,7703125,-21679690,-1171875
2026-01-14 16:42:08.621,46498830,-9391257,-13758890,-81111850,78671870,-23574220,-14521480
2026-01-14 16:42:08.631,-11212550,10038640,-33603110,-23952900,8046875,-26210940,-17236330
2026-01-14 16:42:08.641,45773770,-9783135,-14143860,-81439860,8328125,-27246090,-18066410
2026-01-14 16:42:08.651,45463030,9667479,-33922480,-81560690,8390625,-28007810,-18320310
2026-01-14 16:42:08.661,-11895310,9529369,-34060590,-24582150,8359375,-29082030,-18486330
2026-01-14 16:42:08.671,61524850,9417159,-34172800,-65205390,8328125,-30742190,-19355470
2026-01-14 16:42:08.681,4475523,-10283780,-14644500,-8185418,8359375,-31914060,-18164060
2026-01-14 16:42:08.691,-12326900,9287684,-34336800,-24979200,834375,-31035160,-16835940
2026-01-14 16:42:08.701,44479020,20573600,-23085410,-81957740,81796870,-30878910,-15800780
2026-01-14 16:42:08.711,44401340,9261790,-34431750,-81983650,82734380,-32871090,-14716800
2026-01-14 16:42:08.721,4437544,-10398580,-14771390,-8199228,82578130,-33242190,-15078130
2026-01-14 16:42:08.731,-12472770,-10378720,-14756710,-25109540,81328130,-3265625,-14462890
2026-01-14 16:42:08.741,61316830,20653870,-23160510,-65068160,81015620,-31347660,-12490230
2026-01-14 16:42:08.751,44530810,20668550,-23163100,-81905960,79882820,-29238280,-109375
2026-01-14 16:42:08.761,-12275110,9520739,-34310900,-24927410,77304690,-27929690,-9482422
2026-01-14 16:42:08.771,44832920,9607057,-34224600,-81793740,75664060,-27148440,-7788086
2026-01-14 16:42:08.781,45022820,9693374,-34121010,-81724700,746875,-26074220,-5
2026-01-14 16:42:08.791,4523859,9771055,-33991530,-8164700,72851560,-25800780,-31518560
2026-01-14 16:42:08.801,-11696780,9848743,-33844790,-24400880,72265620,-26992190,-20483400
2026-01-14 16:42:08.811,-11506020,-9696823,-14057550,-24229110,7140625,-27089840,-24902340
2026-01-14 16:42:08.821,-17031930,-9581158,-13931520,-18306140,6984375,-2546875,12915040
2026-01-14 16:42:08.831,-11071850,10055900,-33309630,-23834640,68085940,-23066410,6665039
2026-01-14 16:42:08.841,46688730,-11289970,-11722080,-81163630,66953120,-2421875,6870117
2026-01-14 16:42:08.851,47034000,-9224666,-13528430,-81042790,67421870,-28945310,5488281
2026-01-14 16:42:08.861,62484690,10176750,-32653630,-65833780,65234380,-253125,88671870
2026-01-14 16:42:08.871,-10049000,10194010,-32411940,-22906740,60820310,-21074220,11943360
2026-01-14 16:42:08.881,48190640,-8871632,-13104610,-80645740,60078120,-20839840,14091800
2026-01-14 16:42:08.891,-9522464,-8791359,-12994990,-22432000,62578120,-22246090,14550780
2026-01-14 16:42:08.901,48958860,10047270,-31660980,-80395420,615625,-22382810,16582030
2026-01-14 16:42:08.911,6465192,19608580,-21754410,-6496128,60,-21601560,17353520
2026-01-14 16:42:08.921,49718450,-861869,1,-1271879,-80153730,58085940,-22753910,17763670
2026-01-14 16:42:08.931,50072340,9676111,-30944550,-80041510,57539060,-24824220,17763670
2026-01-14 16:42:08.941,5043486,9503474,-30720130,-7992067,54765620,-259375,17480470
2026-01-14 16:42:08.951,63839000,9287685,-30504340,-66740970,53359380,-27929690,16777340
2026-01-14 16:42:08.961,-7727077,-8666200,-12602240,-20809240,5328125,-28652340,17109380
2026-01-14 16:42:08.971,-7483663,8778414,-30150440,-20586540,528125,-29980470,17109380
2026-01-14 16:42:08.981,-7231619,8484937,-29995070,-20355220,53632810,-30,16796880
2026-01-14 16:42:08.991,52161210,8156937,-29856960,-79281930,54648440,-29550780,15996090
2026-01-14 16:42:09.001,52489220,17677670,-19870120,-79143820,54882810,-29511720,15058590
2026-01-14 16:42:09.011,-6503105,7440503,-29623900,-19685400,553125,-28203120,14443360
2026-01-14 16:42:09.021,-6261417,-11046900,-11412710,-19460970,553125,-27753910,13095700
2026-01-14 16:42:09.031,-6028364,6655023,-29425380,-19245180,57109380,-27441410,11181640
2026-01-14 16:42:09.041,-11759280,-9778823,-13336800,-13082690,58007810,-27265620,9873047
2026-01-14 16:42:09.051,-5589872,-9977351,-13483540,-18837770,59648440,-27324220,7817383
2026-01-14 16:42:09.061,5431048,5377533,-29183690,-7832381,60585940,-27109380,5419922
2026-01-14 16:42:09.071,-5160880,4945951,-29114640,-18438120,62578120,-26328120,3293457
2026-01-14 16:42:09.081,54862920,4523001,-29036950,-78047600,64257810,-24453120,1505127
2026-01-14 16:42:09.091,-4742244,4117311,-28976530,-18045380,65390620,-23164060,-8404541
2026-01-14 16:42:09.101,5538081,3737514,-28907480,-7777139,6640625,-24023440,-36376950
2026-01-14 16:42:09.111,55622510,3392252,-28838430,-77633280,66445310,-2359375,-5517578
2026-01-14 16:42:09.121,65606770,3072880,-28760740,-67769860,6515625,-22617190,-71728510
2026-01-14 16:42:09.131,56114520,2788034,-28683060,-77365700,64023440,-23320310,-80078130
2026-01-14 16:42:09.141,-9776495,2529080,-28614000,-11112160,63007810,-25136720,-8540039
2026-01-14 16:42:09.151,-3588188,2304657,-28544950,-16955200,62226560,-26816410,-8144531
2026-01-14 16:42:09.161,5678778,2097496,-28475890,-7696865,61132810,-29140620,-71728510
2026-01-14 16:42:09.171,57029470,1942128,-28406840,-76813270,59726560,-30078120,-6567383
2026-01-14 16:42:09.181,57288420,1804022,-28337790,-76657900,575,-28535160,-5029297
2026-01-14 16:42:09.191,-8772804,1691810,-28260100,-10113300,54492190,-23847660,-2322998
2026-01-14 16:42:09.201,-2485060,1579597,-28165160,-15900410,51132810,-16669920,103271500
2026-01-14 16:42:09.211,-2220068,1476016,-28078840,-15647500,50117190,-10576170,37719730
2026-01-14 16:42:09.221,-79943110,1346546,-27983880,-93380900,48710940,-3996582,6582031
2026-01-14 16:42:09.231,-77261260,1208439,-27880300,-90711130,49257810,19360350,89746100
2026-01-14 16:42:09.241,-74666580,1053068,-27776720,-88126810,49375,50683590,10341800
2026-01-14 16:42:09.251,-72157340,871804,-27664510,-85629660,47695310,4946289,1109375
2026-01-14 16:42:09.261,-8890632,690540,-27535040,-143717400,45546880,64501950,12119140
2026-01-14 16:42:09.271,60085090,466113,-27396940,-74862510,425,50634770,12333980
2026-01-14 16:42:09.281,60378560,224427,-27241570,-74672620,39140620,19592280,12021480
2026-01-14 16:42:09.291,60663400,-43154,-27077570,-74508610,37050780,10421750,12626950
2026-01-14 16:42:09.301,60948250,-353896,-26904930,-74344610,36210940,-22387700,12705080
2026-01-14 16:42:09.311,2874348,-673264,-26706400,-132522100,37246100,-62597660,12128910
2026-01-14 16:42:09.321,61500680,-1009904,-26507870,-74016610,3953125,-89501950,13154300
2026-01-14 16:42:09.331,61776900,-12580660,-15075220,-73861250,4078125,-11494140,13857420
2026-01-14 16:42:09.341,62061740,-1700436,-26076290,-73697240,4328125,-13535160,13974610
2026-01-14 16:42:09.351,62346590,-2037072,-25860500,-73515980,46054690,-15439450,13642580
2026-01-14 16:42:09.361,14475320,-2356442,-25627440,-121508100,478125,-17275390,14003910
2026-01-14 16:42:09.371,-44295160,-12898310,-15171890,-57903860,48164060,-18183590,13505860
2026-01-14 16:42:09.381,-41873120,-2934768,-25187220,-55492170,49492190,-18212890,14238280
2026-01-14 16:42:09.391,2179497,-3193720,-24980070,-11449920,49570310,-19199220,14306640
2026-01-14 16:42:09.401,68189780,-3418139,-24772910,-68190660,48320310,-2171875,1375
2026-01-14 16:42:09.411,-35471870,-3625302,-24600270,-49118540,48515620,-25214840,13105470
2026-01-14 16:42:09.421,-33569440,-13089070,-15153770,-47223030,47734380,-26972660,11816410
2026-01-14 16:42:09.431,2953758,-13129640,-15164990,-10705000,48320310,-28105470,10351560
2026-01-14 16:42:09.441,31108560,-4108673,-24220480,-105513600,4921875,-2671875,7661133
2026-01-14 16:42:09.451,3250688,8541905,-11380000,-10414980,4875,-23671880,6225586
2026-01-14 16:42:09.461,33473640,-4324463,-24091000,-103217600,49726560,-22363280,4128418
2026-01-14 16:42:09.471,34077850,8418477,-11261750,-102613300,48789060,-23300780,34033200
2026-01-14 16:42:09.481,34250490,-4402151,-24065110,-102440700,48828120,-26308590,25830080
2026-01-14 16:42:09.491,34069220,-13265150,-15236630,-102604700,50039060,-29023440,22241210
2026-01-14 16:42:09.501,-27866500,-4333098,-24185950,-41532160,50976560,-31035160,122558600
2026-01-14 16:42:09.511,-28386990,-4220887,-24298160,-42047480,52109380,-30449220,74401860
2026-01-14 16:42:09.521,64694400,-13241850,-15277200,-71875950,53359380,-26679690,62347410
2026-01-14 16:42:09.531,31488350,-13198690,-15268570,-105030200,52539060,-22109380,10681150
2026-01-14 16:42:09.541,30331700,-3659824,-24755640,-106117800,52304690,-18203120,20751950
2026-01-14 16:42:09.551,28916100,-3392243,-24936910,-107464300,51054690,-15585940,3947754
2026-01-14 16:42:09.561,-34012250,-3090138,-25135430,-47643390,48359380,-13535160,7036133
2026-01-14 16:42:09.571,25472070,-12941460,-15197790,-110753000,45195310,-11044920,10498050
2026-01-14 16:42:09.581,2343499,-2468659,-25584280,-11268650,42890620,-8833008,14824220
2026-01-14 16:42:09.591,2113033,-2149287,-25834600,-11487030,39199220,-77490230,18320310
2026-01-14 16:42:09.601,1873935,-1847178,-26084920,-11714050,36269530,-6586914,22382810
2026-01-14 16:42:09.611,62726380,10999350,-13790830,-73032600,33945310,-48461910,26289060
2026-01-14 16:42:09.621,-47166920,-1320644,-26628710,-60729010,31191410,-17541500,29804690
2026-01-14 16:42:09.631,11281600,-1122114,-26913560,-124183900,30996090,37902830,33261720
2026-01-14 16:42:09.641,-52275150,-12775740,-15398040,-65806160,31171880,38116460,35957030
2026-01-14 16:42:09.651,6140572,-871799,-27491880,-7373176,30859380,-4006958,37636720
2026-01-14 16:42:09.661,334908,-837271,-27802620,-13161580,33164060,1171875,38789060
2026-01-14 16:42:09.671,75094,5,-871799,-28130630,-13402400,36484380,24182130,40351560
2026-01-14 16:42:09.681,60378560,-958113,-28475900,-74206500,38574220,19506840,41015620
2026-01-14 16:42:09.691,-444533,-1113486,-28821160,-13884050,40859380,-8807373,41601560
2026-01-14 16:42:09.701,59696660,-1312011,-29175060,-74491350,39746100,-5004883,415625
2026-01-14 16:42:09.711,-69346870,-1588224,-29537590,-82743220,38027340,-8051758,41875
2026-01-14 16:42:09.721,-1115214,-1924864,-29908750,-14490860,37167970,-11542970,41992190
2026-01-14 16:42:09.731,-1299932,-14924170,-17720830,-14651410,38691410,-13535160,4203125
2026-01-14 16:42:09.741,-74560410,-2831185,-30711500,-87887710,44335940,-14716800,41484380
2026-01-14 16:42:09.751,-1591683,-3374986,-31134450,-14894820,50078120,-16464840,39882810
2026-01-14 16:42:09.761,-1690946,-3979200,-31566030,-14968190,5828125,-18183590,37109380
2026-01-14 16:42:09.771,5788400,13506930,-13872740,-7462945,58867190,-21640620,35859380
2026-01-14 16:42:09.781,-17772620,-526525,8,-3242057,-150027100,60585940,-22558590,34589840
2026-01-14 16:42:09.791,57633690,-5973115,-32852150,-74344610,64648440,-23417970,3109375
2026-01-14 16:42:09.801,-1717705,-6706812,-33275100,-14889640,65859380,-24003910,27558590
2026-01-14 16:42:09.811,57495580,-7457765,-33698060,-73947550,66796880,-24375,23378910
2026-01-14 16:42:09.821,-15735540,-19879600,-22467380,-146885200,6890625,-25800780,18632810
2026-01-14 16:42:09.831,57400640,10579850,-14935390,-73455550,71015620,-26855470,125
2026-01-14 16:42:09.841,-72451690,-9788315,-34941010,-85507960,73867180,-28476560,69384770
2026-01-14 16:42:09.851,-1237783,10109420,-14698020,-14264700,753125,-2765625,16772460
2026-01-14 16:42:09.861,-69460820,-11272960,-35735130,-82456660,75742190,-28046880,-31201170
2026-01-14 16:42:09.871,57383370,-22849770,-25263190,-72264380,79570310,-28339840,-10439450
2026-01-14 16:42:09.881,-8174196,-23390970,-25775040,-137528500,809375,-2609375,-15263670
2026-01-14 16:42:09.891,-686220,-13292780,-36857250,-13590570,82578130,-26328120,-19570310
2026-01-14 16:42:09.901,-63651700,-13888360,-37193880,-76526700,84375,-28691410,-25976560
2026-01-14 16:42:09.911,57340220,-14414890,-37530520,-71133630,85,-25957030,-31601560
2026-01-14 16:42:09.921,-399648,5,-14898270,-37824000,-13221140,83125,-2484375,-35175780
2026-01-14 16:42:09.931,-3521728,-15321220,-38108840,-131477700,8203125,-26347660,-4046875
2026-01-14 16:42:09.941,-338362,5,-15701020,-38350530,-13109790,79492190,-26660160,-43125
2026-01-14 16:42:09.951,-61038020,-1602036,-3858356,-73788730,78945310,-29707030,-47304690
2026-01-14 16:42:09.961,-4186360,-16270700,-38764850,-131503600,75234380,-30488280,-5015625
2026-01-14 16:42:09.971,62886060,-1648647,-3892888,-64258500,73554690,-29628910,-52929690
2026-01-14 16:42:09.981,-615439,5,-26726250,-28965310,-13316090,71484380,-28203120,-55390620
2026-01-14 16:42:09.991,-759589,5,-16762710,-39136010,-13448150,71875,-28378910,-58671880
2026-01-14 16:42:10.001,56123150,-16840400,-39196440,-70676150,7203125,-28398440,-60742190
2026-01-14 16:42:10.011,55881460,-16857660,-39213700,-70848780,71015620,-2765625,-61953120
2026-01-14 16:42:10.021,55622510,-26898890,-29137950,-71055940,7078125,-2671875,-63007810
2026-01-14 16:42:10.031,-1660736,-26853140,-29097370,-14325130,71875,-28710940,-64140620
2026-01-14 16:42:10.041,62484690,-16624610,-39153280,-64141980,7265625,-32871090,-63710940
2026-01-14 16:42:10.051,54716180,-16443340,-39110120,-71910480,7421875,-36113280,-63710940
2026-01-14 16:42:10.061,54396810,-26487150,-28772830,-72229860,76679690,-38359380,-64140620
2026-01-14 16:42:10.071,-2903696,-15890910,-39023800,-15568090,79335940,-38945310,-64375
2026-01-14 16:42:10.081,53792590,-15493860,-38972020,-72885860,80859380,-36816410,-6359375
2026-01-14 16:42:10.091,62379380,-15036370,-38911590,-64350860,82890620,-3296875,-60546880
2026-01-14 16:42:10.101,62381980,-26550340,-26793410,-64417330,84375,-30078120,-56875
2026-01-14 16:42:10.111,-4169963,-13940150,-38730320,-16856800,86875,-28105470,-53515620
2026-01-14 16:42:10.121,-4510913,10066260,-15259070,-17206380,89453130,-30097660,-49648440
2026-01-14 16:42:10.131,-4859634,-12593610,-38505900,-17565460,9015625,-31914060,-45664060
2026-01-14 16:42:10.141,-5191091,10757660,-15776110,-17907270,8984375,-32050780,-40429690
2026-01-14 16:42:10.151,-5521684,-11014020,-38203790,-18249950,91171870,-30410160,-35722660
2026-01-14 16:42:10.161,-11568090,-10142220,-38022520,-12842290,91015620,-28925780,-30507810
2026-01-14 16:42:10.171,51272140,11941930,-16646190,-76286740,8953125,-28417970,-24121090
2026-01-14 16:42:10.181,5106498,-8286407,-37582310,-7664928,88984380,-2859375,-19179690
2026-01-14 16:42:10.191,-6665380,-20812690,-23813060,-19454070,87109380,-28339840,-13603520
2026-01-14 16:42:10.201,-6898437,-6318386,-37029880,-19704390,8328125,-27792970,-65478520
2026-01-14 16:42:10.211,-7105596,13590570,-17794200,-19928810,80390620,-25253910,-3527832
2026-01-14 16:42:10.221,50503920,-18742820,-21946900,-77918130,78710940,-24316410,5913086
2026-01-14 16:42:10.231,-7431010,-3349090,-35994080,-20293930,7546875,-23125,1296875
2026-01-14 16:42:10.241,5044349,-2408238,-35588390,-7841013,71601560,-23007810,20039060
2026-01-14 16:42:10.251,-7615727,14980270,-18648730,-20523530,6625,-21503910,28867190
2026-01-14 16:42:10.261,50529820,-716428,-34707960,-78772660,6125,-17392580,36621100
2026-01-14 16:42:10.271,-7660612,-15404090,-18829140,-20616750,565625,-16572270,44375
2026-01-14 16:42:10.281,50788770,612853,-33741220,-79031610,50820310,-165625,51210940
2026-01-14 16:42:10.291,51004560,1087597,-33214680,-79109300,43945310,-15869140,57929690
2026-01-14 16:42:10.301,-7418927,1415596,-32679520,-20461390,3796875,-15585940,63789060
2026-01-14 16:42:10.311,51600150,1570969,-32144360,-79152460,32558590,-13144530,6890625
2026-01-14 16:42:10.321,64191170,1570968,-31626450,-66906700,29414060,-11269530,7140625
2026-01-14 16:42:10.331,64387110,1406967,-31117190,-67056020,28300780,-10810550,72109380
2026-01-14 16:42:10.341,5279994,1087591,-30642440,-7897119,2984375,-12646480,7078125
2026-01-14 16:42:10.351,64770360,612853,-30202230,-67328780,33964840,-15136720,6828125
2026-01-14 16:42:10.361,-5835013,8633,-29805170,-19076000,39550780,-18007810,64375
2026-01-14 16:42:10.371,5428459,-707797,-29451280,-7841877,4484375,-19482420,60585940
2026-01-14 16:42:10.381,-4986520,-1510543,-29149160,-18284480,50273440,-19501950,5640625
2026-01-14 16:42:10.391,-4481566,-2390974,-28872950,-17805420,54179690,-19355470,52578120
2026-01-14 16:42:10.401,56123150,-3340456,-28631270,-77357070,57460940,-19941410,47734380
2026-01-14 16:42:10.411,-3354270,-4324467,-28441370,-16723010,61679690,-2140625,42265620
2026-01-14 16:42:10.421,-2732788,9790910,-13152080,-16118790,65,-21367190,36816410
2026-01-14 16:42:10.431,-2088004,-16173170,-18353530,-15486090,67070310,-21269530,31757810
2026-01-14 16:42:10.441,-74606140,8566941,-12114550,-88014590,6796875,-21640620,25683590
2026-01-14 16:42:10.451,-750956,5,-8407252,-28035680,-14164580,68554690,-22089840,1875
2026-01-14 16:42:10.461,-61050970,-9399891,-28027040,-74466310,671875,-23203120,13095700
2026-01-14 16:42:10.471,604216,-10349380,-28044310,-12809410,64453120,-23496090,90966800
2026-01-14 16:42:10.481,1248999,64469980,-103847700,-12159440,62226560,-23554690,4416504
2026-01-14 16:42:10.491,-41810970,-12144770,-28199680,-55209060,61992190,-25566410,-13537600
2026-01-14 16:42:10.501,24194580,-12964770,-28346420,-109648200,62890620,-27402340,-6796875
2026-01-14 16:42:10.511,-30777960,-13715730,-28527680,-44144970,62578120,-27773440,-1140625
2026-01-14 16:42:10.521,-25952860,5015868,-9329975,-39302600,62617190,-28476560,-16875
2026-01-14 16:42:10.531,-21561060,4801802,-9198774,-34890090,628125,-28671880,-21992190
2026-01-14 16:42:10.541,4203625,4643841,-9115048,-9106417,61601560,-2703125,-27109380
2026-01-14 16:42:10.551,45048710,-15873650,-29511700,-87861820,58945310,-27851560,-30625
2026-01-14 16:42:10.561,47370630,-16167120,-29787910,-85350000,55742190,-30527340,-32753910
2026-01-14 16:42:10.571,-10635090,-16348390,-30090020,-23891610,528125,-3171875,-34589840
2026-01-14 16:42:10.581,-9434421,-16434710,-30400760,-22675410,50703120,-34199220,-34863280
2026-01-14 16:42:10.591,50771510,-16417440,-30711500,-81500270,47539060,-36464840,-34667970
2026-01-14 16:42:10.601,50970040,5004649,-9738257,-81180900,4421875,-38574220,-33730470
2026-01-14 16:42:10.611,-8589381,5266186,-10011880,-21794120,41640620,-38886720,-32890620
2026-01-14 16:42:10.621,50357180,-15778700,-31695510,-81603850,39960940,-3796875,-30820310
2026-01-14 16:42:10.631,4945085,-15390280,-32032140,-8242387,3953125,-36230470,-28886720
2026-01-14 16:42:10.641,-11103790,84729380,-89457810,-24286070,39257810,-35410160,-26289060
2026-01-14 16:42:10.651,63960710,6780183,-11484450,-67827700,39707030,-346875,-2328125
2026-01-14 16:42:10.661,-14732540,-13767520,-32947100,-27907930,41171880,-32402340,-20878910
2026-01-14 16:42:10.671,42217520,-22141100,-24159190,-89519100,43242190,-29550780,-17753910
2026-01-14 16:42:10.681,39628020,-12265610,-33516790,-92108600,46914060,-25605470,-14013670
2026-01-14 16:42:10.691,36779560,10978030,-11429810,-94957060,50820310,-18261720,-99902340
2026-01-14 16:42:10.701,33844790,-10427060,-34043320,-97891820,55078120,-8413086,-42651370
2026-01-14 16:42:10.711,30651080,10245800,-14613430,-101085500,56484380,-23880000,40527340
2026-01-14 16:42:10.721,62009950,-831226,9,-3448357,-69726660,53984380,6191406,14941410
2026-01-14 16:42:10.731,-35450290,-7155654,-34690700,-48622220,49296880,12060550,26933590
2026-01-14 16:42:10.741,-39078180,-6016274,-34897860,-52244940,44375,19931640,39199220
2026-01-14 16:42:10.751,60870570,13096840,-17096760,-70745210,38574220,28535160,51523440
2026-01-14 16:42:10.761,60438990,13761480,-17675080,-71073210,33320310,38300780,63320310
2026-01-14 16:42:10.771,59990140,14369150,-18206790,-71401210,31367190,45507810,734375
2026-01-14 16:42:10.781,59524030,-2062968,-35640190,-71746480,26601560,5046875,81953130
2026-01-14 16:42:10.791,-5878604,-1389698,-35778290,-7189754,20,48164060,8921875
2026-01-14 16:42:10.801,58531380,-889060,-35881880,-72462900,12695310,37480470,93359380
2026-01-14 16:42:10.811,58073900,-604216,-35942290,-72799540,73046870,24160160,9609375
2026-01-14 16:42:10.821,-1168730,-16494270,-20034980,-14247440,6015625,15244140,97109380
2026-01-14 16:42:10.831,-1448397,-742324,-35959560,-14520200,1015625,7529297,95625
2026-01-14 16:42:10.841,5713304,-1130748,-35933660,-7353324,17548830,1842041,93046870
2026-01-14 16:42:10.851,-1805748,-1734966,-35899140,-14870650,24414060,12680050,90546870
2026-01-14 16:42:10.861,-77715280,-2529077,-35881870,-90775010,34609380,-8685303,87265620
2026-01-14 16:42:10.871,-78063140,-3495823,-35899130,-91117680,45390620,-184021,828125
2026-01-14 16:42:10.881,-77809360,-4609312,-35959550,-90853550,57578120,19821170,7546875
2026-01-14 16:42:10.891,5677914,-5826380,-36054500,-7352461,68828130,-68603520,67070310
2026-01-14 16:42:10.901,-7609858,12361420,-16692800,-8911167,78632820,-103271500,57421880
2026-01-14 16:42:10.911,-1608945,-8476304,-36339350,-14601340,86171870,-18139650,46640620
2026-01-14 16:42:10.921,-1439764,13078020,-13542060,-14407990,93046870,-25390620,35449220
2026-01-14 16:42:10.931,-7069775,-11307490,-36701880,-8363662,99921870,-47265620,22246090
2026-01-14 16:42:10.941,57055370,-12740350,-36891780,-72005430,103515600,-6201172,9526367
2026-01-14 16:42:10.951,57133050,8900986,-14024750,-71582470,10390630,-8330078,-19396970
2026-01-14 16:42:10.961,-548111,5,8218217,-13499080,-13383410,101796900,-11875,-12480470
2026-01-14 16:42:10.971,5727115,-26137570,-28190190,-7070206,9828125,-16826170,-22285160
2026-01-14 16:42:10.981,-871800,-18204200,-37590940,-128430700,94765620,-2296875,-31152340
2026-01-14 16:42:10.991,1424224,-19473060,-37737680,-125720300,91953130,-30351560,-39492190
2026-01-14 16:42:11.001,3720252,-2067281,-3788442,-123010000,88984380,-38476560,-45976560
2026-01-14 16:42:11.011,610259,5104773,-11088250,-12021330,8640625,-46132810,-52265620
2026-01-14 16:42:11.021,5751281,73250980,-79357030,-6838872,84453130,-52890620,-5828125
2026-01-14 16:42:11.031,1103990,-23901110,-38298740,-11444740,82890620,-60585940,-65078120
2026-01-14 16:42:11.041,1350852,36373870,-99661310,-11156440,815625,-66679690,-71328130
2026-01-14 16:42:11.051,1606352,61435940,-67866540,-10859510,79570310,-72304690,-76796870
2026-01-14 16:42:11.061,-37290560,-26456080,-38799370,-49716720,77695310,-75273440,-81484380
2026-01-14 16:42:11.071,21121700,56079990,-62691850,-102777300,74570310,-79179690,-84375
2026-01-14 16:42:11.081,23616260,-27681780,-39230960,-99920270,72421870,-83125,-8765625
2026-01-14 16:42:11.091,58030740,53501710,-60263770,-65160500,6984375,-8640625,-8890625
2026-01-14 16:42:11.101,61415740,53299730,-60120480,-61482030,66171880,-90859380,-88828130
2026-01-14 16:42:11.111,5823789,-28631260,-40076860,-6440094,61484380,-96328130,-8546875
2026-01-14 16:42:11.121,-22363810,-28691680,-40413500,-34605250,57148440,-10203130,-8109375
2026-01-14 16:42:11.131,-20042750,2598999,-9537136,-32265200,53515620,-10609380,-76054690
2026-01-14 16:42:11.141,37219780,-28450000,-41121300,-84866620,49101560,-10875,-69609380
2026-01-14 16:42:11.151,-15566360,-28173780,-41501090,-27764640,440625,-111796900,-61640620
2026-01-14 16:42:11.161,41276660,35597030,-105271900,-80637100,40742190,-116484400,-53515620
2026-01-14 16:42:11.171,42890790,-27319250,-42269320,-78971190,38691410,-123046900,-45078120
2026-01-14 16:42:11.181,4416827,4486745,-11430060,-7765917,37539060,-132890600,-35957030
2026-01-14 16:42:11.191,45273130,-33769690,-35473600,-76519800,33945310,-1390625,-2484375
2026-01-14 16:42:11.201,46110400,-25368490,-43667650,-75630740,32089840,-14578130,-16464840
2026-01-14 16:42:11.211,4692176,-24522590,-44289120,-7471578,32675780,-148359400,-12333980
2026-01-14 16:42:11.221,-6787087,-23590370,-45014180,-18935300,36875,-144296900,-13642580
2026-01-14 16:42:11.231,48898440,8225126,-15063140,-72376590,42226560,-13140630,-20507810
2026-01-14 16:42:11.241,-4567021,-21372030,-46731880,-16666900,48320310,-107109400,-31191410
2026-01-14 16:42:11.251,50503920,10402900,-17183940,-70184140,55273440,-71289060,-54101560
2026-01-14 16:42:11.261,-4082784,-18773890,-48691280,-16115340,76132820,-24960940,-91640620
2026-01-14 16:42:11.271,4878621,-17271980,-49623500,-7122859,10703130,32128910,-10796880
2026-01-14 16:42:11.281,46964940,-1552835,-5041763,-72859970,107421900,103046900,-9875
2026-01-14 16:42:11.291,-9631226,-13551730,-50926880,-21615440,83515620,18828120,-6984375
2026-01-14 16:42:11.301,-13756300,-11411070,-50995930,-25776770,21738280,28703120,93566900
2026-01-14 16:42:11.311,57685480,-9391260,-50633400,-63123440,-56992190,400,114375
2026-01-14 16:42:11.321,2240780,-7578610,-49804760,-9922973,-13453130,4603125,2609375
2026-01-14 16:42:11.331,55959140,-25395250,-29640310,-66472520,-18046880,473125,394375
2026-01-14 16:42:11.341,5468164,-5990382,-47526000,-6840602,-126171900,45125,4553125
2026-01-14 16:42:11.351,53145220,16861980,-22135930,-70632990,-23359380,4215625,474375
2026-01-14 16:42:11.361,-4697359,14922440,-20191210,-17123520,8390625,356875,4696875
2026-01-14 16:42:11.371,-12454560,-11264340,-41803200,-13699420,17359380,2425,42875
2026-01-14 16:42:11.381,-8685192,-13991940,-39766120,-21128610,23734380,134921900,370
2026-01-14 16:42:11.391,45972300,-16892180,-37677260,-78392870,26625,60507810,339375
2026-01-14 16:42:11.401,-10604010,-19775160,-35363970,-23059520,303125,18974610,30921880
2026-01-14 16:42:11.411,45704720,2250281,-7779730,-79350980,3034375,-16611330,2765625
2026-01-14 16:42:11.421,-9956638,18868840,-24462160,-22498460,2690625,-5734375,25921880
2026-01-14 16:42:11.431,47534630,-34863330,-22606360,-77797280,3121875,-46835940,22734380
2026-01-14 16:42:11.441,48674010,-6277814,316780,3,-76140000,3559375,-82109380,150625
2026-01-14 16:42:11.451,49813390,-36831350,-25247650,-74085660,356875,-140,97578130
2026-01-14 16:42:11.461,-4451354,-8257836,7607181,-16696250,336875,-16984380,7734375
2026-01-14 16:42:11.471,5097003,-44125120,-24565740,-6940732,3553125,-23421880,35473630
2026-01-14 16:42:11.481,50572980,-47854000,-24928280,-67042220,3840625,-28546880,-8171875
2026-01-14 16:42:11.491,-1965432,-16857660,9175471,-13416210,430,-3409375,-1365625
2026-01-14 16:42:11.501,48052530,-54854290,-25765550,-63106180,4521875,-3225,-134453100
2026-01-14 16:42:11.511,-2661146,-5833285,-2629208,-13376510,5384375,-3246875,-1928125
2026-01-14 16:42:11.521,-3885980,-22255050,13497350,-14206010,28359380,-27234380,-356875
2026-01-14 16:42:11.531,-5481978,-64970610,-24488060,-15406680,-4409375,-16328130,-508125
2026-01-14 16:42:11.541,-7704634,-68449180,-23581730,-17102800,-25921880,-526875,-855
2026-01-14 16:42:11.551,-9087428,-4906675,-4432796,-18154140,-5621875,-3646875,-860
2026-01-14 16:42:11.561,32127090,-29106000,19818320,-58505490,-1190,-295,-1703125
2026-01-14 16:42:11.571,-7381808,-28330020,18937030,-16493410,-1340,49375,27703120
2026-01-14 16:42:11.581,-5507872,-69614450,-27008510,-14655720,-845625,4096875,-12703130
2026-01-14 16:42:11.591,-5315386,-68613180,-28113370,-14554730,-511875,640625,-584375
2026-01-14 16:42:11.601,37012620,-6679187,-3062520,-56520200,1075,-1678125,-1309375
2026-01-14 16:42:11.611,-6632579,-22746190,13144320,-16068730,-84140620,-60234380,5453125
2026-01-14 16:42:11.621,-8433146,-22571830,13042460,-17858930,-60507810,-230625,-2140625
2026-01-14 16:42:11.631,-9747748,-22160100,12746390,-19237410,-87578130,-2990625,-30203120
2026-01-14 16:42:11.641,-10377000,-20976690,11668300,-20006500,-101796900,-39625,-224375
2026-01-14 16:42:11.651,-14197640,-6018866,-3222204,-15184580,-47070310,-3303125,-23046880
2026-01-14 16:42:11.661,-8373587,-15642320,6489294,-18539970,117109400,-9546875,-24515620
2026-01-14 16:42:11.671,-7187597,-13003620,4000781,-17637100,2109375,103203100,-225625
2026-01-14 16:42:11.681,-6927783,-11227220,2428090,-17603440,22453120,13921880,-1740625
2026-01-14 16:42:11.691,-12361770,-10028280,1451848,-13446940,19375,36464840,-145703100
2026-01-14 16:42:11.701,-8288997,-8789633,446258,3,-19297840,17640620,-50820310,-109609400
2026-01-14 16:42:11.711,-8982121,-72601020,-8553990,-20141150,168125,-8046875,-7296875
2026-01-14 16:42:11.721,-9465494,-19574050,11672620,-20762630,18828120,-5359375,-51210940
2026-01-14 16:42:11.731,-9790047,-28096100,-48812120,-21214930,210625,-40585940,-27753910
2026-01-14 16:42:11.741,-9909165,-19878750,-54923340,-21458350,22109380,-21699220,77285770
2026-01-14 16:42:11.751,-9825437,-33067950,-39714340,-21490280,230625,26635740,32070310
2026-01-14 16:42:11.761,43365530,44624030,-51705460,-74370500,23828120,89941410,53320310
2026-01-14 16:42:11.771,44194170,27975260,-96838750,-74577670,2365625,13701170,67929690
2026-01-14 16:42:11.781,-8736122,72698550,-79391540,-20715150,22609380,26132810,94453130
2026-01-14 16:42:11.791,46205350,-23599000,-41432040,-74534510,205625,38398440,13203130
2026-01-14 16:42:11.801,-7474169,6958857,-13291050,-19629290,17953120,54296880,16953120
2026-01-14 16:42:11.811,59775210,-29848330,-32092570,-62362980,14390630,60507810,19890620
2026-01-14 16:42:11.821,48855280,-1829049,-4276997,-73576390,12734380,65703120,20421880
2026-01-14 16:42:11.831,-5676190,12860070,-13466530,-17922810,123984400,68476560,1890625
2026-01-14 16:42:11.841,-5092688,-1628796,-4425460,-17332400,118984400,6890625,1728125
2026-01-14 16:42:11.851,-4428050,-28872090,-31808580,-16650500,107890600,65039060,152890600
2026-01-14 16:42:11.861,-3642567,12164620,-18270660,-15847750,108984400,78320310,12671880
2026-01-14 16:42:11.871,6097326,12490030,-18635780,-6097503,1040625,8765625,10328130
2026-01-14 16:42:11.881,-72451690,-15191740,-46645560,-84644790,959375,93359380,784375
2026-01-14 16:42:11.891,-707798,5,12622100,-18831720,-12912990,82734380,10125,60742190
2026-01-14 16:42:11.901,346128,5,-15580170,-46723260,-11878050,60625,101796900,49335940
2026-01-14 16:42:11.911,-41869670,12178430,-18429490,-54114560,46757810,95703130,34394530
2026-01-14 16:42:11.921,-33055860,-16426080,-46308930,-45319740,40390620,8890625,19355470
2026-01-14 16:42:11.931,29632540,-17004400,-46006830,-93161660,33105470,78085940,79785150
2026-01-14 16:42:11.941,-19403140,-1767766,-4564429,-31696370,34589840,64804690,-61279300
2026-01-14 16:42:11.951,41164460,-18419990,-45212720,-81905960,29511720,49140620,-14023440
2026-01-14 16:42:11.961,-10066260,-19231370,-44694810,-22388840,29277340,384375,-22792970
2026-01-14 16:42:11.971,-6691275,-30891900,-33293230,-19031120,31894530,26835940,-29765620
2026-01-14 16:42:11.981,-41777300,7993801,-14431300,-165382900,33925780,13115230,-36601560
2026-01-14 16:42:11.991,53369640,-21872660,-42640480,-70460360,39355470,21484380,-4328125
2026-01-14 16:42:12.001,54526290,-22778990,-41803200,-69545400,44960940,-8129883,-48789060
2026-01-14 16:42:12.011,-1120394,-23668050,-40914140,-13553460,503125,-18271480,-51835940
2026-01-14 16:42:12.021,-1710800,-32179230,-32333910,-14171480,57851560,-29257810,-55585940
2026-01-14 16:42:12.031,-3078919,3652062,-10089560,-15565500,64648440,-44257810,-56992190
2026-01-14 16:42:12.041,-5137573,2849317,-9269555,-17650050,69414060,-5765625,-57148440
2026-01-14 16:42:12.051,-7973943,-26689140,-37288830,-20510590,74414060,-696875,-56679690
2026-01-14 16:42:12.061,45091870,1431135,-7804762,-80481730,79765620,-80703130,-56953120
2026-01-14 16:42:12.071,-15549100,8407252,-71867330,-28127170,8328125,-92421870,-55820310
2026-01-14 16:42:12.081,-25955790,3478570,-66610630,-27215320,82890620,-103125,-52578120
2026-01-14 16:42:12.091,31117180,-422950,-62398380,-94991580,83671870,-117890600,-50585940
2026-01-14 16:42:12.101,-31149130,-28450000,-34043320,-43773810,85703130,-130078100,-49960940
2026-01-14 16:42:12.111,-36754540,-4747420,-57400630,-49389580,8359375,-13515630,-47304690
2026-01-14 16:42:12.121,-42272760,-5161742,-56606520,-54919890,80078130,-13734380,-440625
2026-01-14 16:42:12.131,9330836,-4358992,-57012210,-117226800,76484380,-138359400,-41601560
2026-01-14 16:42:12.141,446256,5,-27699040,-33257840,-12219860,75078130,-138203100,-4109375
2026-01-14 16:42:12.151,12083,-27232930,-33275100,-12666120,7375,-13703130,-41171880
2026-01-14 16:42:12.161,56744630,348722,5,-6349462,-70158250,7265625,-1315625,-40390620
2026-01-14 16:42:12.171,-63909780,7811668,-67283900,-76613880,72421870,-12359380,-38808590
2026-01-14 16:42:12.181,-90894,63,12835300,-71755110,-1362682,73984380,-115390600,-3890625
2026-01-14 16:42:12.191,-1091045,-24401740,-33913850,-13824490,76015620,-10640630,-38222660
2026-01-14 16:42:12.201,-69497070,2450536,-8218214,-82247780,77226560,-96796870,-36210940
2026-01-14 16:42:12.211,56166300,56709240,-62407870,-71513420,79609380,-8828125,-34335940
2026-01-14 16:42:12.221,56209460,3822972,-9452549,-71642900,853125,-80546870,-33144530
2026-01-14 16:42:12.231,56313040,-20422540,-35148180,-71694690,92890620,-69414060,-32714840
2026-01-14 16:42:12.241,-69636030,78571540,-84049190,-82454060,99375,-56914060,-2953125
2026-01-14 16:42:12.251,56736000,-18031570,-35899140,-71634270,108359400,-38808590,-25625
2026-01-14 16:42:12.261,-795841,7113364,-12411490,-13653580,106328100,-10722660,-12080080
2026-01-14 16:42:12.271,-498912,-15364380,-36546510,-13380820,959375,26269530,9116211
2026-01-14 16:42:12.281,-183856,-13991940,-36745040,-13091660,6171875,65976560,43203120
2026-01-14 16:42:12.291,95810,-12688560,-36891780,-12836160,22714840,108984400,771875
2026-01-14 16:42:12.301,-55673440,-23018950,-25560110,-68622670,-23046880,133046900,113046900
2026-01-14 16:42:12.311,58652230,-10824120,-37064410,-70943740,-44609380,139140600,133828100
2026-01-14 16:42:12.321,58747180,-10435690,-37003990,-70952360,-40390620,13171880,14078130
2026-01-14 16:42:12.331,493730,-10418430,-36779560,-12491760,-23984380,118203100,13375
2026-01-14 16:42:12.341,59221920,-10729170,-36382510,-70840150,-4819336,102109400,119296900
2026-01-14 16:42:12.351,6459944,-11307490,-35873240,-6570431,19130860,9390625,10046880
2026-01-14 16:42:12.361,60085080,11372670,-11846540,-70443100,42109380,91484380,79921870
2026-01-14 16:42:12.371,17297880,10620500,-11096800,-113454700,60742190,8359375,60625
2026-01-14 16:42:12.381,61051830,7663203,-12448600,-69925190,69609380,6828125,46367190
2026-01-14 16:42:12.391,-33922480,-23108720,-24952440,-47042620,68515620,46914060,38164060
2026-01-14 16:42:12.401,2945126,-15752810,-32480990,-10195740,6375,26894530,32324220
2026-01-14 16:42:12.411,-31192890,-16685030,-31721400,-32508870,56484380,10117190,29570310
2026-01-14 16:42:12.421,3852316,4244194,-9100374,-9324798,46640620,-15136720,28671880
2026-01-14 16:42:12.431,-16193020,-23791480,-24960210,-29382220,4046875,-10917970,27011720
2026-01-14 16:42:12.441,47508730,-19447160,-29528960,-84452300,3796875,-20019530,24257810
2026-01-14 16:42:12.451,-7901437,40264170,-45189400,-21100990,41328120,-32636720,2015625
2026-01-14 16:42:12.461,55190920,3325529,-3821504,-76770110,471875,-46679690,15527340
2026-01-14 16:42:12.471,-828642,26936870,-31931150,-14017840,53945310,-58476560,10517580
2026-01-14 16:42:12.481,23607630,-1165270,-49157390,-108198000,59335940,-67890620,66552740
2026-01-14 16:42:12.491,-6362409,-23391840,-27293350,-19532620,64921880,-76484380,28759770
2026-01-14 16:42:12.501,13605500,-9624315,-41388880,12289520,67109380,-84453130,16448980
2026-01-14 16:42:12.511,44554110,10728310,-15857250,31404620,6609375,-91328130,-14172360
2026-01-14 16:42:12.521,12698920,-14181840,-37314730,-441942,5,6359375,-95703130,-2019043
2026-01-14 16:42:12.531,73783550,-14967320,-36719150,-57556010,59453120,-98359380,-22460940
2026-01-14 16:42:12.541,16490810,-247988,2,-270085,8,3362038,54648440,-99609380,-30249020
2026-01-14 16:42:12.551,18215420,-13845200,-38013890,5090098,49960940,-98984380,-30126950
2026-01-14 16:42:12.561,19768260,-11859920,-39999180,6644663,45664060,-95234380,-30688480
2026-01-14 16:42:12.571,20976690,-8994206,-42830370,7853097,43984380,-89453130,-45410160
2026-01-14 16:42:12.581,22013360,17958200,-23128570,8888036,45390620,-83125,-7451172
2026-01-14 16:42:12.591,22706480,-23288260,-28242840,9575978,471875,-73867180,-11347660
2026-01-14 16:42:12.601,16970650,4056886,-55329030,15657080,51171880,-64648440,-14628910
2026-01-14 16:42:12.611,81690160,9753794,-60680680,-49752970,546875,-54960940,-17753910
2026-01-14 16:42:12.621,21596450,1602038,-6649844,8441777,58867190,-44765620,-2015625
2026-01-14 16:42:12.631,20048790,-20172220,-29753380,6882033,62617190,-32109380,-2109375
2026-01-14 16:42:12.641,67024950,-19101890,-30167710,-64780720,67460940,-19404300,-20410160
2026-01-14 16:42:12.651,66817790,3911015,-8760289,-65143240,69414060,-45825200,-17597660
2026-01-14 16:42:12.661,11353240,6960669,-7436965,-1858399,6734375,94140620,-10136720
2026-01-14 16:42:12.671,66129840,-15234900,-31427930,-66124670,6046875,21445310,2376709
2026-01-14 16:42:12.681,1611533,-13836570,-31842250,-11624280,50859380,30253910,17460940
2026-01-14 16:42:12.691,6609445,-12472770,-32256570,-6631544,37851560,35175780,35585940
2026-01-14 16:42:12.701,-11161620,8551401,-12941470,-24400880,30332030,41210940,52265620
2026-01-14 16:42:12.711,4129392,-10030000,-33145630,-9101238,2234375,46875,69101560
2026-01-14 16:42:12.721,-25587740,-8985569,-33603110,-38804560,12109380,47070310,8609375
2026-01-14 16:42:12.731,26533760,-8148298,-34077850,-105427300,41748050,41132810,996875
2026-01-14 16:42:12.741,61198570,11394680,-15605210,-70486260,51708980,32324220,107109400
2026-01-14 16:42:12.751,1303382,-7216078,-35027340,-11834030,14433590,24941410,10734380
2026-01-14 16:42:12.761,770808,12036010,-16293150,-12337250,28515620,26054690,10140630
2026-01-14 16:42:12.771,-55349750,12142180,-16445930,-68428460,43164060,28730470,92421870
2026-01-14 16:42:12.781,353900,-7526817,-36114930,-130174300,54609380,30429690,8203125
2026-01-14 16:42:12.791,58436440,-799289,9,-3637390,-71850060,6484375,28261720,70234380
2026-01-14 16:42:12.801,58186120,-8623042,-36606940,-71858690,74492190,23730470,58710940
2026-01-14 16:42:12.811,58030740,-21725920,-24470800,-71789630,78867180,16865230,471875
2026-01-14 16:42:12.821,57961690,11023510,-15751950,-71617000,8234375,11191410,36796880
2026-01-14 16:42:12.831,-214066,10568620,-15412720,-13147770,840625,57958980,27539060
2026-01-14 16:42:12.841,-58111020,-23586050,-26097870,-71018820,8265625,-9063721,1875
2026-01-14 16:42:12.851,312466,5,9534548,-14634140,-12569440,83125,-67089840,9536133
2026-01-14 16:42:12.861,703480,5,-25019770,-27339970,-12149080,828125,-10087890,5050659
2026-01-14 16:42:12.871,1171317,-15761440,-37979370,-11650170,8328125,-12236330,-10869140
2026-01-14 16:42:12.881,1715112,-16961240,-38177900,-11071850,82109380,-10273440,-22148440
2026-01-14 16:42:12.891,-34192660,-1816966,-3835052,-46945090,8046875,-8491211,-34433590
2026-01-14 16:42:12.901,29477170,-19386740,-38497270,-97667390,7828125,-81689460,-47382810
2026-01-14 16:42:12.911,3593366,6060299,-11979900,-9083111,76953130,-11503910,-61171880
2026-01-14 16:42:12.921,-14483950,-21725920,-38713060,-27120720,73867180,-16494140,-73789060
2026-01-14 16:42:12.931,48751700,-22822140,-38773480,-77236220,68710940,-23378910,-8328125
2026-01-14 16:42:12.941,54957870,-23814790,-38799380,-70667520,6484375,-29453120,-928125
2026-01-14 16:42:12.951,-9272150,38505900,-102017800,-21801880,60234380,-38046880,-9890625
2026-01-14 16:42:12.961,105660300,-25523860,-38713070,-19343580,5640625,-4796875,-101875
2026-01-14 16:42:12.971,72307540,58819680,-65303800,-52454680,54296880,-60703120,-101640600
2026-01-14 16:42:12.981,21246860,-26809980,-38514530,8791359,540625,-76289060,-98828130
2026-01-14 16:42:12.991,25813020,2282214,-8852646,13374780,55664060,-940625,-93984380
2026-01-14 16:42:13.001,85772940,50389130,-56988910,-38471370,58359380,-112265600,-88203130
2026-01-14 16:42:13.011,33308770,-27828520,-38376420,20898150,62617190,-130078100,-83046870
2026-01-14 16:42:13.021,9231574,-27854410,-38454110,-3172142,65898440,-1459375,-77578130
2026-01-14 16:42:13.031,65324510,-32584570,-33672160,-58678120,59179690,-15390630,-67617180
2026-01-14 16:42:13.041,65592090,53490490,-60102350,-58410540,49375,-157578100,-56835940
2026-01-14 16:42:13.051,10034320,2731062,-9318756,-2369395,4328125,-156015600,-49257810
2026-01-14 16:42:13.061,46687000,31790460,-97339390,34278110,38046880,-155078100,-43828120
2026-01-14 16:42:13.071,104382800,-25610180,-39541710,-19792430,35449220,-15421880,-39804690
2026-01-14 16:42:13.081,105798400,4316701,-10788740,-18445890,37011720,-153671900,-36933590
2026-01-14 16:42:13.091,10678240,-23883840,-40335820,-1753094,40859380,-152421900,-36191410
2026-01-14 16:42:13.101,51449100,5793578,-12160300,39010860,44921880,-150,-34882810
2026-01-14 16:42:13.111,107697400,-21691400,-41371620,-16719550,49882810,-13984380,-36367190
2026-01-14 16:42:13.121,51624320,-20396650,-42010360,39180900,53710940,-118515600,-41992190
2026-01-14 16:42:13.131,66662420,8783594,-14953520,-57754530,59140620,-8875,-534375
2026-01-14 16:42:13.141,104909400,-17435980,-43469120,-19455800,6828125,-51328120,-66640620
2026-01-14 16:42:13.151,101681100,-15770070,-44271860,-22614990,79492190,17248540,-81953130
2026-01-14 16:42:13.161,41082460,-1395743,-4506600,28661470,8765625,81953130,-9296875
2026-01-14 16:42:13.171,34784780,-11946240,-45644300,22356900,6109375,18703120,-728125
2026-01-14 16:42:13.181,81854160,-9822844,-45920510,-42666370,-10517580,31375,-43725580
2026-01-14 16:42:13.191,12805950,-24897200,-28705500,314192,1,-8953125,4378125,953125
2026-01-14 16:42:13.201,51306670,-5964486,-45428500,-74094290,-1775,530,22140620
2026-01-14 16:42:13.211,30452550,-4617942,-44789760,-95362750,-13453130,5559375,31625
2026-01-14 16:42:13.221,57685480,-21826050,-25786270,-68699500,-32421880,52875,4109375
2026-01-14 16:42:13.231,-1643473,-4410786,-41613300,-14359650,22402340,4803125,4828125
2026-01-14 16:42:13.241,5331784,14503800,-19004360,-7448272,80078130,381875,5234375
2026-01-14 16:42:13.251,-6560073,-7725347,-36952200,-19369480,18109380,24921880,47875
2026-01-14 16:42:13.261,-8513421,-10081800,-34595750,-21334910,25265620,1509375,425
2026-01-14 16:42:13.271,47966220,-12636770,-31954460,-80507630,31546880,77539060,3828125
2026-01-14 16:42:13.281,47474200,45437140,-89734880,-81483000,3271875,40893560,343125
2026-01-14 16:42:13.291,-16469670,1375026,-5806527,-17763560,31421880,-78164060,29046880
2026-01-14 16:42:13.301,-10163800,37449380,-41962020,-23119940,30078120,-140703100,241875
2026-01-14 16:42:13.311,63107040,-49692540,2960661,-66247240,30640620,-18921880,20390620
2026-01-14 16:42:13.321,4989970,-29874220,-19274530,-7879857,3034375,-2453125,173125
2026-01-14 16:42:13.331,50719720,-33654900,-18808420,-76839170,310625,-29609380,159375
2026-01-14 16:42:13.341,51134040,-11866820,6190636,-74663980,3209375,-3228125,153359400
2026-01-14 16:42:13.351,-4547167,-41224880,-20836860,-16876650,3646875,-3575,119140600
2026-01-14 16:42:13.361,59079490,-45031440,-23020680,-61038880,4534375,-3740625,64882810
2026-01-14 16:42:13.371,-3124666,-15038100,7611411,-14777430,5803125,-349375,-44453120
2026-01-14 16:42:13.381,-19533480,-15517160,7598464,-133074500,5359375,-20921880,-2603125
2026-01-14 16:42:13.391,-577460,-53352380,-29667060,-11679520,-30015620,7953125,-6875
2026-01-14 16:42:13.401,-56412310,-17222780,8568665,-67193270,17671880,-87265620,-811875
2026-01-14 16:42:13.411,-7283752,-15199600,14303460,-8322316,10484380,103828100,-680
2026-01-14 16:42:13.421,39541700,-20823910,11613920,-60274980,-519375,-3184375,-6190625
2026-01-14 16:42:13.431,36986720,-63917550,-28924750,-60620250,-1310,-31203120,-6675
2026-01-14 16:42:13.441,36106300,-23997780,14758430,-60344040,-1140625,-25859380,-3065625
2026-01-14 16:42:13.451,-7272186,-6559209,-2586912,-16965560,-994375,9526367,21503910
2026-01-14 16:42:13.461,-7308437,-23752640,14761890,-17188250,-715625,-82890620,24625
2026-01-14 16:42:13.471,-6910519,-63321960,-27483250,-16826590,-3725,-117265600,24875
2026-01-14 16:42:13.481,-6686957,-20512310,11114140,-16463190,-63046880,-98359380,-7296875
2026-01-14 16:42:13.491,-6508285,-48950230,-46153560,-16296600,1040625,-11171880,-3515625
2026-01-14 16:42:13.501,37470100,-48724940,-46154430,-61069100,76640620,-111171900,-30625
2026-01-14 16:42:13.511,-7657160,-59316870,-34923760,-17564600,78164060,-21609380,-311875
2026-01-14 16:42:13.521,36788200,-57944420,-35363970,-63270180,81796870,-18890620,-26453120
2026-01-14 16:42:13.531,-8634264,-14591850,5399113,-18797200,12984380,-14671880,-20890620
2026-01-14 16:42:13.541,-8896666,-13098570,4078466,-19242590,14015630,-13265630,-16953120
2026-01-14 16:42:13.551,-8967448,-44845860,-43456170,-19517080,1459375,-155390600,-17078120
2026-01-14 16:42:13.561,3974023,-929285,8,65082,64,-6782770,188125,-96875,-17859380
2026-01-14 16:42:13.571,-8255336,-44884710,-39394960,-19227920,2325,-13945310,-156640600
2026-01-14 16:42:13.581,42433310,-49833240,41662500,-69467710,25546880,5625,-110859400
2026-01-14 16:42:13.591,-7871225,12279420,-20175680,-19249500,245625,106875,-39414060
2026-01-14 16:42:13.601,4367626,30886720,-38511940,-7159110,22921880,110234400,15419920
2026-01-14 16:42:13.611,43650380,1486378,-8854374,-72739120,21984380,8984375,40976560
2026-01-14 16:42:13.621,-9258336,-28752110,-42441940,-20987060,2203125,94296870,58476560
2026-01-14 16:42:13.631,57467960,5057301,-11929840,-60596080,2128125,102890600,81953130
2026-01-14 16:42:13.641,43279220,-22925730,-43296480,-75440830,1965625,106171900,108828100
2026-01-14 16:42:13.651,-10456410,-20042750,-43779860,-22378480,17765620,114453100,140703100
2026-01-14 16:42:13.661,43141110,-17401450,-44159650,-76493900,150078100,108828100,17296880
2026-01-14 16:42:13.671,-10906120,11731310,-17685440,-22895520,119140600,81328130,19234380
2026-01-14 16:42:13.681,-16395430,12934570,-18726420,-17596100,10578130,63789060,193125
2026-01-14 16:42:13.691,43201540,-11600970,-45057350,-77020430,84375,63828120,200625
2026-01-14 16:42:13.701,43512270,-10487480,-45290400,-76882330,72148440,69921870,19984380
2026-01-14 16:42:13.711,-10301040,-25801800,-29371860,-22361220,62421880,721875,19359380
2026-01-14 16:42:13.721,-9840974,-9365366,-45514820,-21923590,6078125,71328130,1815625
2026-01-14 16:42:13.731,45204080,-929627,8,-4553210,-75898310,60390620,64882810,1659375
2026-01-14 16:42:13.741,-8646350,-9520736,-45480290,-20787660,653125,6578125,1465625
2026-01-14 16:42:13.751,-13383070,-25902790,-29443510,-14600820,68164060,68789060,1296875
2026-01-14 16:42:13.761,47845370,14489130,-20072100,-74292820,68398440,66328120,113046900
2026-01-14 16:42:13.771,48838020,-26533760,-29882860,-73662710,68085940,59960940,975
2026-01-14 16:42:13.781,-5439683,-26917020,-30138360,-17727730,65039060,50703120,83203130
2026-01-14 16:42:13.791,5088372,12511610,-18286200,-7234207,66953120,42460940,67695310
2026-01-14 16:42:13.801,-9257128,-14604790,-43917960,-10492150,62304690,34199220,56875
2026-01-14 16:42:13.811,-2859676,-15778700,-43555430,-15232320,63164060,25058590,4203125
2026-01-14 16:42:13.821,53697650,-28787500,-31409800,-70184140,62773440,14189450,29277340
2026-01-14 16:42:13.831,-1252457,-29332150,-31797360,-13645820,68046870,9663086,12490230
2026-01-14 16:42:13.841,-6078254,-19481690,-42545520,-7318107,67578130,-64208980,24987790
2026-01-14 16:42:13.851,55993670,-30406800,-32552640,-67957170,5875,-13701170,-47802740
2026-01-14 16:42:13.861,892515,-3096009,-3294883,-11492210,72421870,-12128910,-23808590
2026-01-14 16:42:13.871,-4660488,-23193310,-41561510,-4661724,65429690,-2109375,-26992190
2026-01-14 16:42:13.881,20974960,51367100,-116950600,-102630600,66171880,-29335940,-40039060
2026-01-14 16:42:13.891,2616259,-32415390,-33944920,-9728762,69023440,-36230470,-49414060
2026-01-14 16:42:13.901,-24910150,-26620080,-40465290,-37237910,61953120,-471875,-51835940
2026-01-14 16:42:13.911,3426770,28605370,-96381270,-8881991,65117190,-57226560,-61132810
2026-01-14 16:42:13.921,-18024670,22330140,-90744790,-30312710,66796880,-66132810,-68320310
2026-01-14 16:42:13.931,-15619020,16771340,-85772950,-27884630,66679690,-73242190,-72304690
2026-01-14 16:42:13.941,41190350,-30081380,-39455390,-81241320,65703120,-76757810,-76171870
2026-01-14 16:42:13.951,4194992,39657360,-46659380,-8027456,63867190,-80625,-79765620
2026-01-14 16:42:13.961,41932670,4911428,-75363150,-80084680,62617190,-878125,-815625
2026-01-14 16:42:13.971,-13675160,34266020,-41347440,-25857900,6109375,-925,-83125
2026-01-14 16:42:13.981,39783380,-31928560,-39161910,-81905960,59335940,-965625,-821875
2026-01-14 16:42:13.991,-16708330,31827570,-38952160,-28866910,5875,-103046900,-809375
2026-01-14 16:42:14.001,-1852361,-267584,-71047310,-3067697,5703125,-107265600,-7890625
2026-01-14 16:42:14.011,-25977890,-32023510,-39239590,-27193230,55585940,-10609380,-7671875
2026-01-14 16:42:14.021,-22491560,33991540,-41104030,-34650130,54570310,-10296880,-74609380
2026-01-14 16:42:14.031,57780420,4272684,-75138730,-63891660,54804690,-98515620,-73046870
2026-01-14 16:42:14.041,-26450040,7207444,-77728220,-38632790,54765620,-92734380,-7140625
2026-01-14 16:42:14.051,-28599330,10789590,-80878790,-40799330,55507810,-8734375,-69765620
2026-01-14 16:42:14.061,-30746030,1502776,-8458176,-42968480,57421880,-8125,-68007810
2026-01-14 16:42:14.071,-33150810,19740640,-88673200,-45397430,59882810,-75820310,-66953120
2026-01-14 16:42:14.081,1968018,25100910,-93325660,-10306220,63828120,-6875,-65703120
2026-01-14 16:42:14.091,57081260,61278850,-68023630,-65937360,67929690,-61796880,-64179690
2026-01-14 16:42:14.101,1479465,37323360,-103890800,-10853470,71523440,-53828120,-621875
2026-01-14 16:42:14.111,1218791,-25118170,-40499820,-11145220,75273440,-45117190,-60507810
2026-01-14 16:42:14.121,958977,-23935630,-40646560,-11437830,77929690,-36503900,-57109380
2026-01-14 16:42:14.131,700026,5,-22684040,-40776030,-11731310,80625,-31484380,-52773440
2026-01-14 16:42:14.141,458339,5,-21363390,-40888240,-12007520,81328130,-26601560,-46601560
2026-01-14 16:42:14.151,56468410,-19990960,-40965930,-68535500,80859380,-20839840,-39121100
2026-01-14 16:42:14.161,1725,5,8223397,-14184430,-12534920,81484380,-14599610,-31953120
2026-01-14 16:42:14.171,-58451110,-17185660,-41009080,-71024010,815625,-8935547,-24023440
2026-01-14 16:42:14.181,-342679,5,-15770070,-40974560,-12950100,77929690,-58685300,-125
2026-01-14 16:42:14.191,-61610310,-14354470,-40922760,-74252260,73242190,83496100,-21655270
2026-01-14 16:42:14.201,56451150,-12973400,-40836450,-70296360,6609375,16884770,10097660
2026-01-14 16:42:14.211,-63995230,-11661390,-40715600,-76701060,63554690,27382810,19101560
2026-01-14 16:42:14.221,-763041,12521110,-17620700,-13496490,59140620,36347660,29882810
2026-01-14 16:42:14.231,-817420,5,13062310,-18028980,-13580210,5375,43203120,41054690
2026-01-14 16:42:14.241,-6619633,-8277777,-40094130,-7898846,46523440,48632810,51601560
2026-01-14 16:42:14.251,-8812940,-21956380,-25189810,-137062400,43789060,51484380,58828120
2026-01-14 16:42:14.261,-66420740,-6672279,-39282740,-79281940,39785160,5046875,6625
2026-01-14 16:42:14.271,57271160,-6085328,-38730320,-71737850,31914060,4671875,75585940
2026-01-14 16:42:14.281,-666366,5,14029920,-18407910,-13610420,25839840,4109375,8359375
2026-01-14 16:42:14.291,57944430,-5446586,-37435580,-71945010,20605470,35175780,90546870
2026-01-14 16:42:14.301,-2848448,-5412056,-36727780,-133186700,17158200,29550780,95
2026-01-14 16:42:14.311,-21580,5,-5584694,-36002710,-13098570,16992190,26796880,971875
2026-01-14 16:42:14.321,284844,5,12595340,-16717830,-12835300,19375,24824220,95078130
2026-01-14 16:42:14.331,-58814250,-6508280,-34526700,-60130230,29296880,23496090,88515620
2026-01-14 16:42:14.341,60430350,-7181549,-33784380,-71547940,39082030,24140620,81015620
2026-01-14 16:42:14.351,-50610440,-7949769,-33033420,-51933850,46054690,27460940,73632820
2026-01-14 16:42:14.361,61664680,-8778409,-32308360,-71004150,54101560,28691410,646875
2026-01-14 16:42:14.371,24531220,-9615682,-31591930,-108431100,60664060,25742190,55234380
2026-01-14 16:42:14.381,29399480,-10452950,-30910030,-103804500,61367190,18330080,478125
2026-01-14 16:42:14.391,34259110,7427560,-11579390,-99169310,57382810,81591800,425
2026-01-14 16:42:14.401,64012500,-12049820,-29658440,-69588560,521875,-26513670,38300780
2026-01-14 16:42:14.411,-16704880,60438980,-102354400,-30078790,46640620,-11435550,34511720
2026-01-14 16:42:14.421,47836740,-20345720,-21845910,-85988740,41484380,-15527340,29628910
2026-01-14 16:42:14.431,-8411568,-14354470,-28165150,-21799290,43984380,-221875,23320310
2026-01-14 16:42:14.441,-4613631,4201037,-8487525,-18001360,42539060,-27167970,18339840
2026-01-14 16:42:14.451,-1075508,-15787330,-27457360,-14461510,4453125,-32480470,12539060
2026-01-14 16:42:14.461,62510580,31963100,-75587580,-71314900,4734375,-365625,61279300
2026-01-14 16:42:14.471,53939340,-17030290,-26956720,-79834360,4921875,-39902340,6274414
2026-01-14 16:42:14.481,68500970,2393567,-6825069,-65220940,50625,-42148440,-38891600
2026-01-14 16:42:14.491,49841880,20690120,-65281360,36474870,496875,-440625,-72216800
2026-01-14 16:42:14.501,13327300,18074730,-62890380,-34525,73,48398440,-46875,-10380860
2026-01-14 16:42:14.511,9299506,1599449,-6100005,7963842,47382810,-49960940,-12470700
2026-01-14 16:42:14.521,77046320,14561640,-59670770,-56502940,459375,-5265625,-14345700
2026-01-14 16:42:14.531,78332450,-22217060,-22943860,-55199560,43789060,-54570310,-15166020
2026-01-14 16:42:14.541,79195610,-18963790,-26197130,-54336390,41679690,-57109380,-15185550
2026-01-14 16:42:14.551,79635820,14216370,-59325500,-53913440,40273440,-58242190,-14882810
2026-01-14 16:42:14.561,13529020,15485220,-60473510,12193360,39902340,-58984380,-14667970
2026-01-14 16:42:14.571,79230140,37723010,-42206300,-54370920,39726560,-59023440,-14052730
2026-01-14 16:42:14.581,78479180,40410050,-44870900,-55173660,39863280,-5859375,-12841800
2026-01-14 16:42:14.591,110265300,-17556830,-26775460,96894860,40976560,-5671875,-11181640
2026-01-14 16:42:14.601,15405810,-16969870,-27034410,2030169,43125,-53828120,-9448242
2026-01-14 16:42:14.611,13335940,-16279340,-27345150,-43158,76,465625,-51132810,-7910156
2026-01-14 16:42:14.621,109216600,-15502490,-27690420,-24626170,49257810,-46523440,-4399414
2026-01-14 16:42:14.631,21367710,45972300,-88681820,7979985,51757810,-403125,15332030
2026-01-14 16:42:14.641,5314522,5315386,-9531095,-8076658,52773440,-31699220,91748050
2026-01-14 16:42:14.651,-38189120,79490820,-83647830,-51580290,52539060,-2109375,18164060
2026-01-14 16:42:14.661,59092440,-11549180,-29416750,-74802100,490625,-92529300,29570310
2026-01-14 16:42:14.671,55354930,-10461590,-29917390,-78487820,41601560,28393560,42578120
