Timestamp,Rotation X,Rotation Y,Rotation Z,Rotation W,Acceleration X,Acceleration Y,Acceleration Z
2026-01-14 16:41:58.001,-62683220,57530110,28320530,43866170,-21796880,-32558590,6953125
2026-01-14 16:41:58.011,-14761030,57530110,28320530,-4107811,-22011720,-32089840,69257810
2026-01-14 16:41:58.021,-14777430,57547370,28320520,-4125937,-21484380,-32246090,690625
2026-01-14 16:41:58.031,-54196560,57547370,28320530,52301040,-21699220,-32539060,69257810
2026-01-14 16:41:58.041,-14827490,18916320,-10327800,-4179455,-2203125,-32304690,68984380
2026-01-14 16:41:58.051,-14852520,18916320,-10327800,-4206214,-221875,-32011720,68828130
2026-01-14 16:41:58.061,-62778170,18917180,-10326930,43667640,-21757810,-31972660,68515620
2026-01-14 16:41:58.071,-14901720,57581900,28337790,-4260593,-21894530,-32246090,6859375
2026-01-14 16:41:58.081,-62812700,57581900,28337790,43581330,-21640620,-32382810,6875
2026-01-14 16:41:58.091,-62829960,15043110,-14183740,43546800,-21230470,-31835940,6875
2026-01-14 16:41:58.101,-14985450,18911140,-10315710,-4349500,-21074220,-31601560,69023440
2026-01-14 16:41:58.111,-15010480,57599160,28372320,-4376256,-21113280,-31542970,68710940
2026-01-14 16:41:58.121,-62881740,57599160,28372320,43443220,-21015620,-31582030,68867180
2026-01-14 16:41:58.131,-10268070,18921490,-10322620,-9204989,-21015620,-3171875,68867180
2026-01-14 16:41:58.141,-15068310,18921490,-10322620,-4439270,-2109375,-32265620,69023440
2026-01-14 16:41:58.151,-54113690,18922350,-10321760,52159480,-21230470,-32011720,69257810
2026-01-14 16:41:58.161,-6292492,18930990,-10330390,4333102,-21503910,-31699220,690625
2026-01-14 16:41:58.171,-15127010,18930990,-10330390,-4501418,-21425780,-31386720,68789060
2026-01-14 16:41:58.181,-15143410,18930990,-10330390,-4519544,-21738280,-31464840,69023440
2026-01-14 16:41:58.191,-15160670,18939620,-10339020,-4536808,-21582030,-31640620,690625
2026-01-14 16:41:58.201,-62976700,18948250,-10347650,43244690,-21855470,-31894530,690625
2026-01-14 16:41:58.211,-62985330,18956880,-10356280,43236060,-20859380,-32402340,69296870
2026-01-14 16:41:58.221,-63002590,18973280,-10374410,43218790,-19892580,-33222660,69453130
2026-01-14 16:41:58.231,-63019860,18988820,-10393400,43201530,-19785160,-34335940,70429690
2026-01-14 16:41:58.241,-63037120,15146690,-14287320,43184260,-19804690,-35566410,71054690
2026-01-14 16:41:58.251,-5411370,19029390,-10439150,5212497,-19824220,-34609380,70546870
2026-01-14 16:41:58.261,-15281520,57685480,28182420,-4657649,-20546880,-33203120,70039060
2026-01-14 16:41:58.271,-15307410,44402200,41448440,-4683545,-21191410,-32265620,69570310
2026-01-14 16:41:58.281,-15324680,19069100,-10485760,-4700809,-2140625,-32089840,69257810
2026-01-14 16:41:58.291,-15350570,19085500,-10503880,-4726704,-21953120,-321875,69023440
2026-01-14 16:41:58.301,-63175220,57702740,28096100,43046160,-21953120,-32402340,69023440
2026-01-14 16:41:58.311,-63209750,19101030,-10522870,43011630,-21503910,-32480470,690625
2026-01-14 16:41:58.321,-63244280,19108800,-10532370,42977100,-21269530,-325,69335940
2026-01-14 16:41:58.331,-63278800,44356440,41390610,42942580,-21816410,-31445310,69492190
2026-01-14 16:41:58.341,-63313330,19124340,-10551360,42908050,-22421880,-30078120,69179690
2026-01-14 16:41:58.351,-63339220,19124340,-10551360,42864900,-22929690,-29277340,68789060
2026-01-14 16:41:58.361,-54128370,19132100,-10560850,52075760,-23144530,-2921875,68203130
2026-01-14 16:41:58.371,-15589670,19132110,-10560850,-4970981,-234375,-29394530,68007810
2026-01-14 16:41:58.381,-15615560,19140740,-10569480,-4996876,-23378910,-29804690,67851560
2026-01-14 16:41:58.391,-6340829,19140740,-10569480,4276132,-23261720,-29726560,68164060
2026-01-14 16:41:58.401,-54111100,19141600,-10568620,52041230,-22792970,-29511720,68476560
2026-01-14 16:41:58.411,-15673400,19132970,-10559990,-5059887,-22558590,-29277340,68710940
2026-01-14 16:41:58.421,-15689790,57720010,28027050,-5078013,-22109380,-29335940,68789060
2026-01-14 16:41:58.431,-63451440,19126930,-10548770,42649100,-21699220,-29550780,68789060
2026-01-14 16:41:58.441,-15722590,57737270,28061570,-5114265,-21328120,-29609380,68476560
2026-01-14 16:41:58.451,-10435750,19128650,-10547040,-10435640,-21308590,-30097660,68320310
2026-01-14 16:41:58.461,-15746760,19129520,-10546180,-5141888,-21171880,-30683590,68164060
2026-01-14 16:41:58.471,-63468700,19129520,-10546180,42562780,-21074220,-3109375,68046870
2026-01-14 16:41:58.481,-15753670,57763170,28087470,-5152244,-21035160,-31601560,68085940
2026-01-14 16:41:58.491,-15761440,57780430,28087470,-5161739,-21015620,-3234375,68515620
2026-01-14 16:41:58.501,-15770070,57780430,28087470,-5170371,-20898440,-32988280,68671870
2026-01-14 16:41:58.511,-63468700,19140740,-10552220,42511000,-20683590,-3296875,68984380
2026-01-14 16:41:58.521,-15785610,19140740,-10552220,-5189362,-2046875,-32714840,69101560
2026-01-14 16:41:58.531,-6347734,19141600,-10551360,4248511,-20234380,-32578120,69375
2026-01-14 16:41:58.541,-15810640,19141600,-10551360,-5216120,-20136720,-32792970,6953125
2026-01-14 16:41:58.551,-15819270,57806320,28113360,-5224750,-20039060,-32441410,69648440
2026-01-14 16:41:58.561,-63503230,57806320,28113370,42424680,-20058590,-32421880,69960940
2026-01-14 16:41:58.571,-63511860,57806320,28113370,42416050,-2015625,-32539060,69804690
2026-01-14 16:41:58.581,-63529120,57797690,28122000,42398790,-20488280,-32050780,69570310
2026-01-14 16:41:58.591,-54013570,44442760,41476930,51897080,-209375,-31738280,69570310
2026-01-14 16:41:58.601,-63555020,44442760,41476930,42355630,-21054690,-31503910,69453130
2026-01-14 16:41:58.611,-63580920,57780420,28139260,42329740,-20976560,-31582030,69414060
2026-01-14 16:41:58.621,-6358954,57763170,28156520,4230386,-2125,-31503910,69648440
2026-01-14 16:41:58.631,-6361545,15224380,-14365010,4227795,-21464840,-31425780,69375
2026-01-14 16:41:58.641,-15988450,15207110,-14347740,-5400839,-21816410,-31171880,690625
2026-01-14 16:41:58.651,-16014350,5774591,2820832,-5426735,-21835940,-30644530,68515620
2026-01-14 16:41:58.661,-63675870,19049240,-10453820,42183000,-21796880,-3046875,68359380
2026-01-14 16:41:58.671,-63693130,57720000,28251470,42165740,-21621090,-30253910,67890620
2026-01-14 16:41:58.681,-16081670,19016440,-10417570,-5497513,-21738280,-29960940,67617180
2026-01-14 16:41:58.691,-16098940,18999180,-10400300,-5514776,-21289060,-29882810,67460940
2026-01-14 16:41:58.701,-6373629,18991410,-10390810,4210532,-21035160,-30,6734375
2026-01-14 16:41:58.711,-11361870,5768548,2832053,-10303630,-21191410,-29824220,675
2026-01-14 16:41:58.721,-11370500,57685480,28337790,-10312260,-2078125,-30019530,67460940
2026-01-14 16:41:58.731,-11379140,57676850,28346420,-10320890,-20,-30625,6796875
2026-01-14 16:41:58.741,-11379140,57676850,28346420,-10320890,-19814450,-31308590,68515620
2026-01-14 16:41:58.751,-11387770,18965520,-10364910,-10329520,-19658200,-31113280,68867180
2026-01-14 16:41:58.761,-11387770,18965520,-10364910,-10329520,-19716800,-31054690,68945310
2026-01-14 16:41:58.771,-16142100,18964650,-10365780,-5557935,-19472660,-30957030,68789060
2026-01-14 16:41:58.781,-16142100,18973280,-10374410,-5557935,-19570310,-309375,68632820
2026-01-14 16:41:58.791,-16133460,44453990,41517490,-5549302,-19912110,-31191410,684375
2026-01-14 16:41:58.801,-63762180,44453980,41517500,42096680,-20078120,-31113280,6859375
2026-01-14 16:41:58.811,-63762180,57676850,28294630,42096680,-20058590,-31875,68671870
2026-01-14 16:41:58.821,-63762180,18997450,-10402030,42096680,-20175780,-31894530,6890625
2026-01-14 16:41:58.831,-63770820,18997450,-10402030,42088050,-20332030,-31972660,69101560
2026-01-14 16:41:58.841,-63779450,15138060,-14278690,42079420,-20253910,-31191410,68984380
2026-01-14 16:41:58.851,-63788080,15138060,-14278690,42070780,-203125,-30898440,68710940
2026-01-14 16:41:58.861,-63788080,57676840,28242840,42070790,-20429690,-30410160,68398440
2026-01-14 16:41:58.871,-63796710,57676840,28242840,42062160,-20332030,-30,68085940
2026-01-14 16:41:58.881,-54017020,57685480,28234210,51841840,-20449220,-29960940,68085940
2026-01-14 16:41:58.891,-54017020,19029390,-10439140,51841840,-20585940,-29863280,678125
2026-01-14 16:41:58.901,-54017020,19029390,-10439140,51841840,-20410160,-30058590,68007810
2026-01-14 16:41:58.911,-16161080,5768549,2819969,-5573473,-20546880,-3015625,67890620
2026-01-14 16:41:58.921,-16161080,19045790,-10457270,-5573472,-2078125,-30175780,68085940
2026-01-14 16:41:58.931,-16152450,57694110,28173780,-5564838,-20683590,-303125,68242190
2026-01-14 16:41:58.941,-16144680,57694110,28173780,-5555344,-20839840,-30292970,68242190
2026-01-14 16:41:58.951,-16136050,44402200,41448440,-5546712,-20742190,-3078125,68515620
2026-01-14 16:41:58.961,-63788080,44402200,41448440,42122580,-21152340,-30957030,69023440
2026-01-14 16:41:58.971,-63788080,19069090,-10485760,42139840,-21035160,-30527340,69335940
2026-01-14 16:41:58.981,-54045500,19069090,-10485760,51882410,-21308590,-30546880,69257810
2026-01-14 16:41:58.991,-63770810,19068230,-10486620,42157100,-2140625,-30429690,69335940
2026-01-14 16:41:59.001,-16095480,19068230,-10486620,-5500966,-21347660,-30644530,68671870
2026-01-14 16:41:59.011,-16087710,57685480,28113360,-5491469,-2125,-31132810,6875
2026-01-14 16:41:59.021,-16079080,19075140,-10496980,-5482839,-2078125,-31113280,69492190
2026-01-14 16:41:59.031,-63753550,19082900,-10506470,42226150,-20957030,-30644530,69570310
2026-01-14 16:41:59.041,-16054910,19082910,-10506470,-5455218,-20859380,-30214840,69375
2026-01-14 16:41:59.051,-16047150,57676850,28070200,-5445721,-20859380,-30292970,6953125
2026-01-14 16:41:59.061,-6373629,19089810,-10516830,4227795,-20390620,-29980470,68710940
2026-01-14 16:41:59.071,-63727650,19107070,-10534090,42303840,-20273440,-29472660,68515620
2026-01-14 16:41:59.081,-15997080,5768549,2802706,-5392208,-203125,-29492190,68398440
2026-01-14 16:41:59.091,-10677430,57685480,27992520,-10677330,-20273440,-29609380,68085940
2026-01-14 16:41:59.101,-15955650,19155410,-10589340,-5347323,-19912110,-30742190,68242190
2026-01-14 16:41:59.111,-63675860,19178720,-10617820,42424680,-19853520,-31933590,68867180
2026-01-14 16:41:59.121,-15906450,57711380,27863050,-5292940,-20195310,-32636720,69414060
2026-01-14 16:41:59.131,-15882280,19234820,-10682560,-5265321,-20332030,-32949220,69101560
2026-01-14 16:41:59.141,-63658600,19258990,-10710180,42545520,-21074220,-32167970,6921875
2026-01-14 16:41:59.151,-63641340,15437660,-14583300,42580050,-21660160,-31132810,68984380
2026-01-14 16:41:59.161,-15825310,19307330,-10765420,-5201446,-22070310,-30546880,68828130
2026-01-14 16:41:59.171,-15800280,57745900,27638620,-5174686,-221875,-30175780,68515620
2026-01-14 16:41:59.181,-63598170,19339260,-10802540,42675000,-22226560,-30234380,6859375
2026-01-14 16:41:59.191,-15758850,5776317,2758684,-5129804,-22421880,-31035160,68671870
2026-01-14 16:41:59.201,-10958600,57771800,27560940,-9895521,-22675780,-31054690,68984380
2026-01-14 16:41:59.211,-54203460,19387600,-10857780,52121500,-22539060,-31308590,6859375
2026-01-14 16:41:59.221,-63555020,57780420,27500520,42769940,-22617190,-31113280,68476560
2026-01-14 16:41:59.231,-15692390,19420410,-10894040,-5058161,-225,-30585940,68398440
2026-01-14 16:41:59.241,-6352913,19428170,-10903530,4283038,-22597660,-30136720,68164060
2026-01-14 16:41:59.251,-54220730,19436800,-10912160,52156030,-22304690,-3015625,68085940
2026-01-14 16:41:59.261,-63494600,57797690,27431460,42882160,-21992190,-30527340,68203130
2026-01-14 16:41:59.271,-63468700,57806320,27422830,42908060,-22109380,-30683590,68320310
2026-01-14 16:41:59.281,-54214690,19462700,-10938060,52162080,-21835940,-30742190,68515620
2026-01-14 16:41:59.291,-63434180,19462700,-10938060,42942580,-21640620,-30996090,68632820
2026-01-14 16:41:59.301,-63416910,19463560,-10937190,42959850,-21171880,-31152340,68984380
2026-01-14 16:41:59.311,-63408280,19463560,-10937190,42968480,-21054690,-31269530,69375
2026-01-14 16:41:59.321,-63391020,19463560,-10937190,42985740,-21171880,-31152340,69335940
2026-01-14 16:41:59.331,-63382390,57840850,27440090,42994380,-21113280,-31425780,69296870
2026-01-14 16:41:59.341,-63373760,57840850,27440090,43003010,-21230470,-31367190,69101560
2026-01-14 16:41:59.351,-6335650,19473920,-10944100,4300301,-21132810,-3140625,69257810
2026-01-14 16:41:59.361,-15477460,19473920,-10944100,-4841506,-21152340,-3140625,69101560
2026-01-14 16:41:59.371,-15468820,19482550,-10952730,-4832874,-20761720,-31484380,69140620
2026-01-14 16:41:59.381,-15460190,19491180,-10961360,-4824243,-20820310,-31445310,6921875
2026-01-14 16:41:59.391,-15451560,19491180,-10961360,-4815611,-21035160,-31367190,69257810
2026-01-14 16:41:59.401,-15442930,5788401,2741420,-4806980,-20820310,-31132810,6890625
2026-01-14 16:41:59.411,-6329607,19508450,-10978630,4306343,-20878910,-31210940,6875
2026-01-14 16:41:59.421,-15425670,19517080,-10987260,-4789716,-20742190,-31152340,68789060
2026-01-14 16:41:59.431,-15417030,19525710,-10995890,-4781084,-20839840,-31484380,68476560
2026-01-14 16:41:59.441,-15399770,19534340,-11004520,-4763820,-20800780,-31328120,68476560
2026-01-14 16:41:59.451,-15391140,19542970,-11013150,-4755189,-20742190,-31445310,684375
2026-01-14 16:41:59.461,-15382510,19551610,-11021780,-4746557,-20996090,-31269530,68398440
2026-01-14 16:41:59.471,-15373870,44170000,41110940,-4737924,-21210940,-30761720,68554690
2026-01-14 16:41:59.481,-63227020,57944420,27336520,43149740,-21171880,-30703120,68476560
2026-01-14 16:41:59.491,-54191380,57953060,27327890,52185380,-21113280,-30683590,68554690
2026-01-14 16:41:59.501,-63209750,57953060,27327890,43167010,-21542970,-3046875,68476560
2026-01-14 16:41:59.511,-15330720,5797033,2732789,-4694768,-21484380,-30527340,68359380
2026-01-14 16:41:59.521,-15313450,5797033,2732789,-4677505,-21367190,-30566410,68085940
2026-01-14 16:41:59.531,-15304820,19594760,-11064940,-4668872,-21699220,-30722660,6859375
2026-01-14 16:41:59.541,-15296190,19594760,-11064940,-4660241,-21699220,-30585940,684375
2026-01-14 16:41:59.551,-15287560,19604260,-11072710,-4651609,-21445310,-30507810,684375
2026-01-14 16:41:59.561,-15278930,19604260,-11072710,-4642977,-21367190,-30605470,68359380
2026-01-14 16:41:59.571,-5417411,58013480,27319250,5218540,-21289060,-30527340,68554690
2026-01-14 16:41:59.581,-15252170,58013480,27319250,-4617943,-21054690,-30644530,6859375
2026-01-14 16:41:59.591,-15243540,58022120,27310620,-4609312,-209375,-30742190,68945310
2026-01-14 16:41:59.601,-15226270,19623250,-11088250,-4592050,-20742190,-30273440,6921875
2026-01-14 16:41:59.611,-63063010,19632740,-11096020,43261950,-21210940,-30273440,68984380
2026-01-14 16:41:59.621,-63054380,58056640,27327880,43270580,-209375,-30332030,68789060
2026-01-14 16:41:59.631,-10414800,58065270,27319250,-9351725,-20839840,-30546880,68242190
2026-01-14 16:41:59.641,-10406170,44230420,41154100,-9343096,-20859380,-30859380,68164060
2026-01-14 16:41:59.651,-6300258,58091170,27310620,4328787,-20585940,-31367190,6875
2026-01-14 16:41:59.661,-15163260,58091170,27310620,-4534217,-20273440,-30917970,68984380
2026-01-14 16:41:59.671,-62976690,19669860,-11127950,43296480,-20078120,-30117190,68984380
2026-01-14 16:41:59.681,-62959430,15834720,-14980360,43313740,-20175780,-30175780,68710940
2026-01-14 16:41:59.691,-15127010,58142960,27310620,-4501416,-20214840,-30117190,68671870
2026-01-14 16:41:59.701,-15117520,19698340,-11151260,-4493650,-2015625,-30,68320310
2026-01-14 16:41:59.711,-15100250,19707840,-11159030,-4476385,-20292970,-30,68359380
2026-01-14 16:41:59.721,-62890380,19716470,-11167660,43331000,-2046875,-30195310,68203130
2026-01-14 16:41:59.731,-62873120,58203380,27301990,43348270,-2046875,-30585940,67695310
2026-01-14 16:41:59.741,-62855850,58212010,27293360,43365540,-20332030,-30644530,67578130
2026-01-14 16:41:59.751,-62829960,42768150,42737220,43374160,-20253910,-31035160,67617180
2026-01-14 16:41:59.761,-54073120,19752720,-11200460,52131000,-20546880,-30917970,678125
2026-01-14 16:41:59.771,-62786800,19769980,-11217720,43417320,-20527340,-31035160,68203130
2026-01-14 16:41:59.781,-62760900,19778620,-11226350,43443220,-20410160,-30546880,68164060
2026-01-14 16:41:59.791,-62743640,19788110,-11234120,43460480,-20546880,-30507810,68359380
2026-01-14 16:41:59.801,-14925030,19796740,-11242760,-4306342,-20546880,-30742190,68320310
2026-01-14 16:41:59.811,-14907760,58306960,27250200,-4289077,-20546880,-30683590,68359380
2026-01-14 16:41:59.821,-14881870,58315590,27241570,-4263182,-20703120,-30664060,6859375
2026-01-14 16:41:59.831,-14864610,58332860,27241570,-4245919,-20664060,-30722660,684375
2026-01-14 16:41:59.841,-14837850,44342640,41231780,-4220887,-20703120,-30449220,68320310
2026-01-14 16:41:59.851,-14820590,19842490,-11283320,-4203625,-20644530,-30292970,68125
2026-01-14 16:41:59.861,-14803320,19859760,-11300590,-4186362,-21074220,-30234380,68007810
2026-01-14 16:41:59.871,-62545110,19869250,-11308350,43607220,-21015620,-29511720,6859375
2026-01-14 16:41:59.881,-14758440,58401910,27224300,-4144927,-21855470,-27636720,68359380
2026-01-14 16:41:59.891,-14731680,58436440,27241560,-4119895,-24160160,-24570310,6828125
2026-01-14 16:41:59.901,-9382682,58470960,27276090,-9382574,-27578120,-228125,66289060
2026-01-14 16:41:59.911,-14639320,58522760,27327880,-4039621,-28652340,-23378910,63320310
2026-01-14 16:41:59.921,-14576310,19895150,-11299720,-3981791,-27519530,-23300780,64179690
2026-01-14 16:41:59.931,-62130800,19892560,-11285050,43728070,-28496090,-22402340,63945310
2026-01-14 16:41:59.941,-14413170,19883060,-11260020,-3834189,-2828125,-21425780,63320310
2026-01-14 16:41:59.951,-14305270,58755810,27629990,-3734923,-28320310,-20273440,63007810
2026-01-14 16:41:59.961,-14179250,58824860,27733570,-3619258,-30429690,-18242190,62851560
2026-01-14 16:41:59.971,-14035100,19875290,-11198730,-3487196,-31816410,-18964840,6140625
2026-01-14 16:41:59.981,-61293520,59014750,27940730,44099220,-3078125,-2140625,60859380
2026-01-14 16:41:59.991,-89424140,19892560,-11181470,-78893500,-29570310,-23007810,62226560
2026-01-14 16:42:00.001,-13487860,19900330,-11173700,-2964117,-28789060,-24765620,64101560
2026-01-14 16:42:00.011,-13286740,15974040,-15099990,-2768177,-27597660,-25976560,65742190
2026-01-14 16:42:00.021,-6038718,59308230,28234210,4474663,-26425780,-27636720,66796880
2026-01-14 16:42:00.031,-76743100,19912410,-11144350,-75692280,-24746090,-29453120,67695310
2026-01-14 16:42:00.041,-12683380,19902050,-11120190,-2180360,-22460940,-31679690,68203130
2026-01-14 16:42:00.051,-59748460,59472230,28484530,45247240,-20273440,-33242190,69101560
2026-01-14 16:42:00.061,-5956717,59498130,28579470,4537674,-18125,-346875,69726560
2026-01-14 16:42:00.071,-12201730,59524030,28708950,-1712522,-16552730,-35683590,7015625
2026-01-14 16:42:00.081,-59247820,19757040,-10919930,45575240,-15058590,-36425780,69960940
2026-01-14 16:42:00.091,-72738260,59532660,29011060,-62261130,-13515630,-37089840,69921870
2026-01-14 16:42:00.101,-59032020,59515390,29200960,45670190,-12675780,-37148440,696875
2026-01-14 16:42:00.111,-11877180,59480870,29408120,-1415592,-12070310,-37265620,69570310
2026-01-14 16:42:00.121,-5233972,19352210,-10444330,5220714,-11464840,-37480470,68945310
2026-01-14 16:42:00.131,-58868020,19214970,-10288090,45592500,-11591800,-37578120,690625
2026-01-14 16:42:00.141,-11883220,59308230,30150440,-1444076,-11601560,-37304690,684375
2026-01-14 16:42:00.151,-5886800,59230550,30418020,4543716,-11376950,-36328120,6796875
2026-01-14 16:42:00.161,-119963000,18716920,-9733072,-15726910,-1125,-35917970,67695310
2026-01-14 16:42:00.171,-58937070,5904927,3096184,45229970,-11337890,-35742190,67617180
2026-01-14 16:42:00.181,-7460355,58945700,31220770,-6419374,-11923830,-35097660,67382820
2026-01-14 16:42:00.191,-75550460,18205930,-9173741,-65145830,-12714840,-35039060,67421870
2026-01-14 16:42:00.201,-12337250,58738540,31704140,-1939535,-14404300,-3484375,6796875
2026-01-14 16:42:00.211,-12429610,17882240,-8824159,-2037074,-16376950,-33867190,684375
2026-01-14 16:42:00.221,-73888510,17733780,-8661883,-72849950,-19101560,-32480470,68554690
2026-01-14 16:42:00.231,-12612600,58488220,32368780,-2233875,-20644530,-31210940,67851560
2026-01-14 16:42:00.241,-52609190,58419170,32558680,51109000,-22578120,-303125,67617180
2026-01-14 16:42:00.251,-80795060,58376020,32722680,-70431870,-23808590,-30449220,67734380
2026-01-14 16:42:00.261,-81309500,58341490,32878050,-70953220,-24570310,-30449220,68476560
2026-01-14 16:42:00.271,-12830980,13110740,-12197330,-2481607,-24902340,-3015625,69140620
2026-01-14 16:42:00.281,-59403180,58306960,33137000,44021540,-24921880,-29316410,70
2026-01-14 16:42:00.291,-59385920,47027090,44520460,43969750,-25429690,-28632810,70703130
2026-01-14 16:42:00.301,-12881050,17080360,-7916971,-2552386,-2625,-28222660,70117180
2026-01-14 16:42:00.311,-12868960,17076040,-7904024,-2547207,-25820310,-28476560,69023440
2026-01-14 16:42:00.321,-12849110,58393280,33395950,-2532531,-25136720,-29570310,68476560
2026-01-14 16:42:00.331,-8180498,12975050,-12056810,-7149357,-24160160,-30410160,67929690
2026-01-14 16:42:00.341,-127843700,17144230,-7956672,-24764280,-22929690,-30742190,675
2026-01-14 16:42:00.351,-81110980,17196890,-8007601,-70806490,-21582030,-31347660,67226560
2026-01-14 16:42:00.361,-127118700,58617700,33292370,-24108260,-19736330,-31679690,67421870
2026-01-14 16:42:00.371,-12667840,58686750,33223310,-2368529,-18583980,-32246090,67734380
2026-01-14 16:42:00.381,-12623820,17404050,-8214764,-2326236,-17880860,-32929690,684375
2026-01-14 16:42:00.391,-58911180,17481730,-8292447,44047440,-17294920,-33417970,69101560
2026-01-14 16:42:00.401,-12543550,17567180,-8379630,-2251140,-16992190,-34238280,69414060
2026-01-14 16:42:00.411,-58816230,17644870,-8457312,44090590,-16601560,-34882810,69726560
2026-01-14 16:42:00.421,-73883590,17722560,-8534998,-72854870,-16298830,-35058590,69726560
2026-01-14 16:42:00.431,-78339350,59126980,32731310,-68053850,-16181640,-35078120,6953125
2026-01-14 16:42:00.441,-78251300,59196030,32662260,-67969260,-16142580,-35292970,69570310
2026-01-14 16:42:00.451,-124589600,59256440,32601840,-21803610,-16416020,-34902340,69492190
2026-01-14 16:42:00.461,-78421350,59308240,32550050,-68144480,-16748050,-34160160,69140620
2026-01-14 16:42:00.471,-78592260,47272230,44586060,-68318840,-17314450,-334375,68398440
2026-01-14 16:42:00.481,-12497800,59403180,32437830,-2227833,-17753910,-33203120,68320310
2026-01-14 16:42:00.491,-12522830,59446340,32394670,-2254591,-18515620,-33105470,6859375
2026-01-14 16:42:00.501,-58755810,14028110,-13109870,43909330,-19150390,-32695310,68515620
2026-01-14 16:42:00.511,-12590160,14062640,-13144400,-2325372,-19658200,-32167970,6859375
2026-01-14 16:42:00.521,-52056760,18237000,-9056350,50556580,-20253910,-31699220,6890625
2026-01-14 16:42:00.531,-58842120,59575810,32213410,43753960,-20761720,-31269530,69023440
2026-01-14 16:42:00.541,-81086820,59601720,32187520,-70830660,-21425780,-30507810,68789060
2026-01-14 16:42:00.551,-52036920,59636230,32152990,50507380,-21796880,-29726560,6875
2026-01-14 16:42:00.561,-12824940,59662140,32127090,-2573963,-21582030,-29570310,68320310
2026-01-14 16:42:00.571,-12875000,59688030,32101200,-2627479,-215625,-28984380,68554690
2026-01-14 16:42:00.581,-12925930,59713920,32075300,-2680133,-21738280,-28496090,67890620
2026-01-14 16:42:00.591,-129673600,59748450,32040780,-27250190,-2140625,-28398440,67578130
2026-01-14 16:42:00.601,-79319130,59782980,32006250,-78295240,-20957030,-28554690,67148440
2026-01-14 16:42:00.611,-59101070,59817500,31971720,43270580,-20957030,-2875,67109380
2026-01-14 16:42:00.621,-13058000,5984341,3192858,-2824284,-2140625,-29414060,66914060
2026-01-14 16:42:00.631,-51956640,18589170,-9411974,50363230,-2109375,-29902340,6703125
2026-01-14 16:42:00.641,-13099430,18623700,-9446503,-2869168,-21015620,-29804690,67421870
2026-01-14 16:42:00.651,-59135600,18657360,-9481892,43132480,-20878910,-29199220,6734375
2026-01-14 16:42:00.661,-59144230,18700520,-9525050,43106580,-21347660,-28925780,67226560
2026-01-14 16:42:00.671,-13139140,18735050,-9559578,-2915779,-21230470,-28964840,66875
2026-01-14 16:42:00.681,-13138270,60067820,31669610,-2916640,-21953120,-29277340,66796880
2026-01-14 16:42:00.691,-59126970,18828270,-9656252,43072060,-21894530,-29355470,66132810
2026-01-14 16:42:00.701,-59118340,18887830,-9717537,43080690,-22636720,-29394530,66054690
2026-01-14 16:42:00.711,-59101070,18930120,-9761558,43097950,-23261720,-28730470,65078120
2026-01-14 16:42:00.721,-13102020,60231820,31436560,-2883840,-25390620,-28242190,63945310
2026-01-14 16:42:00.731,-13083890,60274980,31393400,-2867440,-27910160,-27558590,61953120
2026-01-14 16:42:00.741,-59040660,19059600,-9891034,43089320,-30507810,-26777340,59882810
2026-01-14 16:42:00.751,-59014760,19078590,-9906568,43063420,-33691410,-25527340,59023440
2026-01-14 16:42:00.761,-13093390,60387190,31402030,-2892471,-37148440,-23066410,58554690
2026-01-14 16:42:00.771,-13106330,60421720,31488350,-2914051,-40507810,-20664060,58046880
2026-01-14 16:42:00.781,-58919810,14883850,-13963200,42882160,-43359380,-16972660,58828120
2026-01-14 16:42:00.791,-13110650,60464880,31790460,-2944261,-46171880,-16191410,5953125
2026-01-14 16:42:00.801,-13112380,60464880,32014880,-2959799,-50078120,-17880860,63359380
2026-01-14 16:42:00.811,-13112380,18716060,-9440462,-2977064,-52148440,-20175780,66523440
2026-01-14 16:42:00.821,-51386940,18533930,-9225532,49776270,-51953120,-203125,67148440
2026-01-14 16:42:00.831,-58548650,60361290,33067950,42424680,-5171875,-19550780,68789060
2026-01-14 16:42:00.841,-13118420,1803416,-865497,4,-3040076,-4828125,-18066410,703125
2026-01-14 16:42:00.851,-13108920,17708740,-8289859,-3049570,-44335940,-1734375,69921870
2026-01-14 16:42:00.861,-13089070,59929720,34707960,-3052158,-43007810,-15917970,7078125
2026-01-14 16:42:00.871,-5811707,16927580,-7413745,4201037,-37382810,-1796875,6453125
2026-01-14 16:42:00.881,-13031240,59480870,36158080,-3040937,-34570310,-18525390,65117190
2026-01-14 16:42:00.891,-57840850,15909040,-6291625,41803200,-25644530,-22929690,63007810
2026-01-14 16:42:00.901,-57728640,15271160,-5600229,41673730,-22539060,-22480470,63632810
2026-01-14 16:42:00.911,-57607800,14558180,-4828556,41518360,-2109375,-19804690,60625
2026-01-14 16:42:00.921,-57461060,57840840,40059600,41371620,-15507810,-19189450,56445310
2026-01-14 16:42:00.931,-12972540,57279790,41190350,-3116895,-10830080,-1953125,54804690
2026-01-14 16:42:00.941,-12940610,12107650,-2203666,-3114308,-10029300,-19179690,51132810
2026-01-14 16:42:00.951,-8517305,112030500,-12438240,-7537605,-8300781,-16210940,4875
2026-01-14 16:42:00.961,-12900040,55329030,44832910,-3137611,-47045900,-13916020,46367190
2026-01-14 16:42:00.971,-12840480,92807760,7872092,-3110852,-26171880,-17783200,45820310
2026-01-14 16:42:00.981,-56407990,82691430,18471780,40560240,-79589840,-240625,46601560
2026-01-14 16:42:00.991,-127205000,72126270,29485810,-30582020,117492700,-28203120,4734375
2026-01-14 16:42:01.001,-83621940,15026890,-4825966,-73992430,2849121,-31074220,47421880
2026-01-14 16:42:01.011,-83863620,-14735990,24969710,-74268650,22790530,-32265620,48789060
2026-01-14 16:42:01.021,-48581660,-14160700,15187000,46988250,5895996,-31894530,4953125
2026-01-14 16:42:01.031,-55648400,2346088,7939417,39524440,-491333,-29765620,50351560
2026-01-14 16:42:01.041,-86567920,989193,5,9310128,-77088620,8917236,-30,51757810
2026-01-14 16:42:01.051,-13039870,-406551,10711050,-3601998,25170900,-30449220,52929690
2026-01-14 16:42:01.061,-13191790,-1848904,12151670,-3795348,27294920,-2984375,521875
2026-01-14 16:42:01.071,-133601100,-33137000,136043800,-40068240,41503900,-26660160,509375
2026-01-14 16:42:01.081,-55449880,-4782813,15052780,37685890,64697260,-22480470,52851560
2026-01-14 16:42:01.091,-55441250,-10847340,11871230,37280200,9038086,-22851560,546875
2026-01-14 16:42:01.101,-55449880,-7701183,17900370,36874510,11416020,-23320310,57578120
2026-01-14 16:42:01.111,-14109330,36529240,64979240,-4914874,14433590,-24628910,60351560
2026-01-14 16:42:01.121,-55553460,34811540,66110000,35994090,12373050,-21152340,63046880
2026-01-14 16:42:01.131,-55657030,33076570,67137160,35545240,17207030,-22304690,6578125
2026-01-14 16:42:01.141,-14928480,47860910,51541460,-5839327,18662110,-24804690,72773440
2026-01-14 16:42:01.151,-56045460,29485800,69001600,34518070,18720700,-24296880,78515620
2026-01-14 16:42:01.161,-15699290,27655880,69830240,-6674010,13066410,-20585940,875
2026-01-14 16:42:01.171,-16123960,25869130,70563940,-7129762,8535156,-18935550,93984380
2026-01-14 16:42:01.181,-56899990,24134160,71211310,32748570,85791020,-22558590,9546875
2026-01-14 16:42:01.191,-45956760,-19951250,29370140,43450120,7631836,-2484375,91953130
2026-01-14 16:42:01.201,-17451520,2079371,7220396,-8529820,8276367,-27792970,82890620
2026-01-14 16:42:01.211,-57996220,19188210,72549220,31117190,7939453,-28378910,74140620
2026-01-14 16:42:01.221,-18325910,-23056930,32099470,-9416295,11269530,-290625,66289060
2026-01-14 16:42:01.231,-18728140,1611535,7292903,-9808173,18476560,-30957030,6125
2026-01-14 16:42:01.241,-19111390,40851990,46690450,-10167250,290625,-33046880,58242190
2026-01-14 16:42:01.251,-15425230,-25613630,34203870,-14526680,44765620,-35605470,5859375
2026-01-14 16:42:01.261,-60525300,-26368900,34777880,29917380,5984375,-4078125,63554690
2026-01-14 16:42:01.271,-20217110,37924120,44163100,-11098610,728125,-4515625,7125
2026-01-14 16:42:01.281,-20659910,8174198,71686060,-11449920,84296870,-478125,821875
2026-01-14 16:42:01.291,-21156230,-28368860,36109750,-11834030,93984380,-52382810,996875
2026-01-14 16:42:01.301,-64245550,-28891940,36363520,30271280,104296900,-6203125,11828130
2026-01-14 16:42:01.311,-22357760,3012454,68768550,-12755890,113359400,-72382820,139765600
2026-01-14 16:42:01.321,-6710261,1277490,67258010,3059066,1015625,-81171870,1709375
2026-01-14 16:42:01.331,-24001230,-29638580,36152040,-14047190,69101560,-8609375,20140620
2026-01-14 16:42:01.341,-24888570,-1648650,63382380,-14730810,25058590,-10453130,22515620
2026-01-14 16:42:01.351,-25791440,-2554976,61043200,-15416170,-36113280,-125546900,2296875
2026-01-14 16:42:01.361,-7435322,-2934766,58488220,3173004,-110625,-13203130,19859380
2026-01-14 16:42:01.371,-56505530,-2770772,55717460,52149990,-17640620,-111953100,136484400
2026-01-14 16:42:01.381,-77633280,-2114764,52696370,33991540,-2346875,-60,5625
2026-01-14 16:42:01.391,-27010230,-992642,49450860,-15509390,-263125,12011720,-7373047
2026-01-14 16:42:01.401,-25919190,20968930,25521270,-14045460,-255,86328130,-58320310
2026-01-14 16:42:01.411,-24263640,-17890870,22332730,-12006660,-2275,16234380,-87890620
2026-01-14 16:42:01.421,-22165280,3797938,38549060,-9547495,-18328120,23296880,-93671870
2026-01-14 16:42:01.431,-19690570,5429322,34949650,-6756874,-1121875,295,-84765620
2026-01-14 16:42:01.441,-67006820,-10472810,14317360,64954210,-259375,323125,-36679690
2026-01-14 16:42:01.451,-7515167,-10218260,10584070,-6174669,33125,333125,58125
2026-01-14 16:42:01.461,-94171560,-69113820,104900700,41173080,-16734380,155078100,-2303125
2026-01-14 16:42:01.471,-1302519,9935056,23055200,12316540,13234380,-135125,585625
2026-01-14 16:42:01.481,-19999590,10254420,23322780,116156400,-70625,-1620,23168940
2026-01-14 16:42:01.491,-11752020,-7896256,11559540,1704756,-326875,4346875,2434375
2026-01-14 16:42:01.501,-13326870,7604507,31462450,-12015720,11859380,1266875,-628125
2026-01-14 16:42:01.511,-79454560,5817747,32696790,50486660,-26171880,94125,-5340625
2026-01-14 16:42:01.521,-18951700,5990382,34336800,-5959307,-4221875,49570310,18203120
2026-01-14 16:42:01.531,-75112820,6689546,35830080,54707550,-148203100,-30136720,1453125
2026-01-14 16:42:01.541,-8891400,7440502,37029880,-7595096,-139765600,31113280,78242190
2026-01-14 16:42:01.551,-12488310,8372724,38583580,421225,8,-18359380,71914060,1384375
2026-01-14 16:42:01.561,-34504460,9822849,40396240,-34376300,-56835940,-853125,20984380
2026-01-14 16:42:01.571,-21532580,25168240,28296360,-8850919,840625,-3284375,19984380
2026-01-14 16:42:01.581,-72255740,11868550,44323660,53093430,120625,-300,125546900
2026-01-14 16:42:01.591,-16991450,-13923750,19757040,-4587736,6453125,-15890630,113515600
2026-01-14 16:42:01.601,-73567770,-14351890,20381980,49226440,32207030,-14125,12953130
2026-01-14 16:42:01.611,-74940190,29334740,32899630,46628300,41953120,-156640600,125546900
2026-01-14 16:42:01.621,-23279620,30235030,33881050,-11247070,39121100,-130703100,108984400
2026-01-14 16:42:01.631,-26841050,14466690,51582890,-14936250,26660160,-10921880,100234400
2026-01-14 16:42:01.641,-61345310,15122690,52843120,56390730,18134770,-9609375,94765620
2026-01-14 16:42:01.651,-86679270,15795960,54086080,29710230,10917970,-80625,91171870
2026-01-14 16:42:01.661,-37515840,-15796830,22976650,-26013280,76220700,-72929690,871875
2026-01-14 16:42:01.671,-91521640,17271970,56425260,22122980,78759770,-73164060,859375
2026-01-14 16:42:01.681,-43593410,1803158,5751287,-32365330,94677740,-75351560,8859375
2026-01-14 16:42:01.691,-47581240,18756630,58548650,-36491260,6191406,-75117180,93515620
2026-01-14 16:42:01.701,-10169840,-16100660,24002100,778576,1,38720700,-65703120,10203130
2026-01-14 16:42:01.711,-10616090,38323770,42365120,189035,4,-26367190,-521875,1078125
2026-01-14 16:42:01.721,-11061490,20862750,61500680,-401371,9,-22937010,-40390620,108125
2026-01-14 16:42:01.731,-114473300,-16142960,24546760,-9304949,-46069340,-3171875,10796880
2026-01-14 16:42:01.741,-58462330,-15964280,24535540,45307660,-50634770,-2828125,105859400
2026-01-14 16:42:01.751,-12025650,23659420,63762180,-1785029,-33081060,-27226560,100859400
2026-01-14 16:42:01.761,-51265240,24807430,64305980,49828940,-33355710,-28496090,95859380
2026-01-14 16:42:01.771,-12414940,-14839570,23916640,-2431544,26513670,-28339840,91640620
2026-01-14 16:42:01.781,-50086160,-14319950,23555840,48556620,41357420,-26015620,90078130
2026-01-14 16:42:01.791,-83337950,-13733860,23123400,-73585890,52783200,-25,88046870
2026-01-14 16:42:01.801,-12833570,-13073530,22609810,-3186815,1015625,-21660160,85859380
2026-01-14 16:42:01.811,-86170860,-12346740,22024580,-76622510,11474610,-20351560,84296870
2026-01-14 16:42:01.821,-12988940,32593200,65531680,-3532080,13740230,-20,821875
2026-01-14 16:42:01.831,-47690000,34008800,65393570,46015460,15683590,-21640620,8046875
2026-01-14 16:42:01.841,-13146040,-9857372,19921900,-3858359,15976560,-23613280,7953125
2026-01-14 16:42:01.851,-13259980,-8970036,19151960,-4055161,16611330,-22675780,75195310
2026-01-14 16:42:01.861,-13392040,-8077520,18369930,-4268364,15361330,-20019530,73554690
2026-01-14 16:42:01.871,-46122490,-7161702,17559420,44320190,146875,-17392580,72226560
2026-01-14 16:42:01.881,-13685520,-6231205,16729050,-4717211,15722660,-18447270,69609380
2026-01-14 16:42:01.891,-53870280,-5313661,15903000,35070490,175,-20878910,66445310
2026-01-14 16:42:01.901,-53749430,43633110,63106170,34483540,17783200,-21953120,64726560
2026-01-14 16:42:01.911,-14262110,44867440,62614160,-5504417,18515620,-22714840,61679690
2026-01-14 16:42:01.921,-53645860,-2602452,13417940,33326900,18662110,-24355470,59140620
2026-01-14 16:42:01.931,-14781740,-1728061,12600520,-6141437,17177730,-2859375,58789060
2026-01-14 16:42:01.941,-53723540,48268320,60956880,32144360,14296880,-28359380,57929690
2026-01-14 16:42:01.951,-15393730,-67326,5,11033010,-6858729,9633789,-24238280,59570310
2026-01-14 16:42:01.961,-5389617,719882,10283780,3098771,5727539,-22089840,58632810
2026-01-14 16:42:01.971,-43412140,15036380,95310950,41057420,37719730,-18925780,57148440
2026-01-14 16:42:01.981,-43268860,-26839330,37898230,40855440,23352050,-17011720,56796880
2026-01-14 16:42:01.991,-16544330,52920800,57823590,-8159520,10876470,-15400390,56953120
2026-01-14 16:42:02.001,-54457230,53740810,57072630,29200950,2455,711,-13583980,57773440
2026-01-14 16:42:02.011,-17070860,-3089275,14174070,-8720580,-10083010,-134375,57617190
2026-01-14 16:42:02.021,-17317730,55397400,55398780,-8974350,-28320310,-15498050,5703125
2026-01-14 16:42:02.031,-55078710,12872410,-1801429,28286000,-10736080,-15791020,56640620
2026-01-14 16:42:02.041,-55303140,20893830,-9834928,28044310,-19592280,-16708980,55976560
2026-01-14 16:42:02.051,-55518930,28913520,-17870150,27828520,-7836914,-1125,63632810
2026-01-14 16:42:02.061,-55631140,37282790,-26246330,27560940,-10449220,-14189450,60
2026-01-14 16:42:02.071,-5570882,95362740,14915530,2732792,-15654300,-13554690,575
2026-01-14 16:42:02.081,-18449340,59964240,50210450,-10156030,-20136720,-18164060,58398440
2026-01-14 16:42:02.091,-18539970,11232400,-230465,3,-10255290,-22929690,-24726560,5921875
2026-01-14 16:42:02.101,-55864200,12069670,-1084999,26913560,-24375,-30898440,62421880
2026-01-14 16:42:02.111,-42816550,62208480,47431050,39909410,-26386720,-3484375,65195310
2026-01-14 16:42:02.121,-55967780,87125530,-76185740,26740930,-29433590,-36386720,68320310
2026-01-14 16:42:02.131,-56028200,63468700,45652930,26680510,-31308590,-38164060,71953130
2026-01-14 16:42:02.141,-18886100,15057960,-4173414,-10616960,-36035160,-33769530,7234375
2026-01-14 16:42:02.151,-5616631,15734680,-4877759,2650788,-39082030,-3140625,7109375
2026-01-14 16:42:02.161,-19032840,11512240,-10429480,-10763700,-39082030,-32246090,71523440
2026-01-14 16:42:02.171,-19119160,65566200,42381520,-10850010,-38125,-32988280,7140625
2026-01-14 16:42:02.181,-56459780,17551640,-6789673,26266180,-38300780,-31503910,70625
2026-01-14 16:42:02.191,-5661516,18043650,-7316207,2614535,-38574220,-29296880,69921870
2026-01-14 16:42:02.201,-56796420,18467470,-7772820,25981340,-42304690,-25410160,6890625
2026-01-14 16:42:02.211,-19718200,66852320,39817910,-11442150,-46367190,-21035160,62890620
2026-01-14 16:42:02.221,-57107160,19191660,-8550534,25618810,-48164060,-18251950,5859375
2026-01-14 16:42:02.231,-20016850,19516220,-8899255,-11747710,-478125,-19501950,55
2026-01-14 16:42:02.241,-20128200,19799340,-9203090,-11860780,-46328120,-21914060,54570310
2026-01-14 16:42:02.251,-5742654,20040160,-9462904,2521313,-44140620,-24257810,54804690
2026-01-14 16:42:02.261,-20356080,20232640,-9667475,-12099020,-41992190,-23945310,52929690
2026-01-14 16:42:02.271,-57573270,67896750,37668630,24911010,-39394530,-21992190,48671880
2026-01-14 16:42:02.281,-57625060,68008970,37504630,24755640,-3578125,-20957030,4515625
2026-01-14 16:42:02.291,-20644370,68086640,37375150,-12414930,-32011720,-20917970,4390625
2026-01-14 16:42:02.301,-57745900,68129810,37262940,24496690,-284375,-21484380,43164060
2026-01-14 16:42:02.311,-20822190,16003210,-14949970,-12599650,-25351560,-221875,43007810
2026-01-14 16:42:02.321,-20908510,20747960,-10222490,-12685970,-23105470,-23222660,44023440
2026-01-14 16:42:02.331,-42819150,20709970,-10191420,39440710,-209375,-24296880,45390620
2026-01-14 16:42:02.341,-58151580,54096430,51020100,24160060,-18769530,-25996090,46601560
2026-01-14 16:42:02.351,-58289700,20522670,-10016190,24073740,-18007810,-25273440,47851560
2026-01-14 16:42:02.361,-21340950,67637800,37409680,-13099430,-18300780,-23242190,48203120
2026-01-14 16:42:02.371,-21454890,67456540,37590940,-13209910,-18652340,-21230470,46992190
2026-01-14 16:42:02.381,-42986600,15251050,-14200230,39497680,-19355470,-20742190,46679690
2026-01-14 16:42:02.391,-17977960,67042220,38057060,-17152950,-20039060,-21171880,47109380
2026-01-14 16:42:02.401,-58954340,19490320,-8976940,23581730,-21113280,-21601560,47617190
2026-01-14 16:42:02.411,-21935670,19208070,-8689506,-13678610,-22949220,-21113280,47460940
2026-01-14 16:42:02.421,-22059110,66256730,38963380,-13796870,-24648440,-2171875,47890620
2026-01-14 16:42:02.431,-22183400,18597810,-8074068,-13914260,-25351560,-22617190,49609380
2026-01-14 16:42:02.441,-4319720,65635250,39636650,3956331,-27050780,-23339840,525
2026-01-14 16:42:02.451,-4325244,65289980,39999180,3959438,-27773440,-240625,54023440
2026-01-14 16:42:02.461,-22566650,17539560,-7008919,-14273340,-27617190,-26152340,5625
2026-01-14 16:42:02.471,-60067820,12403800,-11350560,22951620,-28027340,-28300780,57929690
2026-01-14 16:42:02.481,-6024044,64141970,41198980,2284807,-29160160,-29023440,58046880
2026-01-14 16:42:02.491,-23009450,16325950,-5788400,-14693700,-29882810,-28886720,56835940
2026-01-14 16:42:02.501,-23167410,63330600,42062150,-14846480,-3109375,-27695310,5515625
2026-01-14 16:42:02.511,-23316740,15481770,-4940770,-14990630,-30976560,-28105470,54101560
2026-01-14 16:42:02.521,-6096552,15058820,-4517818,2234741,-30996090,-28652340,53515620
2026-01-14 16:42:02.531,-61138150,14644500,-4103495,22226560,-30664060,-28671880,52617190
2026-01-14 16:42:02.541,-23782850,61656050,43736700,-15439480,-30527340,-28066410,52578120
2026-01-14 16:42:02.551,-61509310,13814130,-3276581,21976250,-29824220,-27324220,528125
2026-01-14 16:42:02.561,-24099640,133980800,-28639890,-15744170,-29433590,-25917970,53359380
2026-01-14 16:42:02.571,-24257590,60369930,44919240,-15896950,-28964840,-25253910,54609380
2026-01-14 16:42:02.581,-24425050,78544790,-68021050,-16057500,-28417970,-25019530,56015620
2026-01-14 16:42:02.591,-20823910,59515400,45652920,-19986640,-28105470,-25078120,56875
2026-01-14 16:42:02.601,-24766860,1179692,-128869,9,-16388960,-27988280,-24257810,57109380
2026-01-14 16:42:02.611,-43991320,58669500,46326200,39839500,-28378910,-2359375,57070310
2026-01-14 16:42:02.621,-25133710,11063220,-572278,8,-16747170,-28925780,-22832030,57109380
2026-01-14 16:42:02.631,-63054380,57892640,46930420,20828230,-28867190,-2234375,56601560
2026-01-14 16:42:02.641,-25489330,10406350,65601,68,-17099350,-28222660,-22167970,56601560
2026-01-14 16:42:02.651,-25671460,10107690,353899,2,-17279750,-27382810,-22402340,56679690
2026-01-14 16:42:02.661,-63632700,9825434,624072,8,20301700,-25898440,-21542970,56796880
2026-01-14 16:42:02.671,-6383986,95595790,8761148,2011184,-24355470,-18496090,575
2026-01-14 16:42:02.681,-26261870,46125080,-35703190,-17863250,-240625,-13378910,60234380
2026-01-14 16:42:02.691,-26462120,52418430,51645030,-18060050,-24335940,-96191410,63007810
2026-01-14 16:42:02.701,-26637350,88630030,15260800,-18230090,-23769530,-8666992,66367190
2026-01-14 16:42:02.711,-64659870,40231370,-29857820,19447160,-234375,-11230470,68632820
2026-01-14 16:42:02.721,-26986930,8535864,1820421,-18571050,-22773440,-1625,70273440
2026-01-14 16:42:02.731,-65039660,37366520,-27025770,19136420,-22109380,-20644530,70585940
2026-01-14 16:42:02.741,-44402200,36237490,-25910560,39773890,-21230470,-23671880,70429690
2026-01-14 16:42:02.751,-6541946,815089,216051,1,1872210,-21367190,-23300780,69257810
2026-01-14 16:42:02.761,-27768100,34151220,-23853630,-19360840,-2203125,-21972660,6859375
2026-01-14 16:42:02.771,-65790620,79558140,23279630,18212840,-22089840,-20488280,68984380
2026-01-14 16:42:02.781,-28217810,7879857,2390112,-19826090,-21582030,-19316410,6984375
2026-01-14 16:42:02.791,-66170420,32058900,-21802740,17643150,-20585940,-18603520,71523440
2026-01-14 16:42:02.801,-66377580,31619550,-21378930,17332410,-19628910,-18164060,72148440
2026-01-14 16:42:02.811,-66584740,77365700,24885120,17004400,-18876950,-17177730,71914060
2026-01-14 16:42:02.821,-66809160,77106750,24971440,16659140,-18076170,-16494140,703125
2026-01-14 16:42:02.831,-44208850,77020430,24885120,39138600,-17734380,-15332030,67890620
2026-01-14 16:42:02.841,-26052210,31239760,-21068190,-25219940,-17148440,-14980470,65117190
2026-01-14 16:42:02.851,-67473800,31489210,-21336630,15649230,-17207030,-14960940,61484380
2026-01-14 16:42:02.861,-6769824,31823260,-21693120,1535576,-15947270,-15830080,59609380
2026-01-14 16:42:02.871,-67914020,53274700,47819480,15088170,-15839840,-16699220,57265620
2026-01-14 16:42:02.881,-30794360,53214270,47655470,-22497590,-15644530,-18242190,56523440
2026-01-14 16:42:02.891,-31001520,33344160,-23279630,-22704750,-13867190,-21503910,5328125
2026-01-14 16:42:02.901,-68570020,33589300,-23552380,14449420,-1078125,-27441410,52578120
2026-01-14 16:42:02.911,-31424470,78677710,21363390,-23110440,-17353520,-25585940,6171875
2026-01-14 16:42:02.921,-6905341,33818900,-23840680,1415596,-17001950,-26816410,63867190
2026-01-14 16:42:02.931,-4440135,33979450,-24025400,3887708,-13447270,-31503910,62773440
2026-01-14 16:42:02.941,-31943240,34054550,-24122940,-23610220,-15224610,-32578120,66640620
2026-01-14 16:42:02.951,-44465210,34218540,-24304200,38882240,-16240230,-32890620,67578130
2026-01-14 16:42:02.961,-6971805,34469730,-24570930,1366396,-18935550,-33066410,715625
2026-01-14 16:42:02.971,-4450231,52454680,46429770,3887968,-20566410,-31464840,74140620
2026-01-14 16:42:02.981,-32335120,35841300,-25961490,-23995190,-20195310,-32324220,75195310
2026-01-14 16:42:02.991,-69890670,36960830,-27086190,13525840,-2125,-325,79101560
2026-01-14 16:42:03.001,-69899300,52705000,46006830,13568990,-21230470,-32304690,80546870
2026-01-14 16:42:03.011,-42049800,40237410,-30369680,41487540,-2234375,-31777340,83828130
2026-01-14 16:42:03.021,-32216000,42567970,-32700230,-23855360,-21816410,-33300780,85078130
2026-01-14 16:42:03.031,-28350730,89553620,9106416,-27513460,-20175780,-35292970,828125
2026-01-14 16:42:03.041,-32003660,92393440,6249332,-23618850,-20957030,-34238280,8578125
2026-01-14 16:42:03.051,-31872460,9557854,304699,2,-23473840,-18994140,-36113280,81796870
2026-01-14 16:42:03.061,-69588560,54241440,44349540,14535740,-16474610,-37519530,803125
2026-01-14 16:42:03.071,-44878670,10201770,-346128,2,39401010,-14257810,-38105470,7875
2026-01-14 16:42:03.081,-69484980,54837020,43650380,14967330,-12167970,-38164060,7625
2026-01-14 16:42:03.091,-31368360,55095980,43322380,-22907600,-9770508,-38300780,746875
2026-01-14 16:42:03.101,-69415930,5532039,4299440,15347110,-7993164,-37871100,7296875
2026-01-14 16:42:03.111,-69407300,11324760,-1501908,15511120,-64990230,-365625,70195310
2026-01-14 16:42:03.121,-31132720,11543140,-1732376,-22625340,-48828120,-35097660,6828125
2026-01-14 16:42:03.131,-69424560,11735620,-1936945,15787330,-30810550,-33515620,66289060
2026-01-14 16:42:03.141,-6945911,74982500,-65195900,1590821,-13098150,-32265620,64492190
2026-01-14 16:42:03.151,-31008430,56019570,41708250,-22456160,-32367710,-30996090,6328125
2026-01-14 16:42:03.161,-30989440,77730820,-67971850,-22423360,1361084,-29960940,6296875
2026-01-14 16:42:03.171,-30963540,12261290,-2516132,-22380210,2043457,-28652340,62734380
2026-01-14 16:42:03.181,-30945410,56131780,41181720,-22346540,20336910,-26914060,63164060
2026-01-14 16:42:03.191,-27050980,12401990,-2686176,-26189190,12536620,-25136720,634375
2026-01-14 16:42:03.201,-30912620,80895180,-71194910,-22275760,36621100,-23847660,64179690
2026-01-14 16:42:03.211,-30879810,49188460,47658930,-22222240,-47821040,-22929690,64882810
2026-01-14 16:42:03.221,-69907940,56028200,40646550,16892190,-22167970,-21835940,65742190
2026-01-14 16:42:03.231,-6997696,55976410,40525710,1706484,-41992190,-21386720,6625
2026-01-14 16:42:03.241,-30760700,55924620,40404860,-22030620,-6015625,-21074220,66328120
2026-01-14 16:42:03.251,-30705450,12592750,-2978789,-21947760,-83740230,-21074220,66953120
2026-01-14 16:42:03.261,-30633810,5579515,4015456,-21846770,-11074220,-21152340,67890620
2026-01-14 16:42:03.271,-70244570,79027040,-78069440,17936620,-14208980,-21699220,6859375
2026-01-14 16:42:03.281,-7029637,126678500,-31108550,1819562,-16796880,-22910160,69453130
2026-01-14 16:42:03.291,-70339510,12701510,-3163506,18480420,-19013670,-24667970,69140620
2026-01-14 16:42:03.301,-30266100,12735170,-3216161,-21351310,-19941410,-27148440,69023440
2026-01-14 16:42:03.311,-7041720,12777470,-3277447,1907601,-21054690,-28066410,69492190
2026-01-14 16:42:03.321,-70443100,12811990,-3329234,19378110,-21699220,-28632810,70078130
2026-01-14 16:42:03.331,-29884590,86043120,-76577620,-20869660,-22324220,-2828125,69414060
2026-01-14 16:42:03.341,-29736980,12916440,-3466480,-20689260,-22382810,-28496090,69453130
2026-01-14 16:42:03.351,-47905790,55432610,38911590,42899420,-21484380,-29277340,69375
2026-01-14 16:42:03.361,-70425830,13031240,-3610626,20724650,-20234380,-29902340,6953125
2026-01-14 16:42:03.371,-29234620,55415350,38652640,-20086770,-18955080,-30332030,69921870
2026-01-14 16:42:03.381,-70356780,89114270,-79721280,21432450,-19013670,-29960940,69609380
2026-01-14 16:42:03.391,-28869500,13184020,-3803115,-19657770,-19169920,-29628910,70195310
2026-01-14 16:42:03.401,-28677010,55389460,38316010,-19435940,-18457030,-29863280,70351560
2026-01-14 16:42:03.411,-28484530,13260840,-3898926,-19214110,-18076170,-29160160,69414060
2026-01-14 16:42:03.421,-28282540,9064899,-8129397,-18984500,-17402340,-28574220,70390620
2026-01-14 16:42:03.431,-70046040,13289330,-3939493,23193310,-17050780,-2765625,7109375
2026-01-14 16:42:03.441,-49063300,13287600,-3941221,44417730,-16542970,-275,71640620
2026-01-14 16:42:03.451,-49155660,13269470,-3924821,44549800,-16162110,-27421880,71640620
2026-01-14 16:42:03.461,-27534180,13243580,-3898926,-18144640,-15703130,-27578120,72109380
2026-01-14 16:42:03.471,-69692140,13201280,-3854903,24375850,-15517580,-27285160,73398440
2026-01-14 16:42:03.481,-27204450,13142590,-3792757,-17783840,-14619140,-25839840,73085940
2026-01-14 16:42:03.491,-69510880,84367620,-83432120,24833330,-13828130,-21855470,74726560
2026-01-14 16:42:03.501,-26913560,12976000,-3614081,-17470510,-14296880,-16113280,78632820
2026-01-14 16:42:03.511,-69312340,47672740,46032730,25204490,-15410160,-11455080,8359375
2026-01-14 16:42:03.521,-26660650,55018300,38808010,-17205510,-1671875,-10361330,871875
2026-01-14 16:42:03.531,-26557070,54975140,38972010,-17101930,-17890620,-10820310,88515620
2026-01-14 16:42:03.541,-49433600,83770400,-74361870,45083240,-18847660,-11640630,87265620
2026-01-14 16:42:03.551,-26404290,5494925,3930866,-16961240,-20507810,-11269530,83515620
2026-01-14 16:42:03.561,-68794450,12465000,-3020220,25549760,-22324220,-10742190,79765620
2026-01-14 16:42:03.571,-68664970,55009660,39628020,25558390,-24023440,-11621090,76171870
2026-01-14 16:42:03.581,-26180730,12407170,-2922684,-16770480,-25078120,-15332030,71328130
2026-01-14 16:42:03.591,-26079740,55182290,39869700,-16681570,-25546880,-19619140,6625
2026-01-14 16:42:03.601,-25952860,8149855,-7197262,-16566770,-25332030,-23339840,61484380
2026-01-14 16:42:03.611,-68000340,12481400,-2934767,25774180,-24101560,-26621090,58320310
2026-01-14 16:42:03.621,-48945910,12543550,-2976199,44759550,-22382810,-29355470,56835940
2026-01-14 16:42:03.631,-48900160,5576923,4012867,44753500,-20449220,-32695310,56796880
2026-01-14 16:42:03.641,-67301170,83699620,-74087380,26283450,-1875,-35976560,57539060
2026-01-14 16:42:03.651,-48793130,12775740,-3141065,44739700,-16689450,-38574220,58359380
2026-01-14 16:42:03.661,-24698670,56321670,40284020,-15352290,-15498050,-4015625,59375
2026-01-14 16:42:03.671,-6647253,12913850,-3227383,2692220,-14248050,-40703120,6078125
2026-01-14 16:42:03.681,-66179050,56675580,40465300,27129350,-14541020,-4015625,62539060
2026-01-14 16:42:03.691,-65885580,86267540,-76525830,27301990,-14472660,-39804690,63945310
2026-01-14 16:42:03.701,-23721570,86453990,-76684660,-14413170,-15507810,-38164060,65390620
2026-01-14 16:42:03.711,-65341780,82231800,-81252100,27621360,-16777340,-359375,6640625
2026-01-14 16:42:03.721,-23294300,130951100,-32705410,-14011790,-18798830,-34648440,671875
2026-01-14 16:42:03.731,-6481523,50063710,48423690,2788897,-21308590,-33730470,6796875
2026-01-14 16:42:03.741,-22911050,13146040,-3271403,-13652720,-24355470,-32558590,68515620
2026-01-14 16:42:03.751,-22723740,13174530,-3277446,-13477500,-27441410,-3203125,67578130
2026-01-14 16:42:03.761,-6411609,8739225,-7747273,2824284,-29804690,-32792970,66796880
2026-01-14 16:42:03.771,-22394880,13229770,-3291256,-13167620,-31601560,-33710940,65429690
2026-01-14 16:42:03.781,-63727650,5805663,4148386,28475890,-33632810,-34140620,6390625
2026-01-14 16:42:03.791,-22086730,8819327,-7822541,-12871550,-35078120,-3421875,62304690
2026-01-14 16:42:03.801,-63399650,13344570,-3366350,28734840,-35429690,-33945310,6140625
2026-01-14 16:42:03.811,-21784620,134006700,-34138260,-12569440,-34921880,-32792970,62148440
2026-01-14 16:42:03.821,-63114810,58427800,41492460,29071480,-34042970,-31523440,63828120
2026-01-14 16:42:03.831,-62976700,13534460,-3538984,29278640,-33066410,-31152340,66328120
2026-01-14 16:42:03.841,-21293480,13620780,-3625303,-12059310,-32109380,-32050780,69296870
2026-01-14 16:42:03.851,-21117390,137062400,-37124830,-11872860,-30234380,-33457030,71289060
2026-01-14 16:42:03.861,-16785320,58755810,41164460,-15859660,-29726560,-36230470,71835940
2026-01-14 16:42:03.871,-62484690,58833490,41086780,30184970,-29082030,-36953120,7171875
2026-01-14 16:42:03.881,-20631430,13946200,-3955895,-11357560,-28886720,-3828125,70
2026-01-14 16:42:03.891,-15902790,58980230,40940030,-15809980,-28105470,-39375,67695310
2026-01-14 16:42:03.901,-20379380,59040660,40879610,-11091700,-27246090,-403125,6609375
2026-01-14 16:42:03.911,-20277530,59092440,40827820,-10986390,-26621090,-40078120,6375
2026-01-14 16:42:03.921,-62027220,59135600,40784670,30935920,-26425780,-39667970,61953120
2026-01-14 16:42:03.931,-20135110,5917014,4073288,-10835340,-25664060,-38457030,60546880
2026-01-14 16:42:03.941,-61940900,14248300,-4258003,31074030,-25078120,-3671875,59335940
2026-01-14 16:42:03.951,-15864150,14281970,-4293395,-14933660,-24570310,-34472660,58085940
2026-01-14 16:42:03.961,-61897740,59256440,40612040,31168980,-23769530,-32441410,56835940
2026-01-14 16:42:03.971,-20002180,14348430,-4365038,-10692060,-2296875,-30332030,56132810
2026-01-14 16:42:03.981,-19987510,14389000,-4410785,-10672200,-22617190,-28476560,5515625
2026-01-14 16:42:03.991,-19972830,14438200,-4465164,-10652350,-221875,-26386720,54765620
2026-01-14 16:42:04.001,-19966790,14486540,-4520407,-10641130,-21953120,-25214840,54453120
2026-01-14 16:42:04.011,-19952980,59360030,40214970,-10620410,-21875,-234375,5390625
2026-01-14 16:42:04.021,-61975420,14624640,-4675776,31436560,-21875,-22304690,53671880
2026-01-14 16:42:04.031,-19918450,14705780,-4767274,-10568620,-221875,-2140625,53164060
2026-01-14 16:42:04.041,-62001320,59480860,39800660,31583300,-22011720,-20625,52695310
2026-01-14 16:42:04.051,-19841630,14927620,-5011550,-10472810,-22402340,-20097660,51914060
2026-01-14 16:42:04.061,-15565760,59636240,39420860,-14627840,-22949220,-19345700,50703120
2026-01-14 16:42:04.071,-19713880,59739820,39196440,-10324340,-22675780,-18984380,49726560
2026-01-14 16:42:04.081,-19624970,15392870,-5513050,-10223350,-22324220,-18789060,490625
2026-01-14 16:42:04.091,-19528300,50394300,48265740,-10112870,-21777340,-19404300,48476560
2026-01-14 16:42:04.101,-61845940,15783880,-5933410,32446460,-20898440,-19765620,4875
2026-01-14 16:42:04.111,-19283160,16000540,-6165605,-9840109,-20039060,-20078120,48984380
2026-01-14 16:42:04.121,-61716470,60413080,37763580,32869420,-19306640,-19873050,49179690
2026-01-14 16:42:04.131,-6163877,60577090,37426940,3308523,-18261720,-19951170,49296880
2026-01-14 16:42:04.141,-61561100,6074108,3707307,33318260,-17158200,-19980470,49570310
2026-01-14 16:42:04.151,-6147479,16982820,-7220396,3355996,-16113280,-19912110,49921880
2026-01-14 16:42:04.161,-18552920,61086360,36347980,-9033907,-14863280,-20410160,50078120
2026-01-14 16:42:04.171,-18388920,12658900,-12649170,-8852645,-14072270,-203125,5015625
2026-01-14 16:42:04.181,-61207210,61440260,35579770,34310910,-13632810,-19951170,49726560
2026-01-14 16:42:04.191,-47846700,61621520,35174080,47844050,-13388670,-2015625,496875
2026-01-14 16:42:04.201,-17862380,61785530,34768380,-8274320,-12910160,-20722660,49335940
2026-01-14 16:42:04.211,-17673350,18616800,-8987300,-8066300,-1265625,-22148440,50039060
2026-01-14 16:42:04.221,-60801520,62113520,33922480,35476190,-12675780,-22636720,49414060
2026-01-14 16:42:04.231,-60706570,62260260,33482270,35795560,-12666020,-23769530,49804690
2026-01-14 16:42:04.241,-60620240,6239836,3303344,36123560,-13027340,-23867190,49453120
2026-01-14 16:42:04.251,-12508850,19723380,-10211270,-11539000,-13574220,-2453125,49960940
2026-01-14 16:42:04.261,-60430360,15726050,-14778290,36831360,-13984380,-24746090,50078120
2026-01-14 16:42:04.271,-60352670,62726370,31669620,37202520,-14628910,-25039060,50820310
2026-01-14 16:42:04.281,-60266350,20505400,-11103780,37582310,-15078130,-25117190,51484380
2026-01-14 16:42:04.291,-60188660,62881740,30720130,37988000,-15820310,-24472660,52382810
2026-01-14 16:42:04.301,-15784740,21006910,-11689880,-5932549,-165625,-23847660,5359375
2026-01-14 16:42:04.311,-60041920,21251180,-11980760,38842530,-17265620,-23320310,5484375
2026-01-14 16:42:04.321,-59981500,21494590,-12272510,39300020,-17197270,-22402340,56914060
2026-01-14 16:42:04.331,-59921080,21726790,-12558220,39774760,-17900390,-20820310,609375
2026-01-14 16:42:04.341,-14795550,21958120,-12844790,-4781083,-1796875,-19863280,6375
2026-01-14 16:42:04.351,-59817500,22178220,-13125320,40810560,-18691410,-19560550,67851560
2026-01-14 16:42:04.361,-14257800,22387980,-13398950,-4144929,-20097660,-20429690,71289060
2026-01-14 16:42:04.371,-13991080,22587370,-13665670,-3824694,-22695310,-21445310,7515625
2026-01-14 16:42:04.381,-59696660,22778990,-13922890,42502360,-25820310,-22597660,77265620
2026-01-14 16:42:04.391,-52187100,62510580,25377130,50529820,-29394530,-25273440,78125
2026-01-14 16:42:04.401,-52422750,62363840,24833330,50829350,-33242190,-28066410,78789060
2026-01-14 16:42:04.411,-12843930,45174730,41383700,-2468657,-35683590,-3203125,76992190
2026-01-14 16:42:04.421,-78666500,23434140,-14838710,-68244610,-3765625,-34335940,75273440
2026-01-14 16:42:04.431,-122759700,61984060,23400470,-18109250,-38183590,-3546875,728125
2026-01-14 16:42:04.441,-72752940,23680140,-15196920,-62246460,-37460940,-35722660,7046875
2026-01-14 16:42:04.451,-117468500,44105270,40191680,-12006660,-36660160,-35742190,69257810
2026-01-14 16:42:04.461,-115163800,6156974,2220935,-9304940,-35273440,-35,68984380
2026-01-14 16:42:04.471,-11293680,23955490,-15629370,-669817,1,-33945310,-34179690,69101560
2026-01-14 16:42:04.481,-5905792,4157912,4118138,4754327,-31972660,-32382810,69570310
2026-01-14 16:42:04.491,-59032020,61112250,21147600,47931690,-29101560,-30488280,69609380
2026-01-14 16:42:04.501,-107257200,20477440,-19659840,51788,88,-26210940,-28183590,69804690
2026-01-14 16:42:04.511,-59006130,60792880,20482970,48648120,-23417970,-26035160,69648440
2026-01-14 16:42:04.521,-10405480,60646140,20146330,392744,4,-20996090,-240625,68554690
2026-01-14 16:42:04.531,-53665710,24360310,-16329400,-42836410,-18671880,-2328125,67382820
2026-01-14 16:42:04.541,-58928440,24448350,-16465780,49675290,-16748050,-22871090,653125
2026-01-14 16:42:04.551,-54449040,41729830,37612520,54448160,-14492190,-23046880,63671880
2026-01-14 16:42:04.561,-5878170,6015414,1868758,5040898,-11972660,-23457030,62304690
2026-01-14 16:42:04.571,-44748330,60041930,18264620,-33799910,-10,-23808590,62226560
2026-01-14 16:42:04.581,-42000860,40990960,36780430,-31023100,-8125,-23515620,63476560
2026-01-14 16:42:04.591,-8844014,25103500,-17381600,2163099,-6455078,-2375,6390625
2026-01-14 16:42:04.601,-5817749,5975708,1689219,5218711,-5961914,-23710940,66054690
2026-01-14 16:42:04.611,-81647010,25442720,-17836490,28993790,-4465332,-24414060,67460940
2026-01-14 16:42:04.621,-57694110,39915450,35542650,53222910,-36914060,-25371090,68828130
2026-01-14 16:42:04.631,-23685320,25831150,-18345760,-12567720,-41357420,-2640625,70859380
2026-01-14 16:42:04.641,-57089890,59437700,14794690,54345020,-40063480,-27792970,71796870
2026-01-14 16:42:04.651,-64901560,39053140,34540510,46775050,-45654300,-29140620,73476560
2026-01-14 16:42:04.661,-99117520,59282340,13672570,12800770,-41674800,-29609380,74101560
2026-01-14 16:42:04.671,-56070750,38454970,33843940,56071960,-4013672,-30566410,7484375
2026-01-14 16:42:04.681,252043,5,26887660,-19723380,11487030,-48364260,-31289060,76132820
2026-01-14 16:42:04.691,-55147770,27105180,-20006490,57392000,-62890620,-32617190,77265620
2026-01-14 16:42:04.701,-3961077,27338240,-20308600,7310167,-7993164,-33554690,7828125
2026-01-14 16:42:04.711,-3399153,58893910,10729170,7887626,-103125,-35664060,7921875
2026-01-14 16:42:04.721,-28372310,58816220,10116320,84650830,-12724610,-37148440,8015625
2026-01-14 16:42:04.731,28178960,58738540,9520734,39493360,-14521480,-38183590,8140625
2026-01-14 16:42:04.741,33956140,5864358,892513,5,45282620,-16943360,-38886720,8265625
2026-01-14 16:42:04.751,-11454230,28453450,-21765630,101914200,-19228520,-39375,84375
2026-01-14 16:42:04.761,45167830,35628960,30558720,56513300,-22988280,-39902340,85703130
2026-01-14 16:42:04.771,-405692,35315630,30198780,113135400,-27148440,-40546880,86328130
2026-01-14 16:42:04.781,56121420,29042130,-22558020,67484160,-31054690,-42109380,85859380
2026-01-14 16:42:04.791,1013359,58091170,6076700,12383000,-35,-43320310,85859380
2026-01-14 16:42:04.801,-49675290,57953060,5576065,64090180,-38886720,-44023440,8578125
2026-01-14 16:42:04.811,1991328,57814960,5092692,13373060,-42265620,-44257810,85390620
2026-01-14 16:42:04.821,75616910,57668220,4652470,87003820,-45273440,-44023440,84296870
2026-01-14 16:42:04.831,7984385,57538740,4246784,9123595,-4796875,-4390625,834375
2026-01-14 16:42:04.841,-48043900,57417900,3884257,65911470,-50703120,-44023440,81953130
2026-01-14 16:42:04.851,3571787,27174840,-26565960,14969050,-51757810,-434375,80078130
2026-01-14 16:42:04.861,3873896,5722800,331456,15271160,-50898440,-425,77460940
2026-01-14 16:42:04.871,-47146210,30046860,-24021950,66809160,-49296880,-41484380,75039060
2026-01-14 16:42:04.881,-46913150,57115790,2908875,67024950,-46953120,-4078125,728125
2026-01-14 16:42:04.891,9684824,30155620,-24172140,10824030,-44023440,-39882810,70546870
2026-01-14 16:42:04.901,-46524720,27522610,-26925990,67361580,-40703120,-38710940,69179690
2026-01-14 16:42:04.911,4854455,32489620,27034400,16241360,-37675780,-38613280,67734380
2026-01-14 16:42:04.921,4958898,57020840,2382340,16344080,-35371100,-38164060,67382820
2026-01-14 16:42:04.931,-46179460,57003580,2261499,67655070,-32792970,-37714840,671875
2026-01-14 16:42:04.941,-46110410,5698629,215794,67724120,-30566410,-36914060,6765625
2026-01-14 16:42:04.951,-46049980,30408520,-24506190,67784540,-28515620,-36289060,68320310
2026-01-14 16:42:04.961,-45989560,32184920,26683100,67844970,-26992190,-3546875,6890625
2026-01-14 16:42:04.971,-45920510,5692586,180404,67914020,-25976560,-34726560,6984375
2026-01-14 16:42:04.981,-45834190,3204075,2651653,68000340,-24941410,-34375,70742190
2026-01-14 16:42:04.991,-45747880,31943240,26406890,68086650,-24902340,-3421875,7125
2026-01-14 16:42:05.001,-45644300,30657980,-24843680,68190230,-24960940,-3421875,71992190
2026-01-14 16:42:05.011,-45532090,31733490,26167790,68302440,-25527340,-34160160,72304690
2026-01-14 16:42:05.021,-55765800,31612640,26029680,58068730,-25683590,-33984380,7265625
2026-01-14 16:42:05.031,-45264500,31483170,25882940,68570020,-25683590,-33535160,72382820
2026-01-14 16:42:05.041,6100004,56632420,440212,3,17481730,-25644530,-328125,71914060
2026-01-14 16:42:05.051,6255375,5658062,18126,5,17637100,-26015620,-32734380,71484380
2026-01-14 16:42:05.061,6410745,56511570,-77685,75,17792470,-26875,-32617190,71015620
2026-01-14 16:42:05.071,6566114,56451150,-345265,8,17947840,-28105470,-32480470,70507810
2026-01-14 16:42:05.081,6712853,56390730,-612845,8,18094580,-29101560,-32382810,6984375
2026-01-14 16:42:05.091,6850960,56321680,-889063,8,18232690,-30175780,-32285160,6859375
2026-01-14 16:42:05.101,6980436,30422340,24682270,18362160,-30996090,-32578120,67773440
2026-01-14 16:42:05.111,7084014,31542730,-26065070,18465740,-31582030,-3234375,66953120
2026-01-14 16:42:05.121,-55629420,56123150,-1657280,58205110,-3234375,-3234375,6625
2026-01-14 16:42:05.131,7263555,29984710,24187680,18648730,-33222660,-32402340,65546880
2026-01-14 16:42:05.141,7323115,29846600,24032310,18710020,-33066410,-32558590,64765620
2026-01-14 16:42:05.151,-43866170,55950510,-2347812,70020140,-33105470,-32421880,64257810
2026-01-14 16:42:05.161,741546,9,55898720,-2554976,1880758,-32734380,-3234375,6359375
2026-01-14 16:42:05.171,-43823010,29481480,23620580,70115100,-321875,-32617190,63359380
2026-01-14 16:42:05.181,-4381439,32016610,-26730570,7015827,-31328120,-32519530,63554690
2026-01-14 16:42:05.191,-43814380,32064940,-26803070,70192780,-3015625,-321875,63789060
2026-01-14 16:42:05.201,7495747,55700190,-3288666,18899920,-29394530,-31738280,63984380
2026-01-14 16:42:05.211,7502652,55648410,-3444038,18910280,-28828120,-32011720,63945310
2026-01-14 16:42:05.221,-43840280,28958400,23038800,70270460,-28125,-32070310,6375
2026-01-14 16:42:05.231,7507829,29900210,-29382130,18922360,-27109380,-31796880,6421875
2026-01-14 16:42:05.241,7513874,28777140,22840270,18933580,-25800780,-31621090,64257810
2026-01-14 16:42:05.251,-43892070,28694270,22750500,70339520,-24941410,-31386720,6375
2026-01-14 16:42:05.261,7519053,55389460,-4117308,18945670,-23789060,-31464840,63945310
2026-01-14 16:42:05.271,7525095,55337660,-4238152,18956890,-234375,-31171880,64101560
2026-01-14 16:42:05.281,-57174890,55277240,-4350362,57177540,-2296875,-30917970,64023440
2026-01-14 16:42:05.291,7564799,55208190,-4471210,19003500,-22675780,-3109375,6390625
2026-01-14 16:42:05.301,7596737,28267870,22296480,19040610,-22871090,-3140625,6359375
2026-01-14 16:42:05.311,-43883430,55078710,-4686998,70589830,-22792970,-31972660,63398440
2026-01-14 16:42:05.321,7670969,28098690,22120390,19121750,-23125,-32304690,634375
2026-01-14 16:42:05.331,7711538,54923340,-4876896,19167500,-23261720,-32304690,63398440
2026-01-14 16:42:05.341,-4381439,32394670,-27405570,7079701,-23886720,-31601560,64570310
2026-01-14 16:42:05.351,12969780,32386040,-27414200,14116410,-24804690,-3078125,66171880
2026-01-14 16:42:05.361,7850509,54681660,-5118582,19322010,-26425780,-29726560,68085940
2026-01-14 16:42:05.371,-43753960,54586710,-5179004,71012780,-28046880,-27851560,68945310
2026-01-14 16:42:05.381,-43728060,54509020,-5239424,71090470,-29550780,-26992190,69648440
2026-01-14 16:42:05.391,-43719430,27560070,21588680,71150890,-30957030,-25820310,69882820
2026-01-14 16:42:05.401,13744510,54370920,-5308480,13756000,-32167970,-24667970,69375
2026-01-14 16:42:05.411,8028320,54310500,-5334374,19523990,-32285160,-23867190,68242190
2026-01-14 16:42:05.421,-43710800,54258700,-5334372,71280370,-31855470,-23339840,66835940
2026-01-14 16:42:05.431,8042132,5422417,-531711,3,19544700,-31230470,-22460940,65742190
2026-01-14 16:42:05.441,-43719430,27419380,21470430,71323530,-30957030,-21640620,64101560
2026-01-14 16:42:05.451,8048174,54172390,-5282584,19555930,-30625,-21191410,625
2026-01-14 16:42:05.461,8038679,54146500,-5256690,19548160,-30507810,-21074220,60507810
2026-01-14 16:42:05.471,-43762580,32121050,-27230340,71349420,-30175780,-21484380,59375
2026-01-14 16:42:05.481,8036953,54120600,-5179004,19549880,-29375,-21464840,5859375
2026-01-14 16:42:05.491,13217680,32080480,-27184590,14369150,-28730470,-21152340,5828125
2026-01-14 16:42:05.501,13217680,54103340,-5109950,14369150,-28417970,-21503910,58007810
2026-01-14 16:42:05.511,805334,9,54111970,-5066792,1956803,-28496090,-2171875,57929690
2026-01-14 16:42:05.521,8071479,5411196,-503227,19584410,-28222660,-21835940,58164060
2026-01-14 16:42:05.531,-43702160,32011430,-27098280,71409840,-27851560,-22324220,58476560
2026-01-14 16:42:05.541,8133627,27545400,21637880,19643100,-27871090,-23085940,59296880
2026-01-14 16:42:05.551,8169015,31982940,-27057710,19676770,-28046880,-23613280,59726560
2026-01-14 16:42:05.561,-56125740,54163750,-4842366,58917220,-28261720,-24492190,59921880
2026-01-14 16:42:05.571,-43503640,5419825,-477329,8,71487520,-27792970,-25449220,6015625
2026-01-14 16:42:05.581,8278639,54232810,-4704262,19774310,-27363280,-26191410,60390620
2026-01-14 16:42:05.591,14055250,54267340,-4617944,14066750,-27011720,-265625,60
2026-01-14 16:42:05.601,8352871,54319120,-4514364,19838180,-26074220,-27226560,5953125
2026-01-14 16:42:05.611,8381357,54370920,-4393522,19861490,-25820310,-27753910,59335940
2026-01-14 16:42:05.621,-43218790,54422700,-4272678,71530690,-26191410,-28378910,59570310
2026-01-14 16:42:05.631,8439186,5448312,-412594,3,19907230,-2640625,-28867190,59609380
2026-01-14 16:42:05.641,8468534,31791320,-26731430,19929670,-25839840,-28867190,59296880
2026-01-14 16:42:05.651,-4305479,54638500,-3780674,7148756,-24511720,-28222660,59453120
2026-01-14 16:42:05.661,-42994370,54724820,-3590774,71478900,-2328125,-26933590,60585940
2026-01-14 16:42:05.671,8548812,5481113,-340088,3,19987510,-21777340,-24882810,62539060
2026-01-14 16:42:05.681,-42839000,31639400,-26469030,71444370,-21308590,-22050780,65703120
2026-01-14 16:42:05.691,-42744050,55009660,-3012454,71435740,-2140625,-19335940,70039060
2026-01-14 16:42:05.701,-42631840,55113240,-2822556,71427100,-23105470,-15722660,74882820
2026-01-14 16:42:05.711,13871190,55242720,-2641292,15010400,-24804690,-12070310,78203130
2026-01-14 16:42:05.721,-42390160,55389460,-2460022,71375320,-25546880,-99902340,78671870
2026-01-14 16:42:05.731,8848330,55562090,-2270132,20205890,-24667970,-8671875,76289060
2026-01-14 16:42:05.741,-42122570,55760620,-2071600,71245840,-21445310,-89160160,71835940
2026-01-14 16:42:05.751,8930332,55985040,-1864440,20244730,-16650390,-10341800,6703125
2026-01-14 16:42:05.761,-41837730,56226720,-1657280,71064580,-12109380,-11240230,62734380
2026-01-14 16:42:05.771,8999384,56485680,-1450120,20262000,-7680664,-12734380,59492190
2026-01-14 16:42:05.781,9047721,56744630,-1260224,20282710,-36376950,-13779300,57929690
2026-01-14 16:42:05.791,-41328460,57012210,-1096220,70745210,-44769290,-14726560,57226560
2026-01-14 16:42:05.801,-4112129,31075750,25254550,7065890,12438970,-1640625,57578120
2026-01-14 16:42:05.811,14289130,57530110,-785482,15403830,19909670,-18779300,58945310
2026-01-14 16:42:05.821,-40629290,28854390,28270030,70529420,21533200,-21152340,60546880
2026-01-14 16:42:05.831,-4035308,5803075,-52653,01,7047763,23632810,-23652340,62226560
2026-01-14 16:42:05.841,9675244,3186727,2599946,20725510,22167970,-25996090,63515620
2026-01-14 16:42:05.851,9846149,32310080,-26488880,20865350,14624020,-28359380,64648440
2026-01-14 16:42:05.861,-39429490,32215130,26324880,70434460,30883790,-30605470,65625
2026-01-14 16:42:05.871,-39110120,58937070,-69049,61,70425830,-53466800,-32285160,665625
2026-01-14 16:42:05.881,-38799380,59152860,60422,39,70425830,-16638180,-3328125,67382820
2026-01-14 16:42:05.891,10504750,32557810,-26603680,21397920,-27929690,-33535160,67578130
2026-01-14 16:42:05.901,10648900,32600970,-26612320,21512730,-2890625,-33339840,671875
2026-01-14 16:42:05.911,10784410,5974844,50063,49,21618890,-23962400,-33203120,66210940
2026-01-14 16:42:05.921,-37720420,32662250,-26602820,70348140,-24414060,-32597660,65351560
2026-01-14 16:42:05.931,-3750463,60102350,820008,3,7030502,-30541990,-32148440,63710940
2026-01-14 16:42:05.941,11098610,60274980,975380,3,21857130,-32714840,-30292970,63242190
2026-01-14 16:42:05.951,11178880,60438980,1156644,21914960,-33764650,-28886720,61875
2026-01-14 16:42:05.961,-36960820,32728710,-26536350,70175510,-3557129,-26914060,60976560
2026-01-14 16:42:05.971,-3681410,60741090,1510544,7013239,-375,-2578125,59570310
2026-01-14 16:42:05.981,11364460,32717500,-26461260,22040120,-3857422,-2546875,58203120
2026-01-14 16:42:05.991,11407620,29877760,-29249210,22066010,-44189450,-25878910,57421880
2026-01-14 16:42:06.001,11449920,34519790,28612270,22092770,-4494629,-26777340,56328120
2026-01-14 16:42:06.011,16257070,61198570,2157916,17320150,-5053711,-25859380,57890620
2026-01-14 16:42:06.021,11514650,6129351,227012,5,22131610,-51708980,-26679690,57421880
2026-01-14 16:42:06.031,11563850,61362570,2356448,22168730,-6098633,-26777340,57265620
2026-01-14 16:42:06.041,11620820,34871100,28968760,22215340,-79833980,-26621090,58242190
2026-01-14 16:42:06.051,16458010,6149204,241686,3,17516260,-8701172,-2828125,57617190
2026-01-14 16:42:06.061,-35821450,34920300,29005880,69916560,-11513670,-29160160,58320310
2026-01-14 16:42:06.071,11834030,61578360,2347816,22399200,-15810550,-28789060,58984380
2026-01-14 16:42:06.081,-35605660,32862510,-26471620,69959730,-17890620,-28222660,57070310
2026-01-14 16:42:06.091,11954010,6164741,220970,5,22503640,-20976560,-27890620,56992190
2026-01-14 16:42:06.101,-50995060,61664680,2140658,54449460,-22636720,-29707030,56132810
2026-01-14 16:42:06.111,12017880,6167331,206296,5,22560610,-21328120,-3078125,571875
2026-01-14 16:42:06.121,-35441650,32140550,31543940,70002880,-18007810,-29960940,58320310
2026-01-14 16:42:06.131,11962640,32114660,31518040,22512270,-14384770,-28925780,575
2026-01-14 16:42:06.141,11879770,6161288,200254,2,22439760,-11884770,-28515620,56992190
2026-01-14 16:42:06.151,-35812820,61543840,2037076,69925190,-9057617,-27714840,571875
2026-01-14 16:42:06.161,-36028610,32853880,-26497510,69882040,-62841800,-25683590,57070310
2026-01-14 16:42:06.171,11491350,61345310,2183814,22103130,-28271480,-23164060,56328120
2026-01-14 16:42:06.181,-3651197,34687250,28790090,6983026,-10876470,-21523440,56171880
2026-01-14 16:42:06.191,11208230,34625960,28747790,21868350,-19958500,-22089840,55742190
2026-01-14 16:42:06.201,-37012620,32473220,-26153110,69847500,-11444090,-24414060,55976560
2026-01-14 16:42:06.211,10938920,60723830,2235604,21654290,-27807620,-26953120,56835940
2026-01-14 16:42:06.221,10811170,60508040,2140656,21557610,-40625,-27734380,58007810
2026-01-14 16:42:06.231,-37806740,60292240,2011184,69968350,-4873047,-2703125,59023440
2026-01-14 16:42:06.241,10580710,32184920,-25992560,21391020,-5073242,-253125,59609380
2026-01-14 16:42:06.251,-38307370,33659210,27850100,70123720,-45458980,-23378910,59882810
2026-01-14 16:42:06.261,-52794770,59541290,1536440,55964320,-5,-22128910,59609380
2026-01-14 16:42:06.271,10350240,33210370,27418520,21258950,-57470700,-22382810,59179690
2026-01-14 16:42:06.281,10291550,58997500,1148014,21231330,-70214850,-2328125,58945310
2026-01-14 16:42:06.291,10231990,3188194,-2591574,21204570,-8339844,-24160160,5859375
2026-01-14 16:42:06.301,-39360440,5844504,69918,16,70693420,-9921875,-25136720,58359380
2026-01-14 16:42:06.311,-39593490,31786140,-25925230,70805620,-11083980,-2484375,58515620
2026-01-14 16:42:06.321,-39835180,57875380,181270,4,70909210,-12246090,-23457030,59101560
2026-01-14 16:42:06.331,-40085500,31705000,-25954580,71004160,-13115230,-22109380,59296880
2026-01-14 16:42:06.341,-54179290,31667880,-25974430,57255620,-13164060,-20859380,59140620
2026-01-14 16:42:06.351,9724443,57003580,-638743,8,20900740,-13613280,-19257810,59335940
2026-01-14 16:42:06.361,-40801930,56710100,-932215,6,71289000,-14121090,-18115230,5984375
2026-01-14 16:42:06.371,9562168,56416620,-1242960,20804060,-14804690,-17705080,6015625
2026-01-14 16:42:06.381,-41233510,30168560,24400880,71496160,-15556640,-16875,61132810
2026-01-14 16:42:06.391,9427516,55812410,-1881702,20731560,-17490230,-15605470,62382810
2026-01-14 16:42:06.401,9368820,55518930,-2209708,20703940,-20878910,-13525390,63828120
2026-01-14 16:42:06.411,-4181183,55234080,-2529084,7181556,-20839840,-15234380,63125
2026-01-14 16:42:06.421,14397720,5494923,-284846,15536930,-22675780,-13642580,64023440
2026-01-14 16:42:06.431,-42165730,31491800,-26340420,72014060,-22910160,-12294920,63085940
2026-01-14 16:42:06.441,9176333,5440544,-346130,5,20620210,-23476560,-11513670,62304690
2026-01-14 16:42:06.451,9155616,54137860,-3746146,20623660,-24785160,-11132810,61328120
2026-01-14 16:42:06.461,14883890,53887540,-4013730,14895390,-25039060,-13095700,58984380
2026-01-14 16:42:06.471,9134902,27591150,21799290,20644380,-253125,-13369140,57851560
2026-01-14 16:42:06.481,-42744050,53430060,-4505730,72540590,-24882810,-15283200,56523440
2026-01-14 16:42:06.491,9152162,31401170,-26551900,20696170,-24550780,-17802730,55625
2026-01-14 16:42:06.501,9170291,53033010,-4954580,20729830,-24179690,-21835940,55
2026-01-14 16:42:06.511,9180648,31395130,-26626990,20754000,-25566410,-2265625,55078120
2026-01-14 16:42:06.521,-42951210,5268771,-535161,9,72903120,-25039060,-23398440,55664060
2026-01-14 16:42:06.531,9196184,31389080,-26684820,20790250,-22929690,-24492190,55820310
2026-01-14 16:42:06.541,9209134,52446060,-5662378,20811830,-21132810,-24570310,565625
2026-01-14 16:42:06.551,9232438,52359740,-5800484,20840320,-20117190,-24492190,5828125
2026-01-14 16:42:06.561,925574,3,52264790,-5929962,2086882,-184375,-24921880,58710940
2026-01-14 16:42:06.571,-42985740,25985650,20159280,73179340,-17939450,-26035160,60351560
2026-01-14 16:42:06.581,-42951210,25902790,20069510,73213860,-17304690,-27324220,61992190
2026-01-14 16:42:06.591,-42925320,2583025,1998666,73239760,-17373050,-27929690,63632810
2026-01-14 16:42:06.601,-42890790,25767270,19911550,73257020,-17763670,-28066410,64804690
2026-01-14 16:42:06.611,14619730,23072380,22485600,15781030,-17421880,-28398440,65859380
2026-01-14 16:42:06.621,9422336,52143940,-6689546,21030210,-165625,-27792970,66875
2026-01-14 16:42:06.631,9443050,52178470,-6810390,21044020,-15830080,-26816410,67734380
2026-01-14 16:42:06.641,9481030,52238890,-6922604,21075100,-15869140,-26542970,67617180
2026-01-14 16:42:06.651,-4259732,52307940,-7043446,7323978,-15390630,-27050780,67539060
2026-01-14 16:42:06.661,9577706,52385630,-7172920,21151060,-16201170,-27460940,67226560
2026-01-14 16:42:06.671,9645032,52480580,-7285134,21204570,-16865230,-27949220,66289060
2026-01-14 16:42:06.681,9721854,3226260,-2774480,21265860,-17617190,-28320310,66054690
2026-01-14 16:42:06.691,9799539,3238345,-2786564,21326280,-17705080,-28964840,6546875
2026-01-14 16:42:06.701,9894488,52843110,-7647664,21403970,-17412110,-28417970,64960940
2026-01-14 16:42:06.711,9999793,32637220,-28112500,21488550,-17636720,-27988280,65273440
2026-01-14 16:42:06.721,15291700,32777920,-28248020,16438340,-17460940,-27304690,65820310
2026-01-14 16:42:06.731,-41216240,32918610,-28383530,73205230,-17128910,-27070310,67109380
2026-01-14 16:42:06.741,15570420,53490490,-8105142,16712050,-18134770,-27109380,690625
2026-01-14 16:42:06.751,-40637920,53654490,-8251880,73248390,-19863280,-27324220,71992190
2026-01-14 16:42:06.761,-4031854,25829420,19607710,7329156,-22910160,-24648440,75429690
2026-01-14 16:42:06.771,-39981920,53991120,-8553986,73334700,-20449220,-23066410,78632820
2026-01-14 16:42:06.781,11234120,54163760,-8726624,22532990,-26171880,-24316410,790625
2026-01-14 16:42:06.791,16509980,31844920,-31390730,17636930,-3265625,-26777340,77929690
2026-01-14 16:42:06.801,-38928860,54509020,-9071888,73455550,-353125,-25585940,75507810
2026-01-14 16:42:06.811,-38609480,5469026,-921861,3,73464180,-37578120,-21621090,7375
2026-01-14 16:42:06.821,-38272840,5489742,-930492,8,73472820,-35976560,-23066410,6859375
2026-01-14 16:42:06.831,-37962100,5510458,-939124,6,73472810,-37773440,-24609380,6296875
2026-01-14 16:42:06.841,12337250,55320400,-9468946,23449670,-41796880,-25664060,59804690
2026-01-14 16:42:06.851,-37401050,34827080,-30221220,73412390,-42617190,-2890625,55117190
2026-01-14 16:42:06.861,-53451640,34959140,-30330840,57068320,-4328125,-30429690,52929690
2026-01-14 16:42:06.871,12622100,35083440,-30430970,23648200,-41796880,-3171875,52539060
2026-01-14 16:42:06.881,-36839980,26685680,20115260,73162070,-409375,-32089840,53476560
2026-01-14 16:42:06.891,12672160,35284560,-30575120,23649930,-40039060,-31933590,54453120
2026-01-14 16:42:06.901,-36667350,56701460,-9279046,72920380,-38261720,-32050780,56640620
2026-01-14 16:42:06.911,-52899210,56917260,-9132310,56515880,-34980470,-3078125,58476560
2026-01-14 16:42:06.921,17485270,57141690,-8959678,18577870,-33320310,-3015625,5890625
2026-01-14 16:42:06.931,-52763700,57340210,-8761150,56357930,-32832030,-29160160,60859380
2026-01-14 16:42:06.941,-3658103,27808660,21201980,7240250,-29414060,-28945310,61679690
2026-01-14 16:42:06.951,12416660,57728640,-8286410,23301210,-28398440,-31015620,6203125
2026-01-14 16:42:06.961,12362280,57918530,-8044720,23234740,-2765625,-33398440,61992190
2026-01-14 16:42:06.971,-3658105,58082540,-7811666,7205725,-28652340,-36191410,63476560
2026-01-14 16:42:06.981,12232810,35436480,-30371410,23088000,-29121090,-37871100,65703120
2026-01-14 16:42:06.991,12149080,28800450,22230010,22999100,-26777340,-3796875,6734375
2026-01-14 16:42:07.001,12056720,35362240,-30221220,22901560,-24472660,-3828125,69257810
2026-01-14 16:42:07.011,-36831350,58609070,-6836284,71599740,-23378910,-38496100,70664060
2026-01-14 16:42:07.021,-52488340,58704020,-6585964,55942740,-22773440,-39863280,71601560
2026-01-14 16:42:07.031,11728720,35180980,-29936370,22573560,-23007810,-40117190,72617180
2026-01-14 16:42:07.041,11598380,58868020,-6076698,22444950,-23046880,-403125,73515620
2026-01-14 16:42:07.051,16332340,58928440,-5809118,17417520,-22988280,-41289060,74921870
2026-01-14 16:42:07.061,-37582310,34937560,-29592830,71004150,-21777340,-39941410,76914060
2026-01-14 16:42:07.071,11096020,30102970,23672370,21963300,-21523440,-37617190,80
2026-01-14 16:42:07.081,-38057050,59092440,-4971842,70702050,-21152340,-34472660,825
2026-01-14 16:42:07.091,-52829300,59126970,-4678368,56050640,-20585940,-32246090,840625
2026-01-14 16:42:07.101,-3861813,34529290,-29051630,7036543,-21074220,-30371090,84375
2026-01-14 16:42:07.111,-3893749,59221920,-4134572,7016691,-225,-28671880,83203130
2026-01-14 16:42:07.121,-39282750,30856510,24541580,69942460,-23125,-27382810,80234380
2026-01-14 16:42:07.131,-39636650,34265160,-28694280,69709400,-22128910,-26171880,7640625
2026-01-14 16:42:07.141,9253156,59394550,-3374986,20198120,-19775390,-24511720,7140625
2026-01-14 16:42:07.151,8937236,31296730,25033580,19892560,-17041020,-2328125,66601560
2026-01-14 16:42:07.161,-40715610,31428790,25177730,68923920,-14404300,-21679690,62929690
2026-01-14 16:42:07.171,-53473220,59644860,-2796662,56235360,-10498050,-19804690,5984375
2026-01-14 16:42:07.181,-41328460,34055400,-28351600,68431910,-63378900,-18564450,57851560
2026-01-14 16:42:07.191,7838423,34070080,-28354190,18816190,-3623047,-18984380,56796880
2026-01-14 16:42:07.201,7647665,31730900,25479840,18627160,-2553711,-20625,56835940
2026-01-14 16:42:07.211,7500925,59929720,-2736240,18480420,-16918940,-22714840,57695310
2026-01-14 16:42:07.221,-4201900,34274650,-28563940,6777593,-39764400,-23984380,5984375
2026-01-14 16:42:07.231,7320524,60016030,-3046980,18298290,8325195,-24863280,61679690
2026-01-14 16:42:07.241,12226160,60041930,-3262772,13323600,2010498,-25292970,63671880
2026-01-14 16:42:07.251,-42079410,34616460,-28964440,67629170,27197270,-25351560,65859380
2026-01-14 16:42:07.261,7334333,60050560,-3841094,18301740,35913090,-25683590,67617180
2026-01-14 16:42:07.271,-41915410,31133580,24713350,67724120,39233400,-2609375,6859375
2026-01-14 16:42:07.281,7536316,59981500,-4531630,18496820,32836910,-27167970,69492190
2026-01-14 16:42:07.291,7685645,30759840,24275720,18640970,12573240,-27089840,69648440
2026-01-14 16:42:07.301,-41432040,59869290,-5282584,68086650,-703125,-27128910,69179690
2026-01-14 16:42:07.311,8034363,59782980,-5679642,18982780,-26953120,-2734375,68398440
2026-01-14 16:42:07.321,8226848,35559050,-30197050,19170090,-40429690,-2578125,6796875
2026-01-14 16:42:07.331,8435736,29863000,23256320,19375520,-5083008,-26152340,66953120
2026-01-14 16:42:07.341,-4055161,59480870,-6896708,6881174,-7109375,-2609375,66289060
2026-01-14 16:42:07.351,8906162,59351390,-7336924,19837320,-97265620,-26308590,65859380
2026-01-14 16:42:07.361,14067130,36078670,-30937650,15159730,-11982420,-26289060,65546880
2026-01-14 16:42:07.371,-39740230,28761600,22027170,69484980,-14443360,-25410160,65390620
2026-01-14 16:42:07.381,-3942950,58911170,-8761148,6972670,-14257810,-26074220,64960940
2026-01-14 16:42:07.391,-39144640,58729910,-9287680,69976990,-20351560,-28554690,65
2026-01-14 16:42:07.401,10203500,27800900,20968060,21112210,-24375,-28789060,64921880
2026-01-14 16:42:07.411,-38626740,58376010,-10263060,70425830,-25449220,-27441410,6421875
2026-01-14 16:42:07.421,10672200,58186120,-10711910,21575740,-25722660,-25605470,6328125
2026-01-14 16:42:07.431,15786040,57987590,-11134860,16876220,-26445310,-2578125,62851560
2026-01-14 16:42:07.441,11069260,57797700,-11531920,21972790,-28613280,-27363280,62265620
2026-01-14 16:42:07.451,-37849890,57599160,-11920340,71219950,-30585940,-28574220,61953120
2026-01-14 16:42:07.461,-52880230,26054710,19088950,56241400,-321875,-28652340,62460940
2026-01-14 16:42:07.471,11441290,25801800,18823960,22360350,-31132810,-278125,63320310
2026-01-14 16:42:07.481,-52949280,57012210,-12852560,56344980,-29335940,-27304690,63867190
2026-01-14 16:42:07.491,-37685890,56805050,-13111510,71729210,-29003910,-27753910,6421875
2026-01-14 16:42:07.501,-3773770,37130010,-32803810,7181555,-28007810,-27207030,63984380
2026-01-14 16:42:07.511,-3782400,5640799,-1349131,7190185,-24628910,-24765620,63476560
2026-01-14 16:42:07.521,11517240,56209460,-13603520,22508820,-20976560,-22910160,62226560
2026-01-14 16:42:07.531,-38065680,56028200,-13663940,72039950,-19394530,-20839840,60585940
2026-01-14 16:42:07.541,11446460,36867600,-32651900,22476020,-18476560,-20078120,59726560
2026-01-14 16:42:07.551,11410210,55657040,-13689840,22460480,-1671875,-17890620,59609380
2026-01-14 16:42:07.561,11401580,55475770,-13698470,22469110,-14814450,-17324220,60507810
2026-01-14 16:42:07.571,11401580,5529450,-1372437,22486370,-15273440,-17460940,61914060
2026-01-14 16:42:07.581,-3852317,55113240,-13784790,7248020,-17226560,-18388670,63125
2026-01-14 16:42:07.591,11464590,23957210,17077770,22578730,-21074220,-20332030,63828120
2026-01-14 16:42:07.601,-38549060,23798390,16925850,72713230,-2234375,-21679690,64453120
2026-01-14 16:42:07.611,11572490,54517660,-14121420,22712530,-23691410,-21972660,64570310
2026-01-14 16:42:07.621,11644130,36288420,-32281600,22796250,-22460940,-21523440,64648440
2026-01-14 16:42:07.631,-38505900,54120600,-14363100,73118910,-20332030,-19453120,63945310
2026-01-14 16:42:07.641,16868800,23151010,16313000,17985910,-18974610,-18779300,63476560
2026-01-14 16:42:07.651,-38333260,53723540,-14570260,73464180,-18193360,-18886720,63828120
2026-01-14 16:42:07.661,12118870,53525010,-14665210,23305520,-18603520,-20996090,6328125
2026-01-14 16:42:07.671,-54174110,53335110,-14768790,57744180,-20839840,-23457030,62265620
2026-01-14 16:42:07.681,12389040,53153850,-14863740,23587780,-22988280,-24316410,6203125
2026-01-14 16:42:07.691,12524560,35875830,-32072710,23728470,-23046880,-24980470,625
2026-01-14 16:42:07.701,-54211230,5282582,-1503636,57862430,-22285160,-24609380,63515620
2026-01-14 16:42:07.711,12788690,52670480,-15122690,23999510,-22285160,-246875,6390625
2026-01-14 16:42:07.721,-54219000,22031480,15257350,57923720,-23496090,-25859380,6375
2026-01-14 16:42:07.731,13035560,5236836,-1532123,24253280,-26054690,-27480470,63359380
2026-01-14 16:42:07.741,-37357890,52238890,-15416170,74853880,-2828125,-27949220,63710940
2026-01-14 16:42:07.751,-3727158,52109420,-15493860,7495749,-29296880,-27382810,64023440
2026-01-14 16:42:07.761,-54238850,21591270,14834400,58024700,-30898440,-26875,64453120
2026-01-14 16:42:07.771,13384270,51902260,-15631960,24612360,-32753910,-2640625,63554690
2026-01-14 16:42:07.781,-37107570,51824570,-15675120,75207780,-32929690,-27070310,63125
2026-01-14 16:42:07.791,13468000,21412600,14667810,24701260,-32910160,-2640625,63164060
2026-01-14 16:42:07.801,-37073040,21384110,14644500,75294100,-31933590,-25957030,63476560
2026-01-14 16:42:07.811,-54279420,21381520,14647090,58104980,-31425780,-2703125,63046880
2026-01-14 16:42:07.821,13516340,51677840,-15614700,24756510,-30957030,-27285160,63125
2026-01-14 16:42:07.831,-3708167,21435900,14713550,7533726,-27890620,-27128910,63671880
2026-01-14 16:42:07.841,-37098940,51712360,-15442060,75337250,-24667970,-26699220,63945310
2026-01-14 16:42:07.851,-54307900,51738260,-15347120,58128280,-22636720,-26992190,64023440
2026-01-14 16:42:07.861,-37124830,51781410,-15252170,75311360,-21992190,-26972660,64335940
2026-01-14 16:42:07.871,-54310490,5183318,-1514856,58125690,-20878910,-26445310,64453120
2026-01-14 16:42:07.881,-3712483,21766490,15073490,7527684,-19482420,-27128910,65117190
2026-01-14 16:42:07.891,-37098940,35296640,-31598830,75268200,-19091800,-26640620,65234380
2026-01-14 16:42:07.901,-3706441,21910640,15222820,7526821,-19355470,-26738280,65234380
2026-01-14 16:42:07.911,-54219000,21971060,15283240,58044560,-19550780,-27324220,65507810
2026-01-14 16:42:07.921,-36926300,22031480,15343670,75268200,-196875,-2734375,659375
2026-01-14 16:42:07.931,13625960,52195740,-14699740,24836780,-19394530,-27089840,66210940
2026-01-14 16:42:07.941,-36710510,22137650,15444660,75311360,-20097660,-26640620,66601560
2026-01-14 16:42:07.951,-36572400,52316580,-14647950,75328620,-20273440,-25175780,66992190
2026-01-14 16:42:07.961,-53950560,52359740,-14639320,57846890,-20605470,-26875,66484380
2026-01-14 16:42:07.971,-36253030,52420160,-14647950,75423580,-25664060,-2671875,659375
2026-01-14 16:42:07.981,14111920,52471940,-14665210,25265780,-24785160,-27304690,66132810
2026-01-14 16:42:07.991,-3589915,35496030,-31710180,7550128,-23964840,-24921880,67265620
2026-01-14 16:42:08.001,-35700610,35524520,-31733490,75561680,-21757810,-24140620,67539060
2026-01-14 16:42:08.011,-35476180,22339640,15605210,75613470,-2046875,-24628910,68007810
2026-01-14 16:42:08.021,-35243130,35614280,-31816350,75673890,-20820310,-25371090,67734380
2026-01-14 16:42:08.031,-35010070,35674700,-31876770,75734310,-21367190,-27167970,67070310
2026-01-14 16:42:08.041,14981130,22356900,15587940,26036580,-22773440,-29003910,66914060
2026-01-14 16:42:08.051,-3453533,5288627,-1497596,7582926,-234375,-30234380,67109380
2026-01-14 16:42:08.061,15258210,22322370,15518890,26277410,-23554690,-30859380,6765625
2026-01-14 16:42:08.071,-3412965,52998480,-15226270,7588971,-2296875,-31289060,68164060
2026-01-14 16:42:08.081,15482630,53050270,-15381640,26467300,-221875,-32363280,6890625
2026-01-14 16:42:08.091,-52740400,53110690,-15528380,56950930,-20859380,-31894530,67890620
2026-01-14 16:42:08.101,-33646270,22181670,15297050,75889680,-21503910,-32382810,66171880
2026-01-14 16:42:08.111,15720870,36396320,-32657080,26660650,-20644530,-31230470,64570310
2026-01-14 16:42:08.121,20713510,53257430,-15968600,21806110,-18857420,-29335940,640625
2026-01-14 16:42:08.131,15871920,22070330,15132190,26785810,-16503910,-26308590,6578125
2026-01-14 16:42:08.141,15954790,53300590,-16218910,26858320,-17089840,-26738280,65117190
2026-01-14 16:42:08.151,-33024790,5331782,-1633975,75924210,-21816410,-28261720,63789060
2026-01-14 16:42:08.161,-3299890,53317850,-16426080,7591560,-23476560,-27988280,62226560
2026-01-14 16:42:08.171,-3302480,36724320,-33036870,7588970,-21484380,-24570310,61679690
2026-01-14 16:42:08.181,-3309385,53309220,-16400180,7588971,-1765625,-19794920,60664060
2026-01-14 16:42:08.191,-33180160,53283320,-16287970,75889680,-12080080,-14716800,59648440
2026-01-14 16:42:08.201,-33257840,53240170,-16123970,75915580,-6308594,-10322270,58867190
2026-01-14 16:42:08.211,-33318260,5317972,-1590816,75976000,-13476560,-66503900,58320310
2026-01-14 16:42:08.221,-33344150,5309340,-1570100,76070940,25146480,-47827150,58867190
2026-01-14 16:42:08.231,-33309630,52981220,-15502490,76209060,3552246,-38598630,60078120
2026-01-14 16:42:08.241,-33206050,52834470,-15355750,76381680,26342770,-52001950,6109375
2026-01-14 16:42:08.251,16305240,22100540,15309140,27267460,-9490967,-7729492,61835940
2026-01-14 16:42:08.261,16546920,22003000,15234040,27509150,-6489258,-10986330,62929690
2026-01-14 16:42:08.271,16814500,52247530,-15234910,27776730,-11933590,-13408200,6375
2026-01-14 16:42:08.281,-32213410,52023100,-15303960,77374330,-16152340,-15068360,64882810
2026-01-14 16:42:08.291,-31868140,21554150,14836990,77650540,-19228520,-16464840,66679690
2026-01-14 16:42:08.301,17738090,35319080,-31714500,28683060,-21425780,-18027340,675
2026-01-14 16:42:08.311,18070410,51298040,-15614700,29006740,-25703120,-20136720,6640625
2026-01-14 16:42:08.321,-30789180,51056350,-15718280,78505070,-28984380,-22304690,6515625
2026-01-14 16:42:08.331,-30461180,50823300,-15795970,78764030,-2984375,-23417970,63710940
2026-01-14 16:42:08.341,18978460,20707380,14061000,29894080,-30273440,-24238280,609375
2026-01-14 16:42:08.351,19248630,34864200,-31409800,30159070,-31542970,-24589840,5875
2026-01-14 16:42:08.361,-29598010,20489000,13882320,79471820,-31347660,-2734375,56132810
2026-01-14 16:42:08.371,-52011020,50029180,-15813230,57041560,-30234380,-26855470,5484375
2026-01-14 16:42:08.381,-51991160,20327590,13767520,57061410,-28964840,-27050780,540625
2026-01-14 16:42:08.391,-51982540,49666650,-15675120,57087310,-28574220,-27597660,521875
2026-01-14 16:42:08.401,20233510,49511280,-15588810,31142220,-2953125,-2828125,50273440
2026-01-14 16:42:08.411,-2875210,20160140,13676020,8038679,-30566410,-28867190,49179690
2026-01-14 16:42:08.421,20469150,20130790,13670850,31389950,-30292970,-27402340,50195310
2026-01-14 16:42:08.431,20552020,49053800,-15286700,31479720,-28242190,-30488280,48945310
2026-01-14 16:42:08.441,-2860536,17195330,16554520,8075795,-28515620,-2859375,49257810
2026-01-14 16:42:08.451,-2863127,48794860,-15045010,8085292,-27617190,-26660160,50859380
2026-01-14 16:42:08.461,20666820,48691270,-14889640,31623870,-25332030,-26035160,5109375
2026-01-14 16:42:08.471,-52228540,48596330,-14742900,57462780,-24140620,-28398440,49492190
2026-01-14 16:42:08.481,-28752110,48501370,-14613420,81060060,-25742190,-27734380,49414060
2026-01-14 16:42:08.491,-52352830,33143040,-29747340,57580180,-24589840,-26953120,484375
2026-01-14 16:42:08.501,20580500,20147190,13878870,31589340,-22539060,-26230470,46914060
2026-01-14 16:42:08.511,25481910,20187760,13941880,26584350,-21660160,-26230470,46210940
2026-01-14 16:42:08.521,-52603150,48225160,-14009210,57795970,-19296880,-24257810,465625
2026-01-14 16:42:08.531,-2939949,48173380,-13853840,8115503,-16884770,-2390625,46171880
2026-01-14 16:42:08.541,20264580,20311190,14129190,31335570,-16259770,-22617190,46875
2026-01-14 16:42:08.551,-29718860,32542270,-29087880,81146370,-15429690,-21660160,46875
2026-01-14 16:42:08.561,-2989149,20396650,14250890,8112912,-13574220,-22929690,46679690
2026-01-14 16:42:08.571,-53026970,48035260,-13266880,58131740,-13251950,-20800780,48046880
2026-01-14 16:42:08.581,19855440,32317850,-28828930,30985120,-10703130,-20859380,48789060
2026-01-14 16:42:08.591,19763940,48018000,-12990670,30903990,-98535150,-19277340,51015620
2026-01-14 16:42:08.601,-3052160,48018010,-12887090,8099966,-7944336,-20039060,51367190
2026-01-14 16:42:08.611,-3065108,48035270,-12800770,8095650,-7363281,-184375,53867190
2026-01-14 16:42:08.621,19473060,48052530,-12731720,30642450,-5913086,-18759770,54492190
2026-01-14 16:42:08.631,-53375680,48087060,-12662670,58369970,-46362300,-20722660,540625
2026-01-14 16:42:08.641,19285750,32148670,-28601060,30467220,-46484380,-21210940,53671880
2026-01-14 16:42:08.651,19196840,32168520,-28615730,30383490,-5029297,-23105470,528125
2026-01-14 16:42:08.661,-31263920,32194420,-28641620,80654370,-63183590,-23808590,51875
2026-01-14 16:42:08.671,24049140,4823379,-1270584,25168670,-75390620,-25488280,5078125
2026-01-14 16:42:08.681,-31479720,48268320,-12774880,80490370,-94677740,-27363280,48789060
2026-01-14 16:42:08.691,18802370,32373100,-28825480,30001110,-10595700,-28945310,48125
2026-01-14 16:42:08.701,18689300,48397800,-12973410,29889760,-12470700,-28867190,49101560
2026-01-14 16:42:08.711,-53594930,20765220,14607390,58426940,-13027340,-29160160,49140620
2026-01-14 16:42:08.721,18419130,48544540,-13240990,29624770,-14082030,-28300780,50351560
2026-01-14 16:42:08.731,-53650180,48630850,-13396360,58423490,-15058590,-27089840,509375
2026-01-14 16:42:08.741,-32334250,48734430,-13534460,79756670,-15058590,-25976560,50507810
2026-01-14 16:42:08.751,-53690740,48838020,-13689830,58400180,-15205080,-26484380,49960940
2026-01-14 16:42:08.761,-3267952,20688400,14407990,7942868,-16484380,-23984380,509375
2026-01-14 16:42:08.771,17587900,17837780,17206810,28798720,-14394530,-26171880,5046875
2026-01-14 16:42:08.781,17379880,20648690,14309590,28592420,-12841800,-22597660,52109380
2026-01-14 16:42:08.791,17170990,49286860,-14414900,28386990,-13251950,-21738280,52070310
2026-01-14 16:42:08.801,-33551320,49381810,-14630690,78643180,-11582030,-21972660,52265620
2026-01-14 16:42:08.811,-53901350,33891400,-30431830,58362200,-9785156,-20507810,5390625
2026-01-14 16:42:08.821,16427800,49528540,-15122690,27662790,-8203125,-18232420,55546880
2026-01-14 16:42:08.831,16165400,49580340,-15398910,27407300,-7651367,-16347660,56523440
2026-01-14 16:42:08.841,15901270,2021796,1368724,27153520,-7792969,-16445310,5625
2026-01-14 16:42:08.851,15637140,49614860,-16020390,26899750,-8457031,-16914060,56523440
2026-01-14 16:42:08.861,15372150,19921900,13327300,26646840,-7885742,-17207030,57773440
2026-01-14 16:42:08.871,15107160,19746680,13122730,26393930,-6113281,-17333980,59375
2026-01-14 16:42:08.881,-56297940,49476760,-17021660,56707940,-53222660,-16494140,60742190
2026-01-14 16:42:08.891,-3631345,19340990,12665260,7684781,-56884770,-17041020,62304690
2026-01-14 16:42:08.901,-54654900,49260960,-17703560,58661720,-53027340,-17998050,625
2026-01-14 16:42:08.911,14134370,49105590,-18048830,25485020,-5473633,-18144530,6265625
2026-01-14 16:42:08.921,-3725432,48941600,-18368200,7644213,-46411130,-16777340,6265625
2026-01-14 16:42:08.931,13691560,48751700,-18678940,25081920,-32006840,-18115230,61679690
2026-01-14 16:42:08.941,-37858530,15115010,14439840,76252220,-2052002,-19492190,60234380
2026-01-14 16:42:08.951,-3815200,17896910,11140040,7618317,-14172360,-20234380,6015625
2026-01-14 16:42:08.961,-38436840,48043900,-19542110,76140000,-11602780,-20214840,60273440
2026-01-14 16:42:08.971,-3870444,47767680,-19818320,7609687,-17285160,-20859380,5953125
2026-01-14 16:42:08.981,-38972010,47465570,-20085900,76088210,-26342770,-20507810,59882810
2026-01-14 16:42:08.991,-55798600,47163470,-20336220,59486050,-25830080,-19560550,59492190
2026-01-14 16:42:09.001,12547870,46835460,-20595180,24102230,-37890620,-19101560,59726560
2026-01-14 16:42:09.011,-3965393,46507460,-20854120,7611413,-5859375,-19033200,60585940
2026-01-14 16:42:09.021,12334660,1589695,916942,3,23935630,-7709961,-19785160,61757810
2026-01-14 16:42:09.031,12227630,15589670,8872498,23852770,-9873047,-19326170,62226560
2026-01-14 16:42:09.041,-40301290,45471660,-21596450,76191790,-10996090,-18242190,64179690
2026-01-14 16:42:09.051,-56582350,45117760,-21846770,60152410,-11445310,-16884770,66289060
2026-01-14 16:42:09.061,-40715610,44763860,-22079820,76260850,-1359375,-17529300,6734375
2026-01-14 16:42:09.071,-56830080,14375190,7704636,60370800,-1578125,-17998050,68320310
2026-01-14 16:42:09.081,-41095400,14075670,7417200,76347160,-17050780,-18388670,69882820
2026-01-14 16:42:09.091,-41293940,43676270,-22770360,76373060,-18544920,-19511720,7171875
2026-01-14 16:42:09.101,-57201240,43322370,-22986150,60690160,-16171880,-16376950,73710940
2026-01-14 16:42:09.111,-41699620,42959840,-23193310,76433480,-15966800,-18027340,72421870
2026-01-14 16:42:09.121,1138085,42597310,-23417730,2321491,-15898440,-19345700,71289060
2026-01-14 16:42:09.131,11300590,33860330,-31999340,23157060,-15703130,-19619140,70273440
2026-01-14 16:42:09.141,-42217520,12305310,5734887,76554320,-15244140,-20429690,690625
2026-01-14 16:42:09.151,-4236423,120040700,54491770,7661480,-13974610,-22089840,69023440
2026-01-14 16:42:09.161,-42510990,116933300,51557000,76675170,-12607420,-23125,6953125
2026-01-14 16:42:09.171,11095150,40689710,-24479430,23034490,-13007810,-23652340,69453130
2026-01-14 16:42:09.181,11076160,11042500,4546303,23036210,-14580080,-24628910,6859375
2026-01-14 16:42:09.191,-58199930,10711040,4239018,61607720,-16005860,-25644530,6953125
2026-01-14 16:42:09.201,11020060,39386330,-25075020,23023270,-16298830,-23320310,7203125
2026-01-14 16:42:09.211,-43123840,38928850,-25256280,77149900,-17373050,-21992190,73554690
2026-01-14 16:42:09.221,10979490,97106340,33231950,23029310,-20859380,-21015620,75351560
2026-01-14 16:42:09.231,-43382800,93748610,30202230,77374340,-23046880,-19394530,76992190
2026-01-14 16:42:09.241,-4352090,9046857,2726746,7747791,-25761720,-17841800,76796870
2026-01-14 16:42:09.251,-4367629,37012620,-25825970,7758151,-26992190,-15976560,77148440
2026-01-14 16:42:09.261,10859510,8431418,2185540,23011180,-30976560,-18740230,74804690
2026-01-14 16:42:09.271,16300570,36080400,-25998600,17518330,-33007810,-20039060,72304690
2026-01-14 16:42:09.281,10755070,35622920,-26041760,22960260,-32949220,-22792970,70429690
2026-01-14 16:42:09.291,-59483460,76200420,14950060,62844630,-31875,-26699220,67304690
2026-01-14 16:42:09.301,10596250,73731760,12930250,22860130,-315625,-28476560,66289060
2026-01-14 16:42:09.311,-44841550,34267740,-26050390,78108020,-30371090,-33671880,66054690
2026-01-14 16:42:09.321,10347650,33801640,-26015870,22677140,-30136720,-3625,6609375
2026-01-14 16:42:09.331,-45463030,66239460,6957133,78194340,-29707030,-36835940,6625
2026-01-14 16:42:09.341,10008430,63624070,4911425,22412150,-29765620,-38320310,66054690
2026-01-14 16:42:09.351,9807308,60913720,2788032,22250730,-321875,-39003900,66054690
2026-01-14 16:42:09.361,9579433,32395540,26645120,22064290,-33710940,-39082030,6703125
2026-01-14 16:42:09.371,9325660,31168980,-25713760,21851950,-35019530,-38378900,66640620
2026-01-14 16:42:09.381,-47517370,30651070,-25610180,78177070,-35683590,-37988280,66367190
2026-01-14 16:42:09.391,8747338,51116780,-4505736,21359940,-35507810,-3609375,65859380
2026-01-14 16:42:09.401,-61801920,48984750,-5999011,64755680,-35195310,-31367190,66523440
2026-01-14 16:42:09.411,8144847,22484650,17048420,20840310,-35,-33359380,64804690
2026-01-14 16:42:09.421,7857413,45169550,-8571252,20592590,-36113280,-32207030,6265625
2026-01-14 16:42:09.431,-49899710,43400060,-9736523,77831810,-36484380,-31484380,6125
2026-01-14 16:42:09.441,-50322660,18165350,12908670,77754130,-3578125,-29785160,60195310
2026-01-14 16:42:09.451,12832020,40335810,-11678660,14116070,-38027340,-27382810,58828120
2026-01-14 16:42:09.461,-6433587,15868470,10717090,6436240,-36855470,-27460940,57460940
2026-01-14 16:42:09.471,6610999,38031160,-12999300,19508450,-37480470,-2640625,5609375
2026-01-14 16:42:09.481,6434913,14269020,9209132,19356530,-38066410,-27421880,54726560
2026-01-14 16:42:09.491,-51954050,26231660,-23987420,77469280,-39199220,-24414060,54453120
2026-01-14 16:42:09.501,6156111,35812820,-14061000,19117430,-3953125,-25117190,53515620
2026-01-14 16:42:09.511,-52342480,35407120,-14173210,77426120,-39316410,-24101560,53789060
2026-01-14 16:42:09.521,-63697440,13082160,8151756,66192000,-4171875,-23789060,53476560
2026-01-14 16:42:09.531,-52575530,13329890,8421927,77417490,-42109380,-24726560,53710940
2026-01-14 16:42:09.541,-5265322,25567020,-23322780,7742613,-42265620,-24042970,54414060
2026-01-14 16:42:09.551,11718540,14348430,9474988,13019850,-43007810,-22929690,5515625
2026-01-14 16:42:09.561,5868677,12799180,12750570,18886970,-41601560,-22207030,56484380
2026-01-14 16:42:09.571,-52713640,3805702,-1043567,77503810,-41757810,-22089840,57695310
2026-01-14 16:42:09.581,-52670480,39222320,-9184101,77546970,-421875,-22910160,5875
2026-01-14 16:42:09.591,-52627320,25817330,-22520040,77590130,-41835940,-225,60625
2026-01-14 16:42:09.601,-63855400,42355620,-5929955,66362040,-40585940,-221875,61757810
2026-01-14 16:42:09.611,6092236,44142380,-4091414,19112260,-38476560,-22460940,63632810
2026-01-14 16:42:09.621,-52420160,4628301,-191620,9,77745490,-36796880,-22050780,66054690
2026-01-14 16:42:09.631,6224301,4858769,44021,54,19239140,-34414060,-23222660,671875
2026-01-14 16:42:09.641,-52256150,51073620,2960669,77857700,-32363280,-25859380,68320310
2026-01-14 16:42:09.651,6365861,53714910,5671011,19373800,-30878910,-25800780,703125
2026-01-14 16:42:09.661,-52100790,56433890,8476311,77961290,-28847660,-25800780,71757810
2026-01-14 16:42:09.671,-52049000,37696240,32910850,78013080,-27949220,-25175780,74023440
2026-01-14 16:42:09.681,-63728520,6207898,1439766,66333560,-27304690,-24667970,76679690
2026-01-14 16:42:09.691,6564388,6492745,1741872,19572320,-25820310,-26054690,778125
2026-01-14 16:42:09.701,6598050,23651230,-23650350,19607710,-24921880,-27304690,78710940
2026-01-14 16:42:09.711,-5196269,28260100,-18799790,7818572,-23007810,-27949220,7890625
2026-01-14 16:42:09.721,-5198859,28432740,-18368200,7821162,-18916020,-31425780,7796875
2026-01-14 16:42:09.731,6589419,28562210,-17927990,19616340,-18740230,-31640620,78320310
2026-01-14 16:42:09.741,6559209,28648530,-17479140,19594770,-18955080,-30292970,79882820
2026-01-14 16:42:09.751,-5221301,23449670,-22280940,7826340,-16269530,-30234380,8078125
2026-01-14 16:42:09.761,6417651,8350281,3820379,19477370,-146875,-29570310,815625
2026-01-14 16:42:09.771,-52515110,8568660,4085374,78237500,-14130860,-28828120,81640620
2026-01-14 16:42:09.781,-52705000,22829050,-21520490,78220230,-12255860,-26308590,80546870
2026-01-14 16:42:09.791,-52903530,89493200,45678820,78194340,-10917970,-24121090,79882820
2026-01-14 16:42:09.801,5951540,9102962,4776769,19080320,-62890620,-25664060,76679690
2026-01-14 16:42:09.811,5794444,9263512,4996014,18943940,-2915039,-26523440,7421875
2026-01-14 16:42:09.821,5627853,93964410,51910890,18799790,5529785,-2453125,715625
2026-01-14 16:42:09.831,-53939330,28121990,-13258250,78021700,-5731201,-19638670,69921870
2026-01-14 16:42:09.841,5248922,9588063,5517366,18470920,27172850,-19707030,6703125
2026-01-14 16:42:09.851,5054707,20755720,-19226190,18302600,34936520,-17119140,64960940
2026-01-14 16:42:09.861,4859633,19688510,-19533830,18135150,50842280,-12509770,63046880
2026-01-14 16:42:09.871,-55190930,27025770,-11436970,77823180,6489258,-16708980,57617190
2026-01-14 16:42:09.881,4461712,26680500,-11022650,17790740,-27319340,-88671870,57304690
2026-01-14 16:42:09.891,10285770,96916440,60007400,11621430,3717041,-10146480,54609380
2026-01-14 16:42:09.901,-56131780,96536650,60387200,77693700,-98779300,-5263672,53046880
2026-01-14 16:42:09.911,3912741,78634570,78634540,17321180,-35131840,-10722660,4796875
2026-01-14 16:42:09.921,3735792,95751170,61172680,17170130,-15146480,-50390620,46015620
2026-01-14 16:42:09.931,-56986320,95449060,61647420,77598760,-88671870,-10458980,42773440
2026-01-14 16:42:09.941,-57253900,95060630,62035850,77572860,-16113280,-60498050,40234380
2026-01-14 16:42:09.951,-57504220,94680840,62415640,77546970,-14365230,-9086914,36484380
2026-01-14 16:42:09.961,3146248,94231990,62691850,16672080,-18271480,-90966800,34511720
2026-01-14 16:42:09.971,3041802,23253730,-7595874,16586630,-17109380,-11601560,32675780
2026-01-14 16:42:09.981,2955485,22917090,-7293765,16517570,-19179690,-10361330,31386720
2026-01-14 16:42:09.991,-58186120,9268688,6302851,77572860,-22207030,-10878910,30019530
2026-01-14 16:42:10.001,2882116,22347400,-6827656,16470100,-24394530,-11279300,2890625
2026-01-14 16:42:10.011,2886432,22114350,-6663652,16483050,-25800780,-11914060,2796875
2026-01-14 16:42:10.021,-58298330,21941710,-6542807,77736860,-27382810,-12705080,27148440
2026-01-14 16:42:10.031,-67049130,21812240,-6465121,69003340,-29179690,-15576170,25820310
2026-01-14 16:42:10.041,3036623,21751820,-6404703,16643600,-29785160,-16611330,25253910
2026-01-14 16:42:10.051,-58117070,21751820,-6370174,77935390,-30019530,-17382810,25214840
2026-01-14 16:42:10.061,9306757,14146970,-13992290,10666940,-28828120,-19121090,25605470
2026-01-14 16:42:10.071,3267088,21907190,-6318386,16861980,-26113280,-20097660,26386720
2026-01-14 16:42:10.081,3356862,92971760,64642610,16944840,-24101560,-22558590,27460940
2026-01-14 16:42:10.091,-57676850,22226560,-6257962,78133920,-20078120,-24121090,29433590
2026-01-14 16:42:10.101,3502733,22433720,-6240702,17075180,-16396480,-25,31445310
2026-01-14 16:42:10.111,-66784140,22658140,-6223435,68854010,-13242190,-26386720,33945310
2026-01-14 16:42:10.121,3614945,22882570,-6223439,17170130,-10654300,-27558590,36875
2026-01-14 16:42:10.131,-5731429,85886020,82949530,7813396,-75927740,-2796875,39628900
2026-01-14 16:42:10.141,3650335,23365940,-6257965,17186530,-54248050,-27851560,425
2026-01-14 16:42:10.151,-66605450,23590360,-6292488,68687420,-40576170,-27675780,4484375
2026-01-14 16:42:10.161,3623581,102432100,72273010,17144240,-22607420,-27167970,47304690
2026-01-14 16:42:10.171,3574376,24030580,-6404702,17089850,8056641,-26113280,49492190
2026-01-14 16:42:10.181,-5727980,24237740,-6473755,7780593,9887695,-25449220,51835940
2026-01-14 16:42:10.191,-66507920,24419000,-6551438,68543260,15893560,-25390620,53828120
2026-01-14 16:42:10.201,3313699,24574380,-6637758,16815360,34643560,-23476560,55195310
2026-01-14 16:42:10.211,-57564640,24703850,-6715439,77434750,5,-19746090,55859380
2026-01-14 16:42:10.221,-5769412,16705740,-14903450,7728802,6923828,-1671875,56054690
2026-01-14 16:42:10.231,2901105,24893750,-6888075,16399320,77685540,-13798830,56796880
2026-01-14 16:42:10.241,-57996220,24936900,-7000286,77003170,80029300,-10087890,58203120
2026-01-14 16:42:10.251,8681565,24945540,-7129763,10031910,6821289,-55322260,5921875
2026-01-14 16:42:10.261,2456574,24928280,-7267869,15963420,64453120,-11529540,596875
2026-01-14 16:42:10.271,-58470960,103493800,71211310,76632010,59521480,2824707,5921875
2026-01-14 16:42:10.281,2211435,10248390,7014962,15725180,6376953,671875,59375
2026-01-14 16:42:10.291,2105266,24686590,-7682191,15624200,7290039,83203130,59765620
2026-01-14 16:42:10.301,2024129,9974762,6736159,15549960,66308590,9433594,6046875
2026-01-14 16:42:10.311,80500730,24367210,-7984301,94031740,6689453,90625,61054690
2026-01-14 16:42:10.321,80152000,24160050,-8139673,93689920,7705078,8017578,61914060
2026-01-14 16:42:10.331,79975910,23901100,-8295042,93520740,8623047,60791020,625
2026-01-14 16:42:10.341,86156980,91910070,59834770,87512320,94140620,30322270,634375
2026-01-14 16:42:10.351,80139920,89415520,57495590,93702000,9794922,60028080,66015620
2026-01-14 16:42:10.361,80480870,86558430,54828400,94051590,90722660,-21569820,69570310
2026-01-14 16:42:10.371,-59135600,83425140,51919520,76675170,7441406,-52246100,73945310
2026-01-14 16:42:10.381,2025853,22071190,-9192734,15617290,5644531,-7871094,78046870
2026-01-14 16:42:10.391,-59144230,16110150,-14894820,76890950,4309082,-10625,80859380
2026-01-14 16:42:10.401,2126847,72333430,41604670,15740730,24206540,-13291020,8296875
2026-01-14 16:42:10.411,8312907,20508860,-9909162,9675504,413208,-16699220,83828130
2026-01-14 16:42:10.421,-59126970,63727650,33637640,77253490,-31054690,-20605470,8484375
2026-01-14 16:42:10.431,-59126970,14872820,-14871930,77374330,-63916020,-24589840,8484375
2026-01-14 16:42:10.441,-59126970,54232800,24833330,77495180,-10878910,-28320310,8375
2026-01-14 16:42:10.451,-59135600,49390440,20353490,77607390,-153125,-321875,8171875
2026-01-14 16:42:10.461,-59144230,17341030,-11316120,77702330,-18310550,-35546880,79140620
2026-01-14 16:42:10.471,-67553210,26876440,24050440,69414200,-2203125,-39375,7671875
2026-01-14 16:42:10.481,-5923055,34820180,6957131,7784046,-24804690,-43671880,74257810
2026-01-14 16:42:10.491,2428954,30046860,2580869,16146410,-28769530,-46328120,71953130
2026-01-14 16:42:10.501,2388385,25368490,-1717703,16117930,-31132810,-46132810,70234380
2026-01-14 16:42:10.511,-59480870,20785070,-5938590,77900860,-36113280,-45585940,68515620
2026-01-14 16:42:10.521,-5957583,16218920,-10176750,7789224,-42929690,-45507810,67226560
2026-01-14 16:42:10.531,2229561,1821283,-24263640,15983270,-490625,-45078120,65625
2026-01-14 16:42:10.541,-5972259,-38877060,-64703030,7786632,-53476560,-44140620,6328125
2026-01-14 16:42:10.551,2155328,3737516,-21864030,15919400,-58554690,-46484380,60039060
2026-01-14 16:42:10.561,2119939,25895,-25403020,15885740,-63632810,-46953120,56953120
2026-01-14 16:42:10.571,-59860660,-3219617,-28544940,77814540,-65664060,-47304690,5296875
2026-01-14 16:42:10.581,-59895180,-6085336,-31376130,77780020,-67851560,-46914060,49257810
2026-01-14 16:42:10.591,-59921080,-8493573,-33801640,77754120,-69023440,-46992190,45
2026-01-14 16:42:10.601,1999958,-10435690,-35830080,15764030,-67773440,-45859380,41523440
2026-01-14 16:42:10.611,-59938350,10314850,-15252170,77667810,-6625,-45351560,38574220
2026-01-14 16:42:10.621,-59929720,-12818040,-38626740,77624650,-63828120,-46875,36230470
2026-01-14 16:42:10.631,-68751200,-13430890,-39567590,68751380,-6171875,-47421880,34980470
2026-01-14 16:42:10.641,1959389,-26929500,-26932150,15701020,-5921875,-45351560,34960940
2026-01-14 16:42:10.651,1954209,-13448150,-40413500,15688930,-56835940,-43671880,35214840
2026-01-14 16:42:10.661,8135352,-25213120,-27957990,9507788,-5453125,-43125,36757810
2026-01-14 16:42:10.671,-59748450,-11903080,-39886960,77391590,-53085940,-421875,39296880
2026-01-14 16:42:10.681,-59688030,11773600,-16762710,77348430,-5140625,-40078120,42539060
2026-01-14 16:42:10.691,1983558,-9020100,-38108840,15676850,-51796880,-35800780,45273440
2026-01-14 16:42:10.701,1980969,-709524,3,-3675367,15662170,-52070310,-30117190,49765620
2026-01-14 16:42:10.711,1986147,-4842369,-35035970,15656990,-515625,-25,53867190
2026-01-14 16:42:10.721,1991326,-2166550,-32878050,15651820,-47773440,-21757810,57851560
2026-01-14 16:42:10.731,-59429080,845900,-30366230,77072220,-43984380,-20,61484380
2026-01-14 16:42:10.741,2000821,4100045,-27578200,15642320,-39023440,-16601560,65820310
2026-01-14 16:42:10.751,-59351400,15226270,-16900820,76977280,-33222660,-11386720,70351560
2026-01-14 16:42:10.761,1992190,11523280,-21018130,15616430,-27109380,-5415039,7515625
2026-01-14 16:42:10.771,-59282340,6957127,-25946810,76873700,-22421880,10333250,80234380
2026-01-14 16:42:10.781,1992191,47698630,14449420,15599160,-18886720,76464850,85390620
2026-01-14 16:42:10.791,-59178760,24203210,-9356731,76804640,-10957030,13085940,89765620
2026-01-14 16:42:10.801,2053476,28916110,-4920054,15641460,11407470,14853520,928125
2026-01-14 16:42:10.811,2118213,3352542,-55242,7,15697560,16279300,11591800,94140620
2026-01-14 16:42:10.821,-5886801,22428540,19003500,7683917,3125,66259770,9546875
2026-01-14 16:42:10.831,-66911880,19619790,-14699740,68726260,43828120,8190918,9609375
2026-01-14 16:42:10.841,2386658,19930540,-14337210,15947020,52382810,-5698242,96875
2026-01-14 16:42:10.851,2490239,4759505,1351720,16050600,56523440,-11425780,971875
2026-01-14 16:42:10.861,2582598,49217810,15519750,16148140,55195310,-16445310,971875
2026-01-14 16:42:10.871,-58419170,19930530,-13232360,77322540,50390620,-21347660,97109380
2026-01-14 16:42:10.881,2725884,50150030,17694930,16315590,42148440,-25859380,9625
2026-01-14 16:42:10.891,2750916,49554440,17945250,16359620,328125,-28027340,94921870
2026-01-14 16:42:10.901,2731062,15371630,-15305340,16362200,22753910,-2953125,928125
2026-01-14 16:42:10.911,2658557,46947680,17271980,16313870,13388670,-30722660,90234380
2026-01-14 16:42:10.921,2542028,14628100,-14011800,16223230,3630371,-30742190,8703125
2026-01-14 16:42:10.931,-67622260,42977110,15373020,69465990,-6035156,-2921875,8375
2026-01-14 16:42:10.941,-5967077,16020390,-10547910,7769371,-12617190,-27167970,79804690
2026-01-14 16:42:10.951,-60041930,26656330,24097910,77581500,-17421880,-24511720,75117180
2026-01-14 16:42:10.961,1599450,35622920,10988120,15387690,-20507810,-225,6984375
2026-01-14 16:42:10.971,1285257,32852150,9097783,15097670,-23007810,-21542970,64765620
2026-01-14 16:42:10.981,71889760,30029590,7086601,85724610,-24296880,-209375,59257810
2026-01-14 16:42:10.991,624933,5,26982610,4781949,14480500,-26367190,-20996090,5421875
2026-01-14 16:42:11.001,287435,23788890,2278762,14161990,-275,-21230470,49296880
2026-01-14 16:42:11.011,-40569,20465700,-440215,7,13851250,-2921875,-21972660,44140620
2026-01-14 16:42:11.021,-62959430,7923011,5887668,76114100,-30,-21894530,39140620
2026-01-14 16:42:11.031,-693121,5,37215640,37016760,13226320,-31347660,-22011720,34433590
2026-01-14 16:42:11.041,52765430,9758105,-9749479,66696950,-3328125,-22773440,30449220
2026-01-14 16:42:11.051,49912660,9322206,-9874638,63852810,-34414060,-25429690,26445310
2026-01-14 16:42:11.061,-64305970,3444035,-15528380,75164620,-33222660,-25566410,23007810
2026-01-14 16:42:11.071,-6454767,181266,-18653050,7495746,-33085940,-27910160,19960940
2026-01-14 16:42:11.081,-64780720,-2934773,-21751820,74758930,-32851560,-30585940,17304690
2026-01-14 16:42:11.091,-21777710,-5999019,-24902380,117761900,-30976560,-31796880,14814450
2026-01-14 16:42:11.101,-65125980,-8752522,-27845780,74396400,-29707030,-33867190,12207030
2026-01-14 16:42:11.111,-2477293,-11445600,-30849610,11471490,-28125,-37246100,9589844
2026-01-14 16:42:11.121,-65333140,-13836580,-33637630,74085660,-25644530,-40039060,77685540
2026-01-14 16:42:11.131,-26775450,-15994500,-36313450,112574300,-2265625,-41875,6567383
2026-01-14 16:42:11.141,-27414200,-17945260,-38851160,111832000,-19521480,-44804690,56103520
2026-01-14 16:42:11.151,-69144020,7751241,-13827940,69981300,-16279300,-4796875,5498047
2026-01-14 16:42:11.161,-65324510,-30996350,-33223310,73679970,-12539060,-51914060,5566406
2026-01-14 16:42:11.171,35006620,-22252460,-45247240,48893260,-8828125,-56132810,6777344
2026-01-14 16:42:11.181,-26982620,-23374580,-47059880,111745700,-5595703,-58984380,76904300
2026-01-14 16:42:11.191,-26231660,-24349960,-48674010,112375800,-25341800,-60117190,8334961
2026-01-14 16:42:11.201,3709805,-25437550,-50348560,5094500,13330080,-61992190,10136720
2026-01-14 16:42:11.211,-2403061,-38089850,-40631020,11431790,16052250,-62265620,10507810
2026-01-14 16:42:11.221,3969966,8804308,-17038930,5352243,-10810850,-64179690,11591800
2026-01-14 16:42:11.231,41432030,-30124550,-56364840,55242720,-10253910,-6296875,11826170
2026-01-14 16:42:11.241,4325070,-32368780,-58954340,5704931,-22988280,-56640620,12548830
2026-01-14 16:42:11.251,-68403430,-34802910,-61699200,69444410,-42109380,-40234380,12636720
2026-01-14 16:42:11.261,53518200,13080440,-14092070,54895640,-80234380,-19257810,44750980
2026-01-14 16:42:11.271,-6320976,8476304,-18903370,7443093,-12375,-9003906,11083980
2026-01-14 16:42:11.281,50089610,8528090,-19041480,63848500,-159921900,23652340,24375
2026-01-14 16:42:11.291,-1155784,-37237040,-64961980,12601380,-17625,71328130,34140620
2026-01-14 16:42:11.301,-1138518,-3288669,-6085331,12618640,-1775,114609400,40898440
2026-01-14 16:42:11.311,-1096225,-25722390,-54034280,12662670,-1575,138359400,49453120
2026-01-14 16:42:11.321,-1018538,14046320,-14662630,12740350,-135703100,14109380,66796880
2026-01-14 16:42:11.331,52334700,-5653748,-34742490,66091860,-112734400,13390630,83359380
2026-01-14 16:42:11.341,-9132316,5973113,-23409100,128422000,-92109380,134375,99921870
2026-01-14 16:42:11.351,-833819,46688730,17185660,12918170,-8046875,13796880,113359400
2026-01-14 16:42:11.361,-62588270,30573390,1191174,74897040,-54023440,14140630,12046880
2026-01-14 16:42:11.371,-511858,43564060,14613430,13234950,-21953120,13234380,131640600
2026-01-14 16:42:11.381,-62035840,56105880,27966630,75397680,-14472660,88984380,152578100
2026-01-14 16:42:11.391,63563650,18963790,-7984302,77305280,-20566410,39570310,171875
2026-01-14 16:42:11.401,501500,5,8115500,5574336,14241400,-13740230,-19821170,18609380
2026-01-14 16:42:11.411,-6103457,20034120,-3564881,7632991,10849610,-23710940,19125
2026-01-14 16:42:11.421,72028740,20344850,-1165279,85758270,35664060,-484375,186875
2026-01-14 16:42:11.431,12533190,20465690,1234329,149742300,53554690,-7359375,176875
2026-01-14 16:42:11.441,1438900,9553536,-7157384,15151180,60117190,-88046870,1640625
2026-01-14 16:42:11.451,84521900,20025480,6042168,84658910,66289060,-10140630,146796900
2026-01-14 16:42:11.461,-67562700,19516210,8502203,69283860,6796875,-115390600,12671880
2026-01-14 16:42:11.471,1937812,15328130,14554730,15601750,68789060,-119765600,10640630
2026-01-14 16:42:11.481,2132887,36684620,-5092687,15769210,56289060,-1246875,94609380
2026-01-14 16:42:11.491,-58893910,39075580,-5809113,77089480,41210940,-130625,86015620
2026-01-14 16:42:11.501,-58565910,15795960,19076000,76951380,23554690,-135390600,815625
2026-01-14 16:42:11.511,-66549350,-32099470,35745490,68398260,28554690,-1459375,68984380
2026-01-14 16:42:11.521,2577419,-3021950,6800897,16015210,23730470,-150234400,59023440
2026-01-14 16:42:11.531,2680999,13335940,25541120,16067000,15039060,-149296900,45664060
