Timestamp,Rotation X,Rotation Y,Rotation Z,Rotation W,Acceleration X,Acceleration Y,Acceleration Z
2026-01-14 16:41:57.931,-39494220,-6557486,-15401490,50275180,-62939450,-52226560,875
2026-01-14 16:41:57.941,9011468,33249210,-55225460,98780880,-5957031,-5265625,875
2026-01-14 16:41:57.951,-40359980,-6563528,-15412720,51135760,-60498050,-528125,8703125
2026-01-14 16:41:57.961,8113772,33283730,-55259980,99609520,-5385742,-52695310,87734380
2026-01-14 16:41:57.971,-40362570,-6568706,-15424800,51133170,-5258789,-5265625,87265620
2026-01-14 16:41:57.981,49174650,33301000,-55294510,58496860,-5493164,-52539060,87109380
2026-01-14 16:41:57.991,49079700,-10544970,-11431270,58574540,-56152340,-52890620,8734375
2026-01-14 16:41:58.001,-42955530,33335520,-55311760,53719220,-58984380,-528125,87265620
2026-01-14 16:41:58.011,460930,5,-6554894,-15421350,10301040,-5786133,-53164060,8765625
2026-01-14 16:41:58.021,-45545900,-6554033,-15422210,56307860,-57128900,-53164060,87578130
2026-01-14 16:41:58.031,2011176,-6554035,-15422210,105591300,-5966797,-53203120,875
2026-01-14 16:41:58.041,284840,33361420,-55337660,107317600,-6171875,-53242190,875
2026-01-14 16:41:58.051,-49000290,33361420,-55337660,59758810,-640625,-52890620,87265620
2026-01-14 16:41:58.061,5324015,33361420,-55337660,5434504,-5732422,-53164060,87734380
2026-01-14 16:41:58.071,5324015,33361420,-55354930,5434504,-58984380,-53125,871875
2026-01-14 16:41:58.081,4817335,33352790,-55363560,5939457,-63720700,-53085940,87421870
2026-01-14 16:41:58.091,4817337,-6568705,-15442070,5939455,-67041020,-528125,87578130
2026-01-14 16:41:58.101,53214280,-6577339,-15450700,54336400,-67041020,-525,875
2026-01-14 16:41:58.111,48078430,-6585970,-15459330,59472240,-66064450,-52460940,8765625
2026-01-14 16:41:58.121,48078430,-6594602,-15467960,59472240,-64941410,-52539060,87734380
2026-01-14 16:41:58.131,47992110,-6603234,-15476590,59558560,-64941410,-52382810,8734375
2026-01-14 16:41:58.141,47905800,44347120,-44369230,59644880,-6069336,-52382810,87734380
2026-01-14 16:41:58.151,-577461,5,44338500,-44360590,11334250,-54003900,-52695310,87734380
2026-01-14 16:41:58.161,-663776,5,-6623084,-15491270,11420570,-56884770,-53085940,86875
2026-01-14 16:41:58.171,-662913,-6631716,-15499900,11421430,-62109380,-5328125,8671875
2026-01-14 16:41:58.181,-662913,-6641210,-15507670,11421430,-6923828,-52929690,8703125
2026-01-14 16:41:58.191,47759050,33231940,-55415350,59843400,-67333980,-528125,87109380
2026-01-14 16:41:58.201,47845370,-10657190,-11543490,59757080,-6484375,-521875,86953130
2026-01-14 16:41:58.211,-488553,5,-6686958,-15548230,11250520,-55078120,-525,8796875
2026-01-14 16:41:58.221,-402238,5,43184260,-45411240,11164210,-51953120,-525,871875
2026-01-14 16:41:58.231,4820790,-6731843,-15589670,5942908,-5493164,-525,86796870
2026-01-14 16:41:58.241,5326606,-6749969,-15606070,5437091,-6113281,-52070310,86953130
2026-01-14 16:41:58.251,-48134530,43152330,-45391380,58898230,-6352539,-51914060,86640620
2026-01-14 16:41:58.261,48561800,43141110,-45385350,59092440,-59228520,-51523440,86953130
2026-01-14 16:41:58.271,2037076,-6812985,-15663900,105617200,-56640620,-51992190,86875
2026-01-14 16:41:58.281,2908872,32981620,-55493040,104762600,-5527344,-51992190,86484380
2026-01-14 16:41:58.291,48829380,-6850099,-15695840,58842130,-51123050,-5203125,8703125
2026-01-14 16:41:58.301,378067,-6868224,-15712240,10390810,-44799800,-52109380,87265620
2026-01-14 16:41:58.311,464383,5,-6876856,-15720870,10304490,-42358400,-52304690,86640620
2026-01-14 16:41:58.321,464381,5,32895310,-55527560,10304490,-43798830,-525,87109380
2026-01-14 16:41:58.331,-42952940,32878040,-55544820,53721820,-47729490,-52148440,871875
2026-01-14 16:41:58.341,-42952940,32860780,-55562080,53721820,-5336914,-51875,875
2026-01-14 16:41:58.351,49088340,3283487,-5557075,58583180,-48901370,-51484380,87890620
2026-01-14 16:41:58.361,49088340,-6956269,-15796830,58583180,-46411130,-51289060,87734380
2026-01-14 16:41:58.371,5498380,-6964902,-15805460,102173100,-42871100,-5140625,87421870
2026-01-14 16:41:58.381,5498380,-6973534,-15814090,102173100,-4501953,-5125,87265620
2026-01-14 16:41:58.391,48915700,-11402000,-11402890,58755810,-4272461,-51289060,87265620
2026-01-14 16:41:58.401,48829380,-11410630,-11411520,58842130,-40673830,-51640620,8734375
2026-01-14 16:41:58.411,2908876,-11410640,-11411520,104762600,-41235350,-51601560,8671875
2026-01-14 16:41:58.421,2045708,-11410640,-11411520,105625800,-46923830,-51289060,86640620
2026-01-14 16:41:58.431,319376,-6982166,-15822720,107352100,-51220700,-51367190,8671875
2026-01-14 16:41:58.441,53780510,-6982164,-15822720,53891000,-54248050,-51367190,865625
2026-01-14 16:41:58.451,48138850,-6973532,-15814090,59532660,-5986328,-51679690,86328130
2026-01-14 16:41:58.461,47966220,-6964900,-15805460,59705300,-64941410,-51914060,86484380
2026-01-14 16:41:58.471,-571417,5,-6956267,-15796830,11340290,-6923828,-51601560,86640620
2026-01-14 16:41:58.481,-744050,5,-11376110,-11376990,11512930,-60498050,-51757810,8625
2026-01-14 16:41:58.491,-56763620,-6957996,-15795100,67532500,-60253900,-50859380,85859380
2026-01-14 16:41:58.501,-915821,-6957993,-15795100,11686420,-57177740,-51171880,85859380
2026-01-14 16:41:58.511,47387890,32800360,-55553460,60335400,-5966797,-5140625,865625
2026-01-14 16:41:58.521,47301580,-6968352,-15802010,60421720,-6279297,-51523440,86015620
2026-01-14 16:41:58.531,47215260,-6976984,-15810640,60508040,-68603520,-515625,86171870
2026-01-14 16:41:58.541,-1345679,-6977846,-15809770,12119730,-7207031,-51210940,8640625
2026-01-14 16:41:58.551,-1345681,32739940,-55562090,12119740,-7216797,-51054690,86953130
2026-01-14 16:41:58.561,-1431998,32731310,-55570720,12206050,-7128906,-509375,86796870
2026-01-14 16:41:58.571,-1431996,-7022730,-15851210,12206050,-6591797,-5078125,8734375
2026-01-14 16:41:58.581,-1431996,-7031362,-15859840,12206050,-5854492,-50742190,86953130
2026-01-14 16:41:58.591,-1517449,3267952,-5558798,12293230,-5419922,-51015620,86875
2026-01-14 16:41:58.601,-1603766,-7049489,-15876240,12379550,-4873047,-51367190,87109380
2026-01-14 16:41:58.611,-1690085,32653620,-55596620,12465870,-4663086,-51796880,86875
2026-01-14 16:41:58.621,-1776402,32653620,-55596620,12552180,-44384770,-5234375,86796870
2026-01-14 16:41:58.631,-1862718,32644990,-55605250,12638500,-44873050,-52773440,86875
2026-01-14 16:41:58.641,-1949035,32636360,-55596620,12724820,-42089840,-53046880,87109380
2026-01-14 16:41:58.651,46464300,32636360,-55596620,61310780,-38452150,-53085940,875
2026-01-14 16:41:58.661,46464300,-7077976,-15899550,61310780,-3696289,-53515620,87421870
2026-01-14 16:41:58.671,46464300,-7086608,-15908180,61310780,-39404300,-53476560,87109380
2026-01-14 16:41:58.681,46559250,-7096102,-15915950,61233100,-40844730,-534375,875
2026-01-14 16:41:58.691,46645570,32567300,-55613880,61146780,-42578120,-52890620,87109380
2026-01-14 16:41:58.701,46818200,-7132355,-15948750,60974150,-4543457,-52578120,86953130
2026-01-14 16:41:58.711,-1514860,-11125710,-12007180,12295820,-43798830,-52148440,8734375
2026-01-14 16:41:58.721,-1255046,-7178100,-15989310,12037730,-45629880,-51796880,86796870
2026-01-14 16:41:58.731,-996095,5,-7204859,-16014350,11778780,-484375,-51328120,865625
2026-01-14 16:41:58.741,47793580,32394670,-55665670,60050560,-5493164,-5078125,86484380
2026-01-14 16:41:58.751,-476469,-7260102,-16062680,11262610,-52978520,-50546880,8640625
2026-01-14 16:41:58.761,5338690,-7279091,-16078220,5449176,-5102539,-50273440,859375
2026-01-14 16:41:58.791,49321390,-7345557,-16132600,58643600,-5209961,-49179690,85234380
2026-01-14 16:41:58.801,997821,-7365408,-16147270,9802129,-50341800,-49570310,85
2026-01-14 16:41:58.811,49865180,32127090,-55657040,58151590,-5419922,-49765620,85078130
2026-01-14 16:41:58.821,-34303140,-7394758,-16169710,45108270,-57128900,-49882810,85
2026-01-14 16:41:58.871,-18760080,31919930,-55622510,29577300,-5673828,-4921875,84921870
2026-01-14 16:41:58.881,31652350,-7483665,-16236180,76537060,-5571289,-49609380,84765620
2026-01-14 16:41:58.891,-15305690,31876770,-55613880,26126350,-54785160,-4984375,8484375
2026-01-14 16:41:58.901,-14441660,-7494884,-16242220,25264050,-5332031,-50585940,85390620
2026-01-14 16:41:58.911,34267750,-7495749,-16241360,73973460,-49926760,-51132810,85546870
2026-01-14 16:41:58.921,-13576760,31850880,-55587980,24402610,-5161133,-51132810,85703130
2026-01-14 16:41:58.931,-13576760,31850880,-55587980,24402610,-45825200,-5125,8625
2026-01-14 16:41:58.941,-19311480,31842250,-55579350,20394230,-4267578,-50742190,86171870
2026-01-14 16:41:58.951,-20174640,31842250,-55579350,21257400,-39868160,-51210940,865625
2026-01-14 16:41:58.961,-21900980,31850880,-55570720,22983730,-43652340,-51171880,8671875
2026-01-14 16:41:58.971,-23627310,-11422900,-12296940,24710070,-4165039,-51445310,8734375
2026-01-14 16:41:58.981,2911464,-11422900,-12296940,7917835,-46826170,-51679690,87109380
2026-01-14 16:41:58.991,-21343540,-11422900,-12296940,32172840,-49731440,-5125,87421870
2026-01-14 16:41:59.001,5138436,-11414270,-12288310,5690863,-5185547,-50546880,875
2026-01-14 16:41:59.011,-23933040,-11414270,-12288310,34762340,-515625,-50664060,875
2026-01-14 16:41:59.021,2393563,-11405640,-12279680,8435735,-5439453,-50898440,86875
2026-01-14 16:41:59.031,-25659380,42527400,-44894200,36488680,-5546875,-50859380,86875
2026-01-14 16:41:59.041,-26522550,31885400,-55536190,37351840,-5800781,-50742190,86953130
2026-01-14 16:41:59.051,2134611,31894040,-55527560,8694687,-6147461,-51015620,8640625
2026-01-14 16:41:59.061,2048294,31902670,-55518930,8781004,-6352539,-51132810,86640620
2026-01-14 16:41:59.071,2048294,31911300,-55510300,8781004,-6303711,-51210940,865625
2026-01-14 16:41:59.081,19628420,31928560,-55493040,88681820,-60058590,-5171875,86953130
2026-01-14 16:41:59.091,50788770,31928560,-55493040,57521480,-59521480,-51640620,865625
2026-01-14 16:41:59.101,50875080,31928560,-55493040,57435160,-6098633,-51640620,86015620
2026-01-14 16:41:59.111,22217930,31928560,-55493040,86092320,-6254883,-50976560,86015620
2026-01-14 16:41:59.121,51134040,-11353850,-12227890,57176210,-6386719,-50742190,85859380
2026-01-14 16:41:59.131,25670600,-11362480,-12236520,82639650,-60791020,-50546880,86015620
2026-01-14 16:41:59.141,-21341810,-7447410,-16186120,32174560,-5810547,-5015625,86171870
2026-01-14 16:41:59.151,2913189,-7456041,-16194750,7919561,-58251950,-49414060,85703130
2026-01-14 16:41:59.161,-18752310,42501500,-44868310,29585070,-6171875,-48984380,85625
2026-01-14 16:41:59.171,-17889150,31842250,-55527560,28721900,-6201172,-48984380,85703130
2026-01-14 16:41:59.181,-17889150,31842250,-55527560,28721900,-55322260,-49375,8578125
2026-01-14 16:41:59.191,-17889150,31842250,-55527560,28721900,-52783200,-49335940,8546875
2026-01-14 16:41:59.201,30849600,-7473307,-16212010,77460640,-5551758,-49101560,85859380
2026-01-14 16:41:59.211,29986440,3185948,-5552758,78323810,-51904300,-49570310,85703130
2026-01-14 16:41:59.221,51651940,-11388370,-12262420,56658310,-51171880,-49960940,853125
2026-01-14 16:41:59.231,-21343540,31894040,-55527560,32172840,-4880371,-50273440,85625
2026-01-14 16:41:59.241,-23069880,31902670,-55518930,33899180,-4711914,-50585940,85625
2026-01-14 16:41:59.251,-2479710,31919930,-55518930,3562466,-4272461,-50820310,8578125
2026-01-14 16:41:59.261,-30532650,-7409431,-16155040,31615410,-44580080,-51015620,85546870
2026-01-14 16:41:59.271,2132885,42567960,-44922680,8692961,-45361330,-50664060,8578125
2026-01-14 16:41:59.281,50581610,-7389580,-16140370,57659590,-47705080,-50664060,85703130
2026-01-14 16:41:59.291,17004400,3201484,-5551031,91236800,-4765625,-50742190,86171870
2026-01-14 16:41:59.301,-34294510,-7361094,-16117060,45116900,-4519043,-50703120,86171870
2026-01-14 16:41:59.311,-36884870,-7342968,-16100660,47705540,-4855957,-50820310,859375
2026-01-14 16:41:59.321,49692550,32092560,-55518930,58496860,-5307617,-5015625,85703130
2026-01-14 16:41:59.331,747502,5,-7323112,-16085990,10069710,-5463867,-50078120,859375
2026-01-14 16:41:59.341,487689,5,-730499,1,-1606959,10327800,-5390625,-49960940,85859380
2026-01-14 16:41:59.351,3141932,-7294632,-16062680,104995700,-5600586,-49804690,8578125
2026-01-14 16:41:59.361,552432,-7276506,-16046280,107585200,-5996094,-49570310,859375
2026-01-14 16:41:59.371,54004940,32213410,-55501670,54115420,-61328120,-49726560,8578125
2026-01-14 16:41:59.381,-378068,-7239385,-16014350,11188380,-6113281,-49882810,86171870
2026-01-14 16:41:59.391,-550703,5,32273830,-55493030,11361010,-61572260,-50390620,85703130
2026-01-14 16:41:59.401,-724199,5,42731970,-45052160,11532780,-63427740,-50351560,85625
2026-01-14 16:41:59.411,47733160,-7192776,-15974640,60335410,-62353520,-50351560,85703130
2026-01-14 16:41:59.421,-1071193,32351520,-55484400,11876320,-6801758,-5046875,85234380
2026-01-14 16:41:59.431,-1157508,-7165153,-15950470,11962640,-6777344,-503125,85625
2026-01-14 16:41:59.441,-6192537,-7155659,-15942700,7272876,-61816410,-50742190,85859380
2026-01-14 16:41:59.451,47275680,32403300,-55484410,60741090,-6010742,-5109375,85703130
2026-01-14 16:41:59.461,47189360,32411940,-55493040,60827410,-6020508,-50585940,85546870
2026-01-14 16:41:59.471,-1419048,-7135805,-15928030,12219000,-58251950,-50078120,85625
2026-01-14 16:41:59.481,-1506228,-7134942,-15928890,12304450,-57910160,-503125,8578125
2026-01-14 16:41:59.491,47077150,32455090,-55501670,60887830,-5727539,-50234380,85625
2026-01-14 16:41:59.501,46990840,-7124587,-15921990,60974150,-5390625,-50195310,8578125
2026-01-14 16:41:59.511,46895890,3248097,-5551032,61051830,-515625,-50546880,8578125
2026-01-14 16:41:59.521,-1681453,42852810,-45155740,12474500,-47265620,-50039060,85546870
2026-01-14 16:41:59.531,-1768631,-7103868,-15908180,12559950,-5175781,-49960940,8546875
2026-01-14 16:41:59.541,-1854950,32532780,-55527560,12646270,-5019531,-50195310,85625
2026-01-14 16:41:59.551,46697360,32541410,-55536190,61198570,-4958496,-50234380,859375
2026-01-14 16:41:59.561,-1942991,-7084016,-15893500,12730860,-4724121,-50625,859375
2026-01-14 16:41:59.571,-2030171,-7074520,-15885730,12816310,-4638672,-5046875,85703130
2026-01-14 16:41:59.581,-2030173,32593200,-55536200,12816310,-4892578,-50429690,859375
2026-01-14 16:41:59.591,46412520,-11022130,-11903600,61431630,-50390620,-50195310,85859380
2026-01-14 16:41:59.601,-70567390,3262769,-5553616,81350080,-5444336,-50546880,85703130
2026-01-14 16:41:59.611,-70567390,32644990,-55536190,81350080,-55371100,-50429690,8609375
2026-01-14 16:41:59.621,-2291711,-7027046,-15846890,13072670,-5292969,-50195310,8625
2026-01-14 16:41:59.631,46127670,-7026185,-15847760,61664680,-53808590,-50117190,85703130
2026-01-14 16:41:59.641,46119040,42982280,-45267960,61656050,-56347660,-50273440,85625
2026-01-14 16:41:59.651,-2466933,-6997698,-15824450,13242710,-56884770,-5046875,853125
2026-01-14 16:41:59.661,-2553252,32748570,-55553460,13329030,-53271480,-5046875,8546875
2026-01-14 16:41:59.671,-2640430,-6977846,-15809770,13414480,-52685550,-50664060,8546875
2026-01-14 16:41:59.681,45747870,-6968352,-15802010,61975420,-5371094,-50703120,8546875
2026-01-14 16:41:59.691,4565292,-6957993,-15795100,6205311,-5644531,-51171880,85859380
2026-01-14 16:41:59.701,4555798,-1136350,-1137234,6213079,-55908200,-51132810,86015620
2026-01-14 16:41:59.711,4555797,-6939003,-15779560,6213079,-55371100,-51484380,85859380
2026-01-14 16:41:59.721,52998480,-6939005,-15779570,54673030,-55566410,-50820310,85546870
2026-01-14 16:41:59.731,52998480,32860780,-55562090,54673030,-5839844,-5109375,85390620
2026-01-14 16:41:59.741,52989850,-6937279,-15781290,54664400,-61083980,-50898440,853125
2026-01-14 16:41:59.751,4544576,-6937277,-15781290,6219121,-61621100,-5078125,853125
2026-01-14 16:41:59.761,4544576,-6936413,-15782150,6219121,-64160160,-50703120,85
2026-01-14 16:41:59.771,4543711,43100540,-45374120,6218260,-65771480,-503125,853125
2026-01-14 16:41:59.781,52963950,-6951953,-15801150,54638500,-6748047,-5015625,85390620
2026-01-14 16:41:59.791,-3079783,-6951088,-15802010,13838300,-6459961,-50351560,85625
2026-01-14 16:41:59.801,-3080647,32878050,-55648410,13837440,-63671880,-50117190,85625
2026-01-14 16:41:59.811,45229980,32878050,-55665670,62320700,-6328125,-50039060,8578125
2026-01-14 16:41:59.821,-3169552,-6974393,-15830490,13921160,-6582031,-49804690,86640620
2026-01-14 16:41:59.831,45117760,32886680,-55708830,62381110,-6582031,-49570310,8625
2026-01-14 16:41:59.841,45022810,3287802,-5573474,62458800,-70214850,-4953125,875
2026-01-14 16:41:59.851,-3431956,32886680,-55760620,14176660,-7211914,-49296880,890625
2026-01-14 16:41:59.861,-3519998,-7011509,-15879690,14261250,-66259770,-49648440,909375
2026-01-14 16:41:59.871,-3695221,-7000288,-15873650,14431300,-39111330,-49335940,9125
2026-01-14 16:41:59.881,44332280,-6979574,-15859840,62976700,-10687260,-48828120,90703130
2026-01-14 16:41:59.891,43874800,33067940,-55821040,63382390,27514650,-50,921875
2026-01-14 16:41:59.901,-49977390,33180150,-55812410,157182800,5800781,-51875,946875
2026-01-14 16:41:59.911,4244194,3332690,-5576926,6471166,8095703,-52773440,95
2026-01-14 16:41:59.921,-6556622,-6640348,-15560320,17266800,86621100,-53867190,93125
2026-01-14 16:41:59.931,-7248882,-6514326,-15444650,17955610,6220703,-54453120,9296875
2026-01-14 16:41:59.941,-12671210,-6389166,-15328130,13741710,29760740,-56757810,95234380
2026-01-14 16:41:59.951,-828555,1,-6265733,-15209870,1899055,25585940,-58671880,97421870
2026-01-14 16:41:59.961,3983516,43639160,-45767730,6728392,5961914,-58632810,9875
2026-01-14 16:41:59.971,-8017963,-6090511,-15022570,18740230,66015620,-59492190,96328130
2026-01-14 16:41:59.981,41086770,43532980,-45632220,66291260,72998050,-56523440,93203130
2026-01-14 16:41:59.991,-6188050,33991530,-54949240,16944840,6870117,-54882810,921875
2026-01-14 16:42:00.001,43624480,-6070659,-14938840,64167870,65283200,-52695310,915625
2026-01-14 16:42:00.011,-35761030,-6146621,-14983720,143777800,58203120,-5265625,89296870
2026-01-14 16:42:00.021,-2355585,-6249333,-15053640,13181430,42651370,-52148440,871875
2026-01-14 16:42:00.031,-1135066,-6378808,-15148590,11985080,29711910,-5140625,86015620
2026-01-14 16:42:00.041,-48942460,-6517779,-15251300,59816640,1529541,-51132810,8375
2026-01-14 16:42:00.051,-37709200,32472360,-54500390,48607550,-6414795,-50664060,8234375
2026-01-14 16:42:00.061,20085900,32152980,-54457240,89139300,-29858400,-49492190,8046875
2026-01-14 16:42:00.071,-21285710,31842240,-54422700,32230670,-46850580,-47929690,79765620
2026-01-14 16:42:00.081,-15233180,41817010,-44102680,26198860,-5756836,-46679690,79492190
2026-01-14 16:42:00.091,-11771010,-7295492,-15854660,22755680,-69189460,-45546880,78671870
2026-01-14 16:42:00.101,3861809,30927290,-54353660,7141849,-81591800,-44453120,7734375
2026-01-14 16:42:00.131,-20371620,-7903163,-16351840,31418430,-13320310,-41679690,7484375
2026-01-14 16:42:00.141,2249414,-8043857,-16470100,8809486,-14570310,-40820310,74296870
2026-01-14 16:42:00.151,1390560,29649800,-54405450,9676972,-15869140,-40351560,74023440
2026-01-14 16:42:00.161,-46251970,29442640,-54439960,57328130,-17099610,-39863280,7375
2026-01-14 16:42:00.171,-56606520,-12183610,-13020880,67689590,-17832030,-39179690,74101560
2026-01-14 16:42:00.181,-1792802,29097370,-54491760,12881050,-18251950,-38789060,746875
2026-01-14 16:42:00.191,46913150,28959270,-54526290,64003860,-18701170,-38085940,75
2026-01-14 16:42:00.201,-4120763,40423000,-42993510,15214190,-18867190,-37617190,75585940
2026-01-14 16:42:00.211,-5156563,-8735254,-17073450,16249990,-18320310,-37421880,7609375
2026-01-14 16:42:00.221,43633110,-8761152,-17099350,67283900,-16914060,-3734375,77070310
2026-01-14 16:42:00.231,-7317072,40414360,-43002140,18405320,-16337890,-37851560,78242190
2026-01-14 16:42:00.241,4152698,-8740434,-17085540,6932098,-15488280,-38828120,79570310
2026-01-14 16:42:00.251,40473920,28907480,-54629870,70339520,-14345700,-39394530,80546870
2026-01-14 16:42:00.261,-10429650,-8602327,-16964690,21507540,-134375,-403125,81171870
2026-01-14 16:42:00.271,38367790,-12261300,-13098570,72376590,-12714840,-41914060,81328130
2026-01-14 16:42:00.281,-12418390,2936495,-5448312,23489370,-12060550,-43359380,8140625
2026-01-14 16:42:00.291,-13369600,-8223398,-16618560,24437130,-1109375,-44960940,81875
2026-01-14 16:42:00.301,35640180,-8079250,-16486500,75000620,-10400390,-47109380,821875
2026-01-14 16:42:00.311,-14754120,-7935099,-16354430,25814750,-10068360,-49023440,821875
2026-01-14 16:42:00.321,-15272890,40947800,-43349140,26331790,-9980469,-503125,82265620
2026-01-14 16:42:00.331,-15533560,-7666655,-16104980,26589010,-10068360,-51210940,82890620
2026-01-14 16:42:00.341,-15533560,30452550,-54017020,26589010,-10136720,-5171875,83203130
2026-01-14 16:42:00.351,-15448110,3058201,-5395659,26501830,-98828130,-52148440,83125
2026-01-14 16:42:00.361,34543960,30668340,-53922070,75976000,-9921875,-52734380,82890620
2026-01-14 16:42:00.371,34975540,-7352463,-15814960,75544420,-97509770,-52851560,8296875
2026-01-14 16:42:00.381,35579760,30763280,-53878910,74940200,-9711914,-53398440,82578130
2026-01-14 16:42:00.391,-13464550,-7324840,-15790780,24514820,-9458008,-528125,83359380
2026-01-14 16:42:00.401,-12601380,-7349872,-15817540,23651650,-9428711,-52890620,82578130
2026-01-14 16:42:00.411,-17121790,-7384399,-15852070,17232270,-9506836,-52460940,82578130
2026-01-14 16:42:00.421,39084220,30676970,-54017020,71366680,-95410160,-51484380,825
2026-01-14 16:42:00.431,-9497432,-11315520,-12162630,20540790,-9272461,-50585940,82734380
2026-01-14 16:42:00.441,4120761,-7571705,-16044560,6917424,-90234380,-49492190,8265625
2026-01-14 16:42:00.451,42312470,30504330,-54258710,68034860,-86621100,-48710940,83046870
2026-01-14 16:42:00.461,43227420,-7697731,-16177490,67050840,-7758789,-4796875,83125
2026-01-14 16:42:00.471,5499410,30435290,-54431340,5521511,-7285156,-47070310,834375
2026-01-14 16:42:00.481,-98073080,30426650,-54509020,109087100,-6801758,-46640620,83828130
2026-01-14 16:42:00.491,45186820,3044389,-5457810,64867030,-6586914,-46835940,83671870
2026-01-14 16:42:00.501,-3996467,-7827202,-16341490,14993220,-6323242,-46796880,8421875
2026-01-14 16:42:00.511,45696080,-7829795,-16356160,64167870,-62060550,-46992190,84609380
2026-01-14 16:42:00.521,45644290,30616550,-54785240,64116080,-62890620,-47382810,8484375
2026-01-14 16:42:00.531,45497550,30702870,-54854300,64141970,-6430664,-47773440,85390620
2026-01-14 16:42:00.541,45264500,-7763331,-16336310,64254180,-63623050,-48320310,85546870
2026-01-14 16:42:00.551,-4283901,-7737433,-16327680,15223680,-6015625,-490625,85859380
2026-01-14 16:42:00.561,-9466443,3103087,-5504419,10559040,-59277340,-496875,86015620
2026-01-14 16:42:00.571,-49019270,31143070,-55121870,158140900,-5493164,-50234380,85859380
2026-01-14 16:42:00.581,-5167785,31246660,-55190920,16066140,-5698242,-50703120,8609375
2026-01-14 16:42:00.591,-5433641,-7623495,-16286240,16318180,-59375,-5109375,8609375
2026-01-14 16:42:00.601,5425178,31462450,-55337660,5447279,-5551758,-51171880,86484380
2026-01-14 16:42:00.611,53171110,42294340,-44678410,55415350,-5180664,-5140625,865625
2026-01-14 16:42:00.621,-5884215,31660980,-55484410,16730780,-52246100,-51601560,86953130
2026-01-14 16:42:00.631,-5891120,-7546673,-16276750,16723870,-54003900,-51914060,87578130
2026-01-14 16:42:00.641,-5897162,-7520778,-16268120,16717830,-6069336,-53398440,87578130
2026-01-14 16:42:00.651,52912160,-7487116,-16249990,55156400,-30517580,-525,89453130
2026-01-14 16:42:00.661,53971440,32066670,-55717460,53993540,-2915039,-52226560,88515620
2026-01-14 16:42:00.671,-5309343,3218751,-5573472,16097210,-18713380,-51210940,8921875
2026-01-14 16:42:00.681,-4794033,-7320524,-16123100,15576720,-117248500,-49726560,89296870
2026-01-14 16:42:00.691,44565340,3236876,-5574338,63209750,-569458,-478125,90
2026-01-14 16:42:00.701,45773770,32411940,-55717460,62001320,13342290,-4578125,9265625
2026-01-14 16:42:00.711,-996095,5,-7239386,-16048870,11778780,53759770,-44414060,95234380
2026-01-14 16:42:00.721,-35172350,32325620,-55631140,45965400,10507810,-41054690,99453130
2026-01-14 16:42:00.731,41112660,32178880,-55536200,67007690,18476560,-36230470,10546880
2026-01-14 16:42:00.741,24409510,-7336922,-16072180,-13569860,26992190,-35292970,11328130
2026-01-14 16:42:00.751,60076450,-7395621,-16082540,48682640,34121100,-34121100,120859400
2026-01-14 16:42:00.761,64797980,3135022,-5489748,44427230,3953125,-35136720,126328100
2026-01-14 16:42:00.771,20940440,-7516461,-16065270,-9960952,4625,-35839840,130703100
2026-01-14 16:42:00.781,76545690,30504340,-54086070,33905220,55234380,-35820310,1384375
2026-01-14 16:42:00.791,3335537,-7563073,-15915080,-2223261,6359375,-37539060,146015600
2026-01-14 16:42:00.801,91003740,-7546673,-15776120,21087180,6921875,-37128900,14828130
2026-01-14 16:42:00.811,48034400,-7487112,-15576720,-36728640,68359380,-34394530,15203130
2026-01-14 16:42:00.821,10711040,28311890,-51030460,698303,8,65820310,-34199220,156875
2026-01-14 16:42:00.831,11543140,-7270459,-15033790,-23305,83,6421875,-34199220,1615625
2026-01-14 16:42:00.841,7133301,36785610,-38965970,-5969579,62617190,-41445310,1653125
2026-01-14 16:42:00.851,131822900,-6913108,-14286290,-14225000,58398440,-43476560,1653125
2026-01-14 16:42:00.861,13979000,-6675737,-13833120,-2093181,49648440,-44414060,1640625
2026-01-14 16:42:00.871,93359330,33653180,-35624650,-81345760,40,-46210940,15984380
2026-01-14 16:42:00.881,15471410,24013320,-42882160,-3328372,31699220,-45898440,15875
2026-01-14 16:42:00.891,61548330,-580741,7,-1221557,61349460,21972660,-46953120,156015600
2026-01-14 16:42:00.901,72592380,22114350,-39222330,51651940,14267580,-46601560,149140600
2026-01-14 16:42:00.911,17214150,21182130,-37340620,-4658514,4350586,-43359380,141015600
2026-01-14 16:42:00.921,74767560,-48156110,-103761400,52083520,-29467770,-453125,13171880
2026-01-14 16:42:00.931,75734310,-4469484,-9738259,52342480,-10263670,-45625,13140630
2026-01-14 16:42:00.941,18452790,18247360,-31453820,-5525997,-16474610,-43359380,12484380
2026-01-14 16:42:00.951,1875834,17271980,-29442640,-572106,6,-23710940,-4109375,116953100
2026-01-14 16:42:00.961,78168440,16279340,-27414200,53274690,-3421875,-39570310,11796880
2026-01-14 16:42:00.971,78815820,-2999509,-7065029,53611330,-30585940,-39453120,1115625
2026-01-14 16:42:00.981,79394140,14345840,-23322790,53965220,-39628900,-35625,1090625
2026-01-14 16:42:00.991,19485140,-22028030,-56692840,-6064615,-48710940,-30625,103671900
2026-01-14 16:42:01.001,8030045,-18031560,-49640760,5471618,-51328120,-30742190,96328130
2026-01-14 16:42:01.011,80645730,-13940160,-42511000,55095980,-59804690,-27519530,9046875
2026-01-14 16:42:01.021,19578360,10487480,-14993220,-5936866,-65195310,-27910160,83359380
2026-01-14 16:42:01.031,12826120,-5662380,-28001150,-12689120,-67460940,-27832030,75625
2026-01-14 16:42:01.041,81552060,8450407,-10694650,55933250,-69570310,-29160160,68085940
2026-01-14 16:42:01.051,8187143,7920425,-8030911,5599368,-70859380,-30058590,5953125
2026-01-14 16:42:01.061,20060010,6371902,-6368450,-6249332,-69765620,-30175780,52929690
2026-01-14 16:42:01.071,82579230,10815490,1268852,55665670,-6953125,-30644530,46914060
2026-01-14 16:42:01.081,20733280,44021540,-19852850,-6905337,-67539060,-29003910,43554690
2026-01-14 16:42:01.091,83295660,19939160,16659130,54897450,-65859380,-2546875,38164060
2026-01-14 16:42:01.101,21472150,13681210,-8761151,-7668379,-64257810,-23886720,29902340
2026-01-14 16:42:01.111,21823460,29520330,32282460,-8042130,-609375,-24960940,24335940
2026-01-14 16:42:01.121,84029350,8717988,65514400,53473220,-57265620,-25761720,20292970
2026-01-14 16:42:01.131,70131500,517896,85798840,67008560,-50273440,-265625,17060550
2026-01-14 16:42:01.141,22795390,-699165,10504750,-9124542,-4546875,-27910160,11669920
2026-01-14 16:42:01.151,84426410,-1406966,12351920,51798680,-34707030,-27714840,8984375
2026-01-14 16:42:01.161,23477290,-2037075,14121420,-9910024,-24941410,-26171880,54003900
2026-01-14 16:42:01.171,23845000,-2580871,15821860,-10336430,-14853520,-23828120,48779300
2026-01-14 16:42:01.181,8472852,6172510,8225122,4971845,-6357422,-20097660,45825200
2026-01-14 16:42:01.191,84814830,-3435409,19041470,48958860,12219240,-16220700,359375
2026-01-14 16:42:01.201,25037900,83950970,84194040,-11733030,984375,-12304690,16418460
2026-01-14 16:42:01.211,68025360,-3953309,22045290,64246420,19248050,-81933590,-4128418
2026-01-14 16:42:01.221,8522053,-12796460,14738590,4620535,27636720,-40039060,-9868164
2026-01-14 16:42:01.231,26806530,-4005095,24859220,-13762340,3609375,6845703,-17958980
2026-01-14 16:42:01.241,85911060,-3780675,26205760,43391420,42226560,24316410,-32304690
2026-01-14 16:42:01.251,28849650,-3366353,27517780,-16052330,46601560,49570310,-44882810
2026-01-14 16:42:01.261,30170290,-2762135,28778000,-17528340,48632810,8171875,-528125
2026-01-14 16:42:01.291,89139300,397054,31868140,31669620,26738280,226875,-66796880
2026-01-14 16:42:01.301,89752150,2080234,32498250,29140530,2614746,2790625,-61289060
2026-01-14 16:42:01.391,56359660,4410784,3067695,51294590,-58625,-290,20625
2026-01-14 16:42:01.401,74284190,50564340,31056760,30418020,-5134375,-4746875,6703125
2026-01-14 16:42:01.411,68552760,56692830,31833610,32196150,-376875,-716875,132421900
2026-01-14 16:42:01.421,71901850,9608864,-8759340,31868140,154875,2659375,70125
2026-01-14 16:42:01.471,24711520,13695020,-5450041,-24609870,340625,27148440,19953120
2026-01-14 16:42:01.481,28828930,13412760,-5214396,-18524440,21660160,-68476560,1634375
2026-01-14 16:42:01.491,74456820,49260960,32118460,31004970,4046875,-55820310,25878910
2026-01-14 16:42:01.501,7344693,48035270,32705410,3455262,9140625,-10875,25976560
2026-01-14 16:42:01.511,22836820,74081350,-66097050,-11810720,7640625,-133828100,31640620
2026-01-14 16:42:01.521,71668790,10623860,-2772497,40698340,4328125,-13171880,53320310
2026-01-14 16:42:01.531,71125000,45014180,31773190,43227420,33129880,-121015600,85078130
2026-01-14 16:42:01.541,18567600,4410786,3067697,-6947635,-209375,-116796900,1265625
2026-01-14 16:42:01.551,17757080,10541860,-3286079,-5962761,-59882810,-1153125,139921900
2026-01-14 16:42:01.561,17158040,42165730,27992520,-5197992,-9484375,-106328100,12546880
2026-01-14 16:42:01.571,16771340,40965920,26706400,-4652471,-110859400,-921875,109140600
2026-01-14 16:42:01.581,16510670,102924100,-37772200,-4239874,-105390600,-775,94375
2026-01-14 16:42:01.591,16340620,9967858,-3704716,-3926549,-928125,-6625,8234375
2026-01-14 16:42:01.601,16209420,36632830,23512680,-3660691,-83203130,-58554690,78710940
2026-01-14 16:42:01.611,16083400,35079120,22563200,-3406920,-74140620,-52617190,72109380
2026-01-14 16:42:01.621,73576390,87110860,-32006250,54431340,-68203130,-49492190,6765625
2026-01-14 16:42:01.631,74016610,83123020,-30642450,55165040,-64335940,-52109380,58828120
2026-01-14 16:42:01.641,15828770,30392120,19412640,-2798388,-56054690,-49414060,55117190
2026-01-14 16:42:01.651,15830490,7695138,-2990876,-2693082,-53007810,-49179690,49296880
2026-01-14 16:42:01.661,75440840,27353770,16857660,56934530,-51523440,-453125,44765620
2026-01-14 16:42:01.671,75906940,25869130,15442060,57400640,-52890620,-4234375,39570310
2026-01-14 16:42:01.681,76295380,7140982,-3303345,57892640,-55976560,-38398440,35410160
2026-01-14 16:42:01.691,1582359,22994780,12446880,-232018,5,-60390620,-32695310,34140620
2026-01-14 16:42:01.701,76735580,55228040,-51977360,59075180,-6140625,-25175780,32246090
2026-01-14 16:42:01.711,15295330,20267170,9287682,-1640018,-58671880,-21972660,30703120
2026-01-14 16:42:01.721,8670515,69942460,-43305120,-7298078,-53398440,-2125,32441410
2026-01-14 16:42:01.731,14316500,17746720,5955855,-529984,3,-48671880,-22207030,36933590
2026-01-14 16:42:01.741,137226400,72273020,-51505210,1191179,-41210940,-24472660,41640620
2026-01-14 16:42:01.751,75587580,15416170,2347812,63313340,-3984375,-26875,4140625
2026-01-14 16:42:01.761,7506967,14389000,422952,6419377,-3625,-25742190,40976560
2026-01-14 16:42:01.771,74499980,60222330,58722140,65039670,-38144530,-24394530,415625
2026-01-14 16:42:01.781,47210080,8529822,-7628676,-33237130,-37890620,-21386720,4109375
2026-01-14 16:42:01.791,7023073,118167600,-56364840,6956790,-37246100,-18916020,39355470
2026-01-14 16:42:01.801,96208650,26343870,7492287,43555430,-3765625,-1703125,396875
2026-01-14 16:42:01.811,89760780,42122570,21751820,49882440,-35976560,-16396480,39492190
2026-01-14 16:42:01.821,21039710,897695,-21095810,-7099552,-36328120,-16230470,41679690
2026-01-14 16:42:01.831,78341070,-11523290,-35260390,60732460,-37089840,-15029300,43359380
2026-01-14 16:42:01.841,47500970,915822,1,-1642610,-33636780,-37910160,-1328125,4890625
2026-01-14 16:42:01.851,6906202,8864729,-18653050,6906204,-38476560,-9448242,54453120
2026-01-14 16:42:01.861,3595956,-4654199,-7602779,10156030,-36796880,-6567383,57695310
2026-01-14 16:42:01.871,-55306600,-57530110,-89035730,68989520,-37480470,-5961914,6171875
2026-01-14 16:42:01.881,59308240,8295035,-25264910,76744220,-36171880,-28173830,67070310
2026-01-14 16:42:01.891,56822320,-7824616,-11389500,78401500,-31542970,-12475590,71640620
2026-01-14 16:42:01.901,-6058573,-8790499,-12564270,19491180,-26347660,-7879639,75429690
2026-01-14 16:42:01.911,51919520,8225981,-31617830,81439840,-19775390,10449220,78125
2026-01-14 16:42:01.921,-10213860,8312300,-33637640,23449670,-15283200,29541020,8015625
2026-01-14 16:42:01.931,4630892,8467674,-35588390,8497884,-11796880,54345700,83828130
2026-01-14 16:42:01.941,4274404,8700728,-37461470,8745613,-54589840,7705078,88515620
2026-01-14 16:42:01.951,38462740,9002832,-39248230,90598060,105285600,99072260,93046870
2026-01-14 16:42:01.961,-2416008,9408526,-40931400,3695220,7006836,90185540,92265620
2026-01-14 16:42:01.971,59791610,9909158,-42519630,66955900,11259770,92822260,928125
2026-01-14 16:42:01.981,62368160,-14012660,-19460980,63205440,14433590,8432617,92421870
2026-01-14 16:42:01.991,-42029350,11221180,-45264500,54472770,15703130,5234375,88359380
2026-01-14 16:42:02.001,668953,12084340,-46611040,11648450,15419920,-11853030,83046870
2026-01-14 16:42:02.011,5481113,-14363110,-20439810,6713716,12539060,45214840,928125
2026-01-14 16:42:02.021,-6206435,13905630,-48812120,7414351,13447270,-26611330,89296870
2026-01-14 16:42:02.031,52402900,1485508,-4974436,67249380,15253910,-5473633,91328130
2026-01-14 16:42:02.041,-7365496,15821860,-50572980,8551314,17529300,-8540039,94609380
2026-01-14 16:42:02.051,-25385750,1677128,-5131530,142931900,19267580,-11152340,9625
2026-01-14 16:42:02.061,-2932183,17686300,-51988580,14590120,20214840,-13388670,9734375
2026-01-14 16:42:02.071,56939700,-13455060,-20571010,58742000,20644530,-15625,96953130
2026-01-14 16:42:02.081,48285580,19395370,-53145220,66584740,21640620,-16962890,98046870
2026-01-14 16:42:02.091,47871270,35234490,-38583590,66239470,21777340,-18544920,97734380
2026-01-14 16:42:02.101,47577790,20880020,-54111970,65842410,20195310,-19638670,97890620
2026-01-14 16:42:02.111,-3380166,36399770,-39697070,14660040,19824220,-20058590,100
2026-01-14 16:42:02.121,-3243785,22235190,-54897450,14468410,20917970,-18691410,101328100
2026-01-14 16:42:02.131,-81073860,22882560,-55182290,92250150,23398440,-15966800,101796900
2026-01-14 16:42:02.141,-78938380,23521300,-55423980,90069790,26289060,-13154300,103203100
2026-01-14 16:42:02.151,-2696536,-11738220,-19715610,13789960,2796875,-11455080,10390630
2026-01-14 16:42:02.161,54480540,-15073930,-15879260,56091210,28554690,-1125,103671900
2026-01-14 16:42:02.171,-78342290,-11146950,-19271070,79444720,28320310,-11835940,103671900
2026-01-14 16:42:02.181,-2245101,39457110,-42440220,13240130,26777340,-13378910,1028125
2026-01-14 16:42:02.191,-21277080,2666319,-5585556,130985700,24492190,-16162110,10171880
2026-01-14 16:42:02.201,-6944789,27267460,-55803780,8039802,22597660,-19277340,100
2026-01-14 16:42:02.211,-68075420,-9762428,-18117880,79008300,20507810,-21660160,9875
2026-01-14 16:42:02.221,-1738422,28398210,-55605250,12659220,19726560,-23671880,9796875
2026-01-14 16:42:02.231,-64720290,-9064986,-17503300,75630730,19375,-26132810,96796870
2026-01-14 16:42:02.241,-13491300,-8736986,-17209830,122543900,18876950,-28242190,94453130
2026-01-14 16:42:02.251,-6014983,-8428830,-16931030,7105162,178125,-30351560,92265620
2026-01-14 16:42:02.261,-5738769,-8131900,-16658270,6828949,165625,-31425780,90078130
2026-01-14 16:42:02.271,4852727,-7853098,-16401910,6050803,14853520,-32617190,88125
2026-01-14 16:42:02.281,-2183816,30961810,-54716180,111236400,13505860,-33046880,86328130
2026-01-14 16:42:02.291,-48062030,31289820,-54560810,58970740,12675780,-33300780,853125
2026-01-14 16:42:02.301,49528550,31617820,-54405440,59593080,12519530,-32851560,85546870
2026-01-14 16:42:02.311,736281,5,-6852687,-15468820,10179330,12265630,-32011720,8609375
2026-01-14 16:42:02.321,1022851,32239300,-54077440,9896216,12832030,-3171875,87109380
2026-01-14 16:42:02.331,1282667,3256731,-5390481,9638128,12939450,-30585940,8828125
2026-01-14 16:42:02.341,14915530,32921200,-53689020,94326940,12050780,-30058590,884375
2026-01-14 16:42:02.351,-37519380,-5734887,-14411440,38611980,10917970,-29296880,884375
2026-01-14 16:42:02.361,-31479720,-9284662,-10153870,42407420,9453125,-29003910,88671870
2026-01-14 16:42:02.371,-31046410,34224580,-52851740,41977560,88134770,-27265620,89296870
2026-01-14 16:42:02.381,17556820,4360630,-4360812,91789220,1125,-25234380,9390625
2026-01-14 16:42:02.391,1559742,35389860,-51928150,9380042,13564450,-28867190,975
2026-01-14 16:42:02.401,-36648360,-3269681,-12008380,47596780,13466800,-34414060,99765620
2026-01-14 16:42:02.411,9132304,36753660,-50667930,100455400,11513670,-41015620,10125
2026-01-14 16:42:02.421,49925600,-5838209,-6712252,59782980,7363281,-4734375,100546900
2026-01-14 16:42:02.431,49683920,-1249869,-9988576,60128250,18261720,-49414060,97734380
2026-01-14 16:42:02.441,49200,-638743,5,-9373998,10942370,-46240230,-478125,97890620
2026-01-14 16:42:02.451,49399070,-71645,-8801721,60602980,-99902340,-4625,9640625
2026-01-14 16:42:02.461,-199392,5,451436,-8271734,11211680,-13085940,-4546875,9578125
2026-01-14 16:42:02.471,-270175,9468948,-77659170,11296270,-13613280,-44960940,96015620
2026-01-14 16:42:02.481,49364550,-24998190,-33697200,61034570,-12519530,-45390620,9515625
2026-01-14 16:42:02.491,49407700,1863576,-6818162,61164040,-11914060,-4640625,93984380
2026-01-14 16:42:02.501,-53761530,23020670,-63589540,64837680,-11591800,-47734380,934375
2026-01-14 16:42:02.511,49502650,27310620,-59075180,61466160,-12021480,-49414060,9234375
2026-01-14 16:42:02.521,-483374,5,-7347281,-15958240,11600970,-13173830,-50976560,9125
2026-01-14 16:42:02.531,-558469,5,-3131572,-11714910,11698510,-14335940,-5234375,89921870
2026-01-14 16:42:02.541,-6508284,909773,3,-7642485,118133100,-15771480,-53359380,88203130
2026-01-14 16:42:02.551,49571700,430286,3,-421659,4,62277530,-16943360,-546875,86640620
2026-01-14 16:42:02.561,-59307370,82139010,-2727605,70513010,-17783200,-5609375,84921870
2026-01-14 16:42:02.571,-1040980,11562130,3111719,12269060,-18457030,-57070310,8359375
2026-01-14 16:42:02.581,-1211020,107788000,99372140,12461550,-19140620,-58007810,82890620
2026-01-14 16:42:02.591,-64712520,17309960,8930333,75983770,-20019530,-5921875,81953130
2026-01-14 16:42:02.601,-1595998,57331580,-26084920,12887960,-21230470,-60117190,81640620
2026-01-14 16:42:02.631,-22295610,25434090,17206380,135836700,-25859380,-60390620,86640620
2026-01-14 16:42:02.641,-75536650,43192900,-38704420,86911460,-27910160,-603125,8984375
2026-01-14 16:42:02.651,-2630933,27293350,19145050,14028200,-30234380,-59335940,92734380
2026-01-14 16:42:02.661,4858771,27531590,19424720,6562663,-3234375,-590625,95859380
2026-01-14 16:42:02.711,48725800,22589950,14698880,66852320,-30703120,-56796880,9015625
2026-01-14 16:42:02.721,48872540,5590733,-2258911,66999060,-290625,-56367190,89375
2026-01-14 16:42:02.731,49053800,53559540,-24557120,67094000,-28261720,-5515625,89296870
2026-01-14 16:42:02.741,-3138478,51228990,-26542400,14780880,-27558590,-53242190,90
2026-01-14 16:42:02.751,49450860,48898430,-28527690,67232120,-27285160,-51015620,90859380
2026-01-14 16:42:02.761,49632130,11883220,4171686,67275270,-26757810,-4890625,91796870
2026-01-14 16:42:02.771,-2921822,9882403,2201940,14635010,-26464840,-47382810,91484380
2026-01-14 16:42:02.781,4991698,81405320,4911424,6742205,-25957030,-46992190,90859380
2026-01-14 16:42:02.791,57897820,38376420,-37824000,59648330,-24707030,-47421880,90234380
2026-01-14 16:42:02.801,50072340,52627320,-23279630,67646430,-22792970,-49335940,890625
2026-01-14 16:42:02.811,50124130,37811040,-37802420,67784540,-20546880,-51015620,8703125
2026-01-14 16:42:02.821,50141400,3762544,-3769455,67922650,-19189450,-52929690,846875
2026-01-14 16:42:02.831,-3030581,-5743516,-13246170,14854250,-17207030,-55195310,81875
2026-01-14 16:42:02.841,-3083235,2357310,-5119446,14922440,-15292970,-575,79179690
2026-01-14 16:42:02.851,50227720,19990960,-54517660,68302440,-13222660,-59765620,77070310
2026-01-14 16:42:02.861,-3128983,-16139510,-23566200,14997530,-11132810,-61484380,75273440
2026-01-14 16:42:02.871,5033129,-17877060,-25281310,6847507,-89404300,-62265620,7421875
2026-01-14 16:42:02.881,-3116899,-19612890,-26998150,15009620,-76660160,-63007810,73671870
2026-01-14 16:42:02.891,-3093593,-20484690,-27852690,14998400,-6772461,-63554690,73554690
2026-01-14 16:42:02.901,-3062522,10875910,-62665960,14977680,-6381836,-63710940,73398440
2026-01-14 16:42:02.911,-3033174,9952322,-63468700,14955240,-58740230,-63515620,7375
2026-01-14 16:42:02.921,58746310,-25681820,-33013570,60543420,-5913086,-6328125,74140620
2026-01-14 16:42:02.931,5068516,4686996,-68561390,6865634,-5991211,-6296875,74414060
2026-01-14 16:42:02.941,58778250,34524,-7285136,60580550,-54785160,-6265625,76132820
2026-01-14 16:42:02.951,50633400,-5705540,-78884880,68725390,-4885254,-62304690,78476560
2026-01-14 16:42:02.961,-3147974,31583300,-41596040,15082130,-44799800,-6203125,80
2026-01-14 16:42:02.971,50452140,-2382345,-9702004,68837600,-45117190,-6171875,815625
2026-01-14 16:42:02.981,-3335282,29373580,-43874800,15257350,-44604490,-61210940,82265620
2026-01-14 16:42:02.991,-3460440,-5051256,-12384730,15373880,-40063480,-60859380,82109380
2026-01-14 16:42:03.001,-3603726,-6599778,-13943610,15506800,-3623047,-60429690,82265620
2026-01-14 16:42:03.011,49752970,-8320073,-15675990,69139710,-24890140,-6015625,81953130
2026-01-14 16:42:03.021,-3893750,35467550,-38229680,15769210,-13806150,-59882810,81953130
2026-01-14 16:42:03.031,49321390,-11930710,-19315970,69277820,-41625980,-59960940,8140625
2026-01-14 16:42:03.041,-4202764,-13735580,-21136380,16047140,4449463,-59570310,8109375
2026-01-14 16:42:03.051,-4358134,35174070,-39006540,16185250,8508301,-5953125,80234380
2026-01-14 16:42:03.061,4864810,16374290,-57978960,6946773,10040280,-59335940,80078130
2026-01-14 16:42:03.071,-4642116,35010070,-39498540,16436440,125,-59179690,79882820
2026-01-14 16:42:03.081,57827040,-20262000,-27730120,59960790,12194820,-59101560,79765620
2026-01-14 16:42:03.091,-4899339,-21721610,-29205270,16662580,13354490,-5890625,79765620
2026-01-14 16:42:03.101,-5019322,10392530,-64599450,16767030,13830570,-5890625,79726560
2026-01-14 16:42:03.111,-5121174,-28705910,-28781040,16855070,10369870,-59023440,80
2026-01-14 16:42:03.121,47534630,34569850,-40698350,69666250,13769530,-5921875,79960940
2026-01-14 16:42:03.131,47422420,498907,5,-7041722,69657620,12005620,-5890625,803125
2026-01-14 16:42:03.141,47327470,-31268250,-38820960,69631720,8093262,-58515620,8078125
2026-01-14 16:42:03.151,-5318840,-33938020,-41502820,17002670,5218506,-575,80703130
2026-01-14 16:42:03.161,-5317113,-36865880,-44444490,16987130,35461420,-56132810,8140625
2026-01-14 16:42:03.171,-5297261,33577210,-42347000,16955200,93307500,-5421875,81484380
2026-01-14 16:42:03.181,47128940,37565910,-38513670,69312340,28060910,-52617190,81640620
2026-01-14 16:42:03.191,-5242882,-47287760,-54911260,16871470,5419922,-50820310,809375
2026-01-14 16:42:03.201,-10433360,-1677998,-9318756,11594670,1508789,-49453120,809375
2026-01-14 16:42:03.211,-5173826,-2066424,-9724445,16767890,25878910,-48085940,80546870
2026-01-14 16:42:03.221,-5158289,-2462618,-10139630,16731640,34765620,-46523440,796875
2026-01-14 16:42:03.231,46826840,-2857951,-10555680,68699500,43408200,-44960940,79335940
2026-01-14 16:42:03.241,46705980,37891320,-39310380,68578660,4658203,-43867190,78359380
2026-01-14 16:42:03.251,4655060,31238030,-46188090,6847508,5126953,-4265625,77773440
2026-01-14 16:42:03.261,46369350,30996340,-46654200,68380130,58203120,-42226560,77148440
2026-01-14 16:42:03.271,46170820,-42709520,-120601800,68302430,67333980,-4140625,76679690
2026-01-14 16:42:03.281,-5433641,30590660,-47543260,16853350,75439460,-40664060,76679690
2026-01-14 16:42:03.291,-5543263,-4842370,-12679930,16933620,8100586,-40117190,76757810
2026-01-14 16:42:03.301,-5661516,-5088372,-12951830,17022520,8588867,-39882810,76523440
2026-01-14 16:42:03.311,45212710,30184970,-48691280,68103910,8901367,-40117190,76640620
2026-01-14 16:42:03.321,-5905794,30090020,-49027910,17209830,89697260,-39765620,7671875
2026-01-14 16:42:03.331,-6014552,29995070,-49347280,17290970,86328130,-40195310,76914060
2026-01-14 16:42:03.341,4450491,-5896297,-13852980,6800033,8154297,-40078120,76640620
2026-01-14 16:42:03.351,-6204448,-6075836,-14053230,17429080,7739258,-40234380,76445310
2026-01-14 16:42:03.361,-6257966,-6256238,-14252620,17461880,7788086,-403125,76601560
2026-01-14 16:42:03.371,-6285587,-6437504,-14451150,17468780,76171870,-40078120,76484380
2026-01-14 16:42:03.381,-6285585,-10224130,-11027050,17451520,75390620,-396875,76484380
2026-01-14 16:42:03.391,54568580,2939083,-5102185,56935390,76904300,-390625,76328130
2026-01-14 16:42:03.401,54514200,-10594090,-11399420,56868920,74853520,-38105470,76054690
2026-01-14 16:42:03.411,54471040,29131900,-51487940,56808500,74902340,-37128900,75859380
2026-01-14 16:42:03.421,-6024909,2898516,-5172099,17142500,72802740,-36503900,753125
2026-01-14 16:42:03.431,54408040,-11153940,-11961690,56698880,6503906,-3578125,7578125
2026-01-14 16:42:03.441,-5754738,2866579,-5216121,16860250,51953120,-34355470,77070310
2026-01-14 16:42:03.451,4436680,-7910930,-15998810,6663652,3466797,-32011720,79960940
2026-01-14 16:42:03.461,-5397388,28286000,-52627320,16492540,20178220,-29101560,83828130
2026-01-14 16:42:03.471,-5192817,-8356324,-16451110,16282790,10083010,-25976560,87890620
2026-01-14 16:42:03.481,-4988247,27828520,-53136590,16073040,7598877,-23457030,90234380
2026-01-14 16:42:03.491,45083240,-8871638,-16971600,65712940,7952881,-21210940,90859380
2026-01-14 16:42:03.501,-9554056,-12801380,-13611550,10661330,7873535,-19667970,90234380
2026-01-14 16:42:03.511,45428500,39167950,-41866210,65212300,10858150,-18359380,89453130
2026-01-14 16:42:03.521,-4157016,-9722718,-17829590,15212460,14428710,-17539060,88046870
2026-01-14 16:42:03.531,4575650,-9997206,-18107530,6471166,23339840,-17441410,86484380
2026-01-14 16:42:03.541,-3752192,26283450,-54871560,14788650,32739260,-18378910,83984380
2026-01-14 16:42:03.551,46075870,-10431380,-18553780,64202390,46850580,-19921880,81875
2026-01-14 16:42:03.561,-3337006,-10582430,-18713470,14357930,5493164,-21738280,79882820
2026-01-14 16:42:03.571,-3133300,25981340,-55449880,14147320,60839840,-2359375,78632820
2026-01-14 16:42:03.581,-29192320,26024500,-55527560,139298000,62402340,-25683590,778125
2026-01-14 16:42:03.591,46844100,-10606600,-18775620,63261540,6689453,-27519530,77304690
2026-01-14 16:42:03.601,47059890,-10459870,-18646150,63045750,70214850,-28671880,76953130
2026-01-14 16:42:03.611,-2270131,-10243210,-18448480,13284150,68652340,-29941410,76601560
2026-01-14 16:42:03.621,-70103860,27034400,-55208180,81123060,65771480,-31054690,77070310
2026-01-14 16:42:03.631,-72990650,-9661435,-17908130,74093080,60253900,-32695310,77695310
2026-01-14 16:42:03.641,-1649515,-9314441,-17581860,12679070,5683594,-34140620,78867180
2026-01-14 16:42:03.651,48199270,40140740,-42757860,62148060,5415039,-35585940,80625
2026-01-14 16:42:03.661,48389170,28864320,-54258710,62009950,45629880,-36835940,825
2026-01-14 16:42:03.671,48561800,2936493,-5396525,61889100,38989260,-38085940,8390625
2026-01-14 16:42:03.681,-1009044,-7699455,-16054920,12059310,32373050,-38984380,85234380
2026-01-14 16:42:03.691,-902874,5,40735460,-43026310,11958320,24401860,-40117190,87109380
2026-01-14 16:42:03.701,-813967,-6825065,-15220230,11874590,15856930,-41328120,88515620
2026-01-14 16:42:03.711,-759590,31471080,-52653210,11825400,7897949,-4265625,8984375
2026-01-14 16:42:03.721,-56957830,-5954996,-14381230,68028820,-459671,-44023440,90234380
2026-01-14 16:42:03.731,-56781750,32455090,-51945410,67859640,-13085940,-45625,9078125
2026-01-14 16:42:03.741,-56778290,-5106502,-13555180,67863090,-23876950,-47578120,9109375
2026-01-14 16:42:03.751,-56773980,3335276,-5120307,67867410,-3544922,-49257810,9203125
2026-01-14 16:42:03.761,-6715448,33749840,-50823300,117753300,-5371094,-50820310,93984380
2026-01-14 16:42:03.771,-6568708,-77427850,-85883430,117727400,-7192383,-51914060,959375
2026-01-14 16:42:03.781,-56410580,-3603726,-12054130,67540260,-88720700,-52539060,98203130
2026-01-14 16:42:03.791,-5597037,-3297301,-11739080,6711731,-10712890,-53085940,10046880
2026-01-14 16:42:03.801,-520492,34906490,-49390440,11684700,-12138670,-53554690,10234380
2026-01-14 16:42:03.811,-433313,-65882120,-74296280,11616510,-13359380,-53984380,10296880
2026-01-14 16:42:03.821,-53783960,-2612811,-11007970,64987880,-14472660,-54765620,10265630
2026-01-14 16:42:03.831,50305400,-2467799,-10842250,61958160,-15439450,-55273440,10171880
2026-01-14 16:42:03.841,-725060,-2358179,-10710180,113213000,-16054690,-55859380,100078100
2026-01-14 16:42:03.871,490277,35044600,-47681370,10831030,-17314450,-58125,946875
2026-01-14 16:42:03.881,51781410,34941020,-47491480,61690580,-17451170,-58320310,9328125
2026-01-14 16:42:03.891,956386,5,-58385510,-66601130,10416700,-17480470,-58671880,921875
2026-01-14 16:42:03.901,1202390,-58227550,-66413830,10196590,-17763670,-58710940,9125
2026-01-14 16:42:03.911,14561630,-21372030,-102924100,99669940,-17685550,-58476560,903125
2026-01-14 16:42:03.921,16926710,-21432450,-102691000,97546540,-17900390,-5828125,8984375
2026-01-14 16:42:03.991,2782850,33482260,-45687450,8825026,-22675780,-59414060,8875
2026-01-14 16:42:04.001,-24050440,-2151015,-10036910,35680750,-23457030,-60078120,88515620
2026-01-14 16:42:04.011,28562210,33162890,-45368080,87948130,-24257810,-6109375,88125
2026-01-14 16:42:04.021,28760740,-2217481,-10039500,87974020,-24882810,-61875,88359380
2026-01-14 16:42:04.031,-23759550,-22856670,-100748900,35453740,-25800780,-62773440,88203130
2026-01-14 16:42:04.041,29054210,32515510,-45031450,88094860,-26679690,-6328125,8859375
2026-01-14 16:42:04.051,-28760910,32230670,-44971020,29934470,-27480470,-63320310,88828130
2026-01-14 16:42:04.061,-23124260,-26740930,-103597400,34880590,-28378910,-63359380,89140620
2026-01-14 16:42:04.071,-22596860,-2874349,-10522010,34372190,-29394530,-62578120,89453130
2026-01-14 16:42:04.081,56200830,31143080,-44953760,61759630,-30234380,-61953120,90
2026-01-14 16:42:04.091,-20936130,-3353408,-10923380,32752890,-30859380,-6078125,9046875
2026-01-14 16:42:04.101,-19889110,30236750,-45048710,31728310,-31386720,-59804690,9078125
2026-01-14 16:42:04.111,56839580,-3940362,-11424020,61759630,-32089840,-58710940,9078125
2026-01-14 16:42:04.121,36192610,-7620995,-8364871,82631020,-32480470,-57929690,90625
2026-01-14 16:42:04.131,-15799420,-7942782,-8681824,27704220,-32949220,-56875,9078125
2026-01-14 16:42:04.141,-14234500,28052940,-45350820,26161740,-3328125,-56015620,903125
2026-01-14 16:42:04.151,-12583260,27440090,-45445770,24532950,-33691410,-55390620,896875
2026-01-14 16:42:04.161,-10845700,-5747833,-12982900,22817830,-34082030,-54609380,8875
2026-01-14 16:42:04.171,44858810,-6145757,-13327310,75069670,-3390625,-53945310,87734380
2026-01-14 16:42:04.181,-7285135,-6562663,-13687250,19300420,-34179690,-53164060,8671875
2026-01-14 16:42:04.191,-5462126,24833330,-45860090,17498130,-340625,-52539060,85703130
2026-01-14 16:42:04.201,-9064727,24134160,-45972300,10270230,-33945310,-51757810,84375
2026-01-14 16:42:04.211,52515110,23426360,-46093140,68224750,-33691410,-51679690,83125
2026-01-14 16:42:04.221,54422700,22709930,-46222620,66507050,-33554690,-51054690,81953130
2026-01-14 16:42:04.231,18255990,-8771512,-15604340,102846400,-33476560,-50390620,80625
2026-01-14 16:42:04.241,3559701,21225290,-46498830,8566075,-33339840,-49882810,79570310
2026-01-14 16:42:04.251,6069965,-9739118,-16449380,6071347,-33457030,-48984380,78710940
2026-01-14 16:42:04.261,10102510,19671590,-46809570,-8887172,-3375,-48203120,78242190
2026-01-14 16:42:04.271,32840930,18860210,-46982200,-20675450,-34394530,-47070310,78085940
2026-01-14 16:42:04.281,10490070,18031570,-47172100,1685767,-35585940,-45820310,78046870
2026-01-14 16:42:04.291,123070400,-11886680,-18341450,-1225700,-371875,-43515620,790625
2026-01-14 16:42:04.301,69070660,16262070,-47612320,52843110,-38886720,-41679690,79726560
2026-01-14 16:42:04.311,16110160,15321220,-47862640,-3915326,-4046875,-39628900,80078130
2026-01-14 16:42:04.321,73067120,14345840,-48147480,48898430,-41523440,-37460940,7984375
2026-01-14 16:42:04.331,20339680,13310040,-48458220,-8144848,-42929690,-3546875,80
2026-01-14 16:42:04.341,7768505,12239720,-48803490,4419418,-43164060,-33847660,78515620
2026-01-14 16:42:04.351,2551004,-16009170,-22039250,-1333249,-421875,-32324220,76640620
2026-01-14 16:42:04.361,63054380,27799170,-31759380,58565910,-40664060,-31855470,73710940
2026-01-14 16:42:04.371,31793910,27346870,-31469360,-19650870,-38144530,-30878910,70976560
2026-01-14 16:42:04.381,35492580,7595874,-50478030,-23375440,-35039060,-30859380,6828125
2026-01-14 16:42:04.391,63770810,6387438,-50961410,57089900,-31503910,-30195310,65703120
2026-01-14 16:42:04.401,43659000,5196270,-51462040,-31609190,-27636720,-29179690,64492190
2026-01-14 16:42:04.411,48040440,-21178670,-26778910,-36032060,-23613280,-28378910,63867190
2026-01-14 16:42:04.421,64461340,2891610,-52506480,55173660,-19667970,-265625,64101560
2026-01-14 16:42:04.431,11023510,1821280,-53041640,889926,2,-15957030,-246875,65507810
2026-01-14 16:42:04.441,64754820,811374,-53585440,53844380,-11689450,-22597660,66875
2026-01-14 16:42:04.451,11694190,-103578,-54137860,110485,7,-75927740,-20371090,68476560
2026-01-14 16:42:04.461,11924660,24099640,-29658430,-176948,3,-38989260,-18232420,70
2026-01-14 16:42:04.471,68080600,-1614122,-55216830,-56388140,20874020,-16914060,70976560
2026-01-14 16:42:04.481,64495870,23888160,-29680010,51893630,3305664,-16064450,72109380
2026-01-14 16:42:04.491,64211020,-2624030,-56261260,51660570,5161133,-16259770,721875
2026-01-14 16:42:04.501,63848490,-296068,5,-5675329,51556990,5756836,-17519530,72109380
2026-01-14 16:42:04.511,65220930,-3176454,-57210740,-53723540,56933590,-18662110,72578130
2026-01-14 16:42:04.521,114093500,-3305930,-57650960,500637,2,48535160,-20996090,721875
2026-01-14 16:42:04.531,110804800,24274860,-30415440,3426777,37451170,-22832030,725
2026-01-14 16:42:04.541,5601869,-28130630,-33637640,-4462663,25878910,-25234380,72226560
2026-01-14 16:42:04.551,61526570,24622710,-30827160,52118050,13293460,-27148440,72617180
2026-01-14 16:42:04.561,10071440,24783260,-31011880,1267131,17299650,-29707030,7359375
2026-01-14 16:42:04.571,9801264,-3193718,-59299600,1514859,-8581543,-31992190,74570310
2026-01-14 16:42:04.581,95923800,-28532860,-34167620,17030300,-107543900,-34335940,75976560
2026-01-14 16:42:04.591,9462042,-320235,3,-5972256,1814378,-17626950,-3609375,76875
2026-01-14 16:42:04.601,43435440,-3288668,-59895190,-32178020,-15466310,-38085940,77890620
2026-01-14 16:42:04.611,9453408,-3426776,-60033300,1788483,-16247560,-39257810,78515620
2026-01-14 16:42:04.621,95751160,-29059390,-34711420,16512390,-11730960,-4078125,78945310
2026-01-14 16:42:04.631,9766738,24958490,-31371820,1445807,-16967770,-41640620,79140620
2026-01-14 16:42:04.641,60447620,-4238154,-60274980,51574260,115356400,-43007810,79179690
2026-01-14 16:42:04.651,60715190,-4617950,-60292250,51203090,2980957,-43867190,78984380
2026-01-14 16:42:04.661,56690240,-5032266,-60292250,-45508780,43725580,-44648440,78515620
2026-01-14 16:42:04.671,61371200,-30130590,-35608250,50374450,60058590,-4515625,78515620
2026-01-14 16:42:04.681,61725100,-32805280,-33347870,49951500,7182617,-46132810,78632820
2026-01-14 16:42:04.691,11855600,-6421966,-60128240,-694850,3,8486328,-46953120,78945310
2026-01-14 16:42:04.701,12240580,-30815940,-36131330,-1086729,9316406,-4765625,79726560
2026-01-14 16:42:04.711,75836170,22933500,-29667930,-64687500,98046870,-48359380,80390620
2026-01-14 16:42:04.721,12950960,-3126824,-3647315,-1809200,10214840,-496875,80859380
2026-01-14 16:42:04.731,63373750,-31484900,-36636280,47957580,10332030,-50351560,8109375
2026-01-14 16:42:04.741,13572440,25164090,-25849100,-2447942,10292970,-51367190,815625
2026-01-14 16:42:04.751,13860740,-9175472,-59722560,-2746600,10136720,-5203125,81875
2026-01-14 16:42:04.761,14122280,-9589790,-59688020,-3020224,10644530,-534375,8234375
2026-01-14 16:42:04.771,64254180,-32351520,-37323360,46611040,10771480,-54257810,82578130
2026-01-14 16:42:04.781,14598750,-32558680,-37496000,-3527767,11259770,-55273440,83359380
2026-01-14 16:42:04.791,64547660,-32763250,-37671220,45972300,11669920,-55585940,84453130
2026-01-14 16:42:04.801,64651240,20871390,-27949370,45678820,12128910,-55429690,859375
2026-01-14 16:42:04.811,15165850,-3531943,-3580558,-4151836,12333980,-55234380,871875
2026-01-14 16:42:04.821,15312590,-33295820,-38139920,-4315839,12412110,-55078120,8828125
2026-01-14 16:42:04.831,55005520,20565820,-27737020,54806650,12333980,-5453125,89453130
2026-01-14 16:42:04.841,15521470,-11903080,-60067820,-4555798,11923830,-54492190,896875
2026-01-14 16:42:04.851,15602610,2040442,-2762223,-4647294,10683590,-53984380,89296870
2026-01-14 16:42:04.861,15657850,-12231080,-60136880,-4712895,92529300,-53632810,88828130
2026-01-14 16:42:04.871,15707060,-12395080,-60145510,-4767274,75097660,-53046880,88125
2026-01-14 16:42:04.881,64961980,20136830,-27406430,44384070,49536130,-52734380,86953130
2026-01-14 16:42:04.891,55707960,20008220,-27293360,53638090,30444340,-5265625,86171870
2026-01-14 16:42:04.901,65108720,-1299932,-5999017,44237330,13415530,-5296875,85625
2026-01-14 16:42:04.911,16007440,22939710,-23671330,-5071108,-21560670,-53164060,85078130
2026-01-14 16:42:04.921,16155040,19405730,-26739200,-5216983,-14916990,-53476560,84375
2026-01-14 16:42:04.931,6557481,-13957420,-59584450,4382301,-14465330,-53359380,8390625
2026-01-14 16:42:04.941,16570220,18832590,-26207490,-5630440,-11468510,-52460940,83125
2026-01-14 16:42:04.951,16819680,-14794690,-59196020,-5881624,-2935791,-5109375,82265620
2026-01-14 16:42:04.961,17095030,-1526080,-5898887,-6158700,56671140,-49882810,815625
2026-01-14 16:42:04.971,6658471,-15735540,-58790330,4274405,11517330,-48984380,8109375
2026-01-14 16:42:04.981,17686300,-16218910,-58583180,-6758602,17895510,-48164060,80859380
2026-01-14 16:42:04.991,17984960,-1668502,-5837602,-7064162,23034670,-475,809375
2026-01-14 16:42:05.001,18274980,-1713387,-5818613,-7361092,26904300,-46835940,80390620
2026-01-14 16:42:05.011,67629170,-17565460,-57996220,41440670,32763670,-46367190,80625
2026-01-14 16:42:05.021,67862220,16141230,-23719840,41138560,40893560,-4578125,80703130
2026-01-14 16:42:05.031,68069380,-18316420,-57659590,40879610,43969730,-453125,809375
2026-01-14 16:42:05.041,68250650,-1861854,-5751288,40646550,43408200,-44804690,8078125
2026-01-14 16:42:05.051,6840599,-18894730,-57374740,4043939,42285160,-44609380,8078125
2026-01-14 16:42:05.061,19579220,-19119160,-57253900,-8698138,4013672,-446875,80859380
2026-01-14 16:42:05.071,19699210,15097660,-22743600,-8819844,3305664,-4453125,80859380
2026-01-14 16:42:05.081,5583310,-19455790,-57038100,5296050,25073240,-44375,809375
2026-01-14 16:42:05.091,19898600,14861160,-22514000,-9017509,15222170,-44648440,80859380
2026-01-14 16:42:05.101,55867650,14766200,-22419050,52960500,2243042,-44414060,8078125
2026-01-14 16:42:05.111,20055690,14689380,-22340500,-9171153,-713501,-44453120,81328130
2026-01-14 16:42:05.121,69131070,-19818330,-56675580,39748860,-15808110,-44570310,81015620
2026-01-14 16:42:05.131,20223150,14527970,-22173910,-9331703,-23034670,-446875,80859380
2026-01-14 16:42:05.141,69338240,14452870,-22093640,39610760,-26416020,-44414060,8109375
2026-01-14 16:42:05.151,20407860,-19990960,-56382100,-9509515,-3010254,-44179690,8171875
2026-01-14 16:42:05.161,2051317,14294050,-21924450,-961136,4,-32373050,-44453120,8234375
2026-01-14 16:42:05.171,69700770,-2009456,-5614044,39369070,-31884770,-44375,82890620
2026-01-14 16:42:05.181,69838880,-2014634,-5601960,39282750,-3479004,-44296880,834375
2026-01-14 16:42:05.191,20849810,-2018085,-5588147,-9930741,-35839840,-4421875,83828130
2026-01-14 16:42:05.201,16040150,-2020674,-5573473,-14947560,-41455080,-440625,8375
2026-01-14 16:42:05.251,7084877,13628550,-21139830,3898065,-70166020,-4609375,84140620
2026-01-14 16:42:05.261,71004150,-20111810,-54759340,38980640,-78808590,-46445310,83828130
2026-01-14 16:42:05.271,21579180,-20051380,-54578080,-10565170,-8256836,-46640620,8375
2026-01-14 16:42:05.281,21648240,1349218,-2093096,-10616960,-90722660,-4703125,83671870
2026-01-14 16:42:05.291,21709520,-19887380,-54224180,-10659260,-9897461,-46992190,83828130
2026-01-14 16:42:05.301,71573850,13424840,-20808380,39118750,-11298830,-46875,8421875
2026-01-14 16:42:05.311,21814830,-19688850,-53853020,-10726580,-12470700,-46054690,8515625
2026-01-14 16:42:05.321,21858850,-34920300,-38328080,-10751620,-13701170,-45546880,85703130
2026-01-14 16:42:05.331,57265120,13355790,-20653010,53997170,-15107420,-44804690,86328130
2026-01-14 16:42:05.341,72100380,16606480,-17333270,39351800,-15800780,-44570310,8640625
2026-01-14 16:42:05.351,57452420,-19274530,-53145220,54172390,-16503910,-446875,86015620
2026-01-14 16:42:05.361,57541330,13292780,-20508860,54256120,-16972660,-4515625,853125
2026-01-14 16:42:05.371,17011740,13278970,-20470880,-15892210,-17070310,-45625,8453125
2026-01-14 16:42:05.381,22083270,-18998320,-52679110,-10872460,-17167970,-4578125,834375
2026-01-14 16:42:05.391,22116080,13240990,-20388020,-10891450,-17519530,-45976560,8234375
2026-01-14 16:42:05.401,72721860,-18851580,-52411530,39662550,-17451170,-4625,81171870
2026-01-14 16:42:05.411,22173050,13200420,-20307740,-10920800,-17333980,-46875,79882820
2026-01-14 16:42:05.421,22195490,13184020,-20272350,-10932880,-16787110,-47265620,78632820
2026-01-14 16:42:05.431,22227420,16710920,-16710930,-10952730,-16699220,-478125,775
2026-01-14 16:42:05.441,73023960,-18584000,-51971310,39809280,-16728520,-47851560,76289060
2026-01-14 16:42:05.451,73084380,-18532210,-51902260,39817920,-16523440,-47890620,75117180
2026-01-14 16:42:05.461,22299070,-18471780,-51841840,-11001930,-16601560,-48046880,74140620
2026-01-14 16:42:05.471,73179340,-18420000,-51807310,39826540,-16474610,-4765625,73085940
2026-01-14 16:42:05.481,73213860,-18376840,-51781420,39809280,-16279300,-47304690,72734380
2026-01-14 16:42:05.491,73248390,-1834232,-5178145,39774760,-16347660,-47070310,72265620
2026-01-14 16:42:05.501,22412140,13230630,-20243000,-11113280,-16054690,-465625,7171875
2026-01-14 16:42:05.511,17361920,-18299150,-51841840,-16232560,-15390630,-46015620,7140625
2026-01-14 16:42:05.521,73257020,13304860,-20324140,39593490,-14667970,-45742190,71210940
2026-01-14 16:42:05.531,22512270,-18273260,-52005840,-11237580,-14042970,-45195310,70976560
2026-01-14 16:42:05.541,22540750,-18255990,-52126680,-11278150,-13642580,-4484375,70976560
2026-01-14 16:42:05.551,22567510,-18247360,-52256160,-11320440,-1296875,-44375,70507810
2026-01-14 16:42:05.561,57855520,13557770,-20623660,54459820,-12333980,-43867190,70195310
2026-01-14 16:42:05.571,22619300,13644950,-20726380,-11406760,-12167970,-43398440,70234380
2026-01-14 16:42:05.581,22652970,13739900,-20838590,-11459410,-11679690,-43085940,703125
2026-01-14 16:42:05.591,72954910,13842620,-20960300,38773480,-109375,-42734380,7046875
2026-01-14 16:42:05.601,57464510,13954820,-21089770,54039460,-10097660,-42734380,70507810
2026-01-14 16:42:05.611,22724610,14083440,-21237370,-11594930,-94433590,-421875,7078125
2026-01-14 16:42:05.621,22755680,14212920,-21384110,-11650170,-9038086,-41210940,71445310
2026-01-14 16:42:05.631,22778990,14359650,-21548110,-11695920,-8964844,-39375,73125
2026-01-14 16:42:05.641,22792800,-1791072,-5414651,-11733900,-89404300,-375,753125
2026-01-14 16:42:05.651,72454270,14697150,-21918410,37893050,-9321289,-35058590,78320310
2026-01-14 16:42:05.661,72342060,14878420,-22116940,37763580,-9213867,-32929690,815625
2026-01-14 16:42:05.671,72212580,-17556830,-54983770,37651360,-87646480,-31523440,84140620
2026-01-14 16:42:05.681,22734970,-34461100,-38252130,-11774470,-7602539,-31582030,85546870
2026-01-14 16:42:05.691,71875950,-17237460,-55648410,37470100,-5883789,-32148440,85625
2026-01-14 16:42:05.701,7167742,15821860,-23124260,3742695,-45141600,-32617190,8546875
2026-01-14 16:42:05.711,71470260,19392090,-20123720,37409670,-3737793,-33027340,8484375
2026-01-14 16:42:05.721,71237210,-16607350,-56692850,37418310,-3774414,-33164060,8421875
2026-01-14 16:42:05.731,22194620,-16382920,-57020840,-11348060,-41088870,-32929690,8390625
2026-01-14 16:42:05.741,17174610,16902550,-24253280,-16091860,-5341797,-32753910,8375
2026-01-14 16:42:05.751,21900280,-1598586,-5762507,-11089970,-6513672,-32480470,8421875
2026-01-14 16:42:05.761,70339510,17348800,-24721980,37608200,-76464850,-31953120,83984380
2026-01-14 16:42:05.771,70149620,17515390,-24900660,37625470,-8364258,-31464840,84453130
2026-01-14 16:42:05.781,69985620,-1567514,-5835015,37616830,-9169922,-3109375,84140620
2026-01-14 16:42:05.791,21529120,17702700,-25127670,-10787870,-95703130,-30800780,83515620
2026-01-14 16:42:05.801,21543790,-15821860,-58704020,-10824980,-9892578,-30546880,825
2026-01-14 16:42:05.811,21608530,17681990,-25165650,-10915620,-94140620,-30546880,815625
2026-01-14 16:42:05.821,6971801,-16253440,-58962970,3691767,-8027344,-30546880,8046875
2026-01-14 16:42:05.831,17121610,-35690240,-39940480,-16058540,-6269531,-30742190,79492190
2026-01-14 16:42:05.841,22129020,-35929350,-40150240,-11534510,-375,-30839840,7890625
2026-01-14 16:42:05.851,69882030,-17341040,-59221920,35683340,-140625,-3125,78125
2026-01-14 16:42:05.861,22659010,16897370,-24603730,-12143900,10241700,-31738280,77734380
2026-01-14 16:42:05.871,22948170,16682440,-24438860,-12476220,34838870,-3265625,77460940
2026-01-14 16:42:05.881,23253730,19980340,-20761160,-12826670,5805664,-33183590,77148440
2026-01-14 16:42:05.891,70270460,19796660,-20582320,33551320,8198242,-34082030,775
2026-01-14 16:42:05.901,70348140,16065270,-23968430,33024790,10517580,-34726560,778125
2026-01-14 16:42:05.911,24093590,-19861480,-59601710,-13799460,12626950,-35214840,79023440
2026-01-14 16:42:05.921,70468990,-20172230,-59688040,32075300,14277340,-36035160,80078130
2026-01-14 16:42:05.931,24513090,15661310,-23681860,-14294920,15595700,-35742190,80859380
2026-01-14 16:42:05.941,24652920,-38286660,-42212340,-14465830,1671875,-35839840,81796870
2026-01-14 16:42:05.951,52771470,15574990,-23647340,48840600,1703125,-35859380,8234375
2026-01-14 16:42:05.961,24777220,-20836860,-60076460,-14635000,16357420,-36210940,825
2026-01-14 16:42:05.971,70356780,-2088004,-6018870,30910030,15009770,-36660160,8234375
2026-01-14 16:42:05.981,70287720,15629370,-23748330,30875500,13046880,-36679690,82265620
2026-01-14 16:42:05.991,7021865,-20897290,-60361300,3085823,11279300,-36464840,82265620
2026-01-14 16:42:06.001,70158250,-20897290,-60430360,30866860,9316406,-36308590,8265625
2026-01-14 16:42:06.011,24669330,-2092317,-6047352,-14570270,75146480,-35664060,8234375
2026-01-14 16:42:06.021,24666730,15693250,-23839820,-14572860,6386719,-35273440,82265620
2026-01-14 16:42:06.031,2467363,15655270,-23808750,-1458321,5029297,-34960940,82421870
2026-01-14 16:42:06.041,52394260,-38845130,-42775990,48458220,45874020,-35253900,82265620
2026-01-14 16:42:06.051,24797070,15463650,-23637840,-14718730,43066410,-35234380,81640620
2026-01-14 16:42:06.061,52334710,-2151879,-6036132,48362410,49658200,-35722660,81640620
2026-01-14 16:42:06.071,25020630,-21751820,-60266350,-14961280,60498050,-35761720,81328130
2026-01-14 16:42:06.081,25161330,-22010770,-60180040,-15114060,75634770,-3578125,81328130
2026-01-14 16:42:06.091,7046899,-2227836,-6006783,2988286,8964844,-35722660,81328130
2026-01-14 16:42:06.101,70563940,18300960,-19125980,29667070,10166020,-35996100,81015620
2026-01-14 16:42:06.111,25601540,-39476100,-43180810,-15588810,11015630,-365625,8046875
2026-01-14 16:42:06.121,25725840,14210330,-22491550,-15723460,11640630,-37011720,80234380
2026-01-14 16:42:06.131,25834600,14040280,-22333590,-15839120,121875,-37441410,796875
2026-01-14 16:42:06.141,7087467,13896990,-22200670,2901106,12519530,-37949220,78945310
2026-01-14 16:42:06.151,26001190,13762340,-22076370,-16017800,12802730,-38652340,7828125
2026-01-14 16:42:06.161,26059890,-2378026,-5942909,-16079950,12871090,-39121100,77773440
2026-01-14 16:42:06.171,7099552,-2389248,-5936866,2878664,13076170,-39765620,77539060
2026-01-14 16:42:06.181,71004140,-23961530,-59334140,28760740,13232420,-39746100,77734380
2026-01-14 16:42:06.191,71012780,13476630,-21809650,28752110,13076170,-40117190,77851560
2026-01-14 16:42:06.201,26102180,13459370,-21792390,-16123970,12890630,-39960940,77734380
2026-01-14 16:42:06.211,26077150,13459370,-21792390,-16097210,12724610,-39921880,78085940
2026-01-14 16:42:06.221,26036580,13476630,-21809650,-16051460,12724610,-4015625,7796875
2026-01-14 16:42:06.231,25977880,-41647820,-41647850,-15989320,12773440,-4015625,78203130
2026-01-14 16:42:06.241,25912290,13549140,-21875250,-15916810,12675780,-40,78671870
2026-01-14 16:42:06.251,25838050,-2384068,-5936867,-15835670,12685550,-40078120,7890625
2026-01-14 16:42:06.261,70796990,13657900,-21973660,29313170,12626950,-40,79296870
2026-01-14 16:42:06.271,52171560,13713140,-22021990,48042170,12255860,-39882810,796875
2026-01-14 16:42:06.281,25550620,-23581730,-59437710,-15518890,12050780,-40078120,796875
2026-01-14 16:42:06.291,25444450,13833120,-22126430,-15400630,11884770,-39570310,8015625
2026-01-14 16:42:06.301,70598460,-2340048,-5944637,29977800,1140625,-38359380,81015620
2026-01-14 16:42:06.311,25226070,1392031,-2219464,-15152900,10947270,-37832030,81484380
2026-01-14 16:42:06.321,25112990,-39520120,-43136790,-15024300,10478520,-36816410,81875
2026-01-14 16:42:06.331,52515960,-23176050,-59377290,48526410,9824219,-35742190,82734380
2026-01-14 16:42:06.341,52590200,13968640,-22215340,48624810,89453130,-34179690,83359380
2026-01-14 16:42:06.351,2478497,-23124250,-59256440,-1464451,81689460,-32910160,8375
2026-01-14 16:42:06.361,24698670,-2312425,-5917014,-14540920,74658200,-32148440,840625
2026-01-14 16:42:06.371,24620990,13843480,-22064290,-14445970,67578130,-30957030,83671870
2026-01-14 16:42:06.381,24570060,13752850,-21965020,-14376050,62841800,-30097660,8375
2026-01-14 16:42:06.391,70494890,-23262370,-58755810,31635090,57666020,-29785160,8390625
2026-01-14 16:42:06.401,70563940,-23340050,-58574550,31755930,54248050,-29101560,83515620
2026-01-14 16:42:06.411,5320303,-23426360,-58367380,4932397,55566410,-28730470,8234375
2026-01-14 16:42:06.421,5331526,13233220,-21397060,4943620,5878906,-29277340,81875
2026-01-14 16:42:06.431,24562290,13077850,-21224430,-14262980,5839844,-29550780,8078125
2026-01-14 16:42:06.441,53568170,-23642160,-57616430,49683920,5776367,-30214840,79414060
2026-01-14 16:42:06.451,24616670,12773150,-20873120,-14260390,5258789,-31152340,78867180
2026-01-14 16:42:06.461,53890130,-23676690,-57012220,50000700,48583980,-32324220,78554690
2026-01-14 16:42:06.471,24651200,-23650790,-56692840,-14225860,4128418,-33496090,7796875
2026-01-14 16:42:06.481,7176372,-23581740,-56347570,3292120,29492190,-34199220,78203130
2026-01-14 16:42:06.491,5450642,-38106250,-41356940,5062735,16540530,-34765620,7734375
2026-01-14 16:42:06.501,54750710,-23340050,-55605250,50883720,-28839110,-35039060,77695310
2026-01-14 16:42:06.511,24575240,-2316741,-5520820,-13956560,-25097660,-35371100,78164060
2026-01-14 16:42:06.521,24517410,-22986150,-54785240,-13841750,-39746100,-3578125,79296870
2026-01-14 16:42:06.531,24452670,-22787620,-54345020,-13716590,-6171875,-36015620,79921870
2026-01-14 16:42:06.541,24371530,11825390,-19473060,-13573310,-7919922,-36328120,80546870
2026-01-14 16:42:06.631,7472439,-21760450,-49105600,3867853,-24785160,-409375,825
2026-01-14 16:42:06.641,74905660,-21838140,-48544540,38980640,-25878910,-42695310,81328130
2026-01-14 16:42:06.651,23636110,-33664390,-36269430,-12202600,-27050780,-43007810,80234380
2026-01-14 16:42:06.661,59171850,-22062560,-47456950,55594890,-28066410,-4390625,79140620
2026-01-14 16:42:06.671,75440830,-22183410,-46939050,39722970,-28847660,-44179690,7859375
2026-01-14 16:42:06.681,23610220,-22312880,-46429780,-12055860,-28066410,-45195310,76796870
2026-01-14 16:42:06.691,23593820,8337335,-15175350,-12003210,-27519530,-453125,76875
2026-01-14 16:42:06.701,7588105,8078384,-14881870,4035309,-26894530,-4421875,76640620
2026-01-14 16:42:06.711,23548070,-22632250,-45091870,-11893590,-27402340,-42617190,76367180
2026-01-14 16:42:06.721,23501460,-22692670,-44737970,-11819350,-28554690,-40078120,76679690
2026-01-14 16:42:06.731,76114100,-22735840,-44453130,40965930,-29824220,-38769530,78554690
2026-01-14 16:42:06.741,23318470,7388714,-14086890,-11588020,-29355470,-3828125,80390620
2026-01-14 16:42:06.751,23182950,7311030,-13991950,-11430060,-30234380,-40039060,8140625
2026-01-14 16:42:06.761,60571910,-22727200,-43961120,57146860,-30136720,-42617190,81171870
2026-01-14 16:42:06.771,75872420,7296353,-13954830,42018990,-29296880,-45039060,79414060
2026-01-14 16:42:06.781,22629660,-22589090,-43909330,-10826710,-28710940,-47773440,771875
2026-01-14 16:42:06.791,22429400,-22476880,-43952490,-10612650,-28964840,-49882810,74921870
2026-01-14 16:42:06.801,22244690,-22356040,-44021540,-10417570,-27988280,-525,725
2026-01-14 16:42:06.811,16750190,-22217930,-44107860,-15566790,-26757810,-53945310,71015620
2026-01-14 16:42:06.821,21931360,11032660,-11098950,-10092150,-259375,-5625,709375
2026-01-14 16:42:06.831,21811380,11170770,-11237060,-9970446,-2453125,-57734380,70039060
2026-01-14 16:42:06.841,21715570,-21803610,-44522180,-9876364,-24140620,-57929690,7078125
2026-01-14 16:42:06.851,21651690,-32045950,-34348880,-9819395,-225,-58632810,70703130
2026-01-14 16:42:06.861,7480207,-21587820,-44945130,4340005,-21601560,-58125,721875
2026-01-14 16:42:06.871,21576590,-21518760,-45221340,-9773645,-20234380,-58164060,72304690
2026-01-14 16:42:06.881,21548110,-21466980,-45549340,-9767604,-19619140,-57617190,71171870
2026-01-14 16:42:06.891,7440502,-21397920,-45929140,4312384,-19121090,-55625,7109375
2026-01-14 16:42:06.901,21533440,9307535,-16069590,-9816801,-16044920,-58945310,6453125
2026-01-14 16:42:06.911,21524800,-21104440,-46947680,-9842699,-21757810,-52226560,76523440
2026-01-14 16:42:06.921,73904390,-21147610,-47387900,42536890,-17382810,-55117190,69570310
2026-01-14 16:42:06.931,59592220,-21208030,-47845370,56452020,-16318360,-55390620,69296870
2026-01-14 16:42:06.941,21523940,-21311610,-48311480,-9964405,-15107420,-5625,70
2026-01-14 16:42:06.951,73369220,-21423820,-48786230,41742770,-13349610,-56523440,715625
2026-01-14 16:42:06.961,73196590,-21570560,-49278230,41380240,-10078130,-56015620,73828130
2026-01-14 16:42:06.971,21730240,-21708660,-49778860,-10327800,-6748047,-55429690,75664060
2026-01-14 16:42:06.981,16725680,-2186402,-5029677,-15591310,-3864746,-54296880,77773440
2026-01-14 16:42:06.991,72721860,10774920,-18054880,40111390,-20935060,-521875,79335940
2026-01-14 16:42:07.001,22063420,10950140,-18293970,-10840520,-17541500,-48164060,79453130
2026-01-14 16:42:07.011,5748695,11144350,-18548610,5417240,-3387451,-4171875,8234375
2026-01-14 16:42:07.021,7222122,-2223520,-5235974,3890296,34594730,-36171880,859375
2026-01-14 16:42:07.031,72014060,-22269720,-52825850,38626740,6064453,-33359380,90625
2026-01-14 16:42:07.041,22212750,11708000,-19262440,-11191830,8745117,-31289060,946875
2026-01-14 16:42:07.051,71573840,-22295620,-53680390,38238320,10,-29921880,9953125
2026-01-14 16:42:07.061,71349420,-22304250,-54068810,38117470,11259770,-29140620,10203130
2026-01-14 16:42:07.071,71133620,-22312880,-54405450,38039790,12666020,-29453120,102578100
2026-01-14 16:42:07.081,21914960,-22330140,-54698920,-11023510,13544920,-30527340,103125
2026-01-14 16:42:07.091,70745200,-22373310,-54931980,37962110,14033200,-33808590,101015600
2026-01-14 16:42:07.101,21758720,12446010,-20198980,-10903530,14980470,-36582030,97265620
2026-01-14 16:42:07.111,21727650,12437380,-20207610,-10882810,14501950,-38222660,93046870
2026-01-14 16:42:07.121,21725060,12380410,-20161000,-10885400,15273440,-3796875,88359380
2026-01-14 16:42:07.131,7053804,-2277036,-5510462,3785853,16035160,-37109380,85078130
2026-01-14 16:42:07.141,21814830,12109380,-19896870,-10968270,16035160,-37324220,8328125
2026-01-14 16:42:07.151,21888200,11911710,-19697480,-11033010,15703130,-38046880,82578130
2026-01-14 16:42:07.161,21972790,11673480,-19452340,-11103790,15136720,-37675780,8171875
2026-01-14 16:42:07.171,22059110,11401580,-19171810,-11172840,14628910,-37871100,82109380
2026-01-14 16:42:07.181,71219940,14605310,-15381130,37849890,14140630,-37753900,825
2026-01-14 16:42:07.191,22219660,10801680,-18546020,-11288500,13964840,-36640620,8203125
2026-01-14 16:42:07.201,7158247,10481440,-18210240,3797074,13212890,-35683590,825
2026-01-14 16:42:07.211,71763740,10162070,-17873610,38048420,12978520,-35664060,8296875
2026-01-14 16:42:07.221,22404380,9834067,-17528340,-11397260,115625,-35410160,84375
2026-01-14 16:42:07.231,72117640,9524188,-17199480,38229690,10488280,-35078120,8375
2026-01-14 16:42:07.241,72298900,9216037,-16868880,38324630,8964844,-34277340,82421870
2026-01-14 16:42:07.251,72488800,-25394390,-50875090,38428220,72021490,-32441410,796875
2026-01-14 16:42:07.261,17620960,8666201,-16262080,-16508680,62402340,-29101560,78007810
2026-01-14 16:42:07.271,22661600,8425378,-15985000,-11502570,59521480,-27402340,77460940
2026-01-14 16:42:07.281,73058500,8213036,-15731230,38911590,5292969,-28476560,7734375
2026-01-14 16:42:07.291,73231120,-25618810,-49131490,39136010,3815918,-30976560,78515620
2026-01-14 16:42:07.301,73386500,-25575660,-48708540,39394960,17895510,-33300780,78789060
2026-01-14 16:42:07.311,22588230,-25480700,-48285580,-11265200,12275700,-35214840,79179690
2026-01-14 16:42:07.321,17400160,-25359860,-47888530,-16263370,-19995120,-37109380,78984380
2026-01-14 16:42:07.331,7379218,10797360,-11524150,4035308,-421875,-37714840,7734375
2026-01-14 16:42:07.341,22320650,7486252,-14697150,-10859510,-5185547,-37207030,75898440
2026-01-14 16:42:07.351,22188580,-3565054,-3587152,-10680830,-7597656,-36992190,74335940
2026-01-14 16:42:07.361,22040120,-24436270,-46481570,-10484030,-96972660,-36757810,72265620
2026-01-14 16:42:07.371,21873520,-24142790,-46188090,-10270830,-12070310,-37304690,71796870
2026-01-14 16:42:07.381,21680170,-23840680,-45920510,-10032600,-14550780,-38378900,71132820
2026-01-14 16:42:07.391,21478190,-23529950,-45678820,-9785732,-17470700,-40039060,71210940
2026-01-14 16:42:07.401,21274490,7675286,-14542650,-9540591,-19775390,-42578120,71835940
2026-01-14 16:42:07.411,74051140,-22934360,-45238610,43667640,-22265620,-43789060,7171875
2026-01-14 16:42:07.421,74025240,-32742540,-34981590,44056070,-24316410,-44804690,70625
2026-01-14 16:42:07.431,73990710,-22433730,-44893340,44384070,-25976560,-45273440,696875
2026-01-14 16:42:07.441,20579640,-22235190,-44763860,-8716266,-27773440,-45390620,69023440
2026-01-14 16:42:07.451,73947550,-32233260,-34489580,44893340,-29570310,-46484380,68671870
2026-01-14 16:42:07.461,73930290,7964444,-14616020,45065970,-3078125,-46445310,68007810
2026-01-14 16:42:07.471,73930290,-21889930,-44470390,45186810,-31914060,-471875,68320310
2026-01-14 16:42:07.481,73938920,-21864030,-44409970,45247240,-325,-48359380,68046870
2026-01-14 16:42:07.491,20298250,7935099,-14559050,-8376177,-31835940,-47460940,67851560
2026-01-14 16:42:07.501,20306010,-32006250,-34250480,-8385674,-31777340,-4546875,6703125
2026-01-14 16:42:07.511,73938920,-32043370,-34282420,45229980,-31171880,-41835940,67226560
2026-01-14 16:42:07.521,73904390,-22036670,-44409970,45212710,-29316410,-39609380,67226560
2026-01-14 16:42:07.531,20246450,-32190110,-34429160,-8341652,-26777340,-38007810,690625
2026-01-14 16:42:07.541,20129930,-22192030,-44651650,-8233756,-24277340,-39824220,74648440
2026-01-14 16:42:07.551,60844670,-22243830,-44841550,58048010,-22539060,-4453125,80234380
2026-01-14 16:42:07.561,19679350,8207859,-14942290,-7803897,-4885254,-61875,58320310
2026-01-14 16:42:07.571,19388470,-21950350,-45652930,-7525095,-40820310,-40117190,105625
2026-01-14 16:42:07.581,19063050,8636854,-15428260,-7211764,-23574220,-51210940,73398440
2026-01-14 16:42:07.591,18729010,-21846770,-46377980,-6889804,-24023440,-46953120,69414060
2026-01-14 16:42:07.601,18401860,-33003210,-35515020,-6578201,-24472660,-45351560,61289060
2026-01-14 16:42:07.611,18098030,-21501500,-47327470,-6295083,-28359380,-40,63476560
2026-01-14 16:42:07.621,7083152,9758107,-16672080,4699085,-30878910,-4171875,62148440
2026-01-14 16:42:07.631,17591350,13152510,-13847360,-5835012,-33867190,-42460940,60
2026-01-14 16:42:07.641,70227300,-21208030,-48674020,47042620,-353125,-41953120,58710940
2026-01-14 16:42:07.651,17429940,-21259810,-49071070,-5737475,-37578120,-425,59296880
2026-01-14 16:42:07.661,69968350,-21415190,-49433600,46541990,-38613280,-45234380,62382810
2026-01-14 16:42:07.671,17790740,-21682770,-49752970,-6188048,-3703125,-44023440,66367190
2026-01-14 16:42:07.681,18177440,-2206256,-5002919,-6629989,-31523440,-4234375,69296870
2026-01-14 16:42:07.691,18672040,10230260,-17511940,-7188458,-27773440,-41523440,81796870
2026-01-14 16:42:07.701,70589840,10025690,-17388510,43520910,-24023440,-4296875,89375
2026-01-14 16:42:07.711,70857420,9801264,-17250400,42459210,-15107420,-39921880,8828125
2026-01-14 16:42:07.721,71116370,12959080,-13712800,41371620,-36743160,-35820310,8046875
2026-01-14 16:42:07.731,21084590,9343788,-16965560,-9920382,-7434082,-20039060,8625
2026-01-14 16:42:07.741,21555880,-25523860,-51505200,-10467630,59716800,-21425780,8703125
2026-01-14 16:42:07.751,21918410,8982121,-16757540,-10899210,11425780,-24394530,89296870
2026-01-14 16:42:07.761,22172180,-2643018,-5201448,-11215130,13564450,-28027340,9171875
2026-01-14 16:42:07.771,17428640,-26775450,-52290680,-16338470,13183590,-33828120,921875
2026-01-14 16:42:07.781,22446670,8782730,-16749770,-11596650,12138670,-35410160,8953125
2026-01-14 16:42:07.791,71116360,-27310620,-52912170,36900410,92578130,-35488280,871875
2026-01-14 16:42:07.801,70952370,-39085090,-41655600,36598300,7060547,-34414060,85859380
2026-01-14 16:42:07.811,70805620,-27690410,-53516380,36330720,60791020,-34667970,83125
2026-01-14 16:42:07.821,7067613,-27845780,-53775330,3608039,4885254,-36035160,8078125
2026-01-14 16:42:07.831,70563940,12606560,-13426570,35830080,30004880,-36425780,79882820
2026-01-14 16:42:07.841,17453300,-28096100,-54215550,-17453190,46240230,-36464840,78203130
2026-01-14 16:42:07.851,22872210,8948458,-17205520,-12293230,61328120,-37695310,79179690
2026-01-14 16:42:07.861,70503520,-28320530,-54457240,35010070,83154300,-39140620,81875
2026-01-14 16:42:07.871,70572570,887593,5,-1717447,34647540,10654300,-38789060,84609380
2026-01-14 16:42:07.881,23443630,-28631260,-54543550,-12947510,12666020,-4046875,8796875
2026-01-14 16:42:07.891,70796990,8694683,-17027710,33905220,14638670,-43554690,8890625
2026-01-14 16:42:07.901,54108510,8577292,-16920670,50369270,16171880,-43515620,928125
2026-01-14 16:42:07.911,24153150,8460768,-16812780,-13722640,15429690,-47265620,95
2026-01-14 16:42:07.921,54008390,8329564,-16685030,50175920,16953120,-48632810,96953130
2026-01-14 16:42:07.931,2456574,8200092,-16555550,-1415594,16630860,-50390620,975
2026-01-14 16:42:07.941,24761680,-2951169,-5399114,-14357060,17431640,-5203125,95859380
2026-01-14 16:42:07.951,24950720,7912657,-16256030,-14547820,17880860,-515625,95625
2026-01-14 16:42:07.961,7197090,-2973612,-5357681,3207531,18271480,-51367190,9375
2026-01-14 16:42:07.971,2535120,-29865590,-53309220,-1494144,17314450,-50859380,93359380
2026-01-14 16:42:07.981,54118870,-40358260,-42661190,50048170,15820310,-5078125,93515620
2026-01-14 16:42:07.991,25773320,7132354,-15413580,-15347980,11923830,-50390620,934375
2026-01-14 16:42:08.001,7295489,-30288540,-52316580,3143654,21328120,-46445310,91796870
2026-01-14 16:42:08.011,54361420,6620492,-14855110,50168160,17822270,-56289060,91796870
2026-01-14 16:42:08.021,73541870,6333059,-14538330,31160350,14921880,-51601560,89765620
2026-01-14 16:42:08.031,26668420,-30737390,-50987300,-16179210,15019530,-53828120,9296875
2026-01-14 16:42:08.041,74215140,5746105,-13882330,30884130,17431640,-54179690,909375
2026-01-14 16:42:08.051,27172510,-30979080,-50003290,-16641870,20351560,-52539060,9171875
2026-01-14 16:42:08.061,74897040,5197993,-13256530,30616550,215625,-50976560,9109375
2026-01-14 16:42:08.071,55110650,-31134450,-49036540,50644620,21074220,-48359380,915625
2026-01-14 16:42:08.081,22459670,83021180,-90993380,-22459560,20976560,-45507810,91328130
2026-01-14 16:42:08.091,27850100,4504009,-12431340,-17207240,21523440,-428125,9046875
2026-01-14 16:42:08.101,75950100,7875107,-8663183,30892760,21035160,-41953120,91171870
2026-01-14 16:42:08.111,55907350,-31056770,-47249790,51418880,20078120,-41132810,93046870
2026-01-14 16:42:08.121,7623494,4060340,-11839210,3162646,18408200,-40546880,896875
2026-01-14 16:42:08.131,27529000,3950718,-11672610,-16682440,17587890,-38554690,88046870
2026-01-14 16:42:08.141,76433470,-30625190,-45989570,32688150,18212890,-35800780,86953130
2026-01-14 16:42:08.151,76519790,-30435290,-45540720,33292370,18261720,-34257810,8515625
2026-01-14 16:42:08.161,26847100,-30202230,-45083240,-15793380,14775390,-35644530,84765620
2026-01-14 16:42:08.171,26574330,69641220,-77097260,-15444650,12646480,-35566410,84375
2026-01-14 16:42:08.181,58106710,3552795,-10931150,53966960,11074220,-34765620,815625
2026-01-14 16:42:08.191,76813260,3489785,-10787010,36037240,93896480,-32675780,7859375
2026-01-14 16:42:08.201,76908220,34285000,-106411300,36736410,7792969,-31464840,76796870
2026-01-14 16:42:08.211,76994540,3367215,-10495260,37409680,5263672,-32402340,75546870
2026-01-14 16:42:08.221,77098110,-28389580,-42010360,38065680,38427740,-33203120,73789060
2026-01-14 16:42:08.231,772187,8,-28061570,-41457930,386697,8,25805660,-31992190,73164060
2026-01-14 16:42:08.241,24879070,-27742200,-40896870,-13221140,21472170,-29882810,7296875
2026-01-14 16:42:08.251,77486540,61177850,-67951990,39783390,15563970,-28457030,7328125
2026-01-14 16:42:08.261,24557980,-27086190,-39757490,-12765380,11975100,-27539060,746875
2026-01-14 16:42:08.271,19064690,29270010,-95198740,-17878870,8282471,-26074220,75625
2026-01-14 16:42:08.281,24260180,2877801,-9379178,-12338120,4147339,-24863280,76640620
2026-01-14 16:42:08.291,24102230,5713134,-6353950,-12116280,20568850,-23964840,76796870
2026-01-14 16:42:08.301,7815978,27992520,-91124580,4233838,-2220459,-21464840,77929690
2026-01-14 16:42:08.311,23742280,-25204490,-36978090,-11630320,-52685550,-22519530,78789060
2026-01-14 16:42:08.321,7832381,2756093,-8879404,4343459,-5703125,-22421880,76171870
2026-01-14 16:42:08.331,23306380,2736242,-8761151,-11064940,-71435540,-19443360,71953130
2026-01-14 16:42:08.341,23062100,27163880,-86428950,-10756790,-93066410,-18369140,675
2026-01-14 16:42:08.351,22800570,-28579470,-29701590,-10431380,-10351560,-18613280,64492190
2026-01-14 16:42:08.361,22547660,2677546,-8405526,-10114600,-11074220,-20703120,62226560
2026-01-14 16:42:08.371,22311150,-22658150,-33603110,-9815940,-12216800,-2390625,61523440
2026-01-14 16:42:08.381,22090180,26507870,-81733330,-9536272,-13662110,-27597660,61796880
2026-01-14 16:42:08.391,64615850,50806900,-56225860,61492920,-15058590,-303125,61484380
2026-01-14 16:42:08.401,78764030,2650785,-7966176,47862640,-15712890,-31386720,59921880
2026-01-14 16:42:08.411,21686220,-20785070,-31332980,-8973490,-15898440,-30625,58828120
2026-01-14 16:42:08.421,21605940,-20284430,-30815080,-8846604,-15595700,-29726560,57851560
2026-01-14 16:42:08.431,79161090,-19783800,-30331710,48846640,-16152340,-29472660,58359380
2026-01-14 16:42:08.441,65719840,2843271,-7756425,62702210,-16308590,-29179690,58828120
2026-01-14 16:42:08.451,21467830,29511700,-77693700,-8587650,-16572270,-29179690,5984375
2026-01-14 16:42:08.461,15613060,-18186940,-29080110,-14321590,-18027340,-29941410,60195310
2026-01-14 16:42:08.471,21381520,-17608620,-28726210,-8432284,-17568360,-29257810,596875
2026-01-14 16:42:08.481,21329730,56741950,-57196150,-8345965,-17001950,-28886720,5953125
2026-01-14 16:42:08.491,21267580,-16391550,-28113360,-8252745,-16708980,-27421880,59765620
2026-01-14 16:42:08.501,79903410,3879073,-8239800,50555720,-16953120,-25761720,60664060
2026-01-14 16:42:08.511,79946570,4138023,-8412434,50806040,-16992190,-24707030,61835940
2026-01-14 16:42:08.521,7996380,44228700,-86109580,5106501,-16455080,-24550780,64375
2026-01-14 16:42:08.531,20876560,47336100,-88353820,-7746063,-16123050,-23378910,66835940
2026-01-14 16:42:08.541,20735010,68770270,-72789180,-7576882,-16914060,-23496090,69140620
2026-01-14 16:42:08.551,2057532,5420692,-9356735,-739130,-17949220,-21757810,709375
2026-01-14 16:42:08.561,79842990,-11557810,-26973990,52238900,-19433590,-19335940,72226560
2026-01-14 16:42:08.571,79765300,-10815490,-26887670,52558260,-215625,-18291020,73203130
2026-01-14 16:42:08.581,79670350,-10107690,-26801350,52877640,-2296875,-18623050,75351560
2026-01-14 16:42:08.591,19827820,-9417156,-26715030,-6550579,-24765620,-19736330,78046870
2026-01-14 16:42:08.601,19639650,-8778413,-26611450,-6341692,-25273440,-21074220,79140620
2026-01-14 16:42:08.611,19459250,-16425210,-18256850,-6142302,-24785160,-2390625,79492190
2026-01-14 16:42:08.621,19303880,-7630400,-26378400,-5969667,-25273440,-26464840,81640620
2026-01-14 16:42:08.631,19174400,-7147025,-26240290,-5822927,-23398440,-27421880,80859380
2026-01-14 16:42:08.641,68065060,-6715446,-26102190,65587780,-25039060,-27734380,79453130
2026-01-14 16:42:08.651,18981050,-15161540,-17120930,-5601957,-23671880,-28710940,790625
2026-01-14 16:42:08.661,18926670,-14913810,-16885280,-5535494,-20722660,-32988280,8046875
2026-01-14 16:42:08.671,79212870,-5800488,-25567020,54802500,-19228520,-33828120,821875
2026-01-14 16:42:08.681,18918900,-5601956,-25368490,-5508733,-17841800,-33925780,8296875
2026-01-14 16:42:08.691,68309340,-14326860,-16298330,65861400,-16640630,-31796880,83984380
2026-01-14 16:42:08.701,18987090,-14186160,-16145550,-5561389,-18076170,-29921880,86015620
2026-01-14 16:42:08.711,19025070,-5334374,-24738380,-5592463,-14589840,-30078120,85
2026-01-14 16:42:08.721,19063050,-5351636,-24496690,-5623537,-14482420,-30253910,86640620
2026-01-14 16:42:08.731,68470760,7934232,-10900080,65993470,-14052730,-30976560,86875
2026-01-14 16:42:08.741,13102360,-13812400,-15656130,-11756860,-1234375,-31601560,853125
2026-01-14 16:42:08.751,19212380,-5662378,-23650790,-5750423,-11240230,-34238280,87578130
2026-01-14 16:42:08.761,7990340,-5843645,-23331420,5478524,-9316406,-35527340,88515620
2026-01-14 16:42:08.771,80032890,70071930,-99108890,54724820,-79052740,-36992190,8875
2026-01-14 16:42:08.781,19498090,67102640,-96036020,-6017137,-91064460,-371875,840625
2026-01-14 16:42:08.791,80309100,-6577339,-22235200,54569440,-63183590,-28769530,89609380
2026-01-14 16:42:08.801,80447210,-6888078,-21820880,54483130,11401370,-38789060,94375
2026-01-14 16:42:08.811,19869250,-7190184,-21397920,-6371039,14541630,-36523440,94375
2026-01-14 16:42:08.821,80766580,-7500928,-20949080,54284600,23852540,-31230470,928125
2026-01-14 16:42:08.831,80896050,-7803035,-20474330,54224180,10430910,-27617190,928125
2026-01-14 16:42:08.841,20148050,45247240,-73351970,-6627397,34887700,-27597660,92265620
2026-01-14 16:42:08.851,20154100,4111267,-6902751,-6621357,50927740,-27949220,9078125
2026-01-14 16:42:08.861,8106866,36900410,-64608080,5437957,5571289,-303125,90234380
2026-01-14 16:42:08.871,81068680,-9106418,-18376840,54517650,7158203,-31171880,8921875
2026-01-14 16:42:08.881,19966790,-13202150,-14039420,-6394344,7495117,-31523440,88046870
2026-01-14 16:42:08.891,19862340,36026020,-38724280,-6274362,80810540,-31796880,87109380
2026-01-14 16:42:08.901,80947840,-10064530,-16641870,55087340,8857422,-31933590,85859380
2026-01-14 16:42:08.911,19584400,15295330,-41673720,-5965350,9082031,-31621090,8390625
2026-01-14 16:42:08.921,19411770,22779850,-25384890,-5775454,8417969,-32148440,8203125
2026-01-14 16:42:08.931,80654360,6836285,-32524150,55864200,81396480,-33144530,79726560
2026-01-14 16:42:08.941,80524890,2701712,-28027050,56166310,72802740,-33339840,77148440
2026-01-14 16:42:08.951,80378150,-1236231,-1258329,56485670,6201172,-33105470,74140620
2026-01-14 16:42:08.961,80196890,-5455220,-19093270,56839580,43603520,-32265620,70976560
2026-01-14 16:42:08.971,80006990,1296475,-3709897,57202110,31298830,-328125,68828130
2026-01-14 16:42:08.981,79799830,-29131900,5394793,57581900,14819340,-33085940,67773440
2026-01-14 16:42:08.991,17683710,-17703560,-5619221,-3930002,-7293701,-33652340,67109380
2026-01-14 16:42:09.001,7934239,-115043000,92117220,5835007,-19213870,-33808590,6703125
2026-01-14 16:42:09.011,17076900,-25756920,3245509,-3293848,-22790530,-33242190,66992190
2026-01-14 16:42:09.021,10555930,-29615280,7500925,-9176076,-63378900,-3296875,65703120
2026-01-14 16:42:09.031,16434710,-13102880,-8597148,-2624029,-77001950,-31230470,63710940
2026-01-14 16:42:09.041,78306550,-36900410,15580170,59938350,-98291020,-30351560,625
2026-01-14 16:42:09.051,77995810,-10769740,-10170710,60369930,-12607420,-30058590,61328120
2026-01-14 16:42:09.061,85110120,-13655300,-6939870,-83725430,-15087890,-29160160,59414060
2026-01-14 16:42:09.071,14990630,-38214150,36190880,-1133341,-16621090,-28808590,58359380
2026-01-14 16:42:09.081,14616010,-10362330,-9542316,-748367,-18173830,-2921875,57890620
2026-01-14 16:42:09.091,80133880,-14268150,-5308482,-66259320,-20078120,-30410160,5984375
2026-01-14 16:42:09.101,13906490,-58315590,39049700,-25034,13,-20878910,-32636720,6265625
2026-01-14 16:42:09.111,13589710,-14760160,-4212258,296928,8,-21191410,-34960940,65820310
2026-01-14 16:42:09.121,75803370,-66118630,47474200,63097540,-21992190,-37402340,71054690
2026-01-14 16:42:09.131,13039870,-7009783,5178141,851946,3,-22265620,-39316410,765625
2026-01-14 16:42:09.141,12806820,-65895060,64097950,1084999,-22597660,-39101560,79296870
2026-01-14 16:42:09.151,63483380,-15726910,-1898972,-49591560,-21269530,-38496100,803125
2026-01-14 16:42:09.161,12401130,-82000900,64737560,1490686,-19863280,-38398440,80546870
2026-01-14 16:42:09.171,74707140,-92177650,-76657900,64193770,-18466800,-378125,81171870
2026-01-14 16:42:09.181,69947640,-90080160,73576380,68936010,-16464840,-39160160,8453125
2026-01-14 16:42:09.191,55538780,-1665911,55240,31,-41653870,-13808590,-39960940,890625
2026-01-14 16:42:09.201,7405974,-87654660,-69614450,6475479,-12949220,-39316410,93125
2026-01-14 16:42:09.211,73835340,-17099350,1752226,64944710,-12050780,-38828120,95703130
2026-01-14 16:42:09.221,49232480,-17289240,2321919,-35357930,-11455080,-37753900,97109380
2026-01-14 16:42:09.231,109233800,-73869010,-71833660,29477170,-12304690,-35625,96875
2026-01-14 16:42:09.241,43963710,-17617250,3444036,-30096060,-12695310,-33730470,9515625
2026-01-14 16:42:09.251,40681940,-7975666,-5800487,-26817750,-13388670,-33769530,925
2026-01-14 16:42:09.261,69603230,-17884830,4540258,69004190,-13974610,-34707030,8890625
2026-01-14 16:42:09.271,32564720,-17997040,5101319,-18707430,-13427730,-36601560,8546875
2026-01-14 16:42:09.281,90244150,-73956180,-50167290,48294220,-12636720,-40429690,828125
2026-01-14 16:42:09.291,85470840,-71875950,-47413790,53015750,-11103520,-45898440,80
2026-01-14 16:42:09.301,80611210,-18273260,6862178,57823590,-10498050,-5125,77226560
2026-01-14 16:42:09.311,76001900,-18350940,7457763,62363850,-85302740,-53632810,73710940
2026-01-14 16:42:09.321,9417157,-18402730,8044720,4410785,-62646480,-56953120,703125
2026-01-14 16:42:09.331,-5173826,-18445890,8623043,18994860,-44970700,-57929690,66328120
2026-01-14 16:42:09.341,2245099,-18480420,9192734,11567310,-2614746,-58671880,62890620
2026-01-14 16:42:09.351,-866622,5,-45089280,-42263270,14670390,43548580,-5921875,60429690
2026-01-14 16:42:09.361,-3633936,-55320400,-26507870,17427350,11816410,-5890625,58515620
2026-01-14 16:42:09.371,-6054258,-52808590,-23495420,19840770,28051760,-60117190,58203120
2026-01-14 16:42:09.381,53870290,-15227140,14517610,83908510,2998047,-62226560,59296880
2026-01-14 16:42:09.391,67188950,-18350940,11790860,70538040,36889650,-58945310,53554690
2026-01-14 16:42:09.401,-11416250,-4544578,-1497595,25182050,51953120,-5734375,45976560
2026-01-14 16:42:09.411,48863910,-4308936,-1232605,88742250,54003900,-55390620,39609380
2026-01-14 16:42:09.421,47111680,-40888250,-9866005,90442690,5961914,-5640625,37382810
2026-01-14 16:42:09.431,45186820,-38764860,-7500928,92315760,63378900,-5875,37363280
2026-01-14 16:42:09.441,-18590040,-36865880,-5429324,32336840,58496100,-60078120,39160160
2026-01-14 16:42:09.451,65997780,-17712200,13845200,71435740,60302740,-6125,415625
2026-01-14 16:42:09.461,40145920,-33490900,-1898970,97287600,48461910,-6140625,44023440
2026-01-14 16:42:09.471,39023800,-17806290,-14648820,98409720,39697260,-6078125,46171880
2026-01-14 16:42:09.481,3842821,-30573390,880432,1,9902255,42578120,-61171880,4578125
2026-01-14 16:42:09.491,65704310,-15115790,-11987670,71798270,32666020,-60625,45546880
2026-01-14 16:42:09.501,65764730,-27793990,3280034,71789640,29052730,-59570310,47460940
2026-01-14 16:42:09.511,39464020,-16503770,14311320,98159410,18115230,-58710940,53632810
2026-01-14 16:42:09.521,4088825,-24936910,5601957,9682148,13330080,-571875,6140625
2026-01-14 16:42:09.531,42830370,-15951340,14276790,94965680,7896423,-5625,68945310
2026-01-14 16:42:09.541,-16929300,-21846770,8036090,30717540,-6506348,-51601560,76523440
2026-01-14 16:42:09.551,-20716620,-68267910,-38764850,22096480,4196167,-46054690,86796870
2026-01-14 16:42:09.561,-12085210,-18178310,10927700,25894160,-18933100,-43984380,93671870
2026-01-14 16:42:09.571,52264780,-32463730,-3789307,85928320,-11138920,-38476560,9890625
2026-01-14 16:42:09.581,-8018825,-14120560,14122280,21846770,1889038,-35292970,104765600
2026-01-14 16:42:09.591,-6632578,7664927,35493440,20470880,-21133420,-33710940,1103125
2026-01-14 16:42:09.601,-5679641,-9304946,18109250,19524850,3326416,-31777340,115234400
2026-01-14 16:42:09.611,57271160,-6603235,20413910,81267210,81848140,-31230470,11921880
2026-01-14 16:42:09.621,57564640,-3564885,23072460,81042790,38879400,-29355470,12015630
2026-01-14 16:42:09.631,57676850,-284850,26007230,80982370,2548828,-28320310,122421900
2026-01-14 16:42:09.641,57616430,-11342020,14622060,81094580,26293940,-27851560,123828100
2026-01-14 16:42:09.651,-4888117,7449136,33119740,18762670,20825200,-26972660,123515600
2026-01-14 16:42:09.661,-4973570,-10245800,15148590,18849850,19909670,-25292970,121796900
2026-01-14 16:42:09.671,-5146202,16762710,41932670,19022490,123291000,-23847660,119453100
2026-01-14 16:42:09.681,-5578650,22122980,47103050,19453210,-46936040,-21835940,116796900
2026-01-14 16:42:09.691,56149040,27888940,52730900,82561970,-82214350,-20292970,1134375
2026-01-14 16:42:09.701,-7396481,-7733982,17021660,21260680,16281130,-19941410,110
2026-01-14 16:42:09.711,-8954498,-11831440,12889680,22810060,10571290,-2171875,10703130
2026-01-14 16:42:09.721,51522470,47197990,71919100,86912340,45410160,-22734380,104296900
2026-01-14 16:42:09.731,-13025200,5407743,7885035,26853140,74501040,-24707030,10109380
2026-01-14 16:42:09.741,4669740,61112260,85971470,9140945,-49072260,-27285160,971875
2026-01-14 16:42:09.751,4401292,-4419418,20560650,9390398,-87402340,-29492190,9234375
2026-01-14 16:42:09.761,4113857,-3772042,21363390,9655391,-33007810,-30410160,8796875
2026-01-14 16:42:09.771,65652520,-3150565,22174770,71781010,-5258789,-32617190,84375
2026-01-14 16:42:09.781,65220940,-2537715,23012040,71936380,-86035150,-33730470,79179690
2026-01-14 16:42:09.791,31911300,-11808140,14000580,104935300,-10458980,-36074220,7390625
2026-01-14 16:42:09.801,-32619960,-1372439,24729750,46273540,-10761720,-38964840,69257810
2026-01-14 16:42:09.811,-35226720,-11967820,14445110,48845780,-8803711,-42929690,65625
2026-01-14 16:42:09.821,2346953,-302110,26438820,11237580,-9501953,-46289060,6234375
2026-01-14 16:42:09.831,2138929,-12162030,14906900,11409350,-9243164,-4703125,55976560
2026-01-14 16:42:09.841,1966297,664638,28044310,11547450,-67529300,-5078125,52617190
2026-01-14 16:42:09.851,1846317,1113487,28769370,11634630,-32592770,-53515620,49492190
2026-01-14 16:42:09.861,1779853,1553702,29416750,11671750,-6695557,-53710940,45859380
2026-01-14 16:42:09.871,1749642,1959390,29977810,11676070,-6149292,-53789060,40390620
2026-01-14 16:42:09.881,1747052,-12412350,15692390,11656210,-12182620,-52226560,35058590
2026-01-14 16:42:09.891,61975420,2675817,30849600,71867320,-3474121,-50195310,32070310
2026-01-14 16:42:09.901,1721157,2943403,31151710,11647580,-671875,-48046880,27109380
2026-01-14 16:42:09.911,-4347169,3167824,31358870,5682836,-8149414,-43671880,23535160
2026-01-14 16:42:09.921,-44165690,3340457,31479720,57515440,-11064450,-43398440,21347660
2026-01-14 16:42:09.931,1502776,3461300,31496980,11843520,-13847660,-44023440,18603520
2026-01-14 16:42:09.941,61474790,3556247,31436560,72005430,-15126950,-4265625,16044920
2026-01-14 16:42:09.951,1341364,3651198,31307080,12010110,-19052730,-4109375,1375
2026-01-14 16:42:09.961,13111510,3737510,31117190,120489500,-23671880,-37304690,13164060
2026-01-14 16:42:09.971,1342228,3858359,30875500,12028240,-28730470,-34511720,13222660
2026-01-14 16:42:09.981,61656050,3987831,30590650,72186700,-33964840,-30683590,13701170
2026-01-14 16:42:09.991,15640590,4151832,30288540,118357500,-39785160,-26640620,18242190
2026-01-14 16:42:10.001,1770358,4324470,29960540,11644990,-44179690,-22851560,24003910
2026-01-14 16:42:10.011,2038803,4522997,29606640,11395540,-46679690,-19101560,2984375
2026-01-14 16:42:10.021,23676680,-10533240,13928930,110856600,-484375,-17685550,36621100
2026-01-14 16:42:10.031,27414200,4971841,28778000,107343500,-48984380,-1671875,37246100
2026-01-14 16:42:10.041,3166963,5196268,28311890,10331250,-48320310,-16484380,36601560
2026-01-14 16:42:10.051,-24745280,5403428,27828520,38265940,-45820310,-17675780,346875
2026-01-14 16:42:10.061,-20244730,15355750,17530930,33789560,-43085940,-19345700,359375
2026-01-14 16:42:10.071,4548031,5679642,26792720,9019237,-3859375,-21269530,39472660
2026-01-14 16:42:10.081,50443500,5740060,26231660,85488100,-34765620,-24785160,4390625
2026-01-14 16:42:10.091,-5793580,15592950,15791820,19410910,-30214840,-25664060,4734375
2026-01-14 16:42:10.101,-69137120,5705533,25005960,82780350,-27714840,-27011720,49296880
2026-01-14 16:42:10.111,42441940,5601952,24332690,94231990,-2484375,-27871090,50742190
2026-01-14 16:42:10.121,30152170,5446588,23642150,-16458880,-22226560,-28164060,52421880
2026-01-14 16:42:10.131,14196520,14069540,14069720,-477331,-19052730,-28730470,5515625
2026-01-14 16:42:10.141,19215840,4963213,22157510,-5470756,-17382810,-28457030,59335940
2026-01-14 16:42:10.151,24061660,4643842,21372030,-10292410,-15751950,-26738280,63515620
2026-01-14 16:42:10.161,9089157,-68967080,93826300,4704260,-14765630,-25996090,66875
2026-01-14 16:42:10.171,33493490,-6757737,9124542,-19677630,-12607420,-25625,690625
2026-01-14 16:42:10.181,100256900,-6637759,8881989,38108840,-10341800,-25390620,74179690
2026-01-14 16:42:10.191,42231330,-65436720,86653380,-28375770,-75634770,-23476560,821875
2026-01-14 16:42:10.201,108551900,2520448,17453240,30176340,-44799800,-20839840,9125
2026-01-14 16:42:10.211,112082300,2019811,16745440,26801350,-29830930,-18564450,100859400
2026-01-14 16:42:10.221,52526330,8060260,9513830,-38624150,20629880,-17480470,111953100
2026-01-14 16:42:10.231,11730450,1001274,15433430,2183814,42529300,-16132810,125859400
2026-01-14 16:42:10.241,74525880,6964032,8400343,64720300,9980469,-11572270,139609400
2026-01-14 16:42:10.251,74612190,-6472033,7908337,64737550,13652340,-7998047,1490625
2026-01-14 16:42:10.261,49293590,-492003,5,13940150,-47899060,17070310,-41918940,155546900
2026-01-14 16:42:10.271,74430930,-66524320,79178350,65108720,20273440,-5380249,15875
2026-01-14 16:42:10.281,50397760,-1381067,13396360,-36436890,22089840,13012700,15875
2026-01-14 16:42:10.291,10894040,-6959719,8111184,3073739,22773440,9753418,157734400
2026-01-14 16:42:10.301,103778600,-2140657,13310040,35933660,22441410,-6915283,156015600
2026-01-14 16:42:10.311,9774508,-2468660,13448150,4198446,21660160,-23754880,15359380
2026-01-14 16:42:10.321,91262700,-2770770,13698460,48449590,21347660,-46899420,150
2026-01-14 16:42:10.331,21743190,-3046981,14061000,-7777140,19521480,-58691410,144140600
2026-01-14 16:42:10.341,77736860,-3314565,14518470,61854580,16875,-5493164,136796900
2026-01-14 16:42:10.351,80093300,-3564884,15062270,59377290,13974610,-35595700,128515600
2026-01-14 16:42:10.361,63952080,49709810,69234660,75345890,10429690,-4099121,120078100
2026-01-14 16:42:10.371,-5560522,51565620,72039950,19471330,7626953,-4165039,110390600
2026-01-14 16:42:10.381,67499700,-4307209,17185660,71383950,50341800,-4489746,99296870
2026-01-14 16:42:10.391,43063420,56054100,78600030,95544000,18066410,-62060550,8828125
2026-01-14 16:42:10.401,65851050,58626330,82242590,72462900,-871582,-97021490,78203130
2026-01-14 16:42:10.411,-39015780,-4989109,19732010,40395640,-30859380,-14628910,68125
2026-01-14 16:42:10.421,64193770,-5204904,20621070,73429660,-43701170,-18896480,57070310
2026-01-14 16:42:10.431,-4553208,-12660080,14270750,5925644,-55371100,-24628910,47109380
2026-01-14 16:42:10.441,62596900,70149620,98168030,74249660,-6196289,-31328120,39570310
2026-01-14 16:42:10.451,442805,5,7324839,10231990,13200420,-75146480,-3734375,34277340
2026-01-14 16:42:10.461,-6199354,-5904065,24203220,7559534,-7011719,-43320310,29023440
2026-01-14 16:42:10.471,-5489752,-6016283,25057750,141076100,-58691410,-4875,25253910
2026-01-14 16:42:10.481,-965883,5,-6102593,25886390,14484810,-6850586,-53671880,22910160
2026-01-14 16:42:10.491,5935141,-6163016,26654610,7545810,-71435540,-56796880,19775390
2026-01-14 16:42:10.501,-1607217,-15730360,17846850,15051910,-67089840,-59570310,16425780
2026-01-14 16:42:10.511,58505490,-6249336,28018410,75613460,-76708980,-628125,13613280
2026-01-14 16:42:10.521,-20353490,-6275234,28596740,154179000,-7807617,-66835940,11572270
2026-01-14 16:42:10.531,-8188265,9632086,13172800,9523931,-6855469,-72695310,11982420
2026-01-14 16:42:10.541,57745900,-6309757,29546220,75613460,-64404300,-76210940,125
2026-01-14 16:42:10.551,57642320,-6309758,29908750,75544420,-61328120,-79765620,15175780
2026-01-14 16:42:10.561,57616430,-6275231,30202220,75449460,-51464840,-8390625,16904300
2026-01-14 16:42:10.571,-2154465,-6223438,30426650,15454150,-41601560,-86328130,18261720
2026-01-14 16:42:10.581,-1991327,-6145754,30573390,15289280,-41259770,-8921875,20488280
2026-01-14 16:42:10.591,-17565450,-6059443,30642440,150579600,-45239260,-90,23125
2026-01-14 16:42:10.601,-74569030,-5964489,30651080,87879080,-5292969,-90,27050780
2026-01-14 16:42:10.611,-1133339,10528920,14174940,14455470,-6464844,-90,31757810
2026-01-14 16:42:10.621,59256440,10505610,14129190,74120180,-67089840,-90546870,36367190
2026-01-14 16:42:10.631,-3573512,-5757331,30219490,137122800,-54052740,-9078125,39785160
2026-01-14 16:42:10.641,60292250,10316580,13886640,73481450,-29882810,-915625,45078120
2026-01-14 16:42:10.651,60896460,-5757332,29615270,73118910,3583908,-909375,51679690
2026-01-14 16:42:10.661,1154919,9962678,13463690,12272520,27001950,-89140620,603125
2026-01-14 16:42:10.671,62372480,9715810,13175380,72212590,6064453,-86171870,69726560
2026-01-14 16:42:10.681,-35291460,-5912699,28216950,48781040,8725586,-8203125,79257810
2026-01-14 16:42:10.691,33689430,9143529,12504710,101534400,10917970,-7703125,89765620
2026-01-14 16:42:10.701,4274407,-6016278,26991250,9280776,13222660,-68359380,9875
2026-01-14 16:42:10.711,52394270,-6033545,26335240,83468300,15458980,-57929690,10890630
2026-01-14 16:42:10.721,62381110,-6007648,25670600,73774920,17451170,-44492190,12125
2026-01-14 16:42:10.731,46526450,-14522790,16430390,-32884960,18896480,-27539060,13484380
2026-01-14 16:42:10.741,81431220,-5826382,24367220,55190930,16962890,-10351560,15046880
2026-01-14 16:42:10.751,28074520,-5662376,23754370,-14393320,13164060,7128906,165625
2026-01-14 16:42:10.761,9628634,-5455219,23201940,4069834,81396480,21699220,17859380
2026-01-14 16:42:10.771,39137740,-5187635,22744460,-25427190,3647461,32773440,18796880
2026-01-14 16:42:10.781,41301700,7414611,10142220,-27579060,14282230,39414060,193125
2026-01-14 16:42:10.791,41046200,-4445310,22261090,-27316660,68603520,40625,19375
2026-01-14 16:42:10.801,38631920,-12204320,14035960,-24897200,17834470,37675780,1890625
2026-01-14 16:42:10.811,9638128,-3426775,22468250,4096593,5463867,29960940,1796875
2026-01-14 16:42:10.821,9117638,-2848453,22822150,4611904,10458980,20,16734380
2026-01-14 16:42:10.831,8534138,-2218341,23296890,5185048,14208980,98535150,154453100
2026-01-14 16:42:10.841,69614460,-1553705,23892470,67422010,16455080,24865720,141953100
2026-01-14 16:42:10.851,60356980,-854534,24591640,-46675780,16201170,-24169920,129609400
2026-01-14 16:42:10.861,6826793,-129475,25351230,6826792,14248050,-33276370,118046900
2026-01-14 16:42:10.871,13733000,604212,26153970,122492100,10810550,-24353030,106953100
2026-01-14 16:42:10.881,-4081919,1320646,26973980,17669900,69091800,-14880370,96875
2026-01-14 16:42:10.891,66092730,2037071,27811250,69424550,17333980,-1638794,871875
2026-01-14 16:42:10.901,44850180,2710342,28622630,90252780,-37329100,-47424320,7703125
2026-01-14 16:42:10.911,-22526940,3357720,29425380,35995810,-95410160,-13928220,65703120
2026-01-14 16:42:10.921,63511860,3961937,30202230,70727940,-14541020,-41577150,54414060
2026-01-14 16:42:10.931,-36468820,-11441290,14988900,49847920,-19296880,-7949219,44453120
2026-01-14 16:42:10.941,61621530,5040897,31678240,71686060,-2328125,-12451170,36464840
2026-01-14 16:42:10.951,900285,5550165,32377410,12380410,-26582030,-1671875,30175780
2026-01-14 16:42:10.961,201982,-11554360,15462780,13028650,-30625,-19902340,246875
2026-01-14 16:42:10.971,-4617948,6499646,33723960,136423600,-34355470,-225,21152340
2026-01-14 16:42:10.981,5799623,6939868,34371330,7329155,-37832030,-25664060,18349610
2026-01-14 16:42:10.991,5718486,7354188,34992810,7358503,-40117190,-28359380,14482420
2026-01-14 16:42:11.001,-80666450,7725343,35605660,93693380,-42617190,-31328120,10283200
2026-01-14 16:42:11.011,55691570,-11865970,16290560,74077030,-43398440,-35195310,6894531
2026-01-14 16:42:11.021,-3168686,8303671,36788200,16097210,-43671880,-39570310,5175781
2026-01-14 16:42:11.031,-3580417,8493569,37340620,16462330,-43203120,-44179690,37719730
2026-01-14 16:42:11.041,53827120,8605779,37884420,74543140,-41484380,-49804690,31640620
2026-01-14 16:42:11.051,-4235561,8648939,38410950,17032880,-39277340,-55703120,26708980
2026-01-14 16:42:11.061,52963960,-12764520,17515390,74646720,-37265620,-60976560,25097660
2026-01-14 16:42:11.071,-4605859,8493568,39343170,17335860,-34648440,-66835940,19445800
2026-01-14 16:42:11.081,-4661103,8320935,39757490,17366930,-303125,-728125,-46783450
2026-01-14 16:42:11.091,5247197,8070617,40145920,7439641,-25078120,-78828130,-43701170
2026-01-14 16:42:11.101,52532370,7759873,40491180,74197870,-19707030,-84921870,-94433590
2026-01-14 16:42:11.111,52696380,7414607,40819180,73930290,-14990230,-9125,-14267580
2026-01-14 16:42:11.121,52981220,7043444,41138560,73593660,-8105469,-96328130,-18769530
2026-01-14 16:42:11.131,-3547617,6655020,41457930,16201650,-68237300,-10015630,-22871090
2026-01-14 16:42:11.141,-2995190,6266596,41777300,15649230,6899414,-10109380,-25742190
2026-01-14 16:42:11.151,54647130,5904064,42105300,71910480,11962890,-99140620,-29667970
2026-01-14 16:42:11.161,62505410,22152330,25839780,64069460,1546875,-98515620,-34355470
2026-01-14 16:42:11.171,-558467,5230794,42778580,13217680,17646480,-97421870,-39570310
2026-01-14 16:42:11.181,57417900,4911420,43132480,69156980,19550780,-94375,-43515620
2026-01-14 16:42:11.191,1536440,-17033750,21843310,11117600,21328120,-9078125,-44492190
2026-01-14 16:42:11.201,-30102100,4341730,43840280,42749230,23828120,-85859380,-42851560
2026-01-14 16:42:11.211,3816928,22050470,26062480,8823298,86279300,-965625,-37578120
2026-01-14 16:42:11.221,49899720,3392246,44306380,76485270,30351560,-1178125,-99316410
2026-01-14 16:42:11.231,77866340,-18360440,23088860,48518650,403125,-92890620,4116211
2026-01-14 16:42:11.241,26003780,2675820,44176910,-13356650,41835940,-56210940,33300780
2026-01-14 16:42:11.251,63749230,2727606,43572690,62929220,42304690,-42070310,65078120
2026-01-14 16:42:11.261,12762800,3202352,42528260,-63874,36,49570310,-22988280,896875
2026-01-14 16:42:11.271,15146000,4151836,41043610,-2410826,70898440,4453125,132109400
2026-01-14 16:42:11.281,17297880,-14624650,19090670,-4522999,69140620,36894530,20125
2026-01-14 16:42:11.291,76709690,20521800,23534260,51539730,98125,75,304375
2026-01-14 16:42:11.301,20104040,8916520,34552590,-7206585,7265625,859375,40625
2026-01-14 16:42:11.311,20371620,11134860,31695510,-7370587,39257810,64570310,5146875
2026-01-14 16:42:11.321,19564550,13197830,28855690,-6434049,2328125,63320310,60125
2026-01-14 16:42:11.331,77227590,14906900,26404290,55510300,19716800,10703130,6203125
2026-01-14 16:42:11.341,74474090,16374280,24591640,59541290,47929690,18359380,5915625
2026-01-14 16:42:11.351,9751204,-27202720,31320030,3726292,71171870,21578120,5215625
2026-01-14 16:42:11.361,-13291050,-828642,42675000,26759920,112109400,20359380,4290625
2026-01-14 16:42:11.371,59739820,3081506,39679810,73982080,1825,120859400,34625
2026-01-14 16:42:11.381,-5159152,-15770070,20137700,18370790,27953120,-121032700,2978125
2026-01-14 16:42:11.391,49528540,3357720,41164450,80706150,3834375,-108984400,30015620
2026-01-14 16:42:11.401,62384570,-17510220,22022850,66089280,46375,-134375,3196875
2026-01-14 16:42:11.411,-14300090,2088866,43175630,27011100,4634375,-684375,30109380
2026-01-14 16:42:11.421,4059478,20111800,24583010,8547948,4334375,-11884770,23609380
2026-01-14 16:42:11.431,-18027250,18773890,24280900,30551810,3971875,-27368160,1871875
2026-01-14 16:42:11.441,-20092810,1613259,2386659,32543140,329375,-40976560,148125
2026-01-14 16:42:11.451,3326651,-38713060,73843980,9042541,28640620,-10671880,98828130
2026-01-14 16:42:11.461,-24843690,6361543,21794980,37114480,27125,-17734380,6296875
2026-01-14 16:42:11.471,57423940,-17266,06,1924861,64075510,20125,-26171880,7796875
2026-01-14 16:42:11.481,2392702,28933370,51168560,9546634,-686875,-5203125,-2965625
2026-01-14 16:42:11.491,25152700,-5748699,11307490,95759790,-88625,1809375,-90375
2026-01-14 16:42:11.501,-28796130,-31436560,-12239710,40913270,-4821875,95546870,-896875
2026-01-14 16:42:11.511,2622299,-99082990,-74758930,9396435,-104875,-740625,-19515620
2026-01-14 16:42:11.521,25825970,-25670600,-155372,5,92945870,-1103125,-43867190,-444375
2026-01-14 16:42:11.531,-28763330,-15336760,-12871550,40479960,-371875,-2828125,-61875
2026-01-14 16:42:11.541,23823420,-24479430,-379793,5,93791780,27109380,-4371875,-5009375
2026-01-14 16:42:11.551,-27394340,-13621650,11824530,39432080,-100234400,-350,-13140630
2026-01-14 16:42:11.561,-29621750,-5897162,-3390521,30869030,-381875,-23375,14453130
2026-01-14 16:42:11.571,-20393200,-21876120,-19555920,33244030,-24609380,-1665625,-27265620
2026-01-14 16:42:11.581,63026760,20785070,41708250,67846690,-17390620,-70117180,-2078125
2026-01-14 16:42:11.591,63629250,-4384894,15019110,68176420,-23203120,-49765620,-18953120
2026-01-14 16:42:11.601,-22095100,-2442766,16253450,23411090,-22515620,-86328130,-54023440
2026-01-14 16:42:11.611,4209668,-949484,5,17556830,8879404,-19703120,-121015600,18779300
2026-01-14 16:42:11.621,-17261620,543794,18894740,30281640,-154140600,-125703100,440625
2026-01-14 16:42:11.631,-17055330,2080233,19965060,30056350,-102578100,-103203100,76328130
2026-01-14 16:42:11.641,-15926300,3711618,20664230,28975670,-56953120,-67382820,115078100
2026-01-14 16:42:11.651,6371471,-7827603,7830254,6781475,-32128910,-21972660,126796900
2026-01-14 16:42:11.661,48501380,-56528840,85030620,84288300,-20800780,10673830,120859400
2026-01-14 16:42:11.671,52057630,-4863952,7893664,81940490,-22539060,50585940,1190625
2026-01-14 16:42:11.681,-5218709,9909161,21941720,18708290,-7392578,8859375,137890600
2026-01-14 16:42:11.691,58548640,10772330,22269720,76968640,66503900,111484400,16859380
2026-01-14 16:42:11.701,61086360,11247070,22692670,74776200,27773440,12015630,1990625
2026-01-14 16:42:11.711,6311481,11454230,23193310,7288587,55078120,114921900,21640620
2026-01-14 16:42:11.721,64685770,-44375440,79575400,71297620,66210940,97578130,2234375
2026-01-14 16:42:11.731,48164740,-4939048,8509102,87697820,77734380,8171875,23296880
2026-01-14 16:42:11.741,60309520,10703270,25497960,75328630,8734375,64726560,24125
2026-01-14 16:42:11.751,11685560,10150850,26585560,1845453,9453125,60664060,23828120
2026-01-14 16:42:11.761,84616300,9581156,27742200,50262240,102578100,65742190,23453120
2026-01-14 16:42:11.771,36152910,9011470,28950630,-22715110,10421880,60390620,23375
2026-01-14 16:42:11.781,10804270,845903,9,3026265,2569649,9890625,57382810,2296875
2026-01-14 16:42:11.791,11820220,7932507,31686880,1479470,84765620,5359375,226875
2026-01-14 16:42:11.801,12624690,7397344,33223320,592133,4,70429690,49023440,2175
2026-01-14 16:42:11.811,13133090,6879445,34828810,-4316,111,52578120,42851560,2053125
2026-01-14 16:42:11.821,74278140,-12939740,17219330,-61239140,3421875,3984375,1921875
2026-01-14 16:42:11.831,13089070,5705538,38126100,-134653,7,19628910,33105470,17578120
2026-01-14 16:42:11.841,12565130,-15110610,19588720,308150,3,11113280,27285160,1528125
2026-01-14 16:42:11.851,117839600,20961160,24648610,10116320,6074219,23046880,125625
2026-01-14 16:42:11.861,10824120,3694356,42623210,1898969,5258789,14521480,1009375
2026-01-14 16:42:11.871,40594760,3072878,43883430,-27940730,8129883,69433590,8015625
2026-01-14 16:42:11.881,86325380,250316,8,4500551,39541700,11367190,-22253420,65078120
2026-01-14 16:42:11.891,18605580,2019812,45972300,-6081016,15537110,-13251950,546875
2026-01-14 16:42:11.901,7614866,1640018,46783680,4852728,18935550,-24140620,45351560
2026-01-14 16:42:11.911,53024380,1406958,47448310,71150900,2078125,-32910160,36523440
2026-01-14 16:42:11.921,-1924244,-20868800,25794030,1925481,225,-39335940,27285160
2026-01-14 16:42:11.931,-22919680,22466520,27165610,35257800,21933590,-4625,20488280
2026-01-14 16:42:11.941,2296891,1467382,48527270,10013610,21640620,-51132810,14052730
2026-01-14 16:42:11.951,1363805,171770,4858769,10927700,21992190,-5421875,6879883
2026-01-14 16:42:11.961,-50742160,2045706,48518650,63023310,21171880,-55078120,831604
2026-01-14 16:42:11.971,54802500,23074190,27662790,67974430,18974610,-534375,-7036133
2026-01-14 16:42:11.981,-1333593,23146700,27659340,13616470,16669920,-53125,-10664060
2026-01-14 16:42:11.991,53127960,3262770,47491470,69821620,15654300,-53398440,-12744140
2026-01-14 16:42:12.001,-3009001,25074750,25506850,15324680,13613280,-54882810,-13837890
2026-01-14 16:42:12.011,51781420,4125940,46213980,71634260,9213867,-56054690,-13691410
2026-01-14 16:42:12.021,-4404741,4548892,45445760,16777390,67578130,-56875,-13271480
2026-01-14 16:42:12.031,50883720,4971842,44643020,73187970,25,-5671875,-12832030
2026-01-14 16:42:12.041,-10961280,5386164,43797120,12206140,-12176510,-57851560,-10429690
2026-01-14 16:42:12.051,50598880,22518310,26233380,74335980,-60253900,-56679690,-92041020
2026-01-14 16:42:12.061,50676560,618887,9,4213118,74724400,-9526367,-53125,-8276367
