gyrx(deg/s),gyry(deg/s),gyrz(deg/s),accx(g),accy(g),accz(g)
24.085,-12.866,-7.744,0.692,-0.543,0.0
23.72,-12.5,-8.72,0.697,-0.547,0.0
24.024,-12.439,-9.756,0.692,-0.558,0.0
24.634,-12.622,-10.671,0.682,-0.572,0.0
25.305,-13.11,-11.463,0.677,-0.587,0.0
26.341,-13.354,-12.317,0.673,-0.607,0.0
27.439,-13.354,-12.988,0.669,-0.631,0.0
28.659,-13.476,-13.415,0.665,-0.651,0.0
29.939,-13.598,-13.415,0.661,-0.668,0.0
31.098,-13.72,-13.171,0.658,-0.684,0.0
32.134,-13.78,-12.622,0.658,-0.698,0.0
33.049,-13.963,-11.768,0.658,-0.706,0.0
33.598,-14.207,-10.732,0.659,-0.715,0.0
34.024,-14.451,-9.573,0.655,-0.725,0.0
34.024,-14.817,-8.476,0.651,-0.73,0.0
33.78,-15.061,-7.378,0.645,-0.738,0.0
33.11,-15.549,-6.707,0.644,-0.744,0.0
32.073,-16.037,-6.22,0.636,-0.75,0.0
30.671,-16.463,-5.976,0.63,-0.746,0.0
28.963,-17.073,-5.976,0.621,-0.736,0.0
27.134,-17.805,-6.037,0.611,-0.726,0.0
25.0,-18.476,-5.976,0.598,-0.707,0.0
22.805,-19.146,-6.037,0.591,-0.691,0.0
20.427,-19.634,-5.793,0.583,-0.673,0.0
18.293,-20.0,-5.366,0.58,-0.651,0.0
15.976,-20.244,-4.878,0.578,-0.637,0.0
13.598,-20.305,-4.512,0.579,-0.629,0.0
11.585,-20.183,-3.598,0.581,-0.62,0.0
9.695,-20.061,-2.744,0.584,-0.612,0.0
8.049,-20.183,-2.073,0.585,-0.602,0.0
6.646,-20.244,-1.098,0.589,-0.586,0.0
5.427,-20.183,-0.122,0.597,-0.577,0.0
4.756,-20.305,0.671,0.601,-0.572,0.0
4.39,-20.671,1.463,0.606,-0.563,0.0
4.329,-20.793,2.439,0.615,-0.557,0.0
4.756,-21.159,3.293,0.618,-0.55,0.0
5.427,-21.524,4.146,0.622,-0.542,0.0
6.646,-21.707,5.183,0.625,-0.542,0.0
7.988,-22.073,5.976,0.634,-0.538,0.0
9.512,-22.195,6.951,0.64,-0.536,0.0
11.28,-22.195,7.683,0.639,-0.542,0.0
13.049,-22.317,8.476,0.645,-0.542,0.0
15.0,-22.439,9.268,0.646,-0.54,0.0
16.951,-22.5,10.244,0.65,-0.543,0.0
18.72,-22.5,10.976,0.652,-0.542,0.0
20.366,-22.439,11.707,0.657,-0.545,0.0
21.89,-22.561,12.439,0.66,-0.547,0.0
23.049,-22.561,12.866,0.663,-0.548,0.0
23.659,-22.439,13.171,0.669,-0.555,0.0
23.841,-22.317,13.293,0.666,-0.559,0.0
23.841,-22.317,13.293,0.667,-0.556,0.0
23.537,-22.317,13.171,0.671,-0.557,0.0
22.927,-22.134,13.11,0.68,-0.558,0.0
22.195,-21.829,12.927,0.676,-0.557,0.0
21.28,-21.585,12.622,0.676,-0.555,0.0
20.366,-21.463,12.5,0.679,-0.555,0.0
19.39,-20.915,12.134,0.679,-0.561,0.0
18.354,-20.427,11.646,0.678,-0.567,0.0
17.439,-20.0,10.976,0.681,-0.573,0.0
16.22,-19.573,10.244,0.676,-0.582,0.0
15.305,-19.146,9.39,0.683,-0.583,0.0
14.451,-18.902,8.659,0.688,-0.583,0.0
13.902,-18.598,7.866,0.685,-0.585,0.0
13.293,-18.232,7.012,0.691,-0.584,0.0
12.561,-17.927,6.22,0.691,-0.587,0.0
12.012,-17.683,5.793,0.697,-0.589,0.0
11.463,-17.439,5.183,0.703,-0.59,0.0
11.159,-17.378,4.329,0.706,-0.593,0.0
10.732,-17.195,3.537,0.713,-0.598,0.0
10.061,-17.134,2.561,0.717,-0.601,0.0
9.512,-17.134,1.402,0.719,-0.606,0.0
8.78,-17.073,0.183,0.716,-0.605,0.0
8.049,-17.256,-1.098,0.714,-0.604,0.0
7.256,-17.378,-2.378,0.714,-0.602,0.0
6.159,-17.378,-3.598,0.71,-0.597,0.0
4.878,-17.439,-4.939,0.709,-0.593,0.0
3.537,-17.561,-6.159,0.704,-0.582,0.0
1.951,-17.683,-7.439,0.702,-0.583,0.0
-0.122,-17.805,-8.841,0.698,-0.583,0.0
-2.256,-17.805,-10.183,0.693,-0.584,0.0
-4.634,-18.232,-11.524,0.694,-0.582,0.0
-7.317,-18.537,-12.988,0.698,-0.579,0.0
-10.305,-19.085,-14.512,0.697,-0.577,0.0
-13.354,-19.512,-16.098,0.696,-0.571,0.0
-16.524,-20.122,-17.683,0.692,-0.566,0.0
-19.756,-20.671,-18.78,0.686,-0.563,0.0
-22.988,-21.037,-19.695,0.679,-0.554,0.0
-26.098,-21.28,-20.244,0.671,-0.544,0.0
-29.329,-21.585,-20.549,0.662,-0.534,0.0
-32.378,-22.012,-20.305,0.652,-0.518,0.0
-35.0,-22.378,-19.573,0.643,-0.511,0.0
-37.805,-22.622,-18.171,0.626,-0.505,0.0
-40.671,-23.232,-16.463,0.611,-0.498,0.0
-43.963,-24.085,-14.39,0.6,-0.489,0.0
-47.744,-24.878,-11.89,0.578,-0.475,0.0
-51.89,-25.793,-9.207,0.56,-0.472,0.0
-56.951,-26.829,-6.22,0.533,-0.461,0.0
-63.171,-28.476,-2.561,0.492,-0.439,0.0
-70.244,-30.488,2.561,0.45,-0.41,0.0
-77.988,-32.561,8.841,0.403,-0.373,0.0
-86.646,-35.183,16.524,0.354,-0.338,0.0
-96.768,-38.354,25.549,0.304,-0.303,0.0
-108.05,-42.622,35.854,0.264,-0.278,0.0
-120.37,-47.256,47.378,0.209,-0.258,0.0
-134.15,-52.561,60.122,0.15,-0.223,0.0
-148.54,-58.537,73.476,0.09,-0.199,0.0
-164.33,-65.122,87.073,0.028,-0.17,0.0
-180.79,-72.561,101.16,-0.032,-0.121,0.0
-196.83,-80.732,116.16,-0.082,-0.071,0.0
-208.9,-90.122,132.13,-0.125,-0.009,0.0
-220.79,-100.0,148.35,-0.165,0.075,0.0
-243.29,-110.49,164.94,-0.183,0.15,0.0
-259.51,-120.73,179.76,-0.195,0.205,0.0
-274.27,-131.65,194.33,-0.209,0.232,0.0
-286.22,-142.87,208.54,-0.227,0.221,0.0
-296.65,-153.84,220.73,-0.242,0.241,0.0
-308.17,-164.21,231.28,-0.257,0.333,0.0
-317.19,-173.78,241.04,-0.245,0.302,0.0
-323.66,-183.23,250.06,-0.232,0.29,0.0
-327.87,-192.32,257.93,-0.216,0.284,0.0
-330.06,-200.98,265.37,-0.198,0.299,0.0
-330.43,-209.39,271.52,-0.198,0.287,0.0
-328.66,-216.71,276.77,-0.195,0.19,0.0
-325.73,-222.44,281.58,-0.191,0.106,0.0
-321.89,-227.32,285.43,-0.185,0.006,0.0
-317.32,-232.07,289.15,-0.156,-0.123,0.0
-312.26,-236.65,292.44,-0.102,-0.214,0.0
-306.22,-240.55,294.88,-0.046,-0.303,0.0
-302.01,-243.72,296.4,0.03,-0.394,0.0
-299.15,-244.21,296.46,0.106,-0.532,0.0
-296.83,-243.72,295.73,0.191,-0.685,0.0
-295.18,-243.29,295.31,0.292,-0.777,0.0
-295.55,-242.26,293.84,0.384,-0.852,0.0
-297.01,-238.84,290.79,0.454,-0.905,0.0
-298.96,-231.52,286.28,0.507,-0.97,0.0
-301.16,-220.85,280.18,0.563,-1.08,0.0
-303.29,-208.41,274.21,0.642,-1.21,0.0
-304.02,-196.16,268.48,0.731,-1.289,0.0
-301.04,-182.74,260.37,0.831,-1.327,0.0
-297.87,-166.83,247.99,0.937,-1.364,0.0
-294.45,-149.82,238.6,1.005,-1.439,0.0
-288.84,-136.04,229.63,1.051,-1.569,0.0
-283.23,-119.27,219.76,1.113,-1.686,0.0
-276.46,-101.95,209.76,1.208,-1.677,0.0
-267.5,-83.476,199.39,1.239,-1.704,0.0
-256.89,-63.354,187.13,1.338,-1.923,-1.665
-248.78,-40.671,172.74,1.45,-1.974,0.0
-239.76,-15.915,155.67,1.525,-2.043,0.0
-229.45,8.354,136.83,1.613,-2.164,0.0
-220.73,33.293,117.62,1.703,-2.196,0.0
-209.27,58.049,99.085,1.799,-2.161,0.0
-196.89,82.378,81.037,1.914,-2.1,0.0
-186.95,107.74,63.171,1.99,-2.01,0.0
-173.48,134.69,45.671,2.056,-1.99,0.0
-158.78,161.65,27.805,2.096,-1.958,0.0
-142.87,186.77,10.366,2.133,-1.981,0.0
-125.92,214.82,-9.39,2.178,-1.992,0.0
-106.77,241.22,-28.415,2.22,-1.928,0.0
-85.61,266.65,-45.976,2.271,-1.861,0.0
-63.963,291.89,-62.866,2.278,-1.793,0.0
-39.207,314.94,-79.817,2.299,-1.711,0.0
-13.841,334.63,-96.951,2.265,-1.707,0.0
8.415,357.13,-114.69,2.229,-1.714,0.0
25.915,382.38,-131.22,2.185,-1.676,0.0
39.329,403.35,-152.56,2.114,-1.652,0.0
54.634,417.68,-171.59,2.029,-1.654,0.0
59.329,427.44,-187.26,1.944,-1.606,0.0
59.573,443.05,-203.9,1.847,-1.489,0.0
57.134,456.83,-217.93,1.681,-1.423,0.0
47.134,465.18,-229.76,1.554,-1.058,0.0
34.329,472.32,-239.45,1.475,-1.399,0.0
18.659,477.38,-247.74,1.283,-1.294,0.0
1.037,479.02,-254.21,1.086,-1.005,0.0
-16.341,477.93,-258.17,1.0,-1.098,0.0
-32.561,474.51,-260.18,0.854,-1.035,0.0
-47.866,470.43,-260.49,0.695,-0.971,0.0
-59.024,464.27,-258.23,0.547,-1.001,0.0
-65.61,451.46,-254.27,0.413,-1.01,0.0
-69.268,439.33,-250.24,0.29,-1.019,0.0
-68.293,424.51,-246.89,0.161,-1.023,0.0
-61.89,403.23,-246.04,0.052,-1.015,0.0
-51.341,377.81,-245.55,-0.072,-1.122,0.0
-37.378,347.19,-245.43,-0.159,-1.2,0.0
-22.439,314.57,-241.46,-0.242,-1.145,0.0
-12.5,278.17,-230.0,-0.323,-1.143,0.0
-10.976,236.34,-211.22,-0.445,-1.09,0.0
-8.415,201.34,-191.46,-0.615,-0.984,0.0
-8.415,172.01,-172.56,-0.797,-0.911,0.0
-18.476,146.04,-152.74,-1.021,-1.001,0.0
-33.354,125.55,-134.33,-1.358,-1.029,0.0
-48.049,108.66,-118.29,-1.726,-0.91,0.0
-58.293,95.366,-107.07,-1.997,-0.703,0.0
-61.463,86.585,-102.13,-2.132,-0.577,-1.314
-59.085,80.488,-97.561,-2.174,-0.454,-0.818
-54.939,74.024,-86.037,-2.184,-0.387,-0.479
-46.585,65.671,-67.378,-2.256,-0.34,0.0
-33.659,55.488,-45.061,-2.38,-0.236,0.0
-17.744,43.659,-23.476,-2.393,-0.153,0.0
1.89,29.817,-5.549,-2.328,-0.288,0.0
21.89,15.427,7.439,-2.352,-0.529,0.0
39.207,2.805,16.463,-2.476,-0.733,0.0
52.134,-6.646,24.207,-2.577,-0.832,0.0
60.854,-13.232,33.049,-2.598,-0.824,0.0
65.793,-17.561,42.927,-2.51,-0.772,0.0
66.89,-19.634,52.317,-2.36,-0.672,0.0
64.878,-21.098,60.244,-2.177,-0.625,0.0
61.829,-22.622,66.098,-2.001,-0.635,0.0
58.293,-24.451,70.61,-1.837,-0.646,0.0
54.878,-26.707,74.329,-1.676,-0.631,0.0
52.195,-29.634,77.5,-1.522,-0.587,0.0
50.488,-33.049,80.671,-1.374,-0.556,0.0
50.61,-36.037,83.598,-1.235,-0.552,0.0
51.951,-39.512,86.463,-1.104,-0.57,0.0
55.183,-42.744,88.72,-0.983,-0.618,0.0
60.793,-44.817,89.939,-0.861,-0.685,0.0
67.683,-45.976,90.244,-0.729,-0.74,0.0
74.512,-46.585,89.878,-0.598,-0.792,0.0
81.524,-46.829,89.451,-0.483,-0.828,0.0
87.805,-46.768,88.78,-0.392,-0.847,0.0
93.476,-45.854,88.78,-0.309,-0.853,0.0
98.537,-44.756,90.183,-0.217,-0.845,0.0
104.02,-42.866,92.988,-0.136,-0.821,0.0
111.04,-39.878,96.951,-0.067,-0.793,0.0
120.73,-36.768,101.65,-0.014,-0.772,0.0
132.93,-34.451,106.22,0.015,-0.78,0.0
147.32,-32.073,109.57,0.044,-0.833,0.0
161.28,-26.402,108.78,0.095,-0.9,0.0
179.09,-22.561,108.9,0.138,-0.954,0.0
197.19,-17.866,109.76,0.185,-0.98,0.0
215.55,-12.988,110.92,0.245,-0.978,0.0
234.27,-7.866,112.13,0.258,-0.979,0.0
253.23,-1.463,113.66,0.327,-0.976,0.0
271.16,5.488,115.61,0.39,-0.995,0.0
285.24,11.463,117.74,0.457,-0.996,0.0
301.58,17.744,119.63,0.527,-1.015,0.0
322.68,25.0,120.12,0.595,-1.033,0.0
340.55,31.707,117.62,0.662,-1.045,0.0
357.87,37.561,112.13,0.742,-1.067,0.0
377.38,42.622,104.27,0.824,-1.129,0.0
396.95,46.28,96.707,0.898,-1.192,0.0
415.79,48.232,88.963,0.981,-1.223,0.0
430.55,46.768,80.366,1.056,-1.183,0.0
439.27,42.256,71.22,1.107,-1.161,0.0
443.17,36.829,62.439,1.167,-1.164,0.0
442.26,31.768,55.732,1.219,-1.157,0.0
440.37,28.232,50.122,1.243,-1.102,0.0
434.94,25.305,45.671,1.243,-1.02,0.0
427.56,22.805,41.341,1.244,-0.919,0.0
417.74,21.341,36.524,1.275,-0.875,0.0
403.11,19.878,31.707,1.337,-0.837,0.0
385.61,18.78,27.378,1.414,-0.805,0.0
367.99,18.415,23.232,1.489,-0.738,0.0
350.67,17.439,19.024,1.54,-0.64,0.0
332.87,15.061,14.878,1.58,-0.554,0.0
314.94,11.768,10.61,1.607,-0.491,0.0
297.56,8.232,7.317,1.642,-0.444,0.0
280.85,5.549,4.207,1.664,-0.391,0.0
265.73,2.866,1.463,1.647,-0.311,0.0
252.13,-0.854,-0.488,1.606,-0.235,0.0
239.33,-5.0,-2.073,1.575,-0.188,0.0
227.07,-9.329,-3.11,1.584,-0.161,0.0
215.49,-14.756,-3.78,1.593,-0.134,0.0
205.24,-21.707,-4.451,1.585,-0.063,0.0
195.98,-30.0,-5.183,1.567,0.008,0.0
186.1,-38.476,-6.463,1.541,0.065,0.0
175.31,-47.073,-8.11,1.513,0.113,0.0
164.88,-54.634,-9.878,1.492,0.169,0.0
154.82,-60.366,-11.646,1.48,0.227,0.0
144.51,-64.329,-13.415,1.474,0.307,0.0
134.33,-65.732,-14.634,1.466,0.355,0.0
125.24,-64.573,-15.488,1.461,0.4,0.0
118.17,-60.976,-15.366,1.444,0.435,0.0
112.99,-54.878,-14.634,1.443,0.453,0.0
109.15,-46.22,-13.415,1.442,0.457,0.0
106.28,-37.134,-12.073,1.435,0.438,0.0
104.39,-28.476,-10.549,1.428,0.394,0.0
102.44,-20.366,-9.573,1.438,0.33,0.0
99.756,-13.232,-9.939,1.464,0.275,0.0
96.829,-8.415,-11.402,1.471,0.218,0.0
93.78,-6.463,-13.354,1.444,0.171,0.0
91.037,-6.402,-15.366,1.409,0.118,0.0
88.11,-7.622,-17.195,1.378,0.09,0.0
85.061,-9.878,-17.683,1.337,0.078,0.0
82.378,-12.195,-16.707,1.293,0.047,0.0
79.756,-14.085,-14.085,1.263,0.01,0.0
76.829,-14.878,-10.061,1.249,-0.035,0.0
73.72,-14.451,-4.878,1.246,-0.098,0.0
70.61,-13.232,1.463,1.243,-0.172,0.0
67.561,-11.341,8.476,1.235,-0.249,0.0
65.793,-9.451,15.427,1.223,-0.313,0.0
64.085,-7.012,21.098,1.215,-0.369,0.0
62.5,-4.878,25.061,1.196,-0.418,0.0
60.976,-2.988,27.073,1.167,-0.466,0.0
59.756,-1.402,26.951,1.125,-0.5,0.0
58.841,-0.427,25.244,1.08,-0.52,0.0
58.11,-0.244,21.829,1.03,-0.501,0.0
57.378,-0.549,17.378,0.978,-0.479,0.0
56.402,-1.341,12.378,0.927,-0.46,0.0
54.756,-2.073,7.683,0.88,-0.433,0.0
52.378,-2.805,3.72,0.84,-0.407,0.0
49.39,-3.171,0.732,0.807,-0.39,0.0
46.037,-3.354,-1.341,0.773,-0.375,0.0
42.195,-3.293,-2.073,0.755,-0.364,0.0
37.988,-2.866,-2.317,0.749,-0.366,0.0
33.476,-2.256,-1.89,0.743,-0.372,0.0
29.207,-1.341,-0.854,0.741,-0.368,0.0
25.427,-0.427,0.061,0.735,-0.363,0.0
21.951,0.732,0.793,0.736,-0.355,0.0
18.902,1.402,1.159,0.737,-0.349,0.0
16.341,1.707,1.098,0.731,-0.341,0.0
14.085,1.768,0.488,0.719,-0.331,0.0
12.378,1.524,-0.427,0.709,-0.308,0.0
10.976,1.098,-1.463,0.699,-0.283,0.0
9.573,0.549,-2.439,0.686,-0.264,0.0
8.11,-0.061,-3.11,0.66,-0.241,0.0
6.768,-0.671,-3.537,0.641,-0.214,0.0
5.427,-0.976,-3.354,0.626,-0.203,0.0
3.476,-1.28,-2.805,0.609,-0.198,0.0
1.524,-1.768,-1.524,0.605,-0.196,0.0
-0.366,-2.256,0.366,0.594,-0.195,0.0
-2.378,-2.683,2.805,0.584,-0.198,0.0
-4.268,-3.049,5.366,0.582,-0.205,0.0
-6.159,-3.841,8.232,0.572,-0.228,0.0
-7.866,-4.695,11.28,0.561,-0.255,0.0
-10.0,-5.366,14.146,0.549,-0.284,0.0
-12.988,-6.037,16.89,0.539,-0.315,0.0
-16.524,-6.646,19.512,0.528,-0.352,0.0
-20.366,-7.561,22.012,0.525,-0.37,0.0
-25.0,-8.415,24.573,0.526,-0.381,0.0
-30.244,-9.573,27.195,0.527,-0.386,0.0
-35.793,-10.732,29.573,0.537,-0.384,0.0
-41.707,-11.951,32.195,0.551,-0.385,0.0
-47.866,-13.11,35.0,0.554,-0.394,0.0
-53.72,-14.024,37.622,0.564,-0.407,0.0
-59.573,-15.0,40.549,0.565,-0.417,0.0
-65.0,-16.037,43.293,0.562,-0.426,0.0
-70.244,-17.012,45.915,0.555,-0.427,0.0
-75.549,-18.171,48.11,0.548,-0.43,0.0
-81.037,-19.207,49.634,0.543,-0.447,0.0
-87.439,-20.366,50.732,0.528,-0.463,0.0
-94.634,-21.646,51.402,0.518,-0.468,0.0
-102.07,-23.293,52.073,0.509,-0.461,0.0
-110.43,-25.244,52.683,0.503,-0.442,0.0
-119.15,-27.439,53.659,0.496,-0.413,0.0
-127.87,-29.878,55.244,0.486,-0.385,0.0
-136.95,-32.134,57.683,0.476,-0.366,0.0
-146.16,-34.634,60.915,0.463,-0.337,0.0
-155.31,-37.439,64.878,0.454,-0.313,0.0
-164.33,-40.305,69.878,0.452,-0.292,0.0
-172.99,-43.415,75.488,0.448,-0.277,0.0
-181.89,-46.707,81.463,0.448,-0.256,0.0
-190.67,-50.732,87.805,0.45,-0.234,0.0
-199.21,-54.878,94.512,0.448,-0.213,0.0
-207.68,-59.146,101.16,0.444,-0.192,0.0
-215.85,-63.659,108.05,0.435,-0.171,0.0
-223.41,-68.415,114.94,0.42,-0.143,0.0
-229.82,-73.659,122.13,0.41,-0.108,0.0
-235.37,-79.085,129.39,0.39,-0.071,0.0
-239.94,-84.39,136.4,0.369,-0.035,0.0
-243.35,-89.878,142.81,0.343,-0.017,0.0
-245.85,-95.427,148.78,0.317,-0.012,0.0
-246.95,-100.61,154.45,0.284,-0.017,0.0
-246.28,-105.55,160.0,0.249,-0.016,0.0
-245.73,-111.28,165.18,0.214,-0.015,0.0
-245.12,-117.32,170.24,0.189,-0.016,0.0
-243.17,-123.17,176.1,0.172,-0.02,0.0
-240.31,-129.15,183.29,0.156,-0.046,0.0
-237.32,-135.0,191.16,0.135,-0.088,0.0
-234.69,-140.18,199.02,0.124,-0.156,0.0
-232.38,-144.15,206.4,0.137,-0.243,0.0
-230.61,-147.13,212.81,0.168,-0.338,0.0
-229.88,-148.72,218.17,0.206,-0.424,0.0
-230.0,-148.66,222.68,0.231,-0.464,0.0
-230.55,-146.95,226.77,0.271,-0.484,0.0
-232.81,-145.0,230.67,0.315,-0.502,0.0
-237.26,-143.23,235.24,0.358,-0.515,0.0
-241.95,-141.22,241.4,0.415,-0.515,0.0
-247.81,-139.63,247.68,0.493,-0.53,0.0
-256.16,-138.29,253.54,0.599,-0.574,0.0
-265.55,-136.22,259.02,0.719,-0.643,0.0
-275.12,-134.09,262.07,0.847,-0.73,0.0
-285.37,-130.31,261.16,0.964,-0.831,0.0
-294.94,-123.9,257.13,1.086,-0.913,0.0
-302.13,-115.37,250.43,1.187,-1.006,0.0
-305.55,-104.82,241.1,1.26,-1.128,0.0
-305.49,-91.646,229.45,1.34,-1.203,0.0
-302.99,-75.976,214.02,1.402,-1.279,0.0
-293.54,-56.646,197.38,1.468,-1.416,0.0
-277.26,-35.854,181.28,1.545,-1.583,0.0
-260.73,-15.183,164.15,1.651,-1.765,0.0
-241.71,8.659,144.27,1.77,-1.903,0.0
-221.71,35.061,120.92,1.936,-2.011,0.0
-202.38,64.756,96.768,2.061,-2.155,0.0
-181.34,94.695,74.39,2.15,-2.322,0.0
-162.38,125.0,51.524,2.246,-2.457,0.0
-146.22,157.87,28.049,2.335,-2.445,0.0
-135.24,191.16,4.756,2.458,-2.397,0.0
-125.37,221.59,-18.537,2.557,-2.455,0.0
-115.24,249.21,-37.622,2.671,-2.515,0.0
-110.18,273.78,-59.146,2.777,-2.416,0.0
-102.19,297.26,-80.427,2.841,-2.317,0.0
-95.732,317.99,-100.24,2.871,-2.132,0.0
-90.305,337.93,-121.04,2.849,-2.134,0.0
-84.573,357.56,-141.71,2.826,-2.298,0.0
-80.854,374.21,-161.65,2.789,-2.089,0.0
-77.378,387.93,-180.91,2.737,-2.019,0.0
-73.598,399.02,-198.84,2.671,-2.007,0.0
-72.317,409.02,-215.79,2.57,-1.897,0.0
-73.78,420.85,-231.65,2.467,-1.871,0.0
-81.707,435.49,-245.67,2.355,-1.859,0.0
-91.22,450.06,-260.73,2.228,-1.832,0.0
-97.927,452.5,-272.13,2.119,-1.815,0.0
-108.29,451.28,-279.02,1.982,-1.744,0.0
-115.31,453.54,-282.44,1.873,-1.631,0.0
-120.92,457.81,-282.93,1.719,-1.5,0.0
-124.27,459.76,-279.51,1.521,-1.355,0.0
-127.56,458.6,-274.69,1.431,-1.535,0.0
-131.28,457.99,-271.65,1.291,-1.515,0.0
-127.87,446.34,-267.87,1.114,-1.466,0.0
-120.55,427.99,-262.44,0.929,-1.44,0.0
-107.68,415.0,-257.26,0.794,-1.384,0.0
-89.573,402.01,-251.46,0.668,-1.308,0.0
-73.415,387.13,-245.49,0.456,-1.191,0.0
-59.329,369.57,-243.29,0.32,-1.279,0.0
-45.122,344.02,-246.95,0.191,-1.357,0.0
-33.902,316.95,-246.59,-0.015,-1.311,0.0
-24.024,290.18,-241.52,-0.182,-1.256,0.0
-20.244,264.94,-230.0,-0.311,-1.251,0.0
-18.598,240.31,-213.54,-0.506,-0.937,0.0
-27.378,216.16,-194.63,-0.539,-0.776,0.0
-43.171,194.51,-174.39,-0.649,-0.847,0.0
-56.341,177.74,-152.87,-0.913,-0.73,0.0
-72.622,163.6,-131.77,-1.302,-0.544,0.0
-88.841,148.23,-112.01,-1.725,-0.51,0.0
-97.134,136.16,-95.366,-2.14,-0.387,0.0
-97.256,127.32,-83.171,-2.459,-0.22,0.0
-89.268,119.88,-72.5,-2.665,-0.233,-1.105
-75.122,112.62,-57.195,-2.742,-0.299,-0.783
-56.463,102.81,-36.159,-2.775,-0.271,0.0
-33.476,90.0,-13.354,-2.833,-0.151,0.0
-8.11,76.159,6.402,-2.826,-0.164,0.0
17.561,61.524,21.22,-2.769,-0.323,0.0
41.585,45.488,32.134,-2.752,-0.542,0.0
62.012,27.195,43.415,-2.797,-0.717,0.0
75.671,11.098,52.134,-2.827,-0.805,0.0
83.537,-2.317,58.354,-2.772,-0.772,0.0
85.854,-16.402,65.0,-2.622,-0.646,0.0
85.061,-28.841,72.378,-2.372,-0.636,0.0
78.354,-40.976,79.512,-2.14,-0.653,0.0
68.415,-53.11,86.22,-1.986,-0.516,0.0
56.707,-65.793,92.805,-1.818,-0.469,0.0
44.085,-76.646,98.415,-1.579,-0.479,0.0
33.598,-84.817,102.74,-1.347,-0.428,0.0
26.098,-91.585,106.95,-1.142,-0.394,0.0
22.012,-97.378,111.34,-0.947,-0.44,0.0
21.646,-101.95,115.67,-0.742,-0.474,0.0
25.366,-106.28,119.45,-0.556,-0.478,0.0
33.354,-109.82,122.32,-0.377,-0.545,0.0
44.39,-112.38,123.54,-0.215,-0.646,0.0
58.049,-113.96,123.78,-0.088,-0.748,0.0
73.415,-115.0,123.35,0.023,-0.847,0.0
88.72,-115.24,122.81,0.116,-0.914,0.0
103.23,-114.39,122.32,0.192,-0.957,0.0
116.46,-112.81,122.56,0.262,-0.971,0.0
127.38,-110.85,124.02,0.332,-0.974,0.0
136.65,-108.42,126.95,0.381,-0.962,0.0
144.45,-105.73,131.04,0.408,-0.919,0.0
152.19,-103.54,134.94,0.426,-0.87,0.0
162.13,-101.04,137.93,0.449,-0.843,0.0
171.89,-99.146,139.94,0.498,-0.853,0.0
182.26,-97.317,140.85,0.551,-0.873,0.0
192.74,-95.488,141.04,0.578,-0.86,0.0
203.6,-92.866,141.52,0.57,-0.826,0.0
212.5,-89.817,142.01,0.567,-0.822,0.0
221.77,-86.037,143.17,0.572,-0.807,0.0
230.49,-82.134,144.51,0.593,-0.794,0.0
239.51,-77.805,145.43,0.625,-0.766,0.0
249.63,-72.439,145.67,0.679,-0.771,0.0
260.85,-66.22,145.18,0.745,-0.784,0.0
271.28,-61.159,144.39,0.813,-0.807,0.0
278.78,-56.707,143.66,0.868,-0.83,0.0
285.67,-51.951,143.35,0.915,-0.836,0.0
292.93,-47.073,143.48,0.962,-0.849,0.0
304.02,-41.402,143.96,1.002,-0.863,0.0
314.08,-35.793,144.09,1.034,-0.89,0.0
326.34,-30.549,142.99,1.071,-0.934,0.0
339.82,-25.793,140.31,1.141,-1.008,0.0
353.35,-21.829,136.59,1.227,-1.071,0.0
363.54,-21.402,131.71,1.315,-1.138,0.0
370.67,-23.72,124.82,1.39,-1.147,0.0
374.02,-27.012,117.01,1.448,-1.123,0.0
373.66,-30.549,109.21,1.498,-1.089,0.0
366.34,-34.207,101.71,1.522,-1.019,0.0
353.23,-36.098,95.488,1.517,-0.929,0.0
335.43,-36.159,90.671,1.516,-0.826,0.0
314.94,-34.695,87.012,1.533,-0.699,0.0
292.01,-32.134,84.939,1.548,-0.614,0.0
268.84,-27.866,83.476,1.573,-0.544,0.0
245.06,-23.049,82.195,1.604,-0.517,0.0
223.17,-18.476,80.793,1.641,-0.496,0.0
204.02,-15.671,78.537,1.668,-0.48,0.0
186.65,-14.268,75.244,1.668,-0.453,0.0
171.16,-13.78,70.183,1.669,-0.448,0.0
157.62,-14.451,63.72,1.674,-0.451,0.0
145.73,-16.159,56.159,1.678,-0.442,0.0
135.31,-18.415,47.744,1.673,-0.405,0.0
125.85,-21.22,39.024,1.64,-0.356,0.0
117.38,-24.207,29.756,1.61,-0.315,0.0
110.73,-26.098,21.707,1.606,-0.274,0.0
106.58,-26.402,15.122,1.609,-0.234,0.0
105.73,-25.61,10.305,1.61,-0.183,0.0
108.11,-23.293,7.134,1.595,-0.144,0.0
113.17,-19.817,5.122,1.574,-0.131,0.0
119.82,-16.402,3.232,1.56,-0.149,0.0
127.01,-13.049,0.915,1.566,-0.194,0.0
133.96,-9.756,-2.256,1.592,-0.239,0.0
139.39,-7.561,-6.341,1.607,-0.275,0.0
146.65,-10.549,-9.024,1.592,-0.291,0.0
164.02,-21.585,-6.768,1.559,-0.274,0.0
191.4,-34.573,0.061,1.513,-0.248,0.0
219.27,-48.232,8.963,1.467,-0.201,0.0
234.82,-57.744,12.256,1.396,-0.193,0.0
223.29,-61.037,5.244,1.218,-0.246,0.0
193.72,-56.89,-9.451,1.158,-0.3,0.0
161.04,-49.329,-22.805,1.167,-0.33,0.0
138.11,-38.78,-28.415,1.184,-0.122,0.0
121.95,-28.11,-27.805,1.233,0.106,0.0
103.29,-20.671,-24.878,1.201,0.239,0.0
86.585,-15.671,-19.451,1.215,0.178,0.0
73.171,-10.61,-13.78,1.232,-0.034,0.0
58.293,-3.232,-8.963,1.272,-0.221,0.0
45.183,4.573,-6.402,1.309,-0.352,0.0
35.854,10.915,-5.305,1.248,-0.475,0.0
29.146,15.366,-5.183,1.165,-0.517,0.0
23.841,18.293,-6.28,1.107,-0.568,0.0
20.671,20.549,-8.049,1.1,-0.57,0.0
20.061,22.256,-10.793,1.082,-0.566,0.0
21.159,22.927,-13.598,1.042,-0.586,0.0
23.232,22.805,-16.28,0.986,-0.63,0.0
25.915,21.951,-18.476,0.925,-0.663,0.0
29.268,21.037,-20.061,0.879,-0.663,0.0
32.439,20.244,-20.915,0.853,-0.66,0.0
34.939,19.573,-21.159,0.835,-0.665,0.0
37.5,18.72,-21.159,0.828,-0.669,0.0
39.756,18.293,-20.793,0.814,-0.66,0.0
41.707,18.049,-20.183,0.807,-0.639,0.0
43.354,17.439,-19.451,0.796,-0.618,0.0
44.39,16.585,-19.207,0.792,-0.58,0.0
45.305,15.366,-19.39,0.782,-0.54,0.0
45.549,14.085,-19.634,0.77,-0.509,0.0
44.939,12.5,-20.061,0.754,-0.479,0.0
43.78,10.732,-20.915,0.734,-0.45,0.0
41.951,8.72,-21.768,0.709,-0.421,0.0
39.512,6.463,-22.439,0.686,-0.396,0.0
36.28,4.268,-22.744,0.671,-0.375,0.0
32.622,2.134,-22.622,0.66,-0.359,0.0
28.598,0.244,-22.439,0.648,-0.346,0.0
24.695,-1.402,-22.012,0.648,-0.346,0.0
20.915,-3.354,-21.341,0.638,-0.351,0.0
17.805,-5.061,-20.366,0.625,-0.367,0.0
16.22,-6.463,-18.902,0.625,-0.381,0.0
16.037,-7.927,-17.378,0.619,-0.392,0.0
16.341,-9.451,-15.976,0.613,-0.408,0.0
17.744,-10.915,-14.268,0.612,-0.433,0.0
19.817,-12.378,-12.561,0.606,-0.464,0.0
22.073,-13.78,-11.159,0.604,-0.482,0.0
24.146,-15.0,-10.0,0.595,-0.506,0.0
25.732,-15.854,-8.963,0.587,-0.535,0.0
26.768,-16.341,-7.866,0.583,-0.557,0.0
27.378,-17.012,-6.646,0.581,-0.572,0.0
28.476,-17.622,-4.939,0.575,-0.578,0.0
30.0,-18.476,-2.622,0.574,-0.576,0.0
30.671,-19.634,-0.305,0.586,-0.583,0.0
29.146,-21.037,1.28,0.598,-0.596,0.0
25.671,-22.561,2.378,0.604,-0.616,0.0
22.134,-24.085,3.537,0.601,-0.634,0.0
18.171,-26.159,5.183,0.587,-0.633,0.0
14.024,-28.293,6.707,0.581,-0.606,0.0
8.78,-30.366,8.049,0.574,-0.588,0.0
2.012,-32.073,9.573,0.564,-0.568,0.0
-5.915,-33.476,11.098,0.569,-0.558,0.0
-14.207,-34.939,13.11,0.568,-0.543,0.0
-21.585,-35.854,15.305,0.565,-0.506,0.0
-26.951,-36.402,17.927,0.567,-0.462,0.0
-29.146,-36.524,20.488,0.568,-0.433,0.0
-30.183,-36.646,23.11,0.578,-0.423,0.0
-36.28,-37.012,22.683,0.6,-0.438,0.0
-44.939,-37.561,19.39,0.628,-0.478,0.0
-42.073,-37.683,19.634,0.662,-0.514,0.0
-32.744,-38.171,21.768,0.681,-0.554,0.0
-23.72,-39.085,22.622,0.686,-0.496,0.0
-12.5,-39.573,23.049,0.693,-0.546,0.0
0.488,-40.0,24.573,0.659,-0.615,0.0
13.841,-41.402,26.768,0.654,-0.641,0.0
27.012,-43.049,28.78,0.652,-0.646,0.0
40.305,-44.329,31.768,0.619,-0.622,0.0
50.793,-46.037,35.305,0.593,-0.576,0.0
52.5,-47.134,35.793,0.579,-0.529,0.0
47.561,-47.134,34.207,0.571,-0.5,0.0
41.098,-45.915,32.317,0.557,-0.489,0.0
37.134,-45.122,31.402,0.552,-0.426,0.0
36.768,-44.573,31.585,0.571,-0.375,0.0
38.78,-44.207,32.439,0.574,-0.357,0.0
41.28,-44.756,33.415,0.581,-0.392,0.0
42.744,-45.488,33.902,0.589,-0.455,0.0
43.598,-46.159,34.146,0.589,-0.511,0.0
43.476,-46.951,34.817,0.587,-0.546,0.0
41.89,-46.463,35.488,0.582,-0.532,0.0
32.683,-44.024,33.293,0.561,-0.532,0.0
11.951,-41.707,30.854,0.527,-0.504,0.0
-4.146,-37.744,31.646,0.497,-0.484,0.0
-17.073,-35.061,35.061,0.474,-0.449,0.0
-31.341,-36.402,39.085,0.492,-0.283,0.0
-48.476,-39.268,43.841,0.419,-0.299,0.0
-67.378,-41.28,51.098,0.267,-0.285,0.0
-87.439,-44.085,61.037,0.235,-0.244,0.0
-108.84,-46.89,73.049,0.207,-0.173,0.0
-129.69,-49.207,87.744,0.144,-0.09,0.0
-148.72,-53.841,105.92,0.07,-0.052,0.0
-167.01,-60.427,127.62,0.006,0.037,0.0
-184.76,-67.439,151.77,-0.05,0.119,0.0
-200.67,-74.512,177.19,-0.09,0.165,0.0
-215.91,-81.524,202.32,-0.136,0.249,0.0
-229.45,-89.451,226.46,-0.164,0.291,0.0
-240.79,-97.988,249.69,-0.2,0.284,0.0
-249.51,-106.83,272.07,-0.241,0.336,0.0
-255.79,-115.67,292.74,-0.275,0.391,0.0
-260.43,-124.76,311.34,-0.291,0.458,0.0
-263.54,-134.09,327.74,-0.29,0.492,0.0
-265.43,-143.23,341.83,-0.279,0.477,0.0
-265.98,-152.19,353.84,-0.284,0.466,0.0
-266.22,-161.1,363.9,-0.299,0.446,0.0
-266.52,-169.88,372.01,-0.316,0.412,0.0
-266.89,-177.13,378.35,-0.332,0.37,0.0
-268.17,-183.05,383.35,-0.338,0.302,0.0
-269.88,-187.74,387.44,-0.341,0.21,0.0
-271.77,-190.55,391.4,-0.35,0.111,0.0
-273.96,-191.52,395.18,-0.344,0.007,0.0
-275.85,-191.22,398.66,-0.314,-0.107,0.0
-278.17,-190.12,401.1,-0.26,-0.221,0.0
-281.16,-187.32,402.74,-0.194,-0.362,0.0
-283.84,-183.05,404.82,-0.104,-0.516,0.0
-285.67,-179.51,407.68,0.01,-0.657,0.0
-286.46,-177.87,410.31,0.128,-0.766,0.0
-285.73,-176.95,411.34,0.251,-0.841,0.0
-282.19,-175.73,409.88,0.381,-0.948,0.0
-275.85,-172.44,404.27,0.481,-1.107,0.0
-266.46,-165.18,394.82,0.541,-1.325,0.0
-255.55,-154.63,380.73,0.573,-1.567,0.0
-247.19,-144.09,363.42,0.637,-1.77,0.0
-242.38,-128.78,342.19,0.737,-1.936,0.0
-242.13,-107.68,319.82,0.866,-2.088,0.0
-246.22,-82.195,296.22,0.983,-2.25,0.0
-253.54,-52.805,273.72,1.062,-2.36,0.0
-264.45,-22.622,252.93,1.165,-2.459,0.0
-277.13,6.524,232.99,1.279,-2.492,0.0
-287.81,37.439,213.6,1.386,-2.507,0.0
-293.54,71.585,194.63,1.493,-2.472,0.0
-290.0,105.24,175.0,1.571,-2.484,0.0
-281.58,136.77,152.87,1.64,-2.54,0.0
-267.93,167.44,128.11,1.755,-2.588,0.0
-245.43,197.5,102.74,1.913,-2.594,0.0
-218.05,226.59,77.988,2.041,-2.542,0.0
-186.1,254.63,55.0,2.142,-2.482,0.0
-150.79,282.81,33.232,2.208,-2.423,0.0
-115.0,310.98,12.5,2.252,-2.369,0.0
-79.817,338.23,-7.256,2.305,-2.383,0.0
-47.439,363.72,-26.402,2.359,-2.365,0.0
-20.732,389.08,-45.549,2.398,-2.35,0.0
1.89,413.78,-63.902,2.409,-2.284,0.0
17.622,436.22,-81.646,2.391,-2.179,0.0
25.854,458.05,-99.512,2.351,-2.071,0.0
28.598,477.26,-115.55,2.305,-1.965,0.0
23.293,493.84,-130.37,2.216,-1.811,0.0
12.378,513.05,-145.0,2.116,-1.697,0.0
-0.244,528.05,-160.91,2.012,-1.576,0.0
-16.037,537.99,-178.29,1.876,-1.517,0.0
-31.89,547.2,-195.61,1.755,-1.535,0.0
-46.037,555.06,-212.01,1.653,-1.458,0.0
-58.293,560.06,-226.46,1.48,-1.335,0.0
-68.415,561.34,-237.32,1.326,-1.299,0.0
-75.671,560.12,-244.21,1.201,-1.316,0.0
-79.939,555.49,-247.87,1.055,-1.309,0.0
-83.293,548.11,-248.78,0.906,-1.295,0.0
-83.659,538.54,-247.74,0.776,-1.331,0.0
-79.207,527.32,-245.67,0.624,-1.406,0.0
-68.598,514.02,-242.93,0.441,-1.44,0.0
-52.5,498.23,-239.63,0.246,-1.473,0.0
-33.415,478.17,-235.43,0.069,-1.468,0.0
-8.902,457.62,-230.85,-0.079,-1.46,0.0
16.28,430.06,-226.28,-0.208,-1.473,0.0
40.976,393.78,-220.98,-0.371,-1.484,0.0
60.915,353.11,-213.23,-0.572,-1.515,0.0
75.854,309.69,-200.79,-0.737,-1.558,0.0
82.378,264.39,-180.98,-0.922,-1.508,0.0
83.171,223.05,-160.24,-1.135,-1.349,0.0
73.293,184.15,-141.22,-1.353,-1.153,0.0
47.805,151.16,-120.37,-1.694,-1.065,0.0
17.012,126.34,-96.646,-2.214,-1.054,0.0
-9.573,105.18,-74.939,-2.766,-0.919,0.0
-29.39,88.841,-60.976,-3.156,-0.579,0.0
-48.659,80.976,-53.841,-3.241,-0.293,-1.463
-64.634,79.634,-46.463,-3.134,-0.29,-1.054
-69.024,78.659,-32.012,-3.059,-0.423,-0.666
-59.268,75.305,-9.634,-3.097,-0.319,-0.264
-41.463,68.72,13.293,-3.115,-0.067,0.094
-17.988,56.707,31.707,-3.031,-0.02,0.0
12.744,40.427,45.122,-2.936,-0.348,0.0
45.671,21.585,53.598,-2.966,-0.766,0.0
74.634,3.963,58.598,-3.069,-0.965,0.0
96.098,-10.183,62.622,-3.089,-0.991,0.0
110.06,-19.939,67.805,-3.022,-0.997,0.0
117.87,-26.524,73.78,-2.897,-1.006,0.0
119.21,-30.671,79.512,-2.747,-0.956,0.0
115.24,-34.024,84.024,-2.591,-0.886,0.0
107.07,-37.866,87.439,-2.397,-0.856,0.0
95.976,-43.963,90.488,-2.161,-0.82,0.0
83.963,-50.915,93.354,-1.934,-0.751,0.0
73.537,-55.488,95.915,-1.734,-0.687,0.0
64.207,-59.085,98.232,-1.559,-0.648,0.0
56.768,-62.134,100.43,-1.407,-0.656,0.0
52.561,-63.659,102.07,-1.252,-0.696,0.0
51.402,-64.451,102.74,-1.075,-0.742,0.0
52.805,-65.0,102.38,-0.898,-0.805,0.0
57.134,-65.549,100.85,-0.729,-0.901,0.0
65.854,-65.305,98.476,-0.576,-1.0,0.0
76.951,-65.061,95.061,-0.43,-1.075,0.0
89.207,-65.732,91.585,-0.299,-1.149,0.0
103.05,-66.341,87.927,-0.188,-1.209,0.0
118.29,-67.5,83.902,-0.112,-1.242,0.0
132.56,-69.634,79.512,-0.054,-1.276,0.0
144.21,-72.012,74.878,0.014,-1.31,0.0
154.27,-73.902,70.0,0.083,-1.314,0.0
164.21,-74.634,65.732,0.137,-1.296,0.0
173.84,-74.39,61.829,0.184,-1.267,0.0
182.32,-73.902,57.378,0.232,-1.251,0.0
190.37,-72.744,52.805,0.292,-1.251,0.0
199.21,-70.549,48.72,0.363,-1.255,0.0
208.84,-68.293,45.427,0.426,-1.248,0.0
219.09,-65.732,42.744,0.481,-1.23,0.0
229.09,-62.988,40.671,0.538,-1.202,0.0
238.48,-60.549,40.793,0.598,-1.181,0.0
250.18,-58.11,42.561,0.665,-1.154,0.0
262.62,-55.61,44.024,0.72,-1.128,0.0
276.65,-54.268,43.78,0.791,-1.125,0.0
290.85,-53.171,42.073,0.877,-1.154,0.0
304.76,-51.402,39.329,0.963,-1.193,0.0
316.1,-50.305,36.098,1.032,-1.208,0.0
326.1,-49.878,32.927,1.077,-1.18,0.0
334.45,-49.329,30.488,1.116,-1.137,0.0
341.89,-48.72,28.72,1.168,-1.05,0.0
349.08,-47.988,26.951,1.228,-0.974,0.0
354.08,-47.927,25.427,1.3,-0.925,0.0
354.88,-48.171,23.72,1.37,-0.893,0.0
353.66,-47.744,22.073,1.43,-0.838,0.0
351.65,-46.341,20.305,1.488,-0.801,0.0
349.57,-45.305,17.622,1.527,-0.753,0.0
347.13,-44.939,14.878,1.555,-0.723,0.0
343.35,-45.183,11.341,1.599,-0.718,0.0
337.01,-46.22,7.5,1.657,-0.711,0.0
328.9,-47.012,3.598,1.705,-0.697,0.0
319.33,-48.72,-0.915,1.725,-0.663,0.0
307.74,-52.988,-5.915,1.728,-0.593,0.0
294.08,-57.317,-10.732,1.739,-0.53,0.0
278.9,-60.488,-15.0,1.776,-0.479,0.0
262.62,-62.317,-17.927,1.808,-0.398,0.0
246.22,-62.988,-19.512,1.825,-0.275,0.0
230.55,-62.561,-20.061,1.835,-0.146,0.0
217.01,-62.317,-19.695,1.844,-0.061,0.0
205.06,-61.463,-19.878,1.84,0.006,0.0
194.63,-59.817,-21.22,1.832,0.035,0.0
185.79,-57.683,-23.415,1.826,0.047,0.0
178.11,-55.061,-26.463,1.81,0.063,0.0
171.52,-53.841,-29.268,1.796,0.113,0.0
165.55,-53.537,-31.768,1.785,0.196,0.0
160.61,-54.207,-33.476,1.76,0.279,0.0
156.04,-55.793,-34.451,1.717,0.33,0.0
151.1,-58.293,-34.634,1.676,0.365,0.0
145.98,-60.122,-34.085,1.631,0.369,0.0
140.67,-60.854,-33.354,1.594,0.371,0.0
135.55,-60.488,-32.378,1.559,0.373,0.0
129.82,-58.049,-31.341,1.521,0.359,0.0
123.78,-53.537,-30.549,1.493,0.341,0.0
117.81,-47.561,-29.39,1.477,0.316,0.0
111.89,-40.854,-28.049,1.47,0.314,0.0
105.92,-33.171,-26.402,1.47,0.305,0.0
100.24,-25.61,-24.512,1.469,0.277,0.0
94.695,-18.293,-22.866,1.464,0.244,0.0
88.537,-11.646,-21.585,1.441,0.203,0.0
81.89,-6.098,-21.037,1.405,0.158,0.0
75.854,-1.28,-21.341,1.361,0.119,0.0
70.122,2.195,-21.646,1.303,0.08,0.0
64.512,4.573,-22.5,1.234,0.04,0.0
59.085,6.463,-23.841,1.171,-0.002,0.0
53.659,8.476,-24.939,1.127,-0.026,0.0
48.72,10.549,-25.732,1.093,-0.046,0.0
43.902,13.232,-25.976,1.059,-0.093,0.0
39.207,16.341,-25.671,1.052,-0.133,0.0
35.0,19.451,-24.817,1.042,-0.178,0.0
31.402,22.561,-23.598,1.027,-0.227,0.0
27.622,25.549,-22.683,1.016,-0.276,0.0
23.841,28.232,-21.829,0.993,-0.322,0.0
19.817,30.671,-20.915,0.975,-0.369,0.0
16.28,32.134,-20.305,0.945,-0.4,0.0
12.805,32.927,-20.366,0.914,-0.421,0.0
8.963,32.988,-20.732,0.883,-0.437,0.0
4.939,32.073,-20.915,0.85,-0.439,0.0
1.22,30.793,-21.159,0.817,-0.438,0.0
-2.439,28.78,-21.341,0.776,-0.433,0.0
-5.671,26.341,-21.463,0.747,-0.422,0.0
-8.354,23.902,-21.28,0.722,-0.423,0.0
-11.585,21.341,-21.585,0.714,-0.408,0.0
-14.451,19.085,-21.28,0.703,-0.409,0.0
-16.22,16.707,-20.122,0.705,-0.409,0.0
-17.5,14.207,-18.415,0.704,-0.409,0.0
-17.988,11.646,-16.098,0.721,-0.403,0.0
-17.5,8.78,-13.598,0.748,-0.378,0.0
-16.22,6.402,-10.854,0.758,-0.38,0.0
-14.634,4.695,-8.537,0.754,-0.415,0.0
-12.927,3.476,-6.585,0.762,-0.435,0.0
-10.915,2.5,-5.0,0.773,-0.434,0.0
-8.963,1.585,-3.78,0.794,-0.433,0.0
-7.378,0.915,-3.171,0.813,-0.425,0.0
-6.463,0.366,-3.354,0.823,-0.42,0.0
-6.28,-0.122,-4.146,0.831,-0.409,0.0
-6.89,-0.366,-5.305,0.838,-0.402,0.0
-8.049,-0.305,-6.463,0.826,-0.404,0.0
-9.695,-0.244,-7.683,0.816,-0.398,0.0
-12.256,0.244,-8.78,0.818,-0.395,0.0
-15.244,0.976,-9.207,0.826,-0.39,0.0
-18.354,1.768,-9.39,0.839,-0.389,0.0
-21.28,2.439,-8.963,0.846,-0.389,0.0
-23.841,2.927,-7.927,0.853,-0.396,0.0
-25.793,3.598,-6.646,0.856,-0.394,0.0
-27.073,3.963,-5.0,0.864,-0.397,0.0
-27.927,4.695,-2.927,0.882,-0.403,0.0
-27.622,5.488,-0.61,0.897,-0.406,0.0
-26.402,6.341,1.89,0.916,-0.417,0.0
-24.634,7.012,4.024,0.925,-0.428,0.0
-21.768,7.561,5.305,0.932,-0.445,0.0
-18.963,8.11,6.098,0.926,-0.473,0.0
-16.341,8.049,6.159,0.909,-0.49,0.0
-13.537,8.171,5.305,0.876,-0.506,0.0
-11.341,8.598,3.476,0.843,-0.514,0.0
-9.939,9.085,1.098,0.809,-0.515,0.0
-9.39,9.756,-1.829,0.771,-0.509,0.0
-9.207,10.915,-5.061,0.736,-0.482,0.0
-9.39,12.5,-8.049,0.715,-0.457,0.0
-10.183,14.146,-10.61,0.699,-0.43,0.0
-11.098,16.098,-12.744,0.688,-0.413,0.0
-11.768,18.171,-14.207,0.677,-0.4,0.0
-12.073,20.061,-15.061,0.675,-0.384,0.0
-12.073,22.073,-15.427,0.684,-0.377,0.0
-11.463,23.963,-15.61,0.693,-0.381,0.0
-10.305,25.915,-15.122,0.706,-0.383,0.0
-8.232,27.561,-14.268,0.719,-0.386,0.0
-5.61,29.024,-13.72,0.729,-0.387,0.0
-2.134,30.427,-13.11,0.73,-0.395,0.0
1.829,31.646,-12.988,0.727,-0.409,0.0
5.854,32.622,-13.354,0.719,-0.427,0.0
10.183,32.988,-14.085,0.709,-0.436,0.0
14.695,33.11,-15.0,0.698,-0.441,0.0
19.268,32.988,-15.976,0.684,-0.44,0.0
24.39,31.829,-16.524,0.665,-0.434,0.0
28.963,29.329,-16.951,0.645,-0.435,0.0
32.988,26.951,-17.317,0.625,-0.435,0.0
36.524,24.451,-17.378,0.612,-0.435,0.0
39.207,21.585,-17.195,0.593,-0.445,0.0
41.585,18.659,-16.341,0.587,-0.474,0.0
43.537,15.549,-14.756,0.613,-0.448,0.0
44.878,12.195,-12.622,0.625,-0.421,0.0
45.61,9.024,-10.061,0.615,-0.421,0.0
45.61,5.976,-7.134,0.612,-0.419,0.0
44.634,2.866,-4.024,0.609,-0.433,0.0
42.866,-0.305,-0.671,0.606,-0.441,0.0
40.0,-3.354,2.622,0.606,-0.436,0.0
36.037,-6.22,5.793,0.598,-0.427,0.0
31.098,-9.024,9.024,0.586,-0.417,0.0
25.366,-11.463,11.89,0.575,-0.408,0.0
18.963,-13.902,15.061,0.564,-0.393,0.0
12.195,-16.037,18.293,0.55,-0.376,0.0
4.939,-17.988,21.829,0.542,-0.351,0.0
-2.561,-19.939,25.854,0.531,-0.326,0.0
-10.305,-21.768,30.366,0.515,-0.311,0.0
-18.171,-23.902,35.366,0.497,-0.297,0.0
-26.28,-26.22,40.732,0.484,-0.295,0.0
-34.634,-29.085,46.463,0.463,-0.289,0.0
-43.537,-32.134,52.683,0.447,-0.28,0.0
-52.866,-35.549,59.451,0.428,-0.274,0.0
-63.049,-39.817,66.768,0.394,-0.267,0.0
-73.963,-44.756,74.756,0.36,-0.247,0.0
-85.732,-50.61,83.476,0.328,-0.223,0.0
-98.415,-57.256,92.805,0.292,-0.199,0.0
-112.01,-64.695,102.93,0.249,-0.166,0.0
-126.04,-72.378,113.72,0.199,-0.137,0.0
-140.85,-80.671,124.94,0.147,-0.107,0.0
-156.34,-89.451,136.65,0.095,-0.069,0.0
-172.38,-98.171,148.17,0.039,-0.029,0.0
-188.66,-106.65,159.39,-0.022,0.008,0.0
-205.0,-114.15,170.24,-0.074,0.042,0.0
-221.4,-121.22,180.31,-0.121,0.064,0.0
-237.62,-127.93,188.96,-0.17,0.099,0.0
-253.05,-134.82,196.65,-0.211,0.135,0.0
-267.38,-141.77,203.48,-0.255,0.167,0.0
-280.49,-148.78,209.02,-0.294,0.198,0.0
-292.26,-156.22,213.41,-0.325,0.242,0.0
-301.77,-164.39,217.13,-0.346,0.27,0.0
-308.84,-173.54,219.69,-0.365,0.269,0.0
-313.48,-183.54,221.65,-0.378,0.272,0.0
-315.18,-193.96,223.54,-0.397,0.27,0.0
-314.15,-204.88,225.49,-0.412,0.247,0.0
-309.69,-216.52,228.05,-0.423,0.215,0.0
-302.74,-228.05,230.91,-0.422,0.175,0.0
-293.11,-239.39,234.39,-0.417,0.117,0.0
-280.98,-249.94,238.78,-0.397,0.057,0.0
-267.26,-259.57,243.6,-0.377,-0.009,0.0
-252.5,-268.05,248.9,-0.36,-0.076,0.0
-237.62,-275.85,254.45,-0.329,-0.147,0.0
-223.23,-283.9,260.43,-0.291,-0.222,0.0
-210.49,-291.34,266.83,-0.233,-0.289,0.0
-201.16,-298.05,273.05,-0.179,-0.355,0.0
-196.1,-304.15,279.02,-0.114,-0.434,0.0
-195.37,-309.33,284.88,-0.02,-0.502,0.0
-198.84,-312.99,290.06,0.104,-0.548,0.0
-204.88,-315.18,294.33,0.229,-0.578,0.0
-213.72,-315.24,296.4,0.331,-0.6,0.0
-223.23,-312.99,295.92,0.386,-0.645,0.0
-232.56,-307.56,293.23,0.418,-0.707,0.0
-239.45,-300.24,289.63,0.455,-0.756,0.0
-240.91,-292.87,286.28,0.504,-0.875,0.0
-239.88,-285.0,282.38,0.545,-0.904,0.0
-237.62,-273.05,277.01,0.585,-0.962,0.0
-234.27,-255.37,269.27,0.606,-1.115,0.0
-230.37,-233.6,260.55,0.605,-1.325,0.0
-226.52,-208.48,251.1,0.614,-1.575,0.0
-223.9,-183.17,240.79,0.67,-1.754,0.0
-223.23,-160.18,230.37,0.789,-1.797,0.0
-226.1,-137.62,220.98,0.938,-1.759,0.0
-232.01,-112.07,212.99,1.103,-1.712,0.0
-239.27,-85.427,205.0,1.219,-1.697,0.0
-246.4,-62.195,195.49,1.282,-1.699,0.0
-253.48,-38.72,182.13,1.342,-1.747,0.0
-257.5,-12.317,165.31,1.438,-1.807,0.0
-257.01,18.72,145.98,1.518,-1.84,-2.985
-250.0,53.049,125.98,1.549,-1.844,-3.279
-237.44,88.78,107.07,1.555,-1.916,0.0
-223.11,127.01,93.171,1.596,-1.917,0.0
-196.95,163.05,80.305,1.702,-1.887,0.0
-166.28,197.62,68.659,1.84,-1.884,0.0
-135.18,234.39,55.976,1.964,-1.871,0.0
-96.524,271.58,39.878,2.03,-1.861,0.0
-50.915,304.57,23.841,2.055,-1.905,0.0
-8.171,333.48,5.793,2.098,-2.011,0.0
33.415,362.26,-14.085,2.151,-2.004,0.0
72.256,387.81,-34.634,2.21,-1.837,0.0
102.99,410.73,-55.732,2.25,-1.738,0.0
125.06,432.93,-77.134,2.278,-1.901,0.0
137.44,454.02,-100.06,2.227,-1.765,0.0
139.57,472.62,-124.69,2.146,-1.634,0.0
131.34,485.85,-150.67,2.084,-1.638,0.0
113.84,497.93,-177.26,1.988,-1.518,0.0
88.232,509.94,-202.07,1.851,-1.311,0.0
55.915,519.94,-223.78,1.702,-1.15,0.0
18.232,528.78,-241.46,1.521,-1.042,0.0
-22.256,536.59,-254.39,1.333,-0.904,0.0
-62.378,542.74,-262.68,1.155,-0.75,0.0
-99.817,547.26,-266.28,0.997,-0.686,0.0
-131.89,548.84,-265.37,0.842,-0.662,0.0
-156.46,546.59,-260.49,0.7,-0.662,0.0
-172.68,540.67,-252.93,0.562,-0.675,0.0
-180.49,531.71,-244.57,0.423,-0.71,0.0
-180.31,520.24,-237.13,0.273,-0.778,0.0
-172.56,507.13,-231.4,0.108,-0.896,0.0
-156.16,493.96,-225.73,-0.074,-1.0,0.0
-130.85,481.1,-219.88,-0.247,-1.08,0.0
-100.06,467.32,-214.94,-0.434,-1.146,0.0
-67.744,450.73,-212.01,-0.589,-1.215,0.0
-36.28,430.0,-210.24,-0.7,-1.297,0.0
-7.073,406.34,-209.27,-0.798,-1.407,0.0
15.976,373.17,-209.45,-0.936,-1.519,0.0
33.415,342.13,-206.59,-1.08,-1.587,0.0
44.329,311.71,-199.63,-1.167,-1.53,0.0
43.963,278.17,-187.68,-1.203,-1.419,0.0
30.183,248.35,-174.27,-1.308,-1.215,0.0
12.073,226.16,-162.38,-1.487,-1.0,0.0
-23.171,208.6,-148.48,-1.798,-0.909,0.0
-60.854,195.61,-128.9,-2.198,-0.886,0.0
-90.0,182.81,-107.93,-2.605,-0.779,-1.993
-112.01,170.18,-92.561,-2.89,-0.442,-1.632
-129.27,161.1,-85.915,-2.904,-0.208,-1.281
-139.33,155.55,-81.22,-2.789,-0.208,-0.956
-139.69,149.76,-70.366,-2.767,-0.398,0.0
-132.32,141.71,-51.585,-2.928,-0.409,0.0
-117.07,131.28,-28.72,-3.119,-0.16,-0.206
-94.756,118.48,-6.707,-3.164,-0.052,0.046
-65.488,101.65,12.195,-3.029,-0.227,0.0
-32.012,81.463,27.256,-2.874,-0.555,0.0
1.22,61.098,39.39,-2.82,-0.722,0.0
31.22,41.524,49.634,-2.821,-0.761,0.0
54.817,22.622,59.756,-2.794,-0.8,0.0
70.793,4.756,70.549,-2.695,-0.828,0.0
78.537,-11.159,82.317,-2.533,-0.774,0.0
77.805,-24.39,93.78,-2.333,-0.685,0.0
71.037,-34.268,104.45,-2.141,-0.62,0.0
60.0,-41.768,114.27,-1.964,-0.564,0.0
45.976,-48.049,122.68,-1.791,-0.515,0.0
30.183,-55.061,129.57,-1.577,-0.469,0.0
15.305,-62.866,134.15,-1.318,-0.433,0.0
3.72,-69.573,136.59,-1.059,-0.434,0.0
-4.512,-76.28,136.89,-0.843,-0.466,0.0
-8.354,-83.11,135.73,-0.683,-0.536,0.0
-7.927,-90.0,132.81,-0.567,-0.627,0.0
-3.11,-96.585,127.87,-0.474,-0.73,0.0
5.427,-101.71,120.98,-0.377,-0.842,0.0
17.012,-105.37,113.11,-0.28,-0.96,0.0
31.341,-107.38,105.67,-0.185,-1.068,0.0
49.085,-107.99,99.939,-0.097,-1.149,0.0
68.841,-108.11,95.854,-0.02,-1.195,0.0
89.268,-107.74,92.5,0.067,-1.227,0.0
109.76,-105.31,89.268,0.164,-1.276,0.0
129.69,-100.73,85.976,0.268,-1.35,0.0
148.41,-94.878,83.171,0.361,-1.433,0.0
164.94,-88.963,81.341,0.432,-1.487,0.0
178.54,-82.683,80.183,0.484,-1.491,0.0
189.57,-75.732,80.244,0.558,-1.449,0.0
197.38,-68.598,80.854,0.629,-1.398,0.0
202.93,-60.976,82.683,0.69,-1.348,0.0
206.1,-53.902,85.976,0.737,-1.287,0.0
208.54,-46.89,89.512,0.77,-1.209,0.0
210.61,-40.732,94.268,0.804,-1.113,0.0
215.49,-36.463,99.695,0.854,-1.028,0.0
224.82,-32.622,104.08,0.911,-0.967,0.0
234.27,-30.915,107.74,0.953,-0.92,0.0
247.32,-29.451,108.72,0.974,-0.936,0.0
261.83,-28.354,107.93,0.997,-1.001,0.0
277.19,-28.72,104.69,1.01,-1.076,0.0
293.17,-29.878,98.72,1.04,-1.124,0.0
307.5,-31.768,91.768,1.06,-1.13,0.0
318.11,-34.695,85.183,1.088,-1.131,0.0
325.0,-36.585,79.695,1.104,-1.087,0.0
327.99,-36.829,76.037,1.087,-1.015,0.0
327.81,-35.0,75.061,1.07,-0.944,0.0
324.94,-31.707,76.159,1.072,-0.875,0.0
322.44,-26.707,78.476,1.117,-0.811,0.0
322.62,-21.341,80.976,1.193,-0.756,0.0
322.56,-16.707,83.171,1.283,-0.734,0.0
322.5,-13.11,83.598,1.371,-0.758,0.0
322.99,-10.305,80.915,1.459,-0.798,0.0
323.66,-7.317,75.305,1.533,-0.836,0.0
323.17,-4.817,67.256,1.588,-0.862,0.0
321.58,-3.232,56.829,1.605,-0.846,0.0
318.6,-3.841,45.854,1.605,-0.795,0.0
313.29,-6.707,35.427,1.599,-0.715,0.0
306.83,-10.793,26.524,1.597,-0.625,0.0
300.06,-14.024,20.366,1.588,-0.518,0.0
292.74,-16.341,16.829,1.561,-0.435,0.0
285.67,-17.073,16.037,1.516,-0.36,0.0
280.31,-15.854,17.012,1.482,-0.303,0.0
276.65,-12.744,18.902,1.48,-0.271,0.0
274.39,-9.573,20.305,1.503,-0.263,0.0
274.15,-7.134,20.915,1.542,-0.275,0.0
274.94,-4.634,19.695,1.584,-0.289,0.0
275.67,-3.11,16.341,1.616,-0.307,0.0
276.04,-3.049,11.098,1.641,-0.33,0.0
274.94,-4.329,4.39,1.669,-0.327,0.0
272.56,-6.951,-3.598,1.683,-0.267,0.0
268.84,-11.463,-12.378,1.675,-0.168,0.0
263.11,-17.622,-20.976,1.651,-0.055,0.0
256.58,-23.902,-28.537,1.613,0.042,0.0
249.76,-28.354,-34.268,1.565,0.128,0.0
243.54,-29.329,-38.232,1.516,0.207,0.0
237.68,-27.927,-40.366,1.473,0.257,0.0
231.52,-25.549,-40.976,1.438,0.276,0.0
224.02,-22.683,-40.854,1.43,0.269,0.0
215.43,-19.39,-40.488,1.443,0.243,0.0
206.04,-15.488,-39.878,1.463,0.208,0.0
196.1,-11.463,-38.963,1.492,0.189,0.0
185.0,-8.659,-37.561,1.522,0.197,0.0
172.99,-8.354,-35.0,1.529,0.221,0.0
160.61,-9.695,-31.829,1.495,0.234,0.0
148.66,-12.256,-28.476,1.457,0.228,0.0
136.65,-15.793,-24.329,1.415,0.206,0.0
124.39,-19.451,-19.756,1.377,0.186,0.0
112.44,-22.988,-15.0,1.333,0.163,0.0
100.43,-25.488,-10.427,1.274,0.14,0.0
88.78,-26.341,-6.28,1.226,0.107,0.0
77.439,-26.098,-2.256,1.184,0.06,0.0
66.768,-25.122,1.341,1.15,0.023,0.0
56.585,-23.415,4.268,1.13,-0.013,0.0
46.707,-19.268,6.585,1.117,-0.048,0.0
37.744,-14.024,8.232,1.105,-0.082,0.0
30.732,-8.537,9.329,1.075,-0.12,0.0
25.488,-2.5,9.634,1.04,-0.152,0.0
21.768,2.927,9.573,1.007,-0.186,0.0
20.0,7.195,9.085,0.977,-0.222,0.0
19.39,10.305,7.866,0.939,-0.246,0.0
19.329,12.073,6.159,0.901,-0.275,0.0
19.512,12.683,4.146,0.857,-0.309,0.0
20.061,11.951,1.89,0.806,-0.337,0.0
20.549,10.366,-0.305,0.749,-0.356,0.0
20.549,7.744,-2.317,0.69,-0.365,0.0
20.122,5.122,-4.146,0.644,-0.367,0.0
19.39,2.744,-5.366,0.603,-0.358,0.0
18.293,0.427,-6.159,0.572,-0.354,0.0
17.317,-1.524,-6.28,0.555,-0.345,0.0
16.951,-2.927,-5.854,0.542,-0.329,0.0
17.622,-4.024,-4.451,0.528,-0.309,0.0
19.329,-5.061,-2.195,0.523,-0.284,0.0
22.134,-6.159,0.244,0.54,-0.274,0.0
26.037,-7.195,2.866,0.557,-0.274,0.0
30.671,-8.293,5.366,0.57,-0.278,0.0
35.305,-9.146,7.439,0.583,-0.282,0.0
40.366,-9.939,9.207,0.6,-0.285,0.0
45.488,-10.793,10.793,0.62,-0.285,0.0
50.366,-11.524,12.195,0.63,-0.281,0.0
54.329,-12.378,13.537,0.632,-0.274,0.0
57.439,-13.415,14.573,0.635,-0.271,0.0
59.756,-14.39,15.671,0.644,-0.268,0.0
61.28,-15.244,17.012,0.649,-0.268,0.0
61.707,-16.28,18.598,0.656,-0.278,0.0
61.585,-17.317,20.305,0.653,-0.29,0.0
60.61,-18.11,22.134,0.652,-0.306,0.0
58.963,-18.841,24.146,0.659,-0.324,0.0
56.402,-19.573,26.28,0.664,-0.352,0.0
52.988,-20.122,28.415,0.669,-0.388,0.0
49.024,-20.61,30.61,0.683,-0.417,0.0
44.573,-20.976,32.561,0.7,-0.445,0.0
39.756,-21.037,34.39,0.725,-0.468,0.0
34.695,-20.793,35.549,0.753,-0.499,0.0
29.329,-19.817,36.524,0.775,-0.521,0.0
24.024,-18.598,36.768,0.794,-0.543,0.0
19.024,-17.073,36.463,0.81,-0.557,0.0
14.329,-15.122,35.61,0.822,-0.564,0.0
10.061,-12.622,34.207,0.837,-0.562,0.0
6.159,-9.695,32.317,0.85,-0.565,0.0
2.744,-6.89,30.061,0.866,-0.566,0.0
-0.244,-4.024,27.378,0.873,-0.562,0.0
-2.744,-1.098,24.39,0.886,-0.556,0.0
-5.305,1.463,21.159,0.899,-0.543,0.0
-7.439,3.598,17.927,0.915,-0.53,0.0
-9.268,5.366,14.695,0.939,-0.514,0.0
-10.915,6.829,11.768,0.958,-0.493,0.0
-12.134,7.866,9.207,0.973,-0.472,0.0
-12.683,8.232,7.134,0.987,-0.449,0.0
-12.866,8.293,5.671,0.992,-0.432,0.0
-12.561,7.866,4.695,0.991,-0.421,0.0
-11.89,7.073,4.085,0.982,-0.421,0.0
-10.915,6.22,3.659,0.968,-0.421,0.0
-9.695,5.305,3.963,0.949,-0.429,0.0
-7.988,4.085,4.695,0.938,-0.428,0.0
-5.854,3.11,5.671,0.91,-0.424,0.0
-3.72,2.073,6.524,0.887,-0.417,0.0
-1.159,0.854,7.744,0.863,-0.408,0.0
1.463,-0.305,8.963,0.834,-0.396,0.0
4.207,-1.463,10.061,0.8,-0.38,0.0
7.073,-2.439,11.524,0.764,-0.36,0.0
9.756,-3.293,13.415,0.725,-0.341,0.0
12.256,-4.085,15.305,0.689,-0.317,0.0
14.207,-5.0,17.744,0.646,-0.295,0.0
14.573,-6.463,20.671,0.604,-0.273,0.0
12.927,-8.659,23.78,0.571,-0.257,0.0
9.451,-11.463,27.317,0.532,-0.234,0.0
5.122,-15.122,31.524,0.487,-0.218,0.0
-1.098,-19.756,36.951,0.438,-0.205,0.0
-11.159,-24.451,43.354,0.382,-0.192,0.0
-25.427,-30.183,51.159,0.318,-0.179,0.0
-43.841,-35.976,60.366,0.242,-0.139,0.0
-64.817,-42.073,71.707,0.185,-0.124,0.0
-88.293,-48.476,85.0,0.11,-0.119,0.0
-112.93,-54.512,100.43,0.001,-0.049,0.0
-138.6,-60.488,118.6,-0.093,0.017,0.0
-164.39,-66.646,138.48,-0.162,0.066,0.0
-189.82,-73.415,159.45,-0.212,0.134,0.0
-214.76,-80.732,180.67,-0.258,0.187,0.0
-238.66,-88.171,201.34,-0.302,0.222,0.0
-261.16,-96.098,220.18,-0.349,0.256,0.0
-281.28,-105.18,238.29,-0.384,0.285,0.0
-298.66,-114.39,254.51,-0.413,0.303,0.0
-313.6,-123.72,268.23,-0.44,0.328,0.0
-327.07,-133.23,279.33,-0.47,0.376,0.0
-338.11,-142.68,288.48,-0.484,0.414,0.0
-346.34,-151.77,295.98,-0.497,0.374,0.0
-352.56,-160.18,302.01,-0.505,0.383,0.0
-356.22,-168.54,307.26,-0.512,0.404,0.0
-356.83,-177.01,312.38,-0.506,0.39,0.0
-353.72,-185.85,317.93,-0.497,0.377,0.0
-347.07,-194.94,323.48,-0.496,0.353,0.0
-336.1,-204.02,329.39,-0.501,0.295,0.0
-321.4,-212.68,335.55,-0.509,0.209,0.0
-304.08,-221.83,341.71,-0.513,0.083,0.0
-285.37,-230.55,347.44,-0.511,-0.063,0.0
-266.16,-237.56,352.99,-0.48,-0.199,0.0
-247.38,-242.19,358.72,-0.424,-0.326,0.0
-229.45,-243.78,364.94,-0.343,-0.452,0.0
-212.56,-243.35,371.16,-0.235,-0.583,0.0
-197.19,-241.4,376.65,-0.113,-0.696,0.0
-184.15,-237.26,380.43,0.032,-0.799,0.0
-174.33,-230.85,382.19,0.17,-0.918,0.0
-167.87,-222.19,382.44,0.273,-1.062,0.0
-164.27,-212.62,380.85,0.345,-1.191,0.0
-164.63,-203.48,376.58,0.399,-1.285,0.0
-168.05,-194.02,369.27,0.455,-1.367,0.0
-175.24,-183.17,360.18,0.505,-1.459,0.0
-186.89,-171.4,349.45,0.554,-1.565,0.0
-201.65,-158.72,338.11,0.555,-1.667,0.0
-217.38,-146.4,327.26,0.562,-1.729,0.0
-233.23,-134.15,316.58,0.604,-1.751,0.0
-247.32,-120.79,305.67,0.657,-1.771,0.0
-257.81,-105.79,295.55,0.716,-1.816,0.0
-263.11,-89.268,284.69,0.742,-1.932,0.0
-263.66,-71.159,271.83,0.767,-2.099,0.0
-258.78,-50.732,255.67,0.84,-2.26,0.0
-250.67,-28.537,235.37,0.963,-2.439,0.0
-240.85,-3.049,211.4,1.072,-2.606,0.0
-229.21,23.659,185.49,1.159,-2.72,0.0
-217.01,52.317,159.51,1.235,-2.789,0.0
-203.23,80.793,134.63,1.308,-2.833,0.0
-189.33,109.15,110.98,1.392,-2.824,0.0
-176.46,139.09,89.085,1.483,-2.778,0.0
-161.52,168.78,67.744,1.619,-2.726,0.0
-145.24,197.93,45.671,1.71,-2.687,0.0
-126.83,228.41,22.683,1.806,-2.683,0.0
-106.52,258.35,0.061,1.896,-2.666,0.0
-84.817,287.01,-23.171,1.968,-2.615,0.0
-62.073,313.9,-46.28,2.057,-2.595,0.0
-39.207,338.05,-69.085,2.159,-2.538,0.0
-17.134,359.57,-92.5,2.245,-2.489,0.0
2.256,377.56,-117.93,2.313,-2.462,0.0
17.195,393.42,-144.82,2.35,-2.417,0.0
26.951,406.52,-173.96,2.343,-2.418,0.0
29.756,416.52,-204.76,2.288,-2.389,0.0
24.573,424.33,-234.63,2.172,-2.323,0.0
10.915,432.93,-261.28,2.036,-2.224,0.0
-9.817,442.68,-283.42,1.86,-2.07,0.0
-37.927,451.46,-301.28,1.681,-1.883,0.0
-70.366,460.49,-314.27,1.485,-1.721,0.0
-105.0,469.63,-323.17,1.343,-1.612,0.0
-138.29,479.15,-327.5,1.199,-1.541,0.0
-168.17,487.81,-328.11,1.04,-1.474,0.0
-192.74,494.76,-324.94,0.9,-1.406,0.0
-210.79,499.21,-318.23,0.776,-1.367,0.0
-223.11,503.11,-307.32,0.656,-1.315,0.0
-230.0,506.34,-294.76,0.546,-1.314,0.0
-228.66,504.15,-283.23,0.423,-1.345,0.0
-219.69,494.45,-269.63,0.298,-1.357,0.0
-205.12,482.13,-257.01,0.184,-1.397,0.0
-182.81,469.27,-246.95,0.066,-1.477,0.0
-154.94,451.83,-239.76,-0.122,-1.373,0.0
-125.67,430.06,-234.88,-0.287,-1.381,0.0
-95.915,406.89,-231.59,-0.446,-1.553,0.0
-67.622,383.48,-228.78,-0.653,-1.502,0.0
-38.78,357.56,-223.29,-0.876,-1.45,0.0
-9.207,332.74,-216.28,-1.016,-1.487,0.0
-1.098,308.9,-201.28,-1.098,-1.435,0.0
-5.244,285.67,-177.68,-1.117,-1.293,0.0
-12.378,264.94,-151.4,-1.188,-1.107,0.0
-21.768,244.57,-124.39,-1.341,-0.913,0.0
-32.439,231.77,-101.4,-1.502,-0.875,0.0
-49.756,220.98,-79.329,-1.711,-0.765,0.0
-64.573,203.41,-53.537,-2.016,-0.595,-1.295
-71.768,180.37,-30.61,-2.346,-0.471,0.0
-71.768,156.89,-16.707,-2.603,-0.297,-0.669
-68.293,133.66,-10.0,-2.692,-0.113,-0.346
-64.573,109.39,-1.646,-2.675,-0.112,0.0
-55.549,88.049,11.829,-2.748,-0.279,0.0
-43.78,69.939,28.72,-2.963,-0.193,0.0
-32.195,54.878,45.488,-3.128,-0.022,0.0
-20.0,42.439,58.11,-3.099,-0.099,0.0
-7.195,31.524,65.244,-2.998,-0.325,0.0
5.061,20.671,67.988,-2.903,-0.549,0.0
14.939,9.39,68.659,-2.868,-0.638,0.0
21.707,-2.683,70.244,-2.815,-0.619,0.0
25.305,-16.037,73.232,-2.706,-0.564,0.0
26.098,-30.305,76.585,-2.544,-0.503,0.0
24.573,-44.451,79.207,-2.386,-0.464,0.0
20.671,-57.561,80.732,-2.28,-0.478,0.0
15.061,-69.39,81.463,-2.23,-0.518,0.0
9.024,-79.146,81.829,-2.173,-0.542,0.0
2.988,-87.439,82.317,-2.056,-0.547,0.0
-1.829,-94.451,82.927,-1.884,-0.539,0.0
-4.878,-99.878,83.598,-1.675,-0.55,0.0
-6.28,-105.18,84.695,-1.453,-0.592,0.0
-6.463,-111.46,86.28,-1.236,-0.651,0.0
-4.085,-116.1,87.927,-1.035,-0.717,0.0
0.549,-119.21,88.841,-0.856,-0.777,0.0
6.159,-121.95,89.146,-0.678,-0.844,0.0
13.232,-123.29,89.695,-0.519,-0.919,0.0
22.073,-123.48,90.366,-0.398,-0.98,0.0
32.866,-122.19,91.098,-0.3,-1.016,0.0
45.0,-120.24,92.744,-0.219,-1.034,0.0
58.598,-117.13,94.573,-0.155,-1.067,0.0
73.72,-113.35,96.524,-0.081,-1.104,0.0
87.622,-109.69,97.134,0.005,-1.139,0.0
101.83,-103.72,96.951,0.098,-1.183,0.0
118.72,-95.061,97.439,0.19,-1.22,0.0
136.22,-86.829,100.24,0.269,-1.244,0.0
152.07,-79.207,102.81,0.331,-1.242,0.0
168.35,-71.28,103.78,0.396,-1.239,0.0
185.43,-63.293,102.74,0.478,-1.258,0.0
203.9,-55.244,99.817,0.546,-1.318,0.0
223.17,-47.927,96.402,0.588,-1.388,0.0
242.5,-41.829,92.805,0.601,-1.436,0.0
261.28,-36.341,88.78,0.624,-1.422,0.0
280.06,-30.854,84.817,0.666,-1.409,0.0
296.77,-25.183,80.732,0.734,-1.442,0.0
311.89,-19.512,77.012,0.797,-1.482,0.0
332.5,-14.268,74.146,0.853,-1.492,0.0
349.63,-11.402,70.0,0.909,-1.491,0.0
364.76,-9.817,63.78,0.986,-1.499,0.0
375.0,-10.0,57.195,1.071,-1.487,0.0
383.35,-12.012,49.878,1.149,-1.458,0.0
399.63,-11.951,41.707,1.205,-1.479,0.0
410.67,-13.659,34.573,1.23,-1.423,0.0
414.88,-17.622,27.927,1.263,-1.354,0.0
417.13,-21.28,20.976,1.321,-1.325,0.0
416.95,-24.512,13.78,1.358,-1.276,0.0
413.11,-27.256,7.561,1.391,-1.251,0.0
403.72,-29.451,3.963,1.41,-1.166,0.0
391.83,-31.037,1.829,1.409,-1.021,0.0
378.29,-31.463,1.646,1.42,-0.892,0.0
362.44,-30.061,2.805,1.436,-0.772,0.0
346.4,-27.805,5.366,1.479,-0.687,0.0
331.52,-24.817,8.354,1.543,-0.604,0.0
317.87,-21.28,10.549,1.607,-0.541,0.0
305.18,-16.707,11.951,1.666,-0.506,0.0
293.6,-11.341,11.463,1.716,-0.467,0.0
282.62,-8.049,8.78,1.753,-0.463,0.0
271.95,-6.341,3.659,1.782,-0.444,0.0
261.77,-6.524,-3.415,1.809,-0.407,0.0
251.1,-8.049,-11.829,1.822,-0.358,0.0
239.51,-10.671,-20.305,1.794,-0.266,0.0
227.56,-14.207,-28.11,1.754,-0.144,0.0
215.0,-18.963,-34.024,1.729,-0.052,0.0
201.22,-25.427,-37.5,1.71,0.052,0.0
187.99,-31.89,-38.72,1.682,0.15,0.0
175.73,-36.829,-37.866,1.652,0.207,0.0
164.76,-39.695,-35.061,1.617,0.244,0.0
155.79,-40.244,-30.732,1.591,0.241,0.0
148.78,-38.049,-26.402,1.59,0.229,0.0
144.76,-33.293,-23.11,1.598,0.214,0.0
142.38,-27.256,-21.159,1.599,0.189,0.0
140.98,-20.244,-20.854,1.604,0.152,0.0
139.94,-13.232,-22.134,1.627,0.13,0.0
139.33,-7.439,-24.146,1.652,0.144,0.0
139.02,-3.659,-25.915,1.646,0.154,0.0
139.15,-2.134,-27.317,1.611,0.16,0.0
139.51,-2.927,-28.293,1.575,0.156,0.0
138.96,-5.976,-28.415,1.535,0.125,0.0
137.26,-9.817,-28.293,1.478,0.079,0.0
134.45,-13.78,-27.622,1.413,0.042,0.0
130.67,-16.951,-26.768,1.345,0.001,0.0
126.58,-18.354,-25.549,1.3,-0.047,0.0
121.83,-18.049,-23.537,1.271,-0.082,0.0
115.73,-16.037,-20.976,1.26,-0.09,0.0
109.57,-12.805,-17.744,1.255,-0.108,0.0
103.72,-8.78,-14.146,1.258,-0.134,0.0
97.195,-3.232,-10.61,1.258,-0.166,0.0
90.427,3.293,-7.561,1.255,-0.204,0.0
83.049,9.817,-4.634,1.239,-0.253,0.0
74.878,15.244,-2.256,1.22,-0.292,0.0
65.854,18.963,-0.549,1.196,-0.327,0.0
55.915,21.28,0.427,1.166,-0.342,0.0
45.488,22.439,0.915,1.128,-0.346,0.0
34.695,22.683,0.671,1.067,-0.347,0.0
23.902,22.073,0.122,0.99,-0.333,0.0
12.988,21.524,-0.732,0.919,-0.311,0.0
3.232,20.854,-1.646,0.85,-0.285,0.0
-5.549,20.061,-2.622,0.792,-0.26,0.0
-12.866,19.756,-3.72,0.735,-0.246,0.0
-18.354,20.0,-4.756,0.695,-0.246,0.0
-22.683,20.793,-5.915,0.667,-0.255,0.0
-25.793,22.073,-7.317,0.651,-0.279,0.0
-27.561,23.11,-9.268,0.651,-0.312,0.0
-27.988,24.329,-11.402,0.653,-0.333,0.0
-27.561,25.671,-13.537,0.653,-0.346,0.0
-26.22,26.646,-15.854,0.659,-0.353,0.0
-23.963,27.195,-18.049,0.658,-0.353,0.0
-20.915,27.317,-19.939,0.653,-0.354,0.0
-17.744,26.89,-21.402,0.648,-0.353,0.0
-14.695,26.22,-22.317,0.646,-0.354,0.0
-11.341,25.122,-22.988,0.645,-0.353,0.0
-7.927,23.354,-23.659,0.649,-0.351,0.0
-4.878,21.463,-24.451,0.657,-0.348,0.0
-2.622,19.573,-24.878,0.661,-0.349,0.0
-0.915,17.622,-24.634,0.663,-0.357,0.0
0.183,15.915,-23.963,0.659,-0.359,0.0
0.427,14.512,-22.439,0.647,-0.354,0.0
-0.122,13.232,-20.305,0.661,-0.354,0.0
-1.159,11.951,-17.683,0.691,-0.348,0.0
-2.622,10.976,-14.512,0.717,-0.351,0.0
-4.573,9.817,-11.646,0.729,-0.363,0.0
-6.646,7.866,-9.207,0.739,-0.381,0.0
-9.085,6.402,-7.5,0.753,-0.408,0.0
-11.524,5.427,-6.22,0.765,-0.431,0.0
-14.207,4.329,-5.061,0.767,-0.444,0.0
-16.829,3.171,-3.963,0.761,-0.456,0.0
-19.573,2.073,-2.561,0.751,-0.467,0.0
-22.317,1.28,-0.732,0.754,-0.47,0.0
-25.915,0.305,1.768,0.771,-0.474,0.0
-30.793,-0.427,4.512,0.781,-0.486,0.0
-31.707,-1.89,6.037,0.78,-0.512,0.0
-33.902,-2.683,7.195,0.778,-0.539,0.0
-36.585,-2.744,8.293,0.775,-0.572,0.0
-39.024,-2.5,8.841,0.776,-0.612,0.0
-41.098,-2.195,8.902,0.781,-0.618,0.0
-42.439,-2.012,8.659,0.809,-0.653,0.0
-43.476,-1.463,8.537,0.819,-0.657,0.0
-44.085,-1.037,8.11,0.837,-0.665,0.0
-43.963,-0.305,7.5,0.857,-0.67,0.0
-43.476,0.549,6.768,0.878,-0.681,0.0
-42.805,1.402,5.488,0.896,-0.693,0.0
-41.524,2.805,3.963,0.913,-0.705,0.0
-40.427,4.451,2.439,0.923,-0.711,0.0
-39.146,6.22,0.488,0.928,-0.717,0.0
-37.744,7.866,-1.829,0.928,-0.715,0.0
-36.463,9.817,-4.39,0.936,-0.705,0.0
-35.244,11.89,-6.646,0.938,-0.692,0.0
-33.232,13.415,-8.354,0.941,-0.681,0.0
-28.11,14.634,-8.293,0.943,-0.664,0.0
-20.366,15.549,-7.317,0.946,-0.634,0.0
-11.951,15.793,-6.22,0.948,-0.606,0.0
-4.512,15.976,-5.732,0.926,-0.604,0.0
0.732,16.22,-5.732,0.899,-0.616,0.0
4.085,16.951,-5.671,0.898,-0.616,0.0
7.012,18.049,-5.366,0.907,-0.603,0.0
9.878,19.146,-4.695,0.905,-0.567,0.0
12.134,19.756,-4.39,0.898,-0.537,0.0
13.72,20.122,-4.207,0.892,-0.515,0.0
14.573,20.305,-4.39,0.882,-0.506,0.0
15.366,20.366,-4.939,0.874,-0.494,0.0
15.61,20.61,-5.976,0.859,-0.48,0.0
13.293,21.402,-7.927,0.838,-0.461,0.0
9.878,22.256,-9.756,0.813,-0.444,0.0
7.927,23.354,-11.037,0.785,-0.429,0.0
6.89,23.293,-11.89,0.767,-0.415,0.0
5.854,22.5,-12.561,0.76,-0.39,0.0
4.695,21.707,-13.232,0.722,-0.395,0.0
3.841,20.549,-13.476,0.697,-0.397,0.0
2.927,19.695,-13.415,0.694,-0.409,0.0
2.561,18.659,-12.927,0.689,-0.417,0.0
2.561,17.317,-12.134,0.667,-0.423,0.0
3.171,15.671,-10.732,0.643,-0.422,0.0
4.634,13.841,-8.72,0.64,-0.428,0.0
6.524,11.89,-6.341,0.633,-0.435,0.0
8.902,9.939,-3.902,0.62,-0.434,0.0
12.561,7.866,-1.402,0.594,-0.439,0.0
16.159,5.732,0.793,0.57,-0.443,0.0
19.878,3.72,2.622,0.544,-0.438,0.0
23.171,1.829,3.902,0.519,-0.43,0.0
26.098,0.0,5.122,0.487,-0.41,0.0
27.988,-1.463,5.854,0.453,-0.387,0.0
27.561,-2.744,6.341,0.424,-0.365,0.0
24.878,-3.415,6.768,0.396,-0.344,0.0
19.939,-3.963,7.317,0.37,-0.316,0.0
12.439,-4.207,8.354,0.356,-0.284,0.0
2.195,-4.512,9.634,0.348,-0.253,0.0
-10.549,-5.305,11.585,0.333,-0.229,0.0
-25.427,-6.646,13.963,0.319,-0.204,0.0
-41.951,-8.78,17.134,0.301,-0.177,0.0
-59.451,-12.073,21.159,0.269,-0.153,0.0
-77.378,-16.646,26.585,0.224,-0.131,0.0
-94.939,-22.927,33.171,0.18,-0.096,0.0
-112.01,-30.427,40.976,0.136,-0.055,0.0
-128.54,-39.024,49.939,0.105,-0.04,0.0
-144.88,-48.415,59.512,0.063,-0.035,0.0
-160.67,-58.659,70.0,0.008,-0.029,0.0
-175.24,-69.573,81.098,-0.04,-0.024,0.0
-189.02,-81.341,92.683,-0.075,-0.007,0.0
-201.95,-93.659,104.51,-0.104,0.016,0.0
-214.39,-105.92,116.22,-0.129,0.034,0.0
-225.79,-118.29,127.87,-0.164,0.052,0.0
-236.52,-130.79,139.27,-0.207,0.066,0.0
-246.77,-143.6,150.31,-0.247,0.079,0.0
-256.04,-156.89,161.1,-0.29,0.103,0.0
-264.51,-170.31,171.46,-0.324,0.132,0.0
-271.58,-183.66,180.79,-0.354,0.146,0.0
-277.87,-196.71,188.78,-0.379,0.156,0.0
-282.93,-209.39,195.73,-0.402,0.161,0.0
-286.52,-221.59,202.07,-0.42,0.161,0.0
-288.05,-233.41,207.87,-0.433,0.165,0.0
-287.56,-244.94,213.29,-0.438,0.163,0.0
-285.37,-255.12,218.6,-0.432,0.163,0.0
-282.01,-264.08,223.6,-0.414,0.151,0.0
-278.05,-272.32,228.48,-0.392,0.12,0.0
-272.99,-279.76,234.27,-0.358,0.078,0.0
-268.42,-286.28,240.24,-0.322,0.04,0.0
-263.84,-292.13,246.89,-0.288,-0.003,0.0
-258.72,-297.32,254.45,-0.23,-0.053,0.0
-253.29,-302.62,263.48,-0.175,-0.121,0.0
-248.05,-306.71,272.68,-0.116,-0.18,0.0
-242.26,-309.51,281.46,-0.041,-0.234,0.0
-234.63,-311.89,290.43,0.045,-0.302,0.0
-224.57,-314.39,299.08,0.125,-0.356,0.0
-211.22,-315.37,306.65,0.189,-0.4,0.0
-195.0,-314.33,312.74,0.236,-0.467,0.0
-176.16,-310.98,317.38,0.292,-0.574,0.0
-156.04,-304.69,320.79,0.372,-0.704,0.0
-136.28,-296.1,322.32,0.464,-0.829,0.0
-118.84,-288.35,321.16,0.571,-0.932,0.0
-107.01,-279.57,317.5,0.668,-1.012,0.0
-103.05,-268.17,311.77,0.758,-1.085,0.0
-107.44,-252.81,304.69,0.793,-1.176,0.0
-119.82,-233.11,297.44,0.775,-1.234,0.0
-139.45,-212.62,290.55,0.803,-1.322,0.0
-166.89,-191.59,280.43,0.854,-1.401,0.0
-200.79,-166.83,265.79,0.935,-1.425,0.0
-237.68,-136.95,248.78,1.017,-1.46,0.0
-273.66,-102.81,229.21,1.042,-1.583,-2.469
-299.88,-65.061,208.11,1.058,-1.748,0.0
-318.84,-25.915,186.95,1.115,-1.884,0.0
-335.24,14.512,165.85,1.238,-1.99,0.0
-338.35,52.195,144.21,1.404,-2.104,0.0
-322.32,86.829,121.34,1.573,-2.15,0.0
-303.9,119.27,101.95,1.744,-2.192,0.0
-288.54,150.67,85.366,1.874,-2.29,0.0
-254.02,182.56,66.768,1.964,-2.249,0.0
-202.26,214.76,49.39,2.048,-2.216,-3.567
-142.56,246.46,32.5,2.098,-2.296,0.0
-86.341,279.21,14.634,2.16,-2.391,0.0
-28.049,310.06,-3.415,2.231,-2.408,0.0
27.866,337.93,-20.976,2.343,-2.44,0.0
75.854,364.82,-38.598,2.426,-2.472,0.0
114.02,389.27,-56.646,2.476,-2.449,0.0
137.81,410.24,-75.671,2.458,-2.336,0.0
148.23,429.33,-96.89,2.434,-2.335,0.0
146.95,447.62,-119.82,2.366,-2.283,0.0
134.63,462.01,-142.5,2.24,-2.109,0.0
110.18,474.15,-165.24,2.116,-2.019,0.0
77.805,487.81,-187.74,1.979,-1.883,0.0
41.098,499.82,-207.87,1.828,-1.659,0.0
1.463,510.12,-224.57,1.663,-1.549,0.0
-39.329,519.27,-237.01,1.517,-1.508,0.0
-76.098,527.5,-245.0,1.355,-1.309,0.0
-106.58,535.49,-249.94,1.198,-1.16,0.0
-129.69,542.62,-252.5,1.063,-1.13,0.0
-143.78,548.9,-252.19,0.921,-1.092,0.0
-151.71,555.0,-250.49,0.785,-1.083,0.0
-149.63,559.39,-244.69,0.652,-1.106,0.0
-140.61,558.78,-238.11,0.531,-1.126,0.0
-122.5,551.95,-234.76,0.412,-1.155,0.0
-100.43,541.28,-230.85,0.303,-1.179,0.0
-76.098,531.83,-228.05,0.168,-1.228,0.0
-47.378,520.98,-227.44,0.015,-1.417,0.0
-20.671,507.38,-228.48,-0.235,-1.353,0.0
3.537,489.88,-231.22,-0.414,-1.356,0.0
24.451,470.18,-234.63,-0.565,-1.529,0.0
42.561,447.44,-237.99,-0.758,-1.417,0.0
47.805,422.62,-236.28,-0.912,-1.406,0.0
43.11,396.58,-229.27,-1.057,-1.372,0.0
33.476,367.93,-215.31,-1.211,-1.238,-2.788
23.293,341.34,-198.23,-1.353,-1.088,-2.526
7.744,314.02,-184.27,-1.506,-0.955,0.0
-13.537,287.56,-169.45,-1.739,-0.784,0.0
-37.744,261.83,-152.5,-2.076,-0.632,0.0
-61.159,235.85,-133.72,-2.408,-0.648,0.0
-79.756,210.98,-119.33,-2.743,-0.47,0.0
-93.902,190.12,-112.19,-2.946,-0.217,0.0
-101.46,175.85,-108.42,-2.963,-0.185,0.0
-105.98,167.26,-101.22,-2.944,-0.302,0.0
-103.42,161.77,-88.11,-3.016,-0.265,0.0
-93.537,156.4,-70.488,-3.096,-0.078,-0.53
-77.5,147.93,-52.744,-3.058,0.055,-0.154
-54.085,134.76,-37.866,-2.926,-0.042,0.2
-25.976,116.89,-26.098,-2.826,-0.225,0.462
1.585,96.707,-16.463,-2.814,-0.433,0.0
24.39,75.793,-6.951,-2.837,-0.561,0.0
40.061,55.61,3.841,-2.827,-0.594,0.0
49.268,36.646,16.098,-2.749,-0.602,0.0
51.341,18.902,28.902,-2.638,-0.558,0.0
47.378,2.988,40.366,-2.509,-0.479,0.0
38.841,-10.488,49.878,-2.36,-0.433,0.0
26.829,-22.134,57.744,-2.181,-0.395,0.0
13.659,-32.744,65.183,-1.954,-0.358,0.0
1.098,-42.744,72.5,-1.72,-0.248,0.0
-9.024,-54.085,81.098,-1.471,-0.144,0.0
-17.256,-65.549,89.39,-1.22,-0.094,0.0
-22.134,-76.098,97.195,-0.989,-0.082,0.0
-23.049,-85.915,104.21,-0.776,-0.117,0.0
-20.671,-94.695,110.55,-0.598,-0.213,0.0
-15.915,-101.58,115.43,-0.421,-0.361,0.0
-8.659,-106.22,119.21,-0.246,-0.432,0.0
0.793,-108.84,121.89,-0.093,-0.534,0.0
11.89,-110.24,123.05,0.062,-0.662,0.0
23.476,-111.52,123.11,0.208,-0.759,0.0
34.817,-112.07,122.62,0.342,-0.849,0.0
45.549,-111.83,120.37,0.452,-0.925,0.0
57.622,-110.49,116.95,0.533,-0.983,0.0
70.915,-108.48,113.42,0.589,-1.038,0.0
83.11,-105.98,108.96,0.633,-1.089,0.0
94.939,-103.84,104.51,0.672,-1.144,0.0
106.22,-101.52,100.31,0.717,-1.174,0.0
118.54,-99.085,96.22,0.754,-1.19,0.0
130.98,-96.524,92.317,0.78,-1.192,0.0
141.89,-94.573,88.598,0.794,-1.191,0.0
151.65,-92.561,85.488,0.807,-1.211,0.0
160.0,-89.878,83.476,0.82,-1.211,0.0
168.72,-85.671,83.232,0.825,-1.179,0.0
178.72,-80.61,85.244,0.813,-1.115,0.0
191.1,-74.817,89.573,0.794,-1.044,0.0
204.09,-68.963,95.427,0.784,-0.994,0.0
217.32,-63.72,102.56,0.818,-0.952,0.0
237.62,-56.829,108.96,0.863,-0.924,0.0
258.54,-50.732,114.02,0.897,-0.929,0.0
278.29,-46.463,117.5,0.923,-0.976,0.0
298.84,-42.927,119.88,0.946,-1.035,0.0
318.66,-40.366,121.58,0.952,-1.039,0.0
338.23,-39.329,122.13,0.949,-1.036,0.0
356.77,-38.78,120.73,0.959,-1.025,0.0
371.71,-39.695,117.5,0.979,-1.019,0.0
380.0,-40.488,112.87,0.994,-1.013,0.0
382.93,-38.537,108.42,1.005,-1.007,0.0
382.93,-34.146,104.69,1.003,-0.985,0.0
380.31,-29.085,102.5,1.008,-0.922,0.0
371.52,-23.476,101.71,1.031,-0.82,0.0
361.89,-16.951,101.89,1.096,-0.736,0.0
352.19,-8.72,100.79,1.167,-0.701,0.0
341.4,-0.793,99.695,1.23,-0.694,0.0
335.06,5.976,97.378,1.257,-0.705,0.0
327.26,10.854,92.927,1.283,-0.722,0.0
316.89,11.89,85.854,1.331,-0.736,0.0
308.11,9.634,76.951,1.394,-0.752,0.0
296.89,4.756,66.646,1.425,-0.722,0.0
283.17,-0.976,57.012,1.422,-0.703,0.0
268.54,-6.89,49.268,1.386,-0.689,0.0
255.06,-12.073,43.415,1.358,-0.616,0.0
243.29,-15.671,39.756,1.344,-0.524,0.0
231.59,-17.012,38.415,1.341,-0.437,0.0
219.94,-16.707,38.902,1.34,-0.364,0.0
210.61,-15.305,40.549,1.348,-0.314,0.0
203.48,-13.11,42.744,1.364,-0.296,0.0
197.32,-8.963,45.061,1.419,-0.288,0.0
194.27,-5.915,47.134,1.493,-0.299,0.0
193.41,-4.329,48.232,1.546,-0.292,0.0
193.41,-4.451,47.378,1.569,-0.284,0.0
193.9,-5.732,44.085,1.574,-0.298,0.0
193.66,-8.72,38.171,1.559,-0.286,0.0
191.28,-13.902,30.183,1.535,-0.268,0.0
187.74,-20.427,21.341,1.51,-0.202,0.0
182.56,-27.439,12.5,1.467,-0.096,0.0
174.94,-34.451,4.512,1.415,0.012,0.0
166.1,-39.939,-1.89,1.364,0.127,0.0
156.65,-42.5,-6.646,1.325,0.212,0.0
146.77,-42.073,-9.329,1.298,0.265,0.0
136.77,-38.841,-10.0,1.284,0.313,0.0
127.13,-33.72,-9.207,1.29,0.337,0.0
117.81,-27.317,-7.012,1.309,0.34,0.0
108.48,-21.159,-4.329,1.335,0.322,0.0
99.207,-15.0,-1.22,1.368,0.294,0.0
89.512,-9.634,1.89,1.396,0.269,0.0
80.488,-5.732,4.207,1.401,0.229,0.0
72.439,-2.561,5.488,1.375,0.192,0.0
65.732,-0.183,5.915,1.337,0.165,0.0
60.61,0.915,5.793,1.293,0.146,0.0
57.073,1.098,5.854,1.248,0.128,0.0
55.305,1.098,6.098,1.207,0.121,0.0
54.451,1.22,6.341,1.176,0.099,0.0
54.329,1.341,6.585,1.15,0.048,0.0
57.256,0.427,7.134,1.123,-0.022,0.0
62.988,0.61,9.451,1.107,-0.079,0.0
71.707,0.915,12.927,1.104,-0.131,0.0
80.854,1.402,16.951,1.094,-0.177,0.0
84.451,2.317,19.024,1.069,-0.231,0.0
79.512,3.049,17.561,1.036,-0.299,0.0
69.329,4.939,15.427,1.012,-0.356,0.0
59.085,7.5,15.305,0.991,-0.406,0.0
54.695,8.415,16.707,0.958,-0.363,0.0
53.841,8.049,18.902,0.928,-0.314,0.0
53.293,7.866,21.159,0.907,-0.318,0.0
51.585,7.744,22.195,0.903,-0.363,0.0
48.049,7.5,22.134,0.914,-0.427,0.0
42.866,6.037,21.89,0.917,-0.492,0.0
37.5,3.476,20.488,0.9,-0.512,0.0
33.78,0.732,19.329,0.873,-0.498,0.0
31.037,-1.524,18.171,0.851,-0.48,0.0
27.561,-2.927,16.585,0.82,-0.481,0.0
24.329,-3.293,14.268,0.81,-0.462,0.0
22.256,-3.476,11.829,0.83,-0.478,0.0
21.22,-4.024,9.695,0.823,-0.493,0.0
20.305,-4.573,7.439,0.821,-0.486,0.0
19.39,-4.939,4.939,0.814,-0.479,0.0
18.537,-5.122,2.317,0.808,-0.473,0.0
18.11,-5.061,-0.488,0.805,-0.482,0.0
17.988,-5.244,-2.988,0.79,-0.493,0.0
17.927,-5.427,-5.244,0.767,-0.486,0.0
18.293,-5.61,-6.829,0.747,-0.469,0.0
18.963,-5.915,-8.171,0.734,-0.451,0.0
19.817,-6.28,-9.207,0.722,-0.44,0.0
20.793,-7.073,-9.939,0.709,-0.443,0.0
22.073,-8.171,-10.244,0.692,-0.452,0.0
23.415,-9.695,-10.427,0.678,-0.458,0.0
24.451,-11.463,-10.61,0.66,-0.465,0.0
25.0,-13.537,-10.915,0.646,-0.476,0.0
25.549,-15.549,-10.671,0.634,-0.494,0.0
25.854,-17.561,-10.122,0.622,-0.497,0.0
26.22,-19.634,-9.207,0.606,-0.491,0.0
26.768,-21.341,-7.805,0.604,-0.483,0.0
27.683,-22.317,-6.037,0.603,-0.48,0.0
28.72,-23.11,-3.841,0.604,-0.492,0.0
30.183,-23.598,-1.037,0.608,-0.505,0.0
32.683,-23.72,2.744,0.614,-0.513,0.0
35.427,-23.598,6.768,0.617,-0.511,0.0
37.5,-22.927,10.732,0.621,-0.515,0.0
39.39,-22.012,14.329,0.626,-0.525,0.0
40.793,-20.427,17.988,0.636,-0.529,0.0
41.098,-18.598,21.402,0.643,-0.518,0.0
40.244,-16.524,24.085,0.643,-0.498,0.0
38.659,-14.39,26.585,0.646,-0.478,0.0
36.037,-12.195,28.78,0.661,-0.459,0.0
32.378,-10.488,31.037,0.682,-0.44,0.0
28.72,-8.963,33.476,0.713,-0.416,0.0
24.634,-7.683,36.22,0.75,-0.387,0.0
20.915,-6.524,39.085,0.79,-0.38,0.0
18.72,-5.427,41.768,0.827,-0.387,0.0
18.902,-4.329,44.024,0.85,-0.398,0.0
19.268,-3.293,45.854,0.863,-0.422,0.0
20.671,-2.378,46.707,0.877,-0.458,0.0
21.707,-1.585,46.646,0.878,-0.487,0.0
22.744,-1.159,45.305,0.872,-0.513,0.0
24.634,-0.976,43.598,0.856,-0.528,0.0
28.11,-0.854,42.134,0.835,-0.527,0.0
32.5,-1.098,41.341,0.805,-0.521,0.0
36.768,-2.073,40.61,0.785,-0.508,0.0
41.89,-3.049,39.817,0.771,-0.508,0.0
47.378,-4.268,39.146,0.752,-0.522,0.0
52.012,-5.915,38.72,0.744,-0.536,0.0
55.488,-7.683,38.476,0.747,-0.548,0.0
57.073,-9.878,37.988,0.731,-0.541,0.0
56.768,-11.524,36.768,0.719,-0.53,0.0
55.793,-12.744,35.976,0.71,-0.514,0.0
56.28,-13.659,35.732,0.696,-0.496,0.0
57.378,-14.329,36.098,0.683,-0.465,0.0
58.415,-14.878,36.22,0.67,-0.432,0.0
58.537,-15.427,36.22,0.667,-0.443,0.0
58.415,-16.524,36.341,0.65,-0.439,0.0
57.988,-17.744,36.524,0.641,-0.451,0.0
56.28,-19.268,36.89,0.638,-0.442,0.0
53.659,-21.28,37.439,0.62,-0.424,0.0
50.061,-23.354,38.537,0.592,-0.401,0.0
45.427,-25.61,40.244,0.567,-0.381,0.0
39.268,-28.049,42.378,0.549,-0.356,0.0
31.524,-30.671,44.817,0.51,-0.332,0.0
21.341,-33.476,47.622,0.47,-0.305,0.0
9.024,-36.28,50.671,0.431,-0.277,0.0
-7.195,-39.573,53.963,0.387,-0.241,0.0
-28.11,-43.841,57.744,0.333,-0.202,0.0
-53.232,-48.049,63.232,0.273,-0.157,0.0
-80.732,-52.866,71.524,0.212,-0.118,0.0
-110.24,-58.659,83.659,0.125,-0.035,0.0
-140.43,-64.573,100.24,0.031,0.071,0.0
-170.43,-70.427,120.67,-0.051,0.125,0.0
-199.94,-76.951,143.66,-0.116,0.178,0.0
-228.35,-83.659,167.19,-0.172,0.211,0.0
-254.76,-90.854,190.49,-0.229,0.222,0.0
-280.67,-98.476,212.07,-0.298,0.211,0.0
-305.43,-106.77,230.37,-0.385,0.243,0.0
-326.52,-116.16,247.01,-0.449,0.314,0.0
-344.21,-126.71,263.11,-0.495,0.377,0.0
-357.87,-137.74,277.62,-0.529,0.435,0.0
-367.26,-149.51,290.85,-0.544,0.549,0.0
-373.05,-162.26,303.11,-0.545,0.647,0.0
-374.69,-174.69,313.9,-0.543,0.585,0.0
-372.26,-186.52,322.93,-0.55,0.546,0.0
-367.62,-197.44,329.88,-0.564,0.505,0.0
-359.33,-207.32,334.69,-0.578,0.404,0.0
-347.99,-215.98,338.17,-0.578,0.294,0.0
-334.02,-223.23,340.61,-0.557,0.196,0.0
-318.29,-229.15,342.56,-0.531,0.09,0.0
-301.83,-232.62,344.82,-0.488,-0.003,0.0
-284.69,-234.33,348.72,-0.429,-0.117,0.0
-267.62,-234.27,355.12,-0.366,-0.239,0.0
-251.83,-233.29,363.72,-0.288,-0.387,0.0
-238.23,-230.73,373.48,-0.192,-0.541,0.0
-227.07,-226.71,383.17,-0.08,-0.699,0.0
-218.41,-221.65,391.58,0.063,-0.885,0.0
-211.77,-214.94,397.5,0.202,-1.065,0.0
-205.91,-205.85,400.31,0.324,-1.216,0.0
-200.0,-194.09,400.24,0.424,-1.344,0.0
-193.29,-180.24,397.62,0.505,-1.488,0.0
-186.28,-166.28,391.83,0.588,-1.625,0.0
-179.69,-151.77,384.02,0.679,-1.74,0.0
-174.51,-135.61,375.85,0.767,-1.837,0.0
-172.19,-119.63,366.52,0.831,-1.965,0.0
-175.43,-104.94,356.52,0.876,-2.092,0.0
-184.02,-90.976,344.94,0.936,-2.197,0.0
-196.77,-76.829,331.46,1.004,-2.302,0.0
-212.62,-63.171,317.26,1.04,-2.34,0.0
-228.84,-47.195,302.07,1.026,-2.391,-1.554
-243.78,-27.439,284.94,0.986,-2.477,-1.806
-254.88,-6.829,266.04,0.959,-2.534,0.0
-261.58,13.78,246.83,0.995,-2.594,0.0
-264.94,36.829,226.77,1.106,-2.669,0.0
-261.89,61.646,205.06,1.225,-2.719,0.0
-253.29,87.256,181.77,1.305,-2.761,0.0
-241.4,113.35,157.38,1.42,-2.772,0.0
-225.06,140.55,133.05,1.522,-2.836,0.0
-202.01,168.17,108.54,1.625,-2.84,0.0
-176.16,195.06,84.756,1.733,-2.812,0.0
-147.56,220.98,61.829,1.847,-2.771,0.0
-114.82,247.5,39.512,1.944,-2.691,0.0
-80.122,273.9,16.524,2.027,-2.637,0.0
-49.39,300.31,-6.646,2.091,-2.635,0.0
-20.305,325.61,-29.939,2.134,-2.608,0.0
9.146,347.5,-53.171,2.169,-2.581,0.0
32.256,367.32,-76.037,2.176,-2.496,0.0
48.476,389.76,-99.146,2.166,-2.397,0.0
60.061,411.4,-121.4,2.134,-2.252,0.0
62.866,430.24,-142.74,2.066,-2.135,0.0
58.537,447.56,-163.35,1.992,-2.073,0.0
49.207,464.27,-183.6,1.896,-1.941,0.0
36.22,480.98,-202.87,1.754,-1.777,0.0
14.756,501.16,-218.35,1.635,-1.707,0.0
-9.634,522.5,-236.46,1.486,-1.628,0.0
-25.183,530.73,-251.4,1.328,-1.543,0.0
-49.329,537.8,-264.33,1.169,-1.476,0.0
-65.061,547.56,-277.93,1.072,-1.474,0.0
-75.427,554.33,-288.05,0.957,-1.485,0.0
-85.732,555.3,-296.22,0.722,-1.227,0.0
-91.829,556.34,-301.22,0.652,-1.622,0.0
-92.683,557.32,-302.44,0.481,-1.557,0.0
-90.549,555.24,-300.92,0.264,-1.4,0.0
-86.89,550.55,-297.01,0.134,-1.568,0.0
-83.049,544.82,-289.88,0.015,-1.559,0.0
-78.78,536.77,-282.19,-0.112,-1.55,0.0
-72.5,524.02,-280.31,-0.247,-1.639,0.0
-63.171,511.04,-276.16,-0.389,-1.663,0.0
-52.927,497.07,-270.85,-0.539,-1.667,0.0
-40.0,484.02,-266.22,-0.715,-1.723,0.0
-29.39,464.51,-265.18,-0.974,-1.51,0.0
-13.659,432.99,-264.15,-1.063,-1.348,-3.21
4.573,398.35,-259.82,-1.058,-1.61,-2.911
22.073,363.29,-249.09,-1.027,-1.543,-2.467
36.585,324.57,-230.67,-1.028,-1.308,-2.104
43.476,284.27,-207.62,-1.1,-1.014,0.0
42.622,244.15,-185.73,-1.267,-0.88,0.0
31.341,206.71,-164.76,-1.613,-0.928,0.0
11.28,172.07,-143.72,-2.201,-1.009,0.0
-6.646,139.57,-128.05,-2.822,-1.012,0.0
-22.866,111.89,-120.79,-3.254,-0.748,-1.614
-41.89,90.671,-118.9,-3.338,-0.433,-1.268
-66.829,77.988,-113.6,-3.201,-0.394,-0.972
-90.793,72.073,-99.573,-3.16,-0.355,0.0
-105.55,69.817,-76.89,-3.277,-0.107,-0.499
-115.24,69.39,-49.878,-3.346,0.193,-0.202
-119.33,68.598,-25.122,-3.254,0.276,0.084
-115.0,64.939,-6.341,-3.114,0.076,0.0
-100.31,58.659,7.5,-3.014,-0.235,0.0
-79.268,50.671,18.537,-2.982,-0.452,0.0
-54.756,41.22,29.451,-2.978,-0.497,0.0
-28.598,30.549,41.402,-2.924,-0.494,0.0
-3.11,19.573,54.146,-2.797,-0.508,0.0
19.939,9.024,65.732,-2.625,-0.554,0.0
39.329,-0.549,75.793,-2.462,-0.649,0.0
54.573,-9.085,84.268,-2.328,-0.771,0.0
65.366,-17.134,90.976,-2.195,-0.869,0.0
70.976,-25.0,96.037,-2.039,-0.897,0.0
72.195,-32.683,99.756,-1.834,-0.868,0.0
69.817,-41.524,102.74,-1.597,-0.816,0.0
64.512,-50.915,105.49,-1.358,-0.761,0.0
56.28,-61.037,107.5,-1.149,-0.708,0.0
48.293,-70.427,108.6,-0.971,-0.674,0.0
40.915,-77.805,108.54,-0.836,-0.694,0.0
34.024,-83.963,106.77,-0.695,-0.723,0.0
26.89,-89.329,104.39,-0.565,-0.747,0.0
21.585,-93.659,101.52,-0.458,-0.77,0.0
18.963,-97.195,97.927,-0.369,-0.8,0.0
18.232,-101.04,93.902,-0.28,-0.82,0.0
19.878,-104.76,89.939,-0.184,-0.835,0.0
24.024,-107.19,86.646,-0.101,-0.871,0.0
30.671,-108.35,85.244,-0.024,-0.91,0.0
39.939,-108.72,85.915,0.038,-0.944,0.0
51.89,-107.87,88.354,0.089,-0.964,0.0
65.549,-105.67,91.463,0.141,-0.99,0.0
79.634,-102.56,93.841,0.194,-1.035,0.0
94.817,-97.988,95.549,0.25,-1.107,0.0
111.83,-92.744,97.744,0.311,-1.183,0.0
129.27,-87.561,100.67,0.36,-1.208,0.0
147.01,-82.256,103.23,0.406,-1.188,0.0
165.12,-77.317,105.98,0.466,-1.138,0.0
182.99,-72.561,108.6,0.529,-1.102,0.0
198.84,-68.232,111.1,0.588,-1.103,0.0
214.76,-64.146,114.57,0.623,-1.088,0.0
235.31,-59.878,117.32,0.639,-1.069,0.0
258.17,-55.366,118.78,0.658,-1.084,0.0
281.04,-51.341,118.17,0.7,-1.124,0.0
300.24,-49.878,115.31,0.794,-1.171,0.0
316.46,-50.549,111.1,0.892,-1.214,0.0
329.21,-51.89,106.16,0.952,-1.226,0.0
341.22,-54.085,101.4,0.967,-1.216,0.0
350.67,-55.61,97.195,0.962,-1.181,0.0
354.15,-57.012,94.39,0.976,-1.14,0.0
357.38,-56.829,92.134,1.013,-1.083,0.0
356.77,-56.585,91.22,1.065,-1.025,0.0
353.6,-55.793,91.707,1.106,-0.98,0.0
349.63,-55.061,92.012,1.147,-0.958,0.0
347.44,-53.293,91.585,1.187,-0.926,0.0
343.23,-49.817,90.488,1.242,-0.947,0.0
339.88,-46.768,88.598,1.297,-0.964,0.0
339.33,-43.11,85.488,1.339,-0.976,0.0
338.9,-40.61,81.098,1.386,-0.991,0.0
335.24,-40.183,74.939,1.463,-1.009,0.0
329.69,-40.915,67.622,1.563,-0.998,0.0
321.89,-42.744,60.366,1.636,-0.972,0.0
311.46,-44.573,53.902,1.681,-0.92,0.0
300.73,-45.488,48.78,1.704,-0.854,0.0
288.84,-45.61,45.427,1.713,-0.769,0.0
275.24,-43.78,43.841,1.742,-0.693,0.0
261.04,-40.976,43.72,1.773,-0.64,0.0
247.38,-38.415,44.39,1.807,-0.577,0.0
234.94,-35.122,45.244,1.826,-0.524,0.0
223.84,-31.585,45.61,1.841,-0.492,0.0
215.18,-28.72,45.549,1.853,-0.479,0.0
208.05,-27.561,43.659,1.87,-0.473,0.0
202.5,-28.11,40.0,1.888,-0.454,0.0
197.87,-30.549,33.78,1.877,-0.411,0.0
193.23,-35.244,25.854,1.855,-0.365,0.0
188.35,-41.159,16.768,1.829,-0.322,0.0
183.11,-47.622,7.622,1.786,-0.26,0.0
176.71,-53.049,-0.854,1.726,-0.187,0.0
169.57,-57.744,-8.293,1.674,-0.119,0.0
162.62,-60.854,-13.902,1.629,-0.068,0.0
155.98,-61.524,-17.561,1.604,-0.037,0.0
149.76,-59.634,-19.573,1.606,-0.015,0.0
144.09,-56.037,-20.488,1.62,-0.019,0.0
139.09,-50.793,-20.732,1.627,-0.036,0.0
134.45,-43.902,-21.037,1.631,-0.083,0.0
129.51,-37.073,-22.134,1.635,-0.14,0.0
123.96,-30.244,-24.451,1.638,-0.188,0.0
119.15,-24.207,-27.195,1.64,-0.208,0.0
114.51,-19.268,-30.244,1.625,-0.208,0.0
110.37,-15.183,-32.866,1.58,-0.203,0.0
107.01,-13.171,-34.512,1.514,-0.199,0.0
104.15,-12.5,-36.098,1.452,-0.2,0.0
101.77,-12.866,-37.012,1.383,-0.254,0.0
99.146,-13.476,-37.5,1.318,-0.276,0.0
96.159,-13.537,-37.805,1.242,-0.34,0.0
91.951,-12.134,-36.951,1.181,-0.39,0.0
88.78,-10.732,-35.61,1.126,-0.409,0.0
87.683,-10.854,-33.902,1.089,-0.442,0.0
90.915,-11.951,-30.244,1.055,-0.458,0.0
98.049,-12.378,-24.634,1.034,-0.48,0.0
105.12,-12.134,-19.573,1.017,-0.504,0.0
110.49,-10.854,-16.524,0.981,-0.54,0.0
113.42,-8.232,-15.061,0.892,-0.58,0.0
113.42,-4.878,-15.427,0.843,-0.599,0.0
110.43,-1.646,-17.073,0.809,-0.57,0.0
103.66,1.22,-19.512,0.771,-0.507,0.0
93.902,2.866,-21.707,0.743,-0.431,0.0
82.5,3.293,-22.927,0.716,-0.367,0.0
69.451,3.049,-23.293,0.687,-0.322,0.0
54.085,2.805,-23.354,0.666,-0.301,0.0
37.744,3.11,-23.293,0.65,-0.291,0.0
22.927,3.659,-22.622,0.635,-0.291,0.0
10.183,4.756,-21.22,0.625,-0.291,0.0
-1.463,6.341,-20.427,0.618,-0.293,0.0
-11.463,8.11,-20.183,0.61,-0.297,0.0
-18.72,9.939,-20.122,0.606,-0.312,0.0
-23.232,11.098,-20.183,0.61,-0.318,0.0
-25.61,11.585,-20.244,0.617,-0.312,0.0
-25.488,11.524,-20.671,0.62,-0.318,0.0
-23.049,10.854,-21.341,0.612,-0.321,0.0
-18.659,9.39,-22.5,0.603,-0.337,0.0
-12.5,7.317,-24.085,0.586,-0.379,0.0
-5.549,4.573,-25.671,0.57,-0.406,0.0
2.134,1.707,-27.012,0.556,-0.427,0.0
9.939,-1.402,-27.805,0.545,-0.433,0.0
17.561,-4.817,-27.683,0.531,-0.427,0.0
24.939,-8.11,-26.524,0.529,-0.431,0.0
31.402,-11.098,-24.329,0.533,-0.425,0.0
36.951,-13.841,-21.159,0.545,-0.423,0.0
41.22,-16.098,-17.561,0.57,-0.427,0.0
44.085,-17.561,-13.78,0.592,-0.435,0.0
45.671,-18.659,-9.878,0.601,-0.444,0.0
45.366,-19.207,-6.341,0.615,-0.443,0.0
43.659,-19.451,-2.927,0.637,-0.429,0.0
40.732,-19.756,0.244,0.655,-0.414,0.0
36.585,-19.939,2.866,0.671,-0.402,0.0
31.22,-20.183,5.061,0.687,-0.389,0.0
25.183,-20.244,6.951,0.7,-0.39,0.0
18.902,-20.183,8.476,0.717,-0.388,0.0
12.866,-19.939,9.573,0.726,-0.393,0.0
7.012,-19.207,10.549,0.726,-0.41,0.0
1.646,-18.232,11.341,0.728,-0.421,0.0
-3.049,-16.707,11.951,0.736,-0.436,0.0
-6.89,-15.0,12.5,0.755,-0.456,0.0
-10.061,-13.171,13.11,0.775,-0.475,0.0
-12.439,-11.341,14.207,0.793,-0.495,0.0
-13.72,-9.817,15.366,0.811,-0.517,0.0
-10.061,-10.122,17.927,0.826,-0.537,0.0
1.951,-11.646,22.988,0.832,-0.559,0.0
15.305,-14.268,27.256,0.828,-0.582,0.0
21.829,-18.11,27.378,0.816,-0.607,0.0
23.598,-20.793,24.512,0.789,-0.669,0.0
24.573,-22.561,21.341,0.712,-0.746,0.0
27.134,-24.207,19.329,0.693,-0.702,0.0
31.098,-25.244,18.476,0.703,-0.643,0.0
35.183,-25.0,17.988,0.697,-0.575,0.0
37.805,-23.963,17.317,0.707,-0.556,0.0
38.476,-22.683,16.646,0.73,-0.592,0.0
36.829,-21.159,15.854,0.765,-0.623,0.0
34.756,-20.427,15.549,0.8,-0.609,0.0
32.134,-19.756,15.61,0.822,-0.571,0.0
29.695,-19.512,15.549,0.822,-0.54,0.0
26.646,-19.512,15.305,0.812,-0.517,0.0
22.988,-19.512,14.756,0.8,-0.462,0.0
18.72,-18.78,14.085,0.788,-0.437,0.0
9.268,-17.073,11.646,0.766,-0.411,0.0
-8.841,-15.976,7.439,0.738,-0.358,0.0
-20.854,-13.598,5.915,0.718,-0.325,0.0
-26.646,-11.463,7.439,0.707,-0.298,0.0
-31.707,-11.159,9.207,0.723,-0.174,0.0
-36.646,-11.646,11.159,0.697,-0.189,0.0
-40.976,-11.768,14.085,0.599,-0.218,0.0
-45.0,-12.073,17.195,0.611,-0.236,0.0
-50.549,-12.805,19.024,0.602,-0.236,0.0
-58.537,-13.659,19.573,0.55,-0.229,0.0
-67.317,-15.61,20.671,0.484,-0.224,0.0
-78.476,-18.293,22.073,0.437,-0.207,0.0
-92.439,-21.402,24.451,0.393,-0.16,0.0
-107.68,-24.695,29.024,0.331,-0.128,0.0
-124.51,-28.841,35.671,0.252,-0.094,0.0
-143.29,-34.024,44.268,0.177,-0.043,0.0
-161.95,-40.427,56.524,0.107,-0.016,0.0
-179.69,-47.439,72.744,0.041,0.02,0.0
-197.07,-55.915,91.707,-0.026,0.071,0.0
-214.45,-65.61,112.81,-0.107,0.111,0.0
-231.28,-76.037,134.82,-0.156,0.13,0.0
-246.04,-87.073,156.28,-0.196,0.105,0.0
-260.49,-98.659,176.83,-0.266,0.083,0.0
-274.02,-111.04,195.73,-0.351,0.09,0.0
-286.28,-123.42,212.68,-0.415,0.115,0.0
-296.83,-135.79,227.38,-0.436,0.156,0.0
-305.98,-148.29,239.94,-0.443,0.204,0.0
-313.11,-161.04,250.37,-0.438,0.255,0.0
-318.05,-174.21,259.51,-0.437,0.289,0.0
-320.61,-187.44,267.19,-0.445,0.31,0.0
-320.73,-201.1,274.33,-0.466,0.319,0.0
-318.23,-214.88,281.28,-0.481,0.3,0.0
-312.62,-228.72,287.93,-0.483,0.254,0.0
-304.69,-241.95,294.45,-0.482,0.182,0.0
-293.9,-254.51,300.43,-0.471,0.072,0.0
-281.77,-266.58,306.4,-0.449,-0.048,0.0
-267.26,-276.95,312.07,-0.408,-0.164,0.0
-250.79,-284.82,317.62,-0.368,-0.282,0.0
-233.78,-290.24,323.11,-0.308,-0.383,0.0
-215.79,-292.68,328.72,-0.248,-0.482,0.0
-196.71,-292.5,334.82,-0.184,-0.559,0.0
-177.68,-290.85,341.16,-0.108,-0.642,0.0
-159.63,-288.84,346.95,-0.028,-0.728,0.0
-143.66,-286.28,351.46,0.079,-0.806,0.0
-130.73,-283.05,354.02,0.194,-0.9,0.0
-122.01,-278.48,354.82,0.299,-1.019,0.0
-118.29,-272.07,353.96,0.391,-1.135,0.0
-118.66,-262.32,352.07,0.468,-1.231,0.0
-120.49,-249.82,350.18,0.539,-1.307,0.0
-122.81,-236.65,347.68,0.609,-1.339,0.0
-124.76,-223.35,344.15,0.7,-1.341,0.0
-124.08,-209.51,339.39,0.787,-1.349,0.0
-121.04,-195.43,333.48,0.831,-1.398,0.0
-117.07,-178.84,326.1,0.835,-1.505,0.0
-112.44,-159.21,317.44,0.842,-1.644,0.0
-109.45,-139.51,307.44,0.872,-1.8,0.0
-109.69,-119.88,295.24,0.932,-1.944,0.0
-115.73,-97.744,280.18,1.011,-2.018,0.0
-127.19,-76.28,263.29,1.088,-2.066,0.0
-143.9,-55.549,245.73,1.132,-2.196,0.0
-168.17,-33.049,228.35,1.16,-2.279,0.0
-196.16,-8.171,210.12,1.206,-2.304,0.0
-223.23,15.366,193.23,1.256,-2.249,0.0
-250.55,39.451,174.57,1.303,-2.203,0.0
-269.69,65.732,152.87,1.353,-2.217,0.0
-272.38,91.463,127.74,1.38,-2.225,0.0
-275.55,118.35,103.54,1.376,-2.229,0.0
-270.24,147.99,80.976,1.423,-2.378,0.0
-253.23,175.85,59.268,1.494,-2.352,0.0
-225.43,203.6,40.61,1.577,-2.314,0.0
-191.46,231.89,24.146,1.683,-2.333,0.0
-153.29,260.24,8.78,1.761,-2.292,0.0
-116.71,288.17,-6.037,1.827,-2.257,0.0
-81.463,315.61,-19.512,1.9,-2.296,0.0
-39.695,339.15,-33.415,1.952,-2.327,0.0
-0.61,359.33,-46.768,1.984,-2.253,0.0
31.707,382.01,-60.732,1.983,-2.134,0.0
60.427,404.45,-74.939,1.969,-2.045,0.0
81.037,423.48,-90.0,1.906,-1.916,0.0
92.866,440.37,-106.04,1.826,-1.877,0.0
96.22,455.67,-123.11,1.75,-1.83,0.0
91.646,470.24,-142.01,1.626,-1.66,0.0
80.0,485.98,-160.98,1.514,-1.554,0.0
59.512,500.67,-176.52,1.403,-1.469,0.0
34.146,512.93,-190.67,1.274,-1.368,0.0
9.024,517.44,-204.82,1.142,-1.254,0.0
-17.073,520.06,-217.13,1.024,-1.111,0.0
-39.451,524.82,-226.95,0.921,-1.119,0.0
-56.646,529.45,-233.29,0.797,-1.191,0.0
-73.598,532.74,-235.43,0.6,-1.047,0.0
-86.646,533.6,-237.32,0.476,-1.071,0.0
-88.902,525.85,-237.5,0.388,-1.184,0.0
-88.537,514.63,-235.06,0.243,-1.198,0.0
-81.524,503.17,-231.89,0.142,-1.23,0.0
-67.5,492.13,-227.26,0.021,-1.313,0.0
-50.793,481.22,-222.01,-0.182,-1.156,0.0
-29.939,468.23,-216.1,-0.291,-1.333,0.0
-6.402,450.37,-211.1,-0.471,-1.435,0.0
13.293,429.57,-208.29,-0.651,-1.346,0.0
30.244,406.4,-207.5,-0.702,-1.37,0.0
46.098,371.52,-207.44,-0.718,-1.389,0.0
54.451,338.42,-203.72,-0.749,-1.378,0.0
57.134,307.87,-192.44,-0.843,-1.314,0.0
56.768,278.54,-173.9,-0.995,-1.212,0.0
42.683,247.93,-150.67,-1.265,-0.939,0.0
20.915,222.68,-128.35,-1.442,-0.808,0.0
-7.622,202.56,-108.35,-1.687,-0.754,0.0
-40.122,185.85,-87.5,-2.07,-0.644,0.0
-67.378,171.46,-67.561,-2.479,-0.613,0.0
-85.976,159.82,-52.805,-2.826,-0.428,-1.598
-93.963,153.29,-46.524,-2.95,-0.108,-1.212
-95.366,149.45,-44.085,-2.804,0.035,-0.843
-89.878,144.45,-38.415,-2.639,-0.073,-0.521
-74.146,136.22,-24.756,-2.637,-0.191,-0.213
-52.317,126.04,-5.854,-2.729,-0.072,0.048
-30.427,111.71,14.085,-2.747,0.042,0.0
-5.366,95.366,30.793,-2.728,-0.029,0.0
21.22,76.28,43.415,-2.759,-0.288,0.0
44.024,56.829,51.768,-2.854,-0.61,0.0
60.0,38.841,57.927,-2.92,-0.72,0.0
68.354,22.622,64.756,-2.919,-0.672,0.0
68.537,8.963,72.5,-2.841,-0.626,0.0
61.463,-2.195,79.695,-2.688,-0.559,0.0
48.902,-11.524,85.549,-2.511,-0.462,0.0
33.049,-19.634,89.695,-2.325,-0.409,0.0
16.341,-27.256,92.622,-2.134,-0.391,0.0
0.61,-34.939,94.756,-1.948,-0.353,0.0
-12.5,-43.171,95.549,-1.743,-0.321,0.0
-21.951,-53.171,96.524,-1.534,-0.316,0.0
-26.89,-64.146,97.195,-1.33,-0.35,0.0
-26.951,-74.451,96.89,-1.142,-0.428,0.0
-23.537,-84.085,95.61,-0.973,-0.524,0.0
-17.866,-92.561,93.415,-0.832,-0.646,0.0
-10.427,-98.415,90.427,-0.714,-0.796,0.0
-1.463,-101.52,87.622,-0.612,-0.925,0.0
8.476,-102.13,84.573,-0.51,-1.021,0.0
18.902,-101.04,81.402,-0.406,-1.111,0.0
30.244,-98.415,77.927,-0.284,-1.176,0.0
41.829,-94.451,74.207,-0.157,-1.222,0.0
54.024,-89.878,70.671,-0.053,-1.254,0.0
67.073,-85.244,66.707,0.03,-1.269,0.0
81.098,-80.427,61.951,0.088,-1.27,0.0
94.878,-76.585,56.341,0.129,-1.289,0.0
108.17,-73.963,50.732,0.176,-1.339,0.0
120.43,-70.732,45.305,0.221,-1.372,0.0
132.68,-66.707,40.366,0.254,-1.372,0.0
145.0,-62.439,35.854,0.276,-1.352,0.0
157.26,-58.415,32.195,0.303,-1.358,0.0
170.18,-54.878,29.146,0.351,-1.364,0.0
182.74,-51.829,25.488,0.406,-1.331,0.0
194.57,-48.659,21.707,0.467,-1.322,0.0
206.83,-44.817,18.11,0.532,-1.314,0.0
219.39,-40.915,15.366,0.576,-1.306,0.0
231.28,-37.378,13.963,0.597,-1.294,0.0
243.78,-34.024,14.024,0.636,-1.271,0.0
258.35,-30.244,14.024,0.708,-1.244,0.0
270.24,-27.561,14.512,0.796,-1.243,0.0
283.78,-26.159,12.683,0.881,-1.259,0.0
298.66,-25.305,9.146,0.937,-1.274,0.0
314.76,-25.183,4.695,0.957,-1.281,0.0
330.55,-25.488,-0.671,0.983,-1.315,0.0
342.13,-27.866,-6.402,1.015,-1.329,0.0
351.83,-30.183,-12.927,1.051,-1.296,0.0
357.01,-32.317,-19.451,1.104,-1.262,0.0
359.94,-34.756,-24.878,1.144,-1.189,0.0
358.42,-36.037,-28.476,1.183,-1.112,0.0
354.02,-36.159,-29.939,1.202,-1.001,0.0
347.74,-35.793,-29.756,1.225,-0.904,0.0
341.89,-33.659,-28.415,1.246,-0.825,0.0
335.43,-30.061,-25.976,1.284,-0.757,0.0
330.49,-25.976,-23.049,1.336,-0.705,0.0
327.26,-22.012,-20.671,1.382,-0.689,0.0
324.15,-18.232,-19.512,1.437,-0.661,0.0
321.46,-14.817,-20.122,1.493,-0.665,0.0
317.56,-13.598,-22.561,1.543,-0.663,0.0
312.74,-14.878,-26.585,1.587,-0.639,0.0
307.68,-17.561,-31.585,1.606,-0.611,0.0
302.5,-21.22,-37.134,1.605,-0.542,0.0
295.12,-27.073,-42.195,1.593,-0.451,0.0
286.83,-33.963,-45.976,1.568,-0.344,0.0
278.6,-39.939,-48.476,1.536,-0.247,0.0
270.06,-44.207,-49.085,1.489,-0.142,0.0
260.98,-46.28,-47.561,1.454,-0.04,0.0
251.83,-46.037,-44.634,1.438,0.042,0.0
243.54,-43.293,-41.098,1.434,0.087,0.0
236.65,-38.415,-37.866,1.433,0.119,0.0
229.94,-32.561,-34.939,1.44,0.134,0.0
223.84,-27.012,-33.293,1.473,0.153,0.0
218.78,-21.707,-32.805,1.505,0.18,0.0
214.33,-17.378,-33.841,1.513,0.224,0.0
209.57,-15.0,-36.402,1.481,0.258,0.0
203.11,-15.366,-39.573,1.458,0.295,0.0
196.1,-17.073,-42.683,1.439,0.35,0.0
187.74,-19.451,-44.695,1.421,0.409,0.0
178.48,-22.317,-45.0,1.385,0.464,0.0
168.23,-25.61,-43.354,1.347,0.502,0.0
156.77,-27.378,-39.817,1.307,0.523,0.0
145.18,-26.951,-34.634,1.292,0.535,0.0
133.72,-24.695,-28.049,1.287,0.531,0.0
122.32,-20.488,-21.037,1.273,0.516,0.0
110.37,-15.061,-13.78,1.263,0.475,0.0
99.146,-8.963,-6.341,1.276,0.42,0.0
89.024,-2.317,0.183,1.289,0.378,0.0
79.695,4.634,5.305,1.312,0.341,0.0
71.341,10.732,8.963,1.316,0.29,0.0
64.451,14.939,11.524,1.305,0.243,0.0
59.268,16.951,13.354,1.277,0.197,0.0
55.366,17.134,14.085,1.241,0.165,0.0
52.378,16.037,14.695,1.198,0.128,0.0
49.939,14.329,15.671,1.151,0.083,0.0
47.195,12.439,16.951,1.091,0.036,0.0
44.695,11.098,18.841,1.038,-0.017,0.0
44.878,9.268,20.183,0.995,-0.072,0.0
43.72,8.293,22.134,0.967,-0.146,0.0
42.744,7.805,24.451,0.959,-0.208,0.0
42.317,7.5,26.402,0.957,-0.253,0.0
41.524,7.683,27.805,0.952,-0.3,0.0
40.671,8.232,28.537,0.925,-0.376,0.0
39.39,8.841,27.805,0.906,-0.418,0.0
38.232,9.512,26.037,0.897,-0.446,0.0
37.317,9.878,23.415,0.886,-0.465,0.0
36.341,10.0,20.061,0.862,-0.465,0.0
35.427,9.207,16.585,0.837,-0.459,0.0
34.878,7.866,13.11,0.808,-0.449,0.0
34.329,5.915,10.183,0.78,-0.427,0.0
34.146,3.537,7.622,0.759,-0.414,0.0
33.78,0.915,5.427,0.734,-0.413,0.0
33.293,-1.585,3.78,0.71,-0.408,0.0
32.622,-3.841,2.439,0.695,-0.405,0.0
31.89,-5.793,0.915,0.686,-0.397,0.0
30.976,-7.012,-0.427,0.679,-0.392,0.0
30.122,-8.049,-1.829,0.687,-0.385,0.0
29.695,-8.963,-3.11,0.699,-0.369,0.0
29.634,-9.573,-4.146,0.714,-0.349,0.0
30.183,-10.061,-5.122,0.726,-0.339,0.0
31.098,-10.427,-5.793,0.73,-0.326,0.0
32.5,-10.732,-6.402,0.73,-0.31,0.0
33.841,-10.976,-6.829,0.735,-0.303,0.0
34.939,-11.098,-7.073,0.745,-0.302,0.0
35.854,-11.037,-7.012,0.753,-0.292,0.0
36.159,-10.915,-6.768,0.752,-0.282,0.0
36.037,-10.549,-6.28,0.755,-0.275,0.0
35.061,-10.305,-5.488,0.761,-0.267,0.0
33.902,-10.122,-4.451,0.763,-0.258,0.0
32.012,-10.0,-3.232,0.761,-0.246,0.0
29.817,-9.817,-1.707,0.76,-0.236,0.0
27.5,-9.573,-0.122,0.759,-0.234,0.0
25.0,-9.085,1.707,0.765,-0.235,0.0
22.683,-8.415,3.659,0.769,-0.238,0.0
20.244,-7.683,5.549,0.772,-0.252,0.0
17.805,-7.134,7.195,0.774,-0.273,0.0
15.732,-6.707,8.72,0.776,-0.295,0.0
13.415,-6.28,10.122,0.779,-0.323,0.0
11.463,-6.037,11.463,0.776,-0.354,0.0
9.573,-5.793,12.622,0.77,-0.378,0.0
7.805,-5.549,13.78,0.767,-0.403,0.0
6.402,-5.305,14.817,0.767,-0.427,0.0
5.122,-4.878,16.037,0.768,-0.44,0.0
3.963,-4.207,17.5,0.771,-0.451,0.0
3.11,-3.72,18.841,0.776,-0.459,0.0
2.256,-3.476,20.366,0.776,-0.467,0.0
1.463,-3.232,21.585,0.784,-0.473,0.0
0.976,-3.598,22.744,0.786,-0.474,0.0
0.183,-3.963,23.659,0.79,-0.476,0.0
-0.244,-4.512,24.329,0.785,-0.48,0.0
-0.61,-5.61,24.695,0.778,-0.478,0.0
-0.854,-6.89,24.695,0.767,-0.467,0.0
-1.159,-8.171,24.878,0.764,-0.451,0.0
-1.646,-9.512,24.756,0.75,-0.435,0.0
-2.378,-10.854,24.634,0.742,-0.41,0.0
-3.293,-12.134,24.756,0.721,-0.385,0.0
-5.122,-13.232,25.0,0.713,-0.361,0.0
-7.927,-14.207,25.244,0.706,-0.347,0.0
-11.28,-14.817,25.793,0.697,-0.323,0.0
-15.244,-15.183,26.707,0.686,-0.297,0.0
-19.817,-15.61,28.232,0.669,-0.281,0.0
-25.305,-15.976,30.427,0.656,-0.26,0.0
-32.012,-16.646,32.805,0.644,-0.236,0.0
-39.695,-17.012,35.488,0.631,-0.214,0.0
-48.415,-17.683,39.085,0.62,-0.198,0.0
-57.866,-18.78,43.72,0.604,-0.174,0.0
-68.415,-20.366,49.268,0.583,-0.153,0.0
-80.0,-22.073,55.427,0.547,-0.126,0.0
-92.134,-23.963,62.134,0.518,-0.119,0.0
-104.76,-26.951,69.878,0.485,-0.104,0.0
-117.38,-29.878,78.659,0.446,-0.089,0.0
-130.43,-33.293,88.354,0.39,-0.065,0.0
-143.6,-36.89,98.537,0.333,-0.034,0.0
-156.59,-40.793,109.45,0.29,-0.006,0.0
-169.82,-45.061,120.55,0.245,-0.018,0.0
-182.74,-49.756,132.07,0.19,-0.009,0.0
-195.91,-54.878,143.72,0.129,0.024,0.0
-208.54,-60.366,155.37,0.075,0.052,0.0
-221.04,-66.28,166.95,0.022,0.085,0.0
-233.72,-72.256,178.05,-0.021,0.114,0.0
-246.22,-78.537,188.66,-0.068,0.139,0.0
-258.29,-85.427,198.9,-0.102,0.155,0.0
-269.51,-92.317,208.84,-0.145,0.171,0.0
-279.88,-99.939,218.78,-0.179,0.186,0.0
-288.84,-108.05,228.29,-0.199,0.187,0.0
-295.92,-117.01,237.74,-0.212,0.179,0.0
-301.4,-126.77,247.07,-0.215,0.165,0.0
-305.31,-137.13,255.85,-0.222,0.131,0.0
-307.99,-148.11,263.96,-0.225,0.09,0.0
-308.48,-159.02,270.92,-0.225,0.042,0.0
-308.29,-169.21,276.28,-0.236,-0.026,0.0
-307.62,-178.84,280.31,-0.234,-0.097,0.0
-305.12,-188.05,283.23,-0.233,-0.16,0.0
-301.34,-197.07,285.06,-0.22,-0.208,0.0
-296.46,-205.31,286.22,-0.199,-0.24,0.0
-290.43,-212.13,287.01,-0.169,-0.262,0.0
-284.15,-217.87,287.5,-0.139,-0.285,0.0
-277.26,-223.17,288.17,-0.111,-0.342,0.0
-269.82,-228.05,289.39,-0.077,-0.394,0.0
-262.56,-232.62,291.4,-0.037,-0.432,0.0
-254.69,-236.4,293.54,0.012,-0.478,0.0
-246.4,-239.27,296.04,0.069,-0.541,0.0
-237.44,-241.46,299.51,0.109,-0.624,0.0
-227.62,-243.96,304.15,0.129,-0.712,0.0
-217.44,-245.98,308.48,0.162,-0.767,0.0
-207.68,-246.34,310.61,0.216,-0.793,0.0
-197.44,-244.63,311.22,0.277,-0.855,0.0
-186.95,-241.52,310.79,0.318,-0.967,0.0
-177.07,-238.17,309.45,0.32,-1.07,0.0
-168.17,-233.29,306.4,0.328,-1.134,0.0
-160.85,-226.22,301.77,0.374,-1.152,0.0
-155.31,-217.81,296.46,0.425,-1.204,0.0
-152.07,-207.56,291.04,0.477,-1.305,0.0
-151.71,-195.85,284.76,0.504,-1.402,0.0
-154.76,-183.17,278.84,0.536,-1.474,0.0
-161.59,-168.6,274.08,0.616,-1.514,0.0
-171.1,-152.68,269.88,0.708,-1.536,0.0
-180.43,-137.13,268.11,0.772,-1.563,0.0
-190.55,-122.56,268.11,0.818,-1.586,0.0
-201.59,-106.95,266.34,0.862,-1.624,0.0
-213.84,-89.634,260.12,0.924,-1.676,0.0
-222.38,-74.146,248.48,0.963,-1.72,0.0
-228.41,-60.244,234.76,0.995,-1.825,0.0
-234.09,-43.232,218.9,0.978,-1.905,0.0
-235.12,-21.89,202.56,0.952,-1.945,0.0
-236.16,2.378,187.19,0.917,-1.885,0.0
-228.29,28.232,171.77,0.935,-1.943,0.0
-221.52,55.0,159.69,1.023,-2.056,0.0
-233.23,84.695,145.98,1.082,-2.003,0.0
-231.4,115.85,130.61,1.167,-1.972,0.0
-208.35,144.39,117.19,1.196,-2.028,0.0
-179.57,174.82,99.817,1.234,-2.208,0.0
-140.85,205.12,79.817,1.323,-2.29,0.0
-101.46,235.06,60.549,1.349,-2.083,0.0
-58.598,264.33,41.098,1.404,-2.017,0.0
-5.183,291.34,22.134,1.523,-2.314,0.0
45.366,319.21,0.671,1.546,-2.108,0.0
92.378,346.71,-20.732,1.554,-2.035,0.0
131.34,372.93,-42.256,1.606,-2.247,0.0
159.45,396.95,-64.085,1.606,-2.221,0.0
174.88,419.21,-85.732,1.583,-2.117,0.0
178.05,439.88,-107.13,1.539,-1.961,0.0
170.24,458.66,-127.26,1.502,-1.882,0.0
151.28,475.43,-146.22,1.423,-1.737,0.0
125.0,490.92,-162.56,1.323,-1.546,0.0
96.707,505.49,-176.22,1.204,-1.371,0.0
65.976,519.09,-187.68,1.083,-1.191,0.0
37.805,531.04,-196.52,0.939,-1.066,0.0
13.415,541.22,-203.84,0.806,-0.971,0.0
-4.939,550.3,-210.24,0.669,-0.905,0.0
-15.793,557.38,-215.61,0.543,-0.89,0.0
-19.573,562.01,-220.49,0.411,-0.888,0.0
-18.72,564.45,-226.4,0.285,-0.93,0.0
-14.39,567.07,-234.15,0.156,-0.972,0.0
-3.232,561.95,-237.62,0.035,-1.046,0.0
3.232,548.96,-241.83,-0.078,-1.153,0.0
11.402,535.98,-247.32,-0.189,-1.227,0.0
20.793,523.48,-251.95,-0.292,-1.161,0.0
27.378,511.22,-255.98,-0.436,-1.191,0.0
29.756,497.01,-259.33,-0.609,-1.479,0.0
28.354,480.55,-263.11,-0.806,-1.365,0.0
24.756,460.49,-267.26,-0.977,-1.225,0.0
15.0,438.05,-270.31,-1.082,-1.268,0.0
6.89,414.21,-270.12,-1.163,-1.187,0.0
3.963,383.6,-263.96,-1.205,-1.06,-2.612
-7.378,347.01,-250.61,-1.244,-0.969,-2.335
-19.573,317.74,-233.78,-1.298,-0.849,-1.993
-26.768,288.48,-217.62,-1.373,-0.648,-1.663
-35.305,258.96,-198.35,-1.572,-0.497,0.0
-56.524,228.17,-172.56,-1.958,-0.548,0.0
-75.976,195.55,-143.54,-2.456,-0.56,0.0
-84.268,164.63,-118.17,-3.038,-0.336,0.0
-85.061,142.44,-101.83,-3.4,-0.11,0.0
-83.537,128.05,-91.951,-3.474,-0.083,0.0
-76.768,119.21,-79.39,-3.429,-0.252,0.0
-62.927,113.11,-59.817,-3.446,-0.409,-0.821
-42.805,108.17,-34.268,-3.479,-0.234,-0.407
-20.61,102.38,-6.829,-3.33,0.002,0.034
2.622,92.927,17.622,-3.072,-0.005,0.402
26.585,79.451,36.89,-2.912,-0.245,0.705
49.024,63.415,52.378,-2.908,-0.519,0.0
67.134,45.122,65.915,-2.974,-0.675,0.0
78.902,25.061,78.659,-3.01,-0.675,0.0
84.39,4.756,90.915,-2.958,-0.601,0.0
83.11,-14.146,102.56,-2.822,-0.51,0.0
76.89,-30.854,113.05,-2.67,-0.45,0.0
67.012,-44.573,121.1,-2.563,-0.433,0.0
55.671,-55.427,126.1,-2.451,-0.43,0.0
44.329,-65.427,128.48,-2.286,-0.422,0.0
34.207,-75.427,128.17,-2.059,-0.408,0.0
26.646,-86.646,126.1,-1.806,-0.436,0.0
22.439,-99.024,123.35,-1.555,-0.437,0.0
21.28,-113.05,119.63,-1.334,-0.47,0.0
20.244,-127.56,115.31,-1.139,-0.543,0.0
21.098,-138.17,111.1,-0.975,-0.628,0.0
23.659,-144.63,107.01,-0.858,-0.728,0.0
28.171,-147.87,103.6,-0.768,-0.822,0.0
35.61,-148.35,102.13,-0.665,-0.904,0.0
44.756,-146.83,101.83,-0.529,-0.968,0.0
54.39,-142.74,101.34,-0.357,-1.036,0.0
65.183,-137.38,100.24,-0.169,-1.114,0.0
74.512,-131.22,97.561,0.008,-1.22,0.0
85.061,-123.48,93.293,0.155,-1.323,0.0
98.232,-115.85,88.902,0.251,-1.381,0.0
113.23,-108.96,84.817,0.325,-1.405,0.0
129.09,-102.87,81.28,0.4,-1.414,0.0
144.88,-97.134,77.988,0.485,-1.402,0.0
159.33,-91.89,75.305,0.572,-1.378,0.0
173.48,-86.402,73.537,0.641,-1.353,0.0
189.57,-81.098,73.11,0.681,-1.345,0.0
206.1,-76.159,73.293,0.706,-1.347,0.0
222.56,-72.134,72.805,0.731,-1.342,0.0
239.33,-68.11,71.829,0.79,-1.334,0.0
257.87,-64.146,69.634,0.855,-1.341,0.0
278.11,-60.366,66.402,0.922,-1.37,0.0
297.26,-57.439,62.805,0.983,-1.408,0.0
316.46,-55.366,60.732,1.031,-1.416,0.0
338.78,-53.72,58.963,1.07,-1.381,0.0
361.77,-53.049,56.341,1.098,-1.369,0.0
384.69,-53.537,53.537,1.141,-1.404,0.0
404.76,-54.695,50.183,1.196,-1.423,0.0
418.9,-55.244,45.976,1.242,-1.434,0.0
428.54,-55.305,41.89,1.276,-1.424,0.0
436.34,-53.293,38.232,1.303,-1.381,0.0
438.23,-50.915,34.329,1.324,-1.3,0.0
442.26,-46.463,29.939,1.341,-1.19,0.0
440.31,-42.073,26.585,1.387,-1.121,0.0
436.46,-37.561,23.963,1.457,-1.072,0.0
432.5,-32.134,20.732,1.544,-1.055,0.0
429.57,-27.439,16.707,1.591,-0.981,0.0
428.05,-24.451,12.378,1.608,-0.935,0.0
423.35,-22.561,8.537,1.602,-0.898,0.0
416.77,-21.646,4.573,1.599,-0.899,0.0
409.51,-22.561,0.122,1.615,-0.872,0.0
400.24,-25.305,-4.817,1.644,-0.824,0.0
388.9,-29.207,-9.39,1.664,-0.794,0.0
375.73,-32.988,-13.415,1.65,-0.71,0.0
360.85,-36.28,-16.524,1.615,-0.604,0.0
344.45,-38.963,-18.537,1.578,-0.492,0.0
327.62,-41.098,-19.573,1.555,-0.366,0.0
310.73,-41.89,-19.573,1.546,-0.247,0.0
294.57,-42.439,-18.537,1.545,-0.144,0.0
279.88,-42.622,-16.829,1.544,-0.056,0.0
266.34,-41.89,-14.695,1.545,0.015,0.0
253.66,-40.732,-12.988,1.555,0.064,0.0
241.59,-39.451,-11.951,1.564,0.089,0.0
230.37,-37.988,-11.402,1.578,0.116,0.0
219.76,-36.768,-11.89,1.587,0.146,0.0
210.49,-35.488,-13.72,1.585,0.194,0.0
200.12,-34.878,-16.159,1.571,0.249,0.0
189.39,-35.244,-19.207,1.542,0.282,0.0
179.09,-36.524,-23.049,1.515,0.302,0.0
168.17,-38.171,-26.89,1.488,0.341,0.0
157.07,-39.695,-30.488,1.472,0.387,0.0
145.98,-40.549,-33.72,1.445,0.423,0.0
134.94,-40.061,-35.976,1.411,0.435,0.0
123.72,-37.866,-36.951,1.385,0.438,0.0
112.56,-33.659,-37.073,1.369,0.439,0.0
101.58,-28.354,-36.463,1.357,0.435,0.0
91.037,-22.073,-34.939,1.355,0.417,0.0
80.793,-15.122,-32.988,1.361,0.368,0.0
70.854,-7.927,-30.854,1.357,0.327,0.0
61.463,-1.585,-28.537,1.356,0.275,0.0
52.988,3.415,-25.915,1.346,0.221,0.0
45.976,7.317,-23.537,1.323,0.174,0.0
40.305,10.0,-21.585,1.283,0.123,0.0
35.61,11.28,-19.512,1.24,0.069,0.0
32.134,11.707,-17.744,1.201,0.011,0.0
29.756,11.22,-15.793,1.151,-0.034,0.0
28.293,10.549,-14.085,1.108,-0.072,0.0
27.439,9.817,-12.256,1.069,-0.113,0.0
27.805,9.329,-9.939,1.038,-0.154,0.0
28.354,9.268,-7.378,1.003,-0.202,0.0
28.963,9.695,-4.756,0.988,-0.244,0.0
29.939,10.305,-2.683,0.964,-0.282,0.0
30.976,11.037,-0.915,0.945,-0.327,0.0
31.768,12.073,0.183,0.924,-0.377,0.0
32.317,12.927,0.61,0.903,-0.413,0.0
32.439,13.72,0.305,0.881,-0.436,0.0
31.951,14.085,-0.671,0.862,-0.453,0.0
31.098,13.963,-1.951,0.845,-0.466,0.0
29.878,13.78,-3.537,0.826,-0.469,0.0
27.927,13.232,-5.122,0.803,-0.463,0.0
25.366,12.378,-6.768,0.782,-0.457,0.0
22.317,11.28,-8.232,0.755,-0.446,0.0
18.78,9.695,-9.329,0.736,-0.437,0.0
14.817,8.293,-9.756,0.723,-0.417,0.0
10.976,6.768,-9.634,0.713,-0.397,0.0
7.439,5.305,-9.207,0.706,-0.375,0.0
4.39,4.146,-8.598,0.701,-0.359,0.0
1.585,2.927,-7.683,0.708,-0.349,0.0
-0.427,1.951,-7.012,0.7,-0.345,0.0
-1.585,1.341,-7.012,0.698,-0.334,0.0
-2.561,1.159,-7.195,0.694,-0.323,0.0
-3.232,1.402,-7.927,0.701,-0.319,0.0
-3.598,1.829,-8.841,0.716,-0.31,0.0
-3.476,2.439,-9.756,0.728,-0.3,0.0
-3.171,3.232,-10.976,0.735,-0.29,0.0
-2.866,4.146,-12.439,0.746,-0.285,0.0
-2.622,5.0,-13.659,0.757,-0.278,0.0
-2.256,5.61,-14.268,0.756,-0.272,0.0
-1.89,6.159,-14.329,0.752,-0.269,0.0
-1.768,6.646,-14.024,0.753,-0.27,0.0
-1.768,6.585,-13.293,0.764,-0.272,0.0
-1.707,6.585,-12.378,0.771,-0.279,0.0
-1.829,6.768,-11.585,0.773,-0.293,0.0
-1.829,6.89,-11.098,0.768,-0.307,0.0
-1.098,6.707,-10.732,0.763,-0.327,0.0
0.0,6.341,-10.488,0.762,-0.341,0.0
1.28,6.22,-10.549,0.758,-0.361,0.0
2.622,6.098,-10.61,0.752,-0.377,0.0
4.39,5.305,-10.305,0.759,-0.391,0.0
6.402,4.573,-9.756,0.77,-0.411,0.0
7.927,3.415,-9.146,0.771,-0.432,0.0
9.085,2.073,-8.537,0.772,-0.449,0.0
9.939,0.732,-7.988,0.766,-0.467,0.0
10.244,-0.732,-7.683,0.758,-0.488,0.0
9.573,-1.89,-7.439,0.747,-0.509,0.0
8.963,-2.927,-7.317,0.744,-0.523,0.0
8.537,-3.902,-7.561,0.742,-0.533,0.0
7.622,-4.512,-7.744,0.733,-0.537,0.0
6.524,-4.695,-7.927,0.739,-0.538,0.0
5.183,-4.39,-8.232,0.741,-0.542,0.0
4.329,-4.146,-8.72,0.737,-0.544,0.0
3.72,-3.841,-8.963,0.729,-0.554,0.0
3.476,-3.537,-9.146,0.721,-0.559,0.0
3.354,-3.232,-9.329,0.723,-0.564,0.0
3.354,-3.171,-9.451,0.715,-0.569,0.0
3.049,-3.232,-9.207,0.705,-0.572,0.0
2.012,-3.049,-9.268,0.697,-0.569,0.0
0.244,-2.622,-9.146,0.691,-0.554,0.0
-1.89,-2.378,-8.78,0.696,-0.535,0.0
-3.476,-2.073,-7.866,0.699,-0.515,0.0
-4.451,-1.951,-6.463,0.702,-0.491,0.0
-5.0,-1.646,-4.573,0.711,-0.462,0.0
-4.756,-1.585,-2.439,0.72,-0.438,0.0
-3.659,-1.707,0.0,0.727,-0.427,0.0
-1.22,-1.951,2.256,0.738,-0.42,0.0
1.768,-2.5,4.329,0.74,-0.414,0.0
5.671,-3.171,6.037,0.738,-0.414,0.0
10.122,-3.963,7.5,0.735,-0.417,0.0
14.817,-4.634,8.963,0.726,-0.421,0.0
19.817,-5.366,10.427,0.709,-0.424,0.0
24.939,-6.098,11.951,0.697,-0.424,0.0
29.512,-6.768,13.78,0.69,-0.418,0.0
33.72,-7.378,15.854,0.687,-0.414,0.0
36.951,-8.11,17.927,0.674,-0.424,0.0
39.268,-8.72,20.0,0.656,-0.431,0.0
40.549,-9.695,22.317,0.635,-0.429,0.0
40.488,-10.488,25.061,0.621,-0.421,0.0
38.841,-11.402,27.927,0.601,-0.41,0.0
35.122,-12.622,30.854,0.585,-0.401,0.0
29.207,-14.146,33.963,0.563,-0.386,0.0
20.915,-15.671,37.561,0.54,-0.367,0.0
10.183,-17.561,41.829,0.508,-0.339,0.0
-2.683,-19.939,47.073,0.473,-0.303,0.0
-17.561,-22.561,53.354,0.434,-0.268,0.0
-34.207,-25.732,60.915,0.389,-0.229,0.0
-52.866,-29.451,69.39,0.337,-0.184,0.0
-73.354,-33.354,78.841,0.284,-0.146,0.0
-95.0,-37.805,88.78,0.225,-0.103,0.0
-116.95,-42.988,100.12,0.17,-0.063,0.0
-140.06,-48.232,112.56,0.111,-0.024,0.0
-163.84,-53.232,126.22,0.044,0.038,0.0
-187.62,-58.476,140.49,-0.031,0.112,0.0
-211.52,-64.329,154.27,-0.096,0.187,0.0
-235.0,-70.366,168.23,-0.149,0.208,0.0
-257.32,-77.073,181.59,-0.2,0.248,0.0
-277.19,-85.549,196.22,-0.229,0.302,0.0
-295.55,-94.39,211.1,-0.255,0.352,0.0
-311.22,-103.72,224.76,-0.275,0.402,0.0
-324.39,-113.9,237.74,-0.289,0.45,0.0
-335.55,-124.39,249.82,-0.282,0.458,0.0
-344.57,-134.82,260.55,-0.296,0.373,0.0
-351.16,-145.12,270.0,-0.32,0.37,0.0
-355.49,-154.51,277.81,-0.338,0.367,0.0
-357.87,-164.15,284.69,-0.331,0.326,0.0
-358.29,-173.66,290.55,-0.311,0.295,0.0
-356.83,-182.99,294.82,-0.294,0.287,0.0
-352.87,-191.83,297.81,-0.272,0.268,0.0
-347.13,-199.88,299.76,-0.265,0.208,0.0
-339.88,-206.89,301.04,-0.265,0.129,0.0
-331.1,-212.81,302.07,-0.262,0.05,0.0
-320.37,-217.68,303.84,-0.253,-0.026,0.0
-308.54,-221.46,307.38,-0.225,-0.111,0.0
-295.67,-225.0,312.74,-0.186,-0.196,0.0
-281.58,-228.17,319.45,-0.132,-0.276,0.0
-266.83,-229.63,327.26,-0.074,-0.364,0.0
-253.29,-230.37,334.88,-0.007,-0.489,0.0
-240.31,-231.34,342.87,0.07,-0.635,0.0
-227.99,-233.35,350.37,0.154,-0.741,0.0
-216.46,-234.57,355.0,0.242,-0.813,0.0
-206.22,-235.18,356.16,0.325,-0.871,0.0
-197.74,-234.27,355.0,0.384,-0.967,0.0
-190.61,-231.65,351.71,0.409,-1.123,0.0
-184.76,-229.09,346.89,0.43,-1.244,0.0
-180.98,-223.48,341.65,0.497,-1.276,0.0
-180.43,-215.31,337.44,0.598,-1.31,0.0
-182.38,-203.66,334.02,0.679,-1.391,0.0
-187.01,-187.93,330.67,0.748,-1.484,0.0
-194.45,-169.63,325.79,0.835,-1.622,0.0
-203.41,-148.78,318.78,0.912,-1.793,0.0
-212.87,-125.61,308.17,0.996,-1.958,0.0
-220.98,-100.49,295.06,1.077,-2.112,0.0
-228.84,-72.012,280.31,1.138,-2.209,0.0
-234.15,-41.951,264.82,1.199,-2.269,0.0
-236.46,-11.646,247.81,1.262,-2.309,0.0
-235.79,22.927,230.91,1.341,-2.354,0.0
-229.02,57.195,215.61,1.425,-2.43,0.0
-216.1,91.037,200.67,1.504,-2.507,0.0
-205.18,123.9,187.93,1.595,-2.524,0.0
-190.85,155.37,174.09,1.736,-2.525,0.0
-172.07,186.04,157.19,1.855,-2.513,0.0
-149.33,215.73,139.63,1.959,-2.506,0.0
-122.26,244.15,120.92,2.037,-2.504,0.0
-91.037,270.24,100.43,2.066,-2.448,0.0
-55.915,295.73,79.085,2.103,-2.35,0.0
-17.5,320.73,57.012,2.122,-2.246,0.0
20.854,345.12,34.695,2.114,-2.236,0.0
56.524,369.39,9.695,2.083,-2.229,0.0
89.024,391.65,-16.098,2.038,-2.212,0.0
114.82,412.07,-41.951,1.99,-2.211,0.0
134.09,429.88,-68.902,1.958,-2.186,0.0
144.45,445.49,-95.915,1.928,-2.116,0.0
145.73,459.63,-123.78,1.876,-1.943,0.0
143.35,471.95,-150.24,1.825,-1.889,0.0
132.93,478.9,-174.88,1.736,-1.795,0.0
115.98,485.85,-199.94,1.624,-1.656,0.0
96.28,494.02,-224.15,1.511,-1.541,0.0
73.476,500.18,-246.89,1.388,-1.423,0.0
48.476,504.69,-268.35,1.244,-1.477,0.0
22.256,507.93,-288.35,1.114,-1.436,0.0
-4.024,510.06,-306.22,0.981,-1.301,0.0
-28.841,510.67,-320.79,0.864,-1.32,0.0
-50.976,508.35,-332.13,0.758,-1.348,0.0
-71.037,503.84,-340.18,0.637,-1.342,0.0
-89.817,497.62,-344.33,0.53,-1.366,0.0
-108.23,489.76,-345.24,0.43,-1.413,0.0
-123.54,480.73,-345.67,0.317,-1.438,0.0
-133.05,467.62,-340.0,0.198,-1.461,0.0
-141.28,455.06,-329.82,0.065,-1.528,0.0
-142.38,447.93,-318.29,-0.059,-1.569,0.0
-136.28,437.87,-306.28,-0.184,-1.539,0.0
-127.32,425.18,-295.73,-0.331,-1.521,0.0
-119.08,415.31,-286.89,-0.382,-1.774,0.0
-103.54,393.96,-286.28,-0.45,-1.773,0.0
-82.927,364.02,-285.24,-0.609,-1.72,0.0
-58.72,331.65,-278.54,-0.761,-1.735,0.0
-28.415,303.23,-268.9,-0.854,-1.719,0.0
-15.793,276.71,-251.77,-1.055,-1.542,0.0
-12.805,253.05,-230.18,-1.114,-1.229,0.0
-14.451,232.68,-207.32,-1.155,-1.382,0.0
-15.915,216.28,-181.28,-1.399,-1.361,0.0
-23.354,202.87,-152.38,-1.804,-1.212,0.0
-39.207,189.39,-123.17,-2.193,-1.155,-1.723
-52.5,175.06,-96.768,-2.494,-0.996,-1.375
-62.744,161.83,-78.171,-2.664,-0.737,-1.049
-67.805,150.79,-66.159,-2.708,-0.613,-0.757
-68.11,140.0,-55.061,-2.727,-0.67,0.0
-64.634,127.81,-39.024,-2.824,-0.66,0.0
-56.707,114.57,-17.317,-2.987,-0.515,0.0
-47.134,100.24,6.341,-3.106,-0.342,0.0
-35.732,85.732,28.963,-3.107,-0.308,0.0
-21.646,70.732,48.11,-3.053,-0.412,0.0
-6.159,55.183,62.439,-3.007,-0.583,0.0
10.366,40.793,72.256,-3.004,-0.714,0.0
26.707,27.073,79.512,-3.017,-0.756,0.0
42.317,13.78,85.671,-2.982,-0.769,0.0
57.012,0.854,91.341,-2.851,-0.76,0.0
70.244,-12.744,97.012,-2.653,-0.719,0.0
81.768,-27.012,101.34,-2.415,-0.701,0.0
92.866,-43.11,105.98,-2.185,-0.719,0.0
100.24,-59.39,109.57,-1.986,-0.764,0.0
104.02,-75.366,110.85,-1.808,-0.811,0.0
103.66,-90.976,110.73,-1.646,-0.82,0.0
98.902,-105.18,110.67,-1.452,-0.843,0.0
90.976,-116.95,110.92,-1.258,-0.887,0.0
81.159,-125.61,112.56,-1.1,-0.783,0.0
71.098,-131.83,116.28,-0.972,-0.711,0.0
62.683,-136.16,120.0,-0.837,-0.67,0.0
56.463,-138.66,122.56,-0.689,-0.646,0.0
51.768,-139.69,123.17,-0.521,-0.696,0.0
49.146,-139.39,121.65,-0.327,-0.798,0.0
49.146,-138.29,119.08,-0.149,-0.879,0.0
51.524,-136.22,115.67,-0.011,-0.928,0.0
55.915,-134.15,111.89,0.123,-0.964,0.0
61.585,-131.89,108.84,0.25,-1.01,0.0
69.634,-127.99,106.83,0.37,-1.058,0.0
78.659,-123.54,105.43,0.476,-1.083,0.0
88.902,-118.17,105.55,0.568,-1.093,0.0
99.878,-112.5,105.92,0.632,-1.12,0.0
113.29,-106.46,106.16,0.692,-1.165,0.0
129.69,-99.329,105.98,0.749,-1.208,0.0
148.11,-91.585,105.06,0.829,-1.265,0.0
168.17,-83.963,103.17,0.925,-1.318,0.0
189.82,-77.378,100.37,1.037,-1.347,0.0
211.4,-72.256,97.256,1.146,-1.375,0.0
231.65,-68.171,93.476,1.226,-1.403,0.0
252.13,-65.122,88.72,1.289,-1.433,0.0
275.31,-62.378,82.195,1.331,-1.476,0.0
299.02,-60.0,73.963,1.358,-1.519,0.0
317.62,-58.232,66.402,1.383,-1.546,0.0
332.19,-56.585,59.39,1.419,-1.549,0.0
342.19,-54.817,52.805,1.46,-1.499,0.0
351.16,-51.28,46.829,1.503,-1.423,0.0
360.73,-46.585,42.073,1.549,-1.372,0.0
363.9,-42.012,38.902,1.585,-1.313,0.0
365.55,-38.659,35.183,1.625,-1.253,0.0
367.56,-34.268,30.671,1.673,-1.2,0.0
369.21,-29.024,26.341,1.726,-1.169,0.0
368.96,-23.598,21.768,1.787,-1.166,0.0
368.9,-18.11,16.28,1.821,-1.144,0.0
367.38,-13.902,10.427,1.854,-1.105,0.0
366.83,-11.341,4.207,1.88,-1.046,0.0
364.39,-11.098,-2.805,1.903,-0.976,0.0
362.07,-12.561,-10.915,1.92,-0.911,0.0
357.62,-16.341,-19.268,1.919,-0.875,0.0
351.16,-22.378,-27.134,1.875,-0.822,0.0
343.78,-28.841,-34.268,1.814,-0.745,0.0
334.39,-34.085,-40.183,1.745,-0.632,0.0
323.84,-39.39,-44.451,1.707,-0.526,0.0
312.68,-44.024,-47.134,1.675,-0.412,0.0
300.92,-47.866,-48.72,1.641,-0.274,0.0
289.33,-50.366,-49.207,1.61,-0.168,0.0
276.89,-51.707,-48.293,1.59,-0.071,0.0
264.15,-52.744,-46.829,1.572,0.02,0.0
253.48,-51.951,-45.915,1.553,0.112,0.0
240.12,-51.159,-44.634,1.527,0.201,0.0
224.88,-50.915,-42.927,1.496,0.28,0.0
209.88,-50.427,-42.012,1.456,0.367,0.0
194.33,-49.634,-41.646,1.415,0.457,0.0
178.54,-49.512,-41.28,1.369,0.528,0.0
162.81,-49.878,-40.671,1.328,0.612,0.0
147.44,-49.939,-39.817,1.287,0.684,0.0
132.81,-49.878,-38.354,1.251,0.734,0.0
119.08,-49.268,-35.61,1.207,0.771,0.0
106.4,-47.073,-32.134,1.165,0.775,0.0
95.244,-43.232,-27.744,1.121,0.76,0.0
86.159,-37.744,-22.744,1.093,0.738,0.0
78.598,-31.89,-17.866,1.086,0.689,0.0
72.683,-25.854,-13.11,1.083,0.626,0.0
69.085,-20.0,-8.537,1.081,0.571,0.0
67.561,-14.756,-3.902,1.065,0.499,0.0
67.927,-10.366,0.61,1.052,0.417,0.0
69.451,-7.561,5.366,1.034,0.345,0.0
71.463,-6.22,10.0,1.012,0.277,0.0
73.293,-5.732,14.329,0.98,0.207,0.0
74.512,-5.793,18.293,0.939,0.138,0.0
75.0,-6.463,21.829,0.9,0.071,0.0
73.171,-7.378,24.207,0.868,0.019,0.0
69.756,-7.5,26.22,0.845,-0.025,0.0
65.305,-8.049,28.354,0.818,-0.053,0.0
57.317,-8.963,30.427,0.806,-0.068,0.0
47.195,-10.366,31.951,0.805,-0.075,0.0
36.707,-11.402,32.927,0.82,-0.061,0.0
29.085,-12.5,34.207,0.822,-0.078,0.0
23.963,-13.476,35.61,0.769,-0.101,0.0
19.756,-14.024,36.707,0.746,-0.114,0.0
16.585,-13.963,37.317,0.762,-0.146,0.0
13.11,-13.659,37.256,0.756,-0.188,0.0
9.329,-13.598,37.256,0.764,-0.241,0.0
5.244,-14.329,37.317,0.77,-0.287,0.0
1.037,-15.305,37.378,0.767,-0.309,0.0
-1.707,-16.524,37.744,0.758,-0.318,0.0
-0.61,-17.317,39.268,0.746,-0.338,0.0
2.988,-17.866,41.646,0.737,-0.348,0.0
4.024,-18.598,42.561,0.717,-0.359,0.0
1.707,-19.024,42.073,0.698,-0.364,0.0
0.244,-19.817,41.89,0.684,-0.403,0.0
-0.488,-20.915,42.256,0.664,-0.376,0.0
-2.134,-22.317,42.744,0.633,-0.347,0.0
-4.146,-23.72,43.537,0.604,-0.292,0.0
-5.854,-24.634,45.0,0.587,-0.246,0.0
-7.012,-25.183,47.5,0.58,-0.222,0.0
-7.866,-25.854,50.488,0.572,-0.216,0.0
-7.805,-26.463,54.268,0.547,-0.193,0.0
-6.768,-26.646,58.841,0.519,-0.17,0.0
-4.939,-26.707,63.963,0.509,-0.156,0.0
-2.744,-26.341,69.451,0.507,-0.152,0.0
0.671,-25.671,75.366,0.503,-0.144,0.0
5.061,-24.024,81.28,0.499,-0.141,0.0
10.244,-22.012,87.256,0.49,-0.143,0.0
16.341,-19.695,93.415,0.484,-0.153,0.0
22.439,-16.768,99.268,0.479,-0.161,0.0
29.939,-13.963,105.31,0.475,-0.17,0.0
37.5,-10.793,111.22,0.476,-0.192,0.0
44.695,-7.744,116.95,0.474,-0.214,0.0
51.707,-4.695,122.56,0.48,-0.245,0.0
58.659,-2.256,128.05,0.49,-0.243,0.0
65.122,-0.122,133.35,0.497,-0.29,0.0
70.793,1.768,138.6,0.505,-0.318,0.0
75.244,3.537,143.29,0.51,-0.338,0.0
77.561,5.793,147.93,0.519,-0.368,0.0
77.927,8.354,152.5,0.525,-0.402,0.0
78.78,9.939,156.22,0.528,-0.441,0.0
77.927,11.037,158.84,0.539,-0.48,0.0
74.695,12.622,160.73,0.547,-0.519,0.0
68.841,14.512,162.07,0.564,-0.562,0.0
62.073,15.549,162.62,0.583,-0.594,0.0
53.598,16.098,162.32,0.603,-0.627,0.0
44.817,16.22,161.22,0.627,-0.662,0.0
35.793,16.22,159.39,0.653,-0.702,0.0
24.756,16.098,157.01,0.685,-0.739,0.0
13.841,15.61,154.02,0.711,-0.79,0.0
3.902,13.902,150.0,0.728,-0.833,0.0
-6.402,10.549,144.51,0.729,-0.877,0.0
-19.512,6.098,136.89,0.726,-0.927,0.0
-30.732,2.378,131.59,0.73,-0.971,0.0
-30.305,-0.61,131.4,0.734,-1.014,0.0
-20.061,-3.171,133.96,0.714,-1.02,0.0
-5.488,-6.402,136.4,0.684,-1.014,0.0
9.817,-9.024,136.04,0.643,-1.137,0.0
22.744,-9.939,132.74,0.621,-1.195,0.0
32.439,-9.451,127.5,0.706,-1.283,0.0
40.366,-8.354,121.34,0.751,-1.34,0.0
47.805,-7.195,115.49,0.752,-1.293,0.0
51.22,-9.39,111.46,0.711,-1.243,0.0
45.061,-14.817,103.23,0.696,-1.205,0.0
35.0,-19.573,94.695,0.695,-1.19,0.0
29.512,-24.207,92.317,0.703,-1.191,0.0
27.439,-27.683,91.22,0.684,-1.208,0.0
23.476,-30.732,87.561,0.657,-1.109,0.0
12.988,-30.427,83.354,0.714,-1.171,0.0
3.171,-29.085,79.451,0.698,-1.241,0.0
-5.244,-28.293,76.402,0.717,-1.255,0.0
-13.476,-27.256,73.232,0.761,-1.247,0.0
-20.671,-26.28,69.512,0.74,-1.2,0.0
-26.341,-25.244,65.488,0.728,-1.114,0.0
-30.366,-24.207,61.524,0.747,-1.105,0.0
-32.683,-23.598,57.5,0.758,-1.087,0.0
-33.293,-23.598,53.78,0.744,-1.045,0.0
-31.585,-23.72,50.427,0.72,-1.005,0.0
-27.683,-23.78,47.134,0.702,-0.973,0.0
-22.256,-23.72,44.146,0.694,-0.96,0.0
-15.183,-23.659,41.28,0.686,-0.96,0.0
-6.768,-23.11,38.72,0.678,-0.964,0.0
2.561,-22.683,36.159,0.659,-0.964,0.0
12.561,-22.195,33.537,0.644,-0.964,0.0
23.476,-21.707,30.976,0.638,-0.953,0.0
34.756,-21.159,28.354,0.639,-0.946,0.0
46.22,-20.549,25.488,0.634,-0.948,0.0
58.049,-19.939,22.988,0.626,-0.943,0.0
69.939,-19.451,20.793,0.616,-0.937,0.0
81.28,-19.085,19.146,0.605,-0.94,0.0
92.439,-18.902,17.622,0.593,-0.93,0.0
103.17,-18.902,16.585,0.589,-0.919,0.0
112.87,-18.598,15.976,0.587,-0.919,0.0
121.46,-18.659,15.427,0.584,-0.945,0.0
128.96,-19.024,15.427,0.575,-0.973,0.0
135.18,-19.146,15.305,0.566,-0.987,0.0
139.94,-19.329,15.61,0.557,-0.995,0.0
143.35,-19.878,16.402,0.546,-0.994,0.0
145.79,-20.305,17.561,0.543,-0.982,0.0
147.68,-20.976,19.756,0.537,-0.972,0.0
148.29,-21.402,22.195,0.532,-0.957,0.0
146.95,-22.073,24.085,0.526,-0.952,0.0
144.63,-23.171,26.098,0.513,-0.961,0.0
141.71,-24.207,27.561,0.497,-0.97,0.0
137.74,-25.183,29.085,0.48,-0.996,0.0
132.81,-26.22,30.305,0.461,-0.97,0.0
127.68,-27.622,31.402,0.454,-0.917,0.0
122.26,-28.841,32.256,0.448,-0.903,0.0
116.71,-30.0,32.927,0.432,-0.891,0.0
110.79,-31.22,33.72,0.413,-0.883,0.0
104.21,-32.683,34.451,0.394,-0.88,0.0
97.744,-34.207,35.122,0.379,-0.871,0.0
91.341,-35.671,36.22,0.366,-0.858,0.0
85.183,-36.646,37.195,0.347,-0.858,0.0
79.207,-37.622,38.293,0.333,-0.855,0.0
73.537,-38.354,39.878,0.32,-0.85,0.0
68.11,-39.024,41.646,0.304,-0.846,0.0
63.293,-39.695,43.476,0.299,-0.844,0.0
58.78,-40.244,45.671,0.294,-0.845,0.0
54.573,-40.549,47.927,0.286,-0.854,0.0
50.793,-40.61,49.939,0.279,-0.87,0.0
47.561,-40.61,52.012,0.27,-0.875,0.0
44.756,-40.488,53.963,0.262,-0.882,0.0
42.988,-40.549,55.732,0.26,-0.884,0.0
41.28,-40.488,57.622,0.25,-0.877,0.0
40.305,-40.244,59.207,0.245,-0.878,0.0
39.329,-40.0,60.427,0.235,-0.879,0.0
38.963,-39.817,61.646,0.235,-0.875,0.0
38.902,-39.695,62.5,0.227,-0.872,0.0
39.207,-39.573,63.293,0.218,-0.875,0.0
39.878,-39.207,64.146,0.207,-0.881,0.0
39.573,-39.207,65.061,0.204,-0.887,0.0
36.463,-40.244,65.671,0.199,-0.894,0.0
29.573,-42.012,65.793,0.196,-0.898,0.0
19.756,-44.329,65.854,0.196,-0.903,0.0
7.073,-47.317,65.976,0.193,-0.896,0.0
-7.988,-51.463,65.549,0.183,-0.875,0.0
-21.463,-55.732,65.366,0.159,-0.86,0.0
-25.976,-58.598,68.232,0.136,-0.851,0.0
-22.927,-60.793,73.293,0.128,-0.849,0.0
-17.805,-62.805,77.866,0.122,-0.842,0.0
-13.78,-64.39,80.976,0.12,-0.912,0.0
-11.89,-65.427,82.073,0.126,-0.994,0.0
-11.646,-66.159,81.585,0.159,-1.055,0.0
-11.585,-66.646,80.427,0.185,-1.083,0.0
-9.939,-67.256,79.39,0.174,-1.065,0.0
-6.89,-68.11,78.537,0.152,-1.032,0.0
-1.646,-68.72,77.5,0.142,-1.027,0.0
5.732,-68.963,77.012,0.136,-1.048,0.0
13.659,-69.573,76.402,0.129,-1.082,0.0
20.427,-70.732,75.0,0.119,-1.117,0.0
25.793,-72.683,73.293,0.11,-1.153,0.0
30.732,-74.939,71.829,0.093,-1.184,0.0
34.573,-77.622,71.159,0.075,-1.193,0.0
36.159,-80.732,70.244,0.062,-1.185,0.0
35.854,-83.72,69.634,0.05,-1.18,0.0
34.207,-86.341,69.085,0.043,-1.192,0.0
30.671,-89.024,69.024,0.039,-1.196,0.0
24.329,-92.622,67.439,0.047,-1.189,0.0
20.061,-94.451,66.402,0.048,-1.178,0.0
20.915,-94.451,67.439,0.056,-1.164,0.0
23.72,-95.0,69.329,0.071,-1.153,0.0
25.488,-95.366,70.366,0.085,-1.119,0.0
26.646,-95.122,70.305,0.117,-1.141,0.0
26.768,-95.0,69.817,0.119,-1.176,0.0
26.28,-95.366,68.963,0.149,-1.169,0.0
25.976,-95.671,67.805,0.172,-1.168,0.0
27.195,-97.561,67.683,0.175,-1.126,0.0
29.39,-99.207,67.866,0.17,-1.092,0.0
32.012,-100.67,68.171,0.176,-1.086,0.0
35.122,-102.26,68.902,0.186,-1.112,0.0
38.11,-103.84,69.756,0.196,-1.085,0.0
40.793,-105.49,70.854,0.206,-1.127,0.0
44.085,-107.01,71.951,0.212,-1.165,0.0
47.988,-108.11,73.049,0.216,-1.167,0.0
52.5,-109.02,74.329,0.23,-1.189,0.0
57.195,-109.76,75.915,0.245,-1.203,0.0
61.22,-110.06,77.622,0.257,-1.214,0.0
64.268,-110.18,79.024,0.279,-1.23,0.0
66.463,-110.43,80.488,0.3,-1.237,0.0
68.293,-110.61,82.317,0.322,-1.24,0.0
70.183,-110.49,84.451,0.346,-1.247,0.0
71.646,-110.31,86.585,0.366,-1.247,0.0
72.683,-110.18,88.78,0.394,-1.252,0.0
73.171,-110.0,90.915,0.409,-1.257,0.0
72.5,-109.88,92.988,0.427,-1.258,0.0
70.427,-109.63,94.573,0.449,-1.257,0.0
67.683,-109.02,95.915,0.477,-1.24,0.0
64.146,-108.35,97.073,0.502,-1.218,0.0
60.122,-107.56,97.744,0.518,-1.192,0.0
56.159,-106.34,97.927,0.526,-1.164,0.0
52.317,-104.76,97.622,0.539,-1.146,0.0
47.988,-102.74,96.341,0.548,-1.135,0.0
43.171,-100.55,94.329,0.549,-1.122,0.0
37.866,-97.927,91.585,0.548,-1.1,0.0
32.073,-95.0,88.293,0.558,-1.066,0.0
25.854,-91.768,84.39,0.571,-1.029,0.0
19.39,-88.537,80.366,0.58,-0.984,0.0
13.598,-85.0,76.524,0.588,-0.938,0.0
7.744,-81.646,72.5,0.586,-0.891,0.0
2.256,-78.415,68.537,0.588,-0.849,0.0
-2.622,-75.183,64.878,0.597,-0.812,0.0
-6.646,-72.012,60.915,0.596,-0.777,0.0
-9.634,-68.537,57.134,0.61,-0.743,0.0
-11.524,-65.122,53.232,0.613,-0.716,0.0
-12.805,-61.768,49.329,0.62,-0.687,0.0
-13.659,-58.11,45.488,0.627,-0.663,0.0
-13.841,-54.512,41.829,0.642,-0.635,0.0
-13.78,-51.159,37.866,0.655,-0.609,0.0
-13.11,-47.805,34.085,0.669,-0.591,0.0
-12.195,-44.695,30.488,0.679,-0.575,0.0
-10.732,-41.829,26.829,0.679,-0.556,0.0
-8.78,-39.329,23.293,0.681,-0.547,0.0
-6.707,-36.89,19.878,0.684,-0.541,0.0
-4.39,-34.39,16.524,0.679,-0.536,0.0
-2.073,-32.195,13.293,0.674,-0.534,0.0
0.244,-29.939,10.183,0.671,-0.53,0.0
2.805,-27.805,7.134,0.665,-0.528,0.0
5.488,-25.732,4.146,0.658,-0.527,0.0
8.476,-24.085,1.341,0.648,-0.535,0.0
11.402,-22.683,-1.22,0.639,-0.545,0.0
14.39,-21.341,-3.659,0.624,-0.557,0.0
17.317,-20.366,-6.22,0.607,-0.563,0.0
20.244,-19.634,-8.476,0.595,-0.573,0.0
23.476,-19.146,-10.732,0.574,-0.591,0.0
26.585,-19.024,-13.171,0.551,-0.599,0.0
29.817,-19.207,-15.488,0.535,-0.616,0.0
33.11,-19.817,-17.866,0.509,-0.637,0.0
36.402,-20.671,-20.488,0.484,-0.648,0.0
39.695,-21.707,-23.354,0.471,-0.665,0.0
41.89,-23.537,-25.244,0.454,-0.688,0.0
43.232,-26.22,-27.439,0.428,-0.707,0.0
44.39,-29.146,-29.085,0.406,-0.72,0.0
45.183,-32.561,-29.756,0.391,-0.73,0.0
45.854,-35.732,-30.061,0.37,-0.755,0.0
46.402,-38.049,-29.939,0.351,-0.732,0.0
46.646,-39.939,-29.451,0.357,-0.764,0.0
46.829,-41.829,-28.537,0.346,-0.79,0.0
46.524,-43.476,-27.256,0.334,-0.773,0.0
46.463,-45.061,-25.549,0.33,-0.793,0.0
46.098,-46.28,-23.72,0.326,-0.803,0.0
45.183,-47.378,-21.585,0.318,-0.804,0.0
43.841,-48.476,-19.512,0.313,-0.815,0.0
42.073,-49.756,-17.378,0.308,-0.812,0.0
39.939,-51.037,-15.244,0.299,-0.801,0.0
37.317,-51.89,-13.11,0.293,-0.79,0.0
34.451,-52.805,-11.159,0.295,-0.785,0.0
31.463,-53.659,-9.085,0.292,-0.779,0.0
28.598,-54.207,-6.89,0.287,-0.766,0.0
25.549,-54.329,-4.695,0.289,-0.753,0.0
22.317,-54.268,-2.378,0.291,-0.745,0.0
19.329,-53.841,-0.122,0.298,-0.741,0.0
16.646,-53.232,2.378,0.303,-0.738,0.0
14.024,-52.5,4.939,0.307,-0.736,0.0
11.707,-51.707,7.683,0.315,-0.737,0.0
9.817,-50.732,10.427,0.328,-0.736,0.0
8.354,-49.817,13.354,0.343,-0.739,0.0
7.439,-48.72,16.159,0.349,-0.748,0.0
6.707,-47.317,19.085,0.35,-0.754,0.0
6.341,-45.976,21.951,0.357,-0.766,0.0
6.22,-44.451,24.512,0.367,-0.775,0.0
6.585,-42.988,26.951,0.37,-0.784,0.0
7.073,-41.22,29.39,0.378,-0.794,0.0
7.805,-39.512,31.646,0.38,-0.806,0.0
8.78,-37.744,34.024,0.39,-0.822,0.0
9.939,-36.159,36.22,0.389,-0.832,0.0
11.28,-34.573,38.476,0.387,-0.842,0.0
12.866,-32.866,40.671,0.391,-0.856,0.0
14.756,-31.28,42.622,0.393,-0.877,0.0
16.646,-29.512,44.451,0.392,-0.894,0.0
18.293,-27.744,45.793,0.388,-0.905,0.0
19.817,-26.037,46.829,0.385,-0.916,0.0
21.159,-24.268,47.439,0.381,-0.926,0.0
22.683,-22.561,47.5,0.379,-0.934,0.0
23.841,-20.854,47.195,0.376,-0.943,0.0
25.122,-19.207,46.646,0.365,-0.927,0.0
26.159,-17.927,45.61,0.361,-0.918,0.0
27.195,-16.951,44.573,0.359,-0.901,0.0
27.378,-17.195,43.415,0.352,-0.881,0.0
25.0,-19.573,41.951,0.347,-0.871,0.0
19.329,-23.293,39.939,0.338,-0.857,0.0
13.049,-28.11,38.293,0.331,-0.844,0.0
7.439,-33.415,37.683,0.324,-0.827,0.0
2.317,-39.146,37.805,0.298,-0.785,0.0
-0.915,-44.329,37.378,0.279,-0.75,0.0
-1.28,-48.598,37.927,0.273,-0.733,0.0
-0.183,-51.098,38.598,0.284,-0.722,0.0
-0.793,-51.829,37.378,0.307,-0.726,0.0
-2.195,-51.402,34.939,0.339,-0.706,0.0
-3.171,-49.695,32.561,0.377,-0.718,0.0
-3.049,-46.829,28.963,0.386,-0.71,0.0
0.061,-41.951,26.098,0.416,-0.678,0.0
3.598,-35.854,25.183,0.428,-0.663,0.0
3.72,-31.707,22.683,0.426,-0.646,0.0
5.793,-31.341,20.061,0.446,-0.646,0.0
11.89,-33.171,19.695,0.453,-0.675,0.0
17.378,-36.89,19.451,0.384,-0.734,0.0
20.549,-40.366,18.841,0.376,-0.688,0.0
23.963,-42.622,18.354,0.377,-0.715,0.0
28.659,-44.573,18.049,0.361,-0.698,0.0
33.598,-46.951,17.988,0.348,-0.715,0.0
37.5,-49.146,17.805,0.334,-0.765,0.0
40.488,-50.549,17.622,0.327,-0.737,0.0
42.988,-50.732,17.805,0.339,-0.713,0.0
45.305,-49.878,18.11,0.36,-0.712,0.0
47.256,-48.598,18.171,0.379,-0.707,0.0
48.598,-46.768,18.293,0.39,-0.699,0.0
49.512,-44.695,18.415,0.402,-0.69,0.0
49.695,-42.317,18.537,0.419,-0.684,0.0
49.39,-40.122,18.78,0.431,-0.679,0.0
48.78,-38.354,18.963,0.449,-0.666,0.0
47.317,-36.829,19.268,0.457,-0.658,0.0
45.183,-35.488,19.512,0.46,-0.653,0.0
42.561,-34.634,19.817,0.472,-0.646,0.0
39.512,-33.841,19.939,0.472,-0.641,0.0
35.793,-32.805,20.061,0.47,-0.635,0.0
31.707,-31.768,20.183,0.468,-0.628,0.0
27.195,-30.427,20.305,0.466,-0.623,0.0
22.073,-28.78,20.366,0.472,-0.619,0.0
16.707,-27.134,20.305,0.475,-0.618,0.0
11.28,-25.061,20.366,0.481,-0.617,0.0
5.61,-22.744,20.244,0.483,-0.61,0.0
-0.061,-20.427,20.366,0.491,-0.605,0.0
-5.732,-17.988,20.183,0.499,-0.605,0.0
-11.037,-15.244,19.939,0.506,-0.611,0.0
-16.098,-12.5,19.695,0.51,-0.611,0.0
-20.671,-9.939,19.512,0.518,-0.611,0.0
-24.573,-7.622,19.268,0.522,-0.611,0.0
-27.805,-5.549,19.024,0.525,-0.614,0.0
-30.366,-3.598,18.598,0.526,-0.62,0.0
-32.317,-1.768,18.171,0.529,-0.629,0.0
-33.902,-0.061,17.622,0.532,-0.644,0.0
