gyrx(deg/s),gyry(deg/s),gyrz(deg/s),accx(g),accy(g),accz(g)
-2.744,-6.463,-1.463,-0.844,-0.354,0.399
-2.744,-6.341,-2.073,-0.848,-0.355,0.397
-2.683,-6.22,-2.5,-0.851,-0.357,0.393
-2.561,-6.098,-2.866,-0.853,-0.359,0.385
-2.256,-6.098,-3.049,-0.852,-0.36,0.384
-2.195,-6.22,-3.232,-0.855,-0.356,0.384
-1.951,-6.463,-3.354,-0.856,-0.356,0.385
-1.646,-6.768,-3.354,-0.862,-0.354,0.39
-1.341,-6.951,-3.232,-0.859,-0.352,0.392
-0.976,-7.012,-3.293,-0.858,-0.355,0.394
-0.793,-7.012,-3.171,-0.863,-0.356,0.399
-0.671,-7.012,-3.11,-0.866,-0.356,0.401
-0.671,-6.829,-3.11,-0.866,-0.361,0.404
-0.671,-6.585,-3.049,-0.871,-0.357,0.403
-0.671,-6.402,-3.11,-0.869,-0.362,0.401
-0.854,-6.22,-3.11,-0.871,-0.365,0.404
-0.854,-6.098,-2.927,-0.878,-0.365,0.406
-1.037,-6.037,-2.622,-0.889,-0.364,0.409
-1.159,-5.915,-2.256,-0.893,-0.362,0.414
-1.22,-5.732,-1.951,-0.89,-0.364,0.421
-1.159,-5.488,-1.341,-0.886,-0.366,0.427
-1.402,-5.122,-0.915,-0.885,-0.367,0.432
-1.463,-4.939,-0.549,-0.877,-0.371,0.429
-1.402,-4.756,-0.244,-0.877,-0.371,0.425
-1.159,-4.634,0.061,-0.879,-0.37,0.426
-0.976,-4.451,0.244,-0.876,-0.37,0.43
-0.793,-4.085,0.549,-0.879,-0.373,0.433
-0.427,-3.841,0.671,-0.885,-0.369,0.439
-0.061,-3.476,0.976,-0.895,-0.374,0.438
0.427,-3.171,1.463,-0.901,-0.379,0.438
0.915,-2.988,1.646,-0.902,-0.375,0.432
1.098,-2.927,2.012,-0.902,-0.374,0.431
1.098,-2.805,2.317,-0.902,-0.372,0.428
0.915,-2.622,2.561,-0.902,-0.37,0.432
0.61,-2.622,3.049,-0.902,-0.37,0.43
-0.061,-2.439,3.415,-0.894,-0.368,0.427
-0.976,-2.317,3.78,-0.889,-0.362,0.428
-1.707,-2.073,3.902,-0.889,-0.352,0.42
-2.744,-1.951,4.085,-0.892,-0.349,0.418
-3.78,-2.012,4.268,-0.895,-0.35,0.412
-4.573,-2.073,4.39,-0.896,-0.349,0.412
-5.366,-2.195,4.512,-0.894,-0.348,0.41
-5.671,-2.256,4.756,-0.891,-0.354,0.406
-5.915,-2.439,4.939,-0.892,-0.355,0.412
-6.22,-2.622,5,-0.89,-0.352,0.418
-6.037,-2.744,5.244,-0.889,-0.352,0.415
-5.427,-2.927,5.488,-0.888,-0.357,0.411
-4.756,-2.988,5.793,-0.884,-0.364,0.406
-4.329,-3.171,5.854,-0.883,-0.369,0.396
-3.537,-3.293,5.976,-0.882,-0.373,0.396
-2.5,-3.415,5.976,-0.881,-0.368,0.396
-1.707,-3.537,5.976,-0.878,-0.369,0.398
-0.976,-3.598,6.037,-0.88,-0.374,0.401
-0.366,-3.72,6.098,-0.886,-0.381,0.396
0.122,-3.78,5.976,-0.883,-0.387,0.399
0.366,-3.841,6.037,-0.882,-0.382,0.393
-0.061,-4.024,6.159,-0.879,-0.384,0.393
-0.671,-4.39,6.159,-0.883,-0.379,0.391
-1.646,-4.512,6.28,-0.886,-0.377,0.396
-2.5,-4.512,6.341,-0.887,-0.369,0.397
-3.841,-4.512,6.463,-0.881,-0.364,0.399
-5.122,-4.512,6.463,-0.879,-0.365,0.401
-5.854,-4.329,6.524,-0.876,-0.354,0.394
-6.951,-4.268,6.402,-0.872,-0.348,0.4
-7.866,-4.268,6.28,-0.869,-0.349,0.398
-8.232,-4.329,6.22,-0.869,-0.349,0.394
-8.415,-4.329,6.098,-0.864,-0.352,0.403
-8.415,-4.39,5.976,-0.862,-0.355,0.407
-8.049,-4.573,5.793,-0.866,-0.364,0.408
-7.805,-4.634,5.854,-0.862,-0.366,0.417
-7.256,-4.573,5.854,-0.861,-0.367,0.421
-6.585,-4.634,5.732,-0.861,-0.369,0.416
-6.037,-4.695,5.488,-0.859,-0.373,0.408
-5.244,-4.756,5.366,-0.851,-0.37,0.409
-4.39,-4.817,5.122,-0.849,-0.364,0.413
-3.72,-4.817,4.756,-0.848,-0.362,0.417
-2.988,-4.756,4.39,-0.851,-0.362,0.417
-2.378,-4.756,4.085,-0.854,-0.362,0.418
-1.829,-4.939,3.659,-0.858,-0.362,0.415
-1.585,-5.061,3.171,-0.86,-0.359,0.412
-1.463,-5.183,2.805,-0.862,-0.361,0.41
-1.585,-4.939,2.439,-0.864,-0.361,0.412
-1.829,-4.756,1.951,-0.86,-0.355,0.414
-2.256,-4.634,1.707,-0.862,-0.353,0.417
-2.622,-4.39,1.463,-0.863,-0.346,0.419
-3.171,-4.268,1.037,-0.865,-0.341,0.419
-3.659,-4.085,0.854,-0.864,-0.338,0.417
-3.902,-3.902,0.732,-0.862,-0.339,0.412
-3.963,-3.659,0.488,-0.862,-0.335,0.412
-3.78,-3.415,0.305,-0.864,-0.331,0.414
-3.232,-3.232,-0.061,-0.862,-0.334,0.416
-2.683,-2.866,-0.122,-0.866,-0.336,0.42
-2.012,-2.683,-0.488,-0.866,-0.348,0.427
-1.159,-2.378,-0.549,-0.868,-0.353,0.423
-0.366,-2.256,-0.671,-0.865,-0.355,0.424
0.183,-2.195,-0.793,-0.859,-0.363,0.43
0.549,-2.012,-0.915,-0.856,-0.368,0.43
0.549,-2.073,-0.976,-0.855,-0.367,0.434
0.61,-1.951,-1.037,-0.859,-0.37,0.442
0.366,-1.768,-1.22,-0.861,-0.372,0.437
-0.183,-1.585,-1.341,-0.86,-0.371,0.433
-0.915,-1.524,-1.341,-0.861,-0.366,0.43
-1.707,-1.28,-1.28,-0.87,-0.364,0.429
-2.256,-0.976,-1.28,-0.869,-0.365,0.421
-2.622,-0.61,-1.341,-0.871,-0.358,0.417
-2.744,-0.427,-1.402,-0.872,-0.352,0.412
-2.927,-0.305,-1.585,-0.873,-0.349,0.411
-2.744,-0.427,-1.646,-0.874,-0.355,0.413
-2.378,-0.488,-1.646,-0.876,-0.36,0.411
-1.951,-0.671,-1.524,-0.874,-0.368,0.415
-1.28,-0.61,-1.341,-0.874,-0.373,0.416
-1.22,-0.61,-1.341,-0.876,-0.371,0.417
-0.915,-0.671,-1.159,-0.884,-0.374,0.413
-0.732,-0.732,-0.915,-0.888,-0.375,0.416
-0.793,-0.732,-0.61,-0.885,-0.373,0.417
-1.159,-0.732,-0.183,-0.885,-0.375,0.41
-1.463,-0.671,0.244,-0.883,-0.378,0.405
-1.951,-0.671,0.488,-0.887,-0.376,0.407
-2.317,-0.549,0.732,-0.882,-0.373,0.411
-2.683,-0.61,0.976,-0.878,-0.364,0.412
-2.927,-0.61,1.098,-0.879,-0.362,0.409
-2.744,-0.549,1.037,-0.877,-0.367,0.411
-2.195,-0.61,1.22,-0.879,-0.368,0.414
-1.646,-0.549,1.463,-0.877,-0.37,0.42
-0.793,-0.488,1.646,-0.88,-0.374,0.425
-0.061,-0.427,1.768,-0.873,-0.375,0.423
0.671,-0.305,1.829,-0.875,-0.377,0.422
1.341,-0.061,1.829,-0.884,-0.382,0.423
2.073,-0.061,1.951,-0.888,-0.383,0.422
2.439,0,2.195,-0.89,-0.381,0.419
2.683,0.122,2.317,-0.888,-0.379,0.415
2.622,0.061,2.622,-0.89,-0.381,0.417
2.317,0.244,2.805,-0.889,-0.375,0.417
1.707,0.488,3.049,-0.887,-0.373,0.422
1.098,0.671,3.293,-0.884,-0.367,0.42
0.183,0.915,3.354,-0.881,-0.364,0.419
-0.549,1.159,3.415,-0.878,-0.36,0.41
-1.159,1.341,3.415,-0.874,-0.356,0.407
-1.768,1.402,3.293,-0.869,-0.356,0.409
-2.012,1.463,3.171,-0.873,-0.357,0.417
-2.012,1.341,2.988,-0.874,-0.355,0.423
-1.829,1.159,2.866,-0.876,-0.355,0.424
-1.463,1.159,2.683,-0.876,-0.353,0.427
-1.037,1.037,2.744,-0.876,-0.358,0.428
-0.61,0.976,2.622,-0.872,-0.368,0.419
0,0.732,2.622,-0.868,-0.372,0.419
0.549,0.549,2.561,-0.871,-0.37,0.42
0.915,0.427,2.439,-0.867,-0.37,0.419
1.524,0.549,2.317,-0.867,-0.371,0.417
1.829,0.549,1.951,-0.869,-0.366,0.416
2.256,0.427,1.829,-0.867,-0.365,0.413
2.561,0.122,1.707,-0.863,-0.367,0.412
2.866,0.183,1.463,-0.864,-0.365,0.411
2.927,0,1.22,-0.861,-0.368,0.409
2.927,-0.244,0.976,-0.862,-0.369,0.412
3.171,-0.061,0.61,-0.86,-0.367,0.413
3.232,-0.061,0.305,-0.859,-0.362,0.416
3.049,-0.183,0.244,-0.868,-0.368,0.417
2.988,-0.244,0,-0.868,-0.364,0.415
3.049,-0.183,-0.244,-0.865,-0.362,0.413
3.049,-0.305,-0.549,-0.863,-0.361,0.408
3.049,-0.488,-0.671,-0.866,-0.358,0.405
2.988,-0.183,-0.793,-0.866,-0.358,0.408
2.866,-0.244,-0.976,-0.87,-0.354,0.407
2.683,-0.183,-1.341,-0.873,-0.352,0.413
2.866,-0.122,-1.402,-0.869,-0.352,0.404
2.744,-0.122,-1.646,-0.866,-0.352,0.407
2.988,0,-2.012,-0.869,-0.349,0.407
3.11,0.183,-2.195,-0.872,-0.353,0.41
2.927,0.305,-2.195,-0.872,-0.358,0.41
2.378,0.488,-2.134,-0.87,-0.36,0.4
1.89,0.61,-2.073,-0.875,-0.356,0.403
1.585,0.854,-1.951,-0.879,-0.353,0.405
1.707,1.098,-1.829,-0.883,-0.342,0.404
1.707,1.28,-1.829,-0.883,-0.344,0.406
1.524,1.28,-1.768,-0.879,-0.344,0.404
1.951,1.524,-1.585,-0.873,-0.347,0.407
2.5,1.768,-1.402,-0.874,-0.352,0.408
2.927,1.707,-1.28,-0.873,-0.355,0.414
3.354,1.707,-1.402,-0.873,-0.36,0.417
3.476,1.768,-1.463,-0.872,-0.357,0.417
3.598,1.646,-1.341,-0.875,-0.359,0.419
3.11,1.89,-1.159,-0.877,-0.363,0.417
2.561,2.073,-0.976,-0.876,-0.364,0.411
2.073,2.256,-0.854,-0.875,-0.359,0.402
1.22,2.439,-0.915,-0.877,-0.355,0.4
0.488,2.5,-0.976,-0.875,-0.356,0.408
-0.427,2.622,-0.854,-0.877,-0.358,0.407
-1.098,2.866,-0.793,-0.879,-0.353,0.404
-1.524,3.049,-0.915,-0.885,-0.351,0.403
-1.646,3.171,-0.915,-0.887,-0.354,0.404
-1.707,3.11,-0.915,-0.882,-0.35,0.402
-1.402,2.927,-0.976,-0.883,-0.351,0.406
-0.854,2.683,-1.037,-0.882,-0.355,0.408
-0.061,2.378,-1.098,-0.88,-0.357,0.409
0.732,2.134,-1.037,-0.88,-0.359,0.409
1.646,1.829,-0.793,-0.883,-0.365,0.409
2.317,1.585,-0.793,-0.883,-0.368,0.415
2.866,1.585,-0.854,-0.878,-0.364,0.411
3.293,1.463,-0.976,-0.875,-0.362,0.41
3.415,1.28,-1.037,-0.873,-0.36,0.41
3.354,1.22,-1.22,-0.875,-0.36,0.41
3.293,1.341,-1.524,-0.878,-0.361,0.41
3.049,1.463,-1.707,-0.879,-0.364,0.412
2.683,1.463,-2.012,-0.881,-0.356,0.404
2.134,1.463,-2.195,-0.885,-0.352,0.411
1.768,1.402,-2.256,-0.889,-0.347,0.412
1.341,1.463,-2.378,-0.889,-0.346,0.406
1.159,1.463,-2.378,-0.888,-0.345,0.408
1.22,1.402,-2.256,-0.893,-0.344,0.407
1.341,1.28,-2.134,-0.894,-0.344,0.407
1.463,1.037,-2.195,-0.89,-0.34,0.408
1.585,0.793,-2.073,-0.889,-0.338,0.404
1.463,0.976,-1.89,-0.886,-0.34,0.403
1.89,0.854,-1.951,-0.884,-0.347,0.406
2.195,0.976,-1.951,-0.876,-0.351,0.414
2.195,1.098,-1.89,-0.877,-0.352,0.419
2.5,1.159,-1.951,-0.88,-0.351,0.412
2.683,1.159,-2.073,-0.885,-0.353,0.405
2.927,1.28,-2.195,-0.885,-0.356,0.409
3.232,1.159,-2.134,-0.885,-0.355,0.402
3.415,1.037,-1.89,-0.883,-0.358,0.408
3.476,1.037,-1.707,-0.884,-0.36,0.412
3.841,0.976,-1.402,-0.888,-0.36,0.415
3.598,0.793,-1.28,-0.888,-0.36,0.411
3.354,0.671,-1.037,-0.885,-0.361,0.407
3.049,0.61,-0.732,-0.879,-0.364,0.406
2.5,0.427,-0.732,-0.879,-0.365,0.41
1.829,0.244,-0.732,-0.878,-0.363,0.407
1.159,-0.061,-0.793,-0.876,-0.361,0.403
0.549,-0.305,-0.793,-0.876,-0.356,0.4
-0.305,-0.488,-0.854,-0.875,-0.355,0.399
-0.61,-0.671,-0.793,-0.88,-0.357,0.401
-0.488,-0.671,-0.732,-0.881,-0.352,0.402
-0.671,-0.671,-0.793,-0.884,-0.347,0.396
-0.732,-0.854,-0.854,-0.885,-0.354,0.393
-0.793,-1.159,-0.854,-0.885,-0.354,0.393
-0.61,-1.28,-0.854,-0.882,-0.35,0.393
-0.366,-1.402,-0.915,-0.883,-0.354,0.392
-0.305,-1.463,-0.854,-0.88,-0.354,0.399
-0.427,-1.646,-0.671,-0.875,-0.357,0.4
-0.793,-1.646,-0.732,-0.873,-0.363,0.397
-1.585,-1.646,-0.793,-0.868,-0.358,0.4
-2.134,-1.646,-0.854,-0.873,-0.351,0.405
-2.988,-1.646,-1.037,-0.873,-0.355,0.403
-4.329,-1.524,-1.098,-0.873,-0.354,0.403
-6.098,-1.28,-1.098,-0.876,-0.352,0.4
-7.622,-1.159,-1.22,-0.875,-0.348,0.405
-9.39,-1.098,-1.098,-0.875,-0.336,0.398
-11.28,-0.793,-1.159,-0.872,-0.337,0.405
-13.354,-0.305,-1.341,-0.87,-0.338,0.406
-14.939,0.244,-1.402,-0.865,-0.337,0.414
-15.854,0.671,-1.585,-0.867,-0.335,0.416
-16.463,1.037,-1.951,-0.868,-0.334,0.417
-16.707,1.341,-2.195,-0.864,-0.337,0.412
-16.524,1.402,-2.439,-0.864,-0.343,0.41
-15.793,1.341,-2.744,-0.875,-0.344,0.416
-15.183,1.28,-2.927,-0.877,-0.351,0.417
-14.207,1.341,-3.11,-0.879,-0.359,0.417
-12.988,1.22,-3.354,-0.88,-0.37,0.417
-11.707,0.976,-3.415,-0.881,-0.374,0.413
-10.61,0.854,-3.476,-0.88,-0.372,0.421
-10.244,0.549,-3.537,-0.88,-0.373,0.422
-9.878,0.183,-3.293,-0.874,-0.372,0.428
-10.244,0.061,-3.354,-0.87,-0.375,0.424
-10.854,0.122,-3.598,-0.862,-0.37,0.417
-11.768,0,-3.659,-0.855,-0.367,0.419
-13.415,0,-3.963,-0.851,-0.365,0.419
-15.366,0,-4.39,-0.849,-0.362,0.414
-17.988,-0.183,-4.817,-0.848,-0.353,0.41
-20.549,-0.305,-5.305,-0.844,-0.349,0.418
-22.805,-0.427,-5.793,-0.842,-0.34,0.421
-24.878,-0.732,-6.28,-0.84,-0.328,0.426
-26.646,-0.61,-6.89,-0.836,-0.327,0.425
-28.11,-0.854,-7.683,-0.83,-0.331,0.425
-29.207,-1.098,-8.476,-0.817,-0.316,0.425
-29.268,-1.22,-9.39,-0.819,-0.32,0.425
-28.598,-1.22,-10.366,-0.806,-0.312,0.426
-27.439,-1.22,-11.585,-0.807,-0.322,0.424
-25.793,-0.976,-12.805,-0.813,-0.333,0.427
-23.659,-0.793,-13.902,-0.821,-0.335,0.434
-20.61,-0.549,-14.939,-0.824,-0.345,0.431
-16.951,-0.305,-16.159,-0.817,-0.355,0.425
-12.988,0.122,-17.195,-0.809,-0.361,0.42
-8.72,0.488,-18.232,-0.807,-0.366,0.415
-4.329,0.549,-19.451,-0.804,-0.377,0.417
0,0.488,-20.549,-0.795,-0.384,0.422
4.451,0.427,-21.585,-0.787,-0.394,0.428
8.78,0.549,-22.744,-0.777,-0.397,0.426
12.5,0.671,-23.902,-0.764,-0.399,0.429
15.549,0.61,-25.244,-0.753,-0.399,0.437
18.049,0.488,-26.524,-0.743,-0.396,0.44
19.695,0.549,-27.988,-0.739,-0.392,0.444
20.976,0.732,-29.329,-0.734,-0.38,0.446
21.22,0.915,-31.037,-0.74,-0.379,0.443
21.28,1.159,-33.049,-0.762,-0.372,0.426
21.159,1.524,-34.939,-0.776,-0.37,0.423
20.488,1.585,-36.829,-0.786,-0.36,0.42
19.695,1.585,-38.415,-0.804,-0.356,0.412
18.598,1.707,-39.634,-0.83,-0.356,0.406
17.439,1.646,-40.732,-0.845,-0.364,0.4
16.524,1.585,-41.585,-0.855,-0.369,0.397
16.159,1.463,-42.195,-0.862,-0.374,0.39
15.549,1.341,-42.439,-0.867,-0.374,0.385
15.122,1.098,-42.561,-0.867,-0.379,0.39
15.061,0.793,-42.012,-0.863,-0.397,0.39
15.488,0.671,-41.28,-0.867,-0.416,0.385
16.22,0.366,-40.549,-0.87,-0.434,0.377
16.951,0.183,-39.695,-0.875,-0.442,0.376
17.988,-0.305,-38.78,-0.877,-0.461,0.366
18.659,-0.793,-37.683,-0.883,-0.479,0.374
19.146,-1.402,-36.28,-0.888,-0.496,0.371
19.329,-2.012,-34.695,-0.89,-0.517,0.371
18.963,-2.439,-32.866,-0.894,-0.536,0.387
18.72,-2.683,-31.098,-0.898,-0.551,0.396
18.293,-2.683,-29.085,-0.905,-0.559,0.394
17.256,-2.744,-26.951,-0.908,-0.558,0.389
16.829,-2.805,-24.817,-0.917,-0.552,0.384
16.098,-2.927,-22.622,-0.92,-0.544,0.384
14.756,-2.988,-20.122,-0.917,-0.546,0.387
13.78,-2.988,-17.622,-0.921,-0.557,0.381
13.049,-3.049,-15.366,-0.92,-0.553,0.379
12.012,-3.293,-13.171,-0.923,-0.556,0.376
11.098,-3.293,-10.854,-0.923,-0.563,0.381
10.305,-3.293,-8.72,-0.922,-0.558,0.382
9.268,-3.354,-6.646,-0.92,-0.55,0.393
8.11,-3.232,-4.512,-0.915,-0.551,0.396
7.317,-3.11,-2.439,-0.912,-0.556,0.399
6.768,-2.866,-0.488,-0.904,-0.551,0.403
6.341,-2.561,1.22,-0.898,-0.542,0.406
6.28,-2.195,2.805,-0.893,-0.531,0.412
6.341,-1.89,4.146,-0.893,-0.531,0.413
6.28,-1.646,5.305,-0.884,-0.522,0.42
6.524,-1.341,6.402,-0.874,-0.519,0.424
7.256,-0.915,7.134,-0.87,-0.513,0.431
7.866,-0.305,7.744,-0.863,-0.508,0.435
7.988,0.122,8.232,-0.859,-0.505,0.431
8.415,0.732,8.537,-0.858,-0.497,0.436
9.146,1.646,8.78,-0.862,-0.491,0.44
9.512,2.256,8.841,-0.86,-0.491,0.43
9.817,2.5,8.841,-0.854,-0.481,0.425
9.939,2.927,8.963,-0.849,-0.477,0.432
10.061,3.476,8.963,-0.837,-0.476,0.435
10.122,4.024,8.963,-0.832,-0.469,0.428
10,4.512,8.902,-0.819,-0.461,0.424
9.451,5.122,8.72,-0.796,-0.449,0.424
8.78,5.854,8.415,-0.784,-0.443,0.42
8.049,6.524,8.11,-0.769,-0.443,0.423
7.317,7.378,7.378,-0.756,-0.445,0.422
6.341,8.232,6.89,-0.746,-0.452,0.41
5.427,9.085,6.463,-0.736,-0.457,0.408
4.634,10.061,5.854,-0.736,-0.462,0.4
4.146,11.159,5.366,-0.733,-0.469,0.387
4.024,12.134,4.939,-0.726,-0.472,0.368
3.598,12.927,4.39,-0.721,-0.481,0.363
4.024,13.841,4.268,-0.712,-0.497,0.362
4.939,14.817,4.085,-0.705,-0.508,0.355
6.22,15.549,4.085,-0.698,-0.529,0.346
7.378,16.402,4.39,-0.697,-0.546,0.343
8.11,17.378,4.939,-0.693,-0.561,0.343
9.024,18.049,5.488,-0.69,-0.575,0.332
9.817,18.659,6.159,-0.68,-0.591,0.329
10.793,19.451,6.768,-0.674,-0.601,0.321
11.524,19.878,7.256,-0.673,-0.601,0.313
11.037,20.366,7.744,-0.675,-0.608,0.304
10.671,20.793,7.866,-0.677,-0.609,0.3
9.146,21.463,7.622,-0.675,-0.596,0.294
7.439,22.195,7.317,-0.674,-0.579,0.298
5,22.866,6.829,-0.67,-0.563,0.296
2.683,23.537,6.22,-0.679,-0.542,0.296
0.366,24.085,5.366,-0.694,-0.523,0.292
-2.378,24.451,4.451,-0.706,-0.502,0.285
-4.268,25,3.354,-0.716,-0.471,0.287
-5.122,25.305,2.073,-0.717,-0.437,0.284
-5.244,25.61,0.549,-0.718,-0.404,0.295
-3.902,25.976,-1.098,-0.711,-0.379,0.308
-1.89,26.22,-3.232,-0.697,-0.351,0.316
1.463,26.098,-5.671,-0.689,-0.32,0.319
6.463,26.159,-8.232,-0.674,-0.304,0.332
12.561,26.098,-11.159,-0.659,-0.283,0.35
19.146,25.732,-14.756,-0.648,-0.257,0.36
26.829,25.488,-18.963,-0.637,-0.243,0.372
35.366,25.122,-23.598,-0.618,-0.222,0.383
44.024,24.634,-29.207,-0.605,-0.192,0.399
52.622,24.085,-35.244,-0.596,-0.167,0.417
60.427,23.476,-42.073,-0.593,-0.145,0.434
68.841,22.866,-49.756,-0.587,-0.114,0.456
77.622,22.439,-58.354,-0.575,-0.083,0.465
86.28,21.89,-67.805,-0.561,-0.056,0.479
94.512,21.463,-77.683,-0.544,-0.042,0.492
101.52,20.61,-87.988,-0.525,-0.026,0.496
107.68,19.756,-98.476,-0.503,-0.008,0.508
112.81,19.085,-109.45,-0.48,0.022,0.528
116.77,18.841,-120.61,-0.46,0.056,0.559
119.45,18.537,-132.32,-0.439,0.09,0.601
121.16,18.537,-144.63,-0.441,0.125,0.633
122.68,18.415,-157.32,-0.458,0.161,0.65
123.17,18.354,-170.67,-0.473,0.189,0.661
123.42,18.232,-183.96,-0.499,0.204,0.655
123.11,17.622,-196.71,-0.521,0.213,0.652
122.5,16.768,-208.96,-0.545,0.23,0.668
121.71,15.305,-220,-0.564,0.243,0.691
120.85,13.72,-230.55,-0.581,0.244,0.724
119.76,11.159,-240.67,-0.597,0.249,0.765
117.68,7.378,-250,-0.63,0.245,0.79
115,2.805,-258.42,-0.676,0.224,0.811
111.46,-3.11,-265.61,-0.722,0.194,0.83
106.1,-9.756,-272.01,-0.77,0.149,0.846
99.573,-17.073,-277.13,-0.827,0.11,0.857
92.195,-24.573,-281.04,-0.894,0.092,0.869
83.78,-32.378,-284.08,-0.984,0.079,0.905
74.817,-40.305,-286.46,-1.073,0.062,0.937
65.915,-48.659,-288.05,-1.161,0.04,0.99
56.159,-56.707,-288.96,-1.24,0.006,1.05
47.012,-64.085,-289.27,-1.319,-0.056,1.114
38.476,-70.793,-288.54,-1.404,-0.153,1.165
30.061,-76.951,-286.52,-1.477,-0.27,1.199
21.707,-82.744,-283.72,-1.568,-0.396,1.213
13.78,-87.5,-279.63,-1.687,-0.545,1.22
6.159,-91.463,-273.9,-1.808,-0.703,1.223
-1.098,-95.183,-266.89,-1.921,-0.876,1.218
-7.5,-97.988,-257.99,-2.041,-1.058,1.182
-12.561,-101.16,-246.1,-2.145,-1.25,1.133
-15.549,-105.61,-230.79,-2.236,-1.482,1.067
-16.646,-111.28,-212.38,-2.321,-1.716,0.955
-15.732,-118.72,-190.18,-2.417,-1.958,0.822
-10.427,-127.56,-164.51,-2.53,-2.263,0.662
-2.073,-138.66,-135.06,-2.657,-2.561,0.497
8.72,-152.87,-102.38,-2.796,-2.816,0.294
22.561,-170.37,-66.585,-2.937,-3.054,0.058
35.488,-192.19,-27.744,-3.079,-3.296,-0.19
49.695,-216.4,15.061,-3.234,-3.578,-0.431
67.927,-242.19,62.317,-3.37,-3.835,-0.683
85.183,-271.46,113.11,-3.474,-4.05,-0.946
103.96,-303.42,166.16,-3.534,-4.227,-1.219
125.06,-336.04,219.88,-3.583,-4.322,-1.466
147.01,-368.48,274.21,-3.655,-4.369,-1.671
170.61,-399.45,327.99,-3.737,-4.413,-1.869
196.04,-427.74,380.18,-3.771,-4.415,-2.051
222.62,-452.07,430.24,-3.724,-4.395,-2.226
248.9,-472.26,477.44,-3.582,-4.387,-2.396
274.63,-487.93,522.01,-3.348,-4.342,-2.537
299.33,-499.08,563.78,-3.041,-4.279,-2.627
324.69,-506.16,602.74,-2.652,-4.229,-2.672
347.93,-509.57,638.41,-2.209,-4.2,-2.699
369.63,-509.76,670.61,-1.74,-4.159,-2.678
392.44,-506.83,699.51,-1.274,-4.072,-2.64
416.46,-500.92,725.12,-0.823,-3.98,-2.598
440.55,-492.19,747.32,-0.398,-3.928,-2.549
465.55,-480,765.61,0,-3.885,-2.477
490.61,-463.35,780.43,0.389,-3.854,-2.369
516.89,-442.56,790.61,0.752,-3.846,-2.258
544.76,-419.27,793.72,1.094,-3.851,-2.157
570.61,-396.83,786.65,1.426,-3.837,-2.045
590.18,-379.02,764.33,1.724,-3.804,-1.938
605.49,-369.02,722.01,1.947,-3.77,-1.862
610.91,-365.67,647.93,2.053,-3.794,-1.856
599.33,-357.01,540.06,2.042,-3.837,-1.916
549.39,-329.57,417.5,1.949,-3.78,-1.952
474.39,-292.62,295.55,1.83,-3.417,-2.028
406.34,-266.1,175.67,1.766,-2.601,-1.956
358.17,-242.87,59.39,1.731,-1.435,-1.539
309.39,-188.6,-42.195,1.74,-0.892,-1.02
257.07,-111.28,-108.42,2.066,-1.297,-0.816
231.4,-35.488,-138.41,2.632,-1.847,-1.011
228.23,28.598,-147.07,3.394,-1.783,-1.592
238.54,71.768,-129.76,4.505,-0.982,-2.021
243.6,92.256,-93.598,5.33,-0.337,-2.33
227.38,93.72,-57.927,5.675,0,-2.701
195.73,79.817,-32.805,5.879,0.135,-2.851
150.31,52.5,-17.561,5.896,0.186,-2.694
93.72,19.146,-12.134,5.773,0.053,-2.132
36.159,-7.439,-16.463,5.52,-0.09,-1.322
-18.11,-21.768,-28.354,5.131,-0.043,-0.409
-62.561,-26.89,-44.268,4.643,0.058,0.323
-96.037,-26.707,-57.5,4.149,0.192,0.641
-119.69,-25.549,-64.939,3.868,0.407,0.576
-134.15,-25.244,-69.207,3.811,0.566,0.302
-142.01,-25.183,-75.366,3.788,0.639,0.007
-145.12,-24.451,-86.22,3.642,0.717,-0.136
-145.91,-21.707,-102.44,3.344,0.795,-0.125
-146.59,-17.073,-122.99,3.037,0.813,0.037
-147.01,-11.707,-146.16,2.776,0.73,0.271
-147.32,-6.159,-170.24,2.566,0.602,0.511
-148.05,0.61,-193.96,2.397,0.484,0.73
-150.18,9.085,-216.59,2.222,0.385,0.928
-154.09,20.122,-236.65,2.016,0.3,1.094
-162.07,34.146,-253.17,1.805,0.207,1.252
-172.68,51.951,-266.4,1.615,0.104,1.428
-185.73,73.72,-276.1,1.449,-0.031,1.614
-203.6,99.573,-280.85,1.314,-0.204,1.802
-225.61,129.94,-280.37,1.197,-0.393,1.977
-250.18,164.33,-275.49,1.09,-0.617,2.149
-277.62,201.89,-267.13,1.011,-0.857,2.25
-306.52,241.28,-256.22,0.953,-1.054,2.281
-333.78,280.85,-243.41,0.921,-1.24,2.271
-357.68,318.78,-229.27,0.891,-1.408,2.199
-378.66,353.11,-213.84,0.841,-1.581,2.045
-396.65,383.9,-196.71,0.763,-1.748,1.864
-411.58,410.24,-177.26,0.658,-1.896,1.704
-422.01,430.85,-155.79,0.533,-2.053,1.56
-427.68,445.37,-132.81,0.382,-2.207,1.4
-425.92,455.37,-108.72,0.207,-2.277,1.24
-416.95,462.19,-84.939,-0.018,-2.316,1.076
-403.11,465.92,-61.463,-0.269,-2.307,0.926
-379.27,466.65,-38.659,-0.522,-2.264,0.81
-346.71,464.63,-17.805,-0.768,-2.209,0.708
-309.94,459.27,0.793,-0.982,-2.128,0.553
-272.19,449.57,17.439,-1.145,-2.09,0.379
-235.98,437.56,31.707,-1.24,-2.073,0.221
-201.52,425.18,43.841,-1.293,-2.022,0.116
-169.09,412.01,52.805,-1.332,-1.964,0.07
-141.4,398.54,58.902,-1.373,-1.852,0.029
-121.58,384.88,63.476,-1.42,-1.652,-0.009
-105.49,371.83,67.683,-1.48,-1.465,-0.031
-92.256,360.18,72.134,-1.548,-1.272,-0.045
-82.927,348.05,77.439,-1.619,-1.032,-0.029
-77.622,334.51,83.293,-1.671,-0.798,-0.018
-74.39,320.24,88.476,-1.702,-0.545,-0.05
-69.756,305.37,91.646,-1.691,-0.255,-0.067
-62.988,290.55,92.256,-1.644,0.007,-0.06
-55.671,275.55,90.854,-1.616,0.194,-0.051
-47.378,260.55,87.561,-1.612,0.339,-0.101
-36.463,245.91,82.988,-1.599,0.427,-0.165
-23.963,231.46,76.951,-1.58,0.463,-0.188
-11.341,216.77,70.244,-1.553,0.509,-0.181
0.305,202.5,63.293,-1.544,0.564,-0.177
10.549,189.21,56.524,-1.546,0.609,-0.164
18.841,176.65,49.939,-1.527,0.655,-0.107
25.183,164.21,43.171,-1.479,0.677,-0.033
29.939,151.59,36.463,-1.408,0.705,0.032
31.768,139.63,29.634,-1.344,0.751,0.091
31.22,128.41,23.232,-1.311,0.801,0.131
29.207,117.44,17.683,-1.32,0.856,0.139
25.488,107.19,12.317,-1.361,0.856,0.142
19.817,98.049,7.317,-1.371,0.829,0.185
10.549,90.244,2.622,-1.339,0.782,0.254
-2.5,83.78,-1.646,-1.315,0.749,0.322
-21.159,80.061,-5.915,-1.291,0.743,0.369
-46.524,81.768,-12.134,-1.26,0.724,0.396
-71.768,86.098,-20.061,-1.23,0.757,0.417
-86.707,88.293,-26.768,-1.185,0.772,0.452
-84.39,86.341,-30.671,-1.125,0.842,0.489
-65.305,80.549,-32.988,-1.043,1.021,0.553
-33.659,73.11,-34.512,-0.977,1.166,0.678
2.256,64.878,-34.695,-0.986,1.015,0.755
38.232,56.22,-34.634,-1.048,0.689,0.773
70.427,47.988,-35.244,-1.096,0.337,0.7
94.512,41.159,-35.732,-1.16,0.028,0.553
109.08,35.915,-35.915,-1.187,-0.262,0.402
114.02,31.829,-35.671,-1.206,-0.47,0.265
109.33,28.354,-35.244,-1.236,-0.536,0.17
97.256,25.61,-34.695,-1.253,-0.51,0.12
80.366,22.744,-33.049,-1.247,-0.434,0.109
62.561,20.061,-30.244,-1.24,-0.342,0.119
46.463,17.5,-27.195,-1.237,-0.268,0.106
31.402,14.146,-23.537,-1.226,-0.216,0.096
18.659,10.793,-19.085,-1.21,-0.228,0.067
9.39,7.683,-14.634,-1.205,-0.267,0.012
2.5,5.061,-11.098,-1.193,-0.277,-0.042
-2.317,2.805,-7.988,-1.186,-0.313,-0.096
-6.646,1.037,-5.488,-1.196,-0.369,-0.139
-10.427,-0.732,-3.598,-1.204,-0.401,-0.159
-13.537,-2.195,-2.317,-1.201,-0.417,-0.156
-16.159,-3.232,-1.768,-1.182,-0.394,-0.135
-17.317,-3.902,-2.256,-1.164,-0.36,-0.105
-16.646,-4.329,-3.598,-1.144,-0.333,-0.066
-14.451,-4.756,-5,-1.121,-0.288,-0.012
-10.488,-5.244,-6.402,-1.097,-0.227,0.044
-5.427,-5.793,-7.5,-1.076,-0.161,0.088
-0.183,-6.098,-8.476,-1.064,-0.12,0.123
5.366,-5.854,-9.146,-1.064,-0.104,0.15
10.488,-5.488,-9.207,-1.078,-0.099,0.16
13.72,-5.732,-9.024,-1.086,-0.094,0.153
15.183,-5.854,-8.293,-1.071,-0.097,0.135
15.244,-5.488,-7.439,-1.053,-0.101,0.126
14.085,-4.39,-6.28,-1.043,-0.112,0.116
11.768,-3.293,-5,-1.037,-0.124,0.103
8.598,-2.378,-3.841,-1.018,-0.114,0.104
5.061,-1.524,-2.927,-1.008,-0.103,0.121
1.463,-0.732,-1.768,-1.01,-0.115,0.135
-2.5,-0.122,-0.854,-1.026,-0.142,0.139
-6.402,0.061,0.305,-1.031,-0.154,0.136
-9.817,0.305,1.402,-1.033,-0.163,0.123
-12.561,0.305,2.5,-1.021,-0.175,0.119
-14.939,0.488,3.354,-1.003,-0.191,0.108
-16.89,0.366,3.841,-0.987,-0.208,0.102
-18.049,-0.122,4.024,-0.972,-0.216,0.103
-17.866,-0.183,3.354,-0.959,-0.218,0.116
-17.317,-0.671,2.439,-0.95,-0.229,0.13
-16.524,-1.524,1.768,-0.934,-0.239,0.146
-14.878,-1.951,0.854,-0.916,-0.239,0.16
-12.744,-2.073,-0.366,-0.891,-0.243,0.175
-11.037,-2.134,-1.524,-0.888,-0.256,0.181
-9.329,-1.951,-2.744,-0.898,-0.275,0.171
-7.073,-1.768,-4.146,-0.905,-0.265,0.173
-5.305,-1.768,-5.61,-0.898,-0.254,0.186
-3.354,-1.89,-7.317,-0.887,-0.277,0.188
-0.549,-1.951,-9.268,-0.874,-0.296,0.199
2.378,-2.439,-11.707,-0.858,-0.293,0.215
4.939,-3.476,-14.329,-0.845,-0.295,0.223
6.585,-4.085,-17.012,-0.837,-0.3,0.229
8.171,-4.512,-19.878,-0.83,-0.292,0.238
9.634,-4.634,-22.805,-0.817,-0.306,0.244
10.671,-4.207,-25.915,-0.798,-0.315,0.244
11.341,-3.354,-29.207,-0.785,-0.302,0.239
12.5,-2.561,-32.622,-0.779,-0.298,0.238
13.232,-1.707,-36.098,-0.789,-0.297,0.233
13.902,-1.098,-39.146,-0.808,-0.306,0.234
14.939,-0.549,-42.195,-0.817,-0.318,0.237
15.915,-0.183,-45.244,-0.817,-0.339,0.245
16.951,-0.061,-47.927,-0.826,-0.348,0.246
19.085,0,-50.366,-0.817,-0.352,0.258
23.415,-0.244,-52.5,-0.816,-0.349,0.27
29.573,-0.061,-54.878,-0.807,-0.363,0.27
34.451,0.183,-56.646,-0.805,-0.394,0.257
38.415,0.61,-57.5,-0.811,-0.408,0.245
41.768,1.402,-58.293,-0.815,-0.432,0.231
43.537,2.195,-58.354,-0.837,-0.445,0.208
44.329,3.11,-58.049,-0.858,-0.441,0.167
44.268,3.841,-57.5,-0.86,-0.442,0.148
43.354,4.329,-56.585,-0.87,-0.438,0.137
41.707,4.634,-55.549,-0.875,-0.456,0.14
39.878,5,-54.085,-0.874,-0.46,0.157
37.744,5.305,-52.5,-0.879,-0.46,0.175
35.427,5.61,-50.732,-0.88,-0.469,0.181
33.11,5.793,-48.537,-0.87,-0.474,0.177
30.671,6.098,-46.159,-0.86,-0.484,0.171
28.11,6.402,-43.537,-0.854,-0.49,0.166
25.61,6.524,-40.549,-0.851,-0.486,0.149
23.963,6.524,-37.439,-0.848,-0.483,0.136
22.439,6.402,-33.963,-0.842,-0.492,0.124
21.341,6.28,-30.244,-0.829,-0.5,0.119
20.976,6.159,-26.402,-0.808,-0.499,0.123
21.098,6.159,-22.927,-0.795,-0.488,0.128
21.585,6.037,-19.512,-0.785,-0.478,0.131
22.622,5.915,-15.915,-0.768,-0.462,0.137
24.329,6.098,-12.866,-0.75,-0.445,0.15
26.098,6.22,-10.122,-0.736,-0.442,0.141
27.805,6.463,-7.927,-0.72,-0.449,0.13
29.573,7.012,-6.463,-0.703,-0.447,0.125
31.28,7.683,-5.549,-0.692,-0.428,0.122
33.171,8.537,-5.305,-0.691,-0.41,0.122
35.183,9.634,-6.159,-0.685,-0.384,0.127
36.402,11.22,-7.866,-0.674,-0.353,0.136
37.561,13.598,-10.549,-0.665,-0.306,0.147
39.512,16.098,-13.72,-0.655,-0.255,0.164
43.11,17.927,-17.134,-0.632,-0.201,0.203
48.78,19.207,-20.793,-0.608,-0.146,0.239
54.024,20,-23.963,-0.587,-0.091,0.284
58.659,19.939,-25.732,-0.571,-0.059,0.325
66.28,18.232,-28.537,-0.572,-0.057,0.349
74.329,16.524,-33.232,-0.582,-0.061,0.358
79.878,15.549,-38.902,-0.569,-0.063,0.371
85.183,14.329,-45.915,-0.529,-0.073,0.384
91.341,12.927,-54.207,-0.543,-0.166,0.351
97.012,10.976,-63.11,-0.614,-0.17,0.314
100.98,8.476,-72.866,-0.63,-0.131,0.318
104.02,5.61,-83.049,-0.599,-0.106,0.328
106.77,2.378,-93.841,-0.568,-0.107,0.349
108.78,-0.61,-105.55,-0.564,-0.07,0.392
109.82,-3.537,-118.17,-0.568,0.002,0.452
109.69,-6.646,-131.71,-0.575,0.048,0.506
109.08,-9.939,-145.91,-0.602,0.082,0.541
108.05,-13.659,-160.55,-0.632,0.129,0.574
106.34,-18.476,-175.85,-0.662,0.188,0.605
104.45,-23.72,-191.22,-0.704,0.235,0.629
102.44,-29.756,-206.83,-0.733,0.263,0.648
101.34,-36.646,-222.38,-0.765,0.282,0.692
98.841,-44.817,-236.83,-0.797,0.304,0.721
95.671,-53.354,-250.49,-0.827,0.325,0.741
92.256,-62.622,-263.05,-0.851,0.327,0.779
87.866,-72.256,-275,-0.874,0.335,0.816
83.049,-81.951,-286.65,-0.909,0.35,0.847
76.402,-91.707,-297.99,-0.973,0.37,0.874
66.707,-100.98,-308.35,-1.059,0.38,0.903
55.427,-109.88,-318.23,-1.162,0.382,0.924
43.415,-118.6,-327.62,-1.282,0.355,0.965
30.427,-126.65,-336.16,-1.395,0.301,1.015
15.793,-134.02,-343.17,-1.482,0.228,1.042
-2.195,-140.37,-348.78,-1.573,0.133,1.051
-22.683,-144.76,-353.48,-1.674,0.03,1.064
-43.902,-147.26,-357.07,-1.799,-0.09,1.083
-64.268,-147.68,-358.6,-1.924,-0.232,1.118
-80.244,-145.49,-356.58,-2.06,-0.408,1.124
-90.732,-141.71,-350.37,-2.203,-0.62,1.076
-96.159,-138.41,-338.42,-2.362,-0.893,0.947
-94.085,-137.74,-319.45,-2.565,-1.217,0.776
-84.512,-142.38,-292.32,-2.76,-1.58,0.612
-67.317,-151.95,-257.5,-2.919,-1.998,0.396
-40.488,-165.43,-214.82,-3.011,-2.482,0.141
-9.512,-184.69,-165.31,-3.07,-2.995,-0.148
24.512,-210.37,-110.79,-3.16,-3.561,-0.479
60.305,-243.17,-52.561,-3.256,-4.094,-0.817
97.012,-280.31,8.963,-3.383,-4.542,-1.17
131.34,-318.48,73.232,-3.55,-4.924,-1.495
162.19,-357.07,139.63,-3.767,-5.205,-1.824
188.6,-396.4,208.23,-4.025,-5.376,-2.162
210.55,-434.15,278.11,-4.228,-5.477,-2.479
229.15,-468.23,348.11,-4.309,-5.509,-2.717
244.88,-497.81,416.65,-4.287,-5.459,-2.925
259.82,-520.43,481.95,-4.202,-5.329,-3.115
273.72,-536.16,542.8,-4.03,-5.148,-3.247
288.48,-546.16,598.96,-3.73,-4.957,-3.303
302.68,-550.79,650.06,-3.336,-4.839,-3.345
317.62,-550.67,695.79,-2.875,-4.753,-3.36
335.67,-546.28,736.22,-2.354,-4.66,-3.32
355.55,-538.48,771.04,-1.793,-4.599,-3.266
377.81,-528.23,800.24,-1.236,-4.573,-3.176
404.69,-515.37,824.21,-0.686,-4.546,-3.063
433.11,-499.51,842.8,-0.154,-4.531,-2.913
461.58,-480.55,855.55,0.327,-4.537,-2.758
492.38,-457.62,861.77,0.751,-4.532,-2.563
524.15,-431.16,860.18,1.087,-4.503,-2.384
557.99,-404.08,850.37,1.365,-4.478,-2.213
592.13,-379.51,830.79,1.622,-4.451,-2.014
623.05,-364.21,798.11,1.834,-4.448,-1.843
653.54,-362.81,745.61,2.01,-4.472,-1.699
671.65,-370.67,661.04,2.106,-4.504,-1.601
665.18,-372.56,539.76,2.099,-4.47,-1.59
621.04,-357.87,406.16,1.991,-4.339,-1.73
559.33,-337.81,280.49,1.881,-4.072,-1.867
511.58,-322.26,155.85,1.906,-3.435,-1.764
472.13,-297.26,30.183,1.929,-2.491,-1.208
420.49,-245.06,-77.073,1.875,-2.307,-0.545
379.88,-168.84,-140.06,1.835,-2.9,-0.369
366.83,-91.463,-162.56,2.038,-3.229,-0.881
368.35,-33.902,-158.78,2.809,-2.769,-1.662
373.6,3.232,-114.08,4.119,-1.887,-2.226
360.18,17.744,-43.902,5.24,-1.274,-2.608
321.22,13.963,16.829,5.687,-0.926,-2.898
263.96,4.512,62.5,5.795,-0.559,-2.962
192.07,-8.415,90.244,5.732,-0.209,-2.642
104.94,-25.244,95.854,5.463,-0.003,-2.089
7.927,-42.439,82.073,5.164,0.252,-1.422
-82.988,-54.268,59.024,4.913,0.546,-0.742
-157.74,-58.72,36.463,4.544,0.772,-0.234
-207.38,-59.268,15.183,4.183,1.014,0.086
-227.81,-55.61,-2.378,3.96,1.174,0.201
-226.1,-48.11,-14.634,3.885,1.138,0.141
-208.78,-38.232,-25.305,3.85,1.012,0.003
-180.43,-27.866,-40.183,3.755,0.968,-0.105
-146.65,-18.11,-61.707,3.611,0.988,-0.146
-114.39,-9.817,-88.293,3.455,0.917,-0.142
-86.524,-4.756,-117.5,3.314,0.738,-0.09
-66.159,-4.024,-146.34,3.167,0.521,-0.008
-55.671,-6.402,-172.74,3.013,0.385,0.129
-54.085,-9.939,-196.28,2.845,0.342,0.34
-59.451,-14.024,-216.71,2.658,0.383,0.56
-70.244,-18.293,-234.33,2.429,0.475,0.761
-85.671,-21.829,-249.57,2.214,0.582,0.915
-102.81,-24.451,-262.38,2.035,0.656,1.042
-120.49,-25.305,-272.81,1.883,0.686,1.138
-138.29,-22.988,-281.22,1.729,0.674,1.231
-155.49,-16.646,-287.5,1.596,0.594,1.336
-171.28,-5.793,-292.01,1.503,0.438,1.456
-184.33,9.146,-294.94,1.424,0.219,1.592
-194.69,27.683,-296.4,1.372,-0.01,1.708
-203.9,49.024,-296.04,1.329,-0.254,1.816
-212.87,71.89,-292.44,1.268,-0.513,1.891
-224.27,96.585,-285.73,1.195,-0.75,1.916
-237.68,122.99,-277.01,1.127,-0.964,1.899
-252.13,149.69,-266.83,1.08,-1.166,1.876
-267.99,176.77,-255.31,1.037,-1.339,1.842
-285.06,203.23,-243.35,0.987,-1.496,1.819
-302.13,228.66,-231.59,0.92,-1.629,1.802
-318.11,252.68,-219.94,0.84,-1.733,1.781
-333.05,274.69,-208.23,0.731,-1.814,1.762
-345.06,294.63,-196.77,0.606,-1.87,1.706
-352.44,312.44,-185.85,0.466,-1.875,1.621
-354.88,327.93,-175.37,0.3,-1.867,1.512
-354.57,341.1,-164.45,0.121,-1.897,1.389
-351.65,351.83,-153.11,-0.058,-1.928,1.274
-346.28,360.18,-141.65,-0.227,-1.952,1.159
-338.66,366.04,-129.45,-0.381,-1.971,1.074
-330,369.51,-116.4,-0.509,-2.001,0.971
-321.77,371.71,-102.26,-0.636,-2.009,0.849
-313.84,372.5,-87.195,-0.781,-1.978,0.689
-306.4,371.71,-72.256,-0.916,-1.913,0.519
-297.32,369.76,-57.439,-1.028,-1.83,0.358
-289.69,365.61,-42.622,-1.127,-1.737,0.194
-283.42,360.61,-28.476,-1.216,-1.623,0.038
-275.37,356.34,-14.329,-1.315,-1.486,-0.131
-266.65,351.77,-0.793,-1.427,-1.339,-0.262
-257.74,346.89,11.768,-1.545,-1.228,-0.345
-248.66,341.04,23.354,-1.653,-1.137,-0.419
-239.09,333.23,33.659,-1.738,-1.015,-0.459
-229.15,323.6,42.988,-1.79,-0.899,-0.473
-216.83,313.29,51.89,-1.819,-0.802,-0.442
-200.73,303.17,59.878,-1.836,-0.704,-0.361
-180.18,293.72,66.829,-1.83,-0.619,-0.272
-155.24,284.57,72.683,-1.812,-0.533,-0.191
-130.67,274.21,76.89,-1.791,-0.438,-0.14
-105.67,262.93,79.939,-1.761,-0.347,-0.1
-79.39,252.19,82.195,-1.698,-0.272,-0.045
-52.805,242.26,83.11,-1.628,-0.229,-0.019
-27.073,232.81,82.683,-1.569,-0.207,-0.003
-2.805,223.72,81.098,-1.523,-0.147,0
17.134,214.33,78.049,-1.492,-0.058,-0.007
33.293,205.67,73.171,-1.478,0.037,-0.047
48.354,197.19,68.11,-1.465,0.097,-0.083
60.854,188.72,63.171,-1.455,0.115,-0.098
68.78,179.76,57.988,-1.435,0.14,-0.088
73.049,170.49,53.171,-1.414,0.197,-0.069
75.793,161.28,49.634,-1.416,0.268,-0.056
76.341,152.07,47.134,-1.414,0.325,-0.031
75.183,142.01,45.061,-1.402,0.385,0.009
72.866,131.46,43.354,-1.37,0.445,0.045
69.756,120.79,42.195,-1.325,0.5,0.078
65.549,110.55,41.341,-1.292,0.525,0.094
61.829,100.98,40.671,-1.251,0.524,0.127
58.902,92.256,38.902,-1.203,0.535,0.177
55.427,85.915,35.366,-1.159,0.556,0.228
53.049,82.988,28.293,-1.151,0.556,0.263
53.171,85.854,14.817,-1.165,0.543,0.266
56.159,92.866,-5.732,-1.187,0.519,0.249
62.439,95.549,-26.402,-1.198,0.539,0.243
66.768,92.256,-37.744,-1.129,0.576,0.309
66.707,87.683,-39.024,-0.971,0.719,0.418
64.878,82.683,-36.646,-0.794,0.944,0.58
63.841,75.976,-34.939,-0.791,1.058,0.77
64.085,68.841,-35.244,-0.995,0.97,0.852
65.549,62.561,-36.951,-1.213,0.815,0.753
64.146,55.549,-39.573,-1.336,0.623,0.492
59.939,47.378,-41.524,-1.355,0.278,0.167
55.183,38.049,-40.854,-1.357,-0.032,-0.088
49.207,29.146,-38.354,-1.349,-0.21,-0.2
40.305,21.463,-35,-1.303,-0.296,-0.229
29.573,15.061,-31.098,-1.256,-0.37,-0.222
17.134,10.671,-27.073,-1.23,-0.432,-0.193
2.683,7.622,-23.537,-1.229,-0.45,-0.139
-12.927,5.854,-20.427,-1.231,-0.444,-0.088
-27.073,5,-18.049,-1.203,-0.43,-0.051
-38.232,4.268,-16.28,-1.155,-0.395,0.001
-43.598,3.476,-15,-1.111,-0.35,0.037
-41.951,2.5,-14.207,-1.049,-0.286,0.086
-34.939,1.89,-13.72,-1.012,-0.225,0.137
-23.232,1.829,-13.415,-1.008,-0.209,0.176
-9.512,1.89,-13.537,-1.018,-0.234,0.223
3.963,1.829,-13.476,-1.044,-0.284,0.253
16.22,1.585,-12.805,-1.091,-0.335,0.264
26.89,1.646,-11.951,-1.129,-0.38,0.264
33.659,1.768,-10.122,-1.153,-0.415,0.24
36.22,1.646,-7.866,-1.182,-0.432,0.208
36.402,1.585,-5.549,-1.196,-0.427,0.188
34.451,1.524,-3.171,-1.191,-0.398,0.186
30.732,1.524,-0.915,-1.167,-0.364,0.191
26.402,1.707,1.098,-1.141,-0.337,0.187
21.524,1.707,2.805,-1.124,-0.301,0.194
17.073,2.073,4.329,-1.121,-0.268,0.204
13.232,2.439,5.488,-1.125,-0.25,0.207
9.085,2.683,6.402,-1.136,-0.234,0.2
5.976,2.805,7.195,-1.143,-0.229,0.176
4.085,3.11,7.744,-1.134,-0.236,0.169
2.744,3.415,8.476,-1.121,-0.248,0.168
2.317,3.598,9.329,-1.098,-0.255,0.172
2.683,3.537,10.122,-1.069,-0.253,0.182
3.11,3.171,10.854,-1.041,-0.242,0.196
4.207,3.11,11.646,-1.029,-0.257,0.199
5.549,3.171,12.073,-1.017,-0.28,0.209
6.524,3.171,12.439,-1.006,-0.275,0.208
7.5,3.171,12.5,-1.002,-0.269,0.194
8.293,3.049,12.012,-0.989,-0.256,0.187
7.927,2.622,11.28,-0.983,-0.251,0.165
6.707,2.134,10.366,-0.988,-0.271,0.153
5.488,1.707,8.963,-0.983,-0.281,0.147
3.72,1.646,7.317,-0.975,-0.273,0.15
1.951,1.524,5.366,-0.97,-0.271,0.154
-0.122,1.28,3.293,-0.967,-0.262,0.143
-2.622,0.488,1.159,-0.97,-0.247,0.138
-5.244,-0.244,-0.427,-0.966,-0.245,0.129
-7.622,-0.915,-1.646,-0.955,-0.266,0.122
-9.634,-1.402,-2.866,-0.927,-0.28,0.116
-11.524,-1.951,-4.207,-0.904,-0.28,0.097
-13.293,-2.683,-5.549,-0.88,-0.28,0.099
-15.122,-3.171,-7.012,-0.858,-0.285,0.106
-16.402,-3.354,-8.598,-0.837,-0.285,0.116
-17.378,-3.476,-10.183,-0.818,-0.304,0.119
-17.744,-3.476,-11.768,-0.807,-0.333,0.119
-17.805,-3.171,-13.598,-0.805,-0.344,0.12
-17.622,-2.927,-15.305,-0.814,-0.345,0.118
-16.89,-2.988,-16.829,-0.832,-0.35,0.108
-16.159,-3.049,-18.171,-0.84,-0.348,0.103
-15.366,-3.293,-19.634,-0.839,-0.339,0.107
-14.146,-3.476,-20.793,-0.832,-0.345,0.112
-12.805,-3.537,-22.134,-0.82,-0.36,0.111
-11.585,-3.598,-23.72,-0.812,-0.357,0.106
-10.549,-3.537,-25.793,-0.815,-0.348,0.097
-10.122,-3.293,-27.805,-0.821,-0.344,0.094
-10.305,-3.171,-29.573,-0.818,-0.335,0.103
-10.61,-2.683,-31.28,-0.811,-0.326,0.116
-10.61,-2.012,-32.988,-0.801,-0.32,0.137
-10.732,-1.646,-34.573,-0.787,-0.319,0.16
-10.244,-1.037,-35.915,-0.775,-0.329,0.171
-9.085,-0.427,-37.012,-0.782,-0.334,0.184
-7.805,-0.122,-37.988,-0.797,-0.332,0.181
-8.354,0.122,-38.171,-0.814,-0.332,0.168
-9.39,0.793,-37.683,-0.826,-0.33,0.155
-9.878,1.951,-36.829,-0.83,-0.348,0.148
-11.098,2.988,-35.732,-0.817,-0.36,0.124
-12.378,4.085,-34.756,-0.811,-0.355,0.105
-13.78,4.512,-34.146,-0.811,-0.346,0.099
-15.122,4.634,-33.415,-0.813,-0.34,0.091
-16.341,4.634,-32.561,-0.825,-0.341,0.079
-17.195,4.634,-31.524,-0.835,-0.343,0.076
-17.988,4.512,-30.061,-0.824,-0.379,0.077
-18.902,4.451,-28.293,-0.801,-0.404,0.088
-20.244,4.268,-26.159,-0.787,-0.401,0.1
-21.28,3.72,-24.024,-0.772,-0.407,0.099
-22.866,3.11,-21.463,-0.762,-0.413,0.093
-25.671,2.378,-19.085,-0.755,-0.418,0.082
-27.805,2.073,-16.707,-0.752,-0.413,0.073
-29.573,1.829,-14.512,-0.75,-0.398,0.07
-31.28,1.524,-12.683,-0.736,-0.381,0.064
-32.012,1.341,-11.159,-0.723,-0.36,0.058
-31.951,1.28,-10,-0.712,-0.336,0.049
-30.793,1.159,-9.39,-0.707,-0.315,0.049
-28.78,0.854,-9.329,-0.699,-0.301,0.052
-25.915,0.549,-9.573,-0.687,-0.287,0.059
-21.524,0.061,-10.305,-0.675,-0.271,0.083
-15.854,-0.793,-11.22,-0.661,-0.256,0.119
-9.39,-1.768,-12.256,-0.642,-0.239,0.159
-2.5,-2.866,-13.537,-0.621,-0.227,0.202
5.671,-3.902,-15.488,-0.598,-0.222,0.225
14.207,-5.488,-18.171,-0.573,-0.215,0.244
22.622,-7.683,-21.951,-0.538,-0.197,0.256
33.171,-10.366,-26.829,-0.51,-0.189,0.283
47.683,-13.354,-33.659,-0.504,-0.199,0.329
62.073,-16.037,-41.585,-0.505,-0.196,0.369
74.939,-18.659,-51.159,-0.493,-0.198,0.407
86.098,-21.402,-62.561,-0.457,-0.189,0.472
96.28,-24.39,-75.671,-0.443,-0.204,0.516
104.63,-27.683,-89.939,-0.446,-0.182,0.563
111.16,-30.671,-105.24,-0.445,-0.136,0.625
115.49,-34.085,-121.77,-0.429,-0.081,0.675
118.11,-37.988,-139.15,-0.421,-0.027,0.715
118.84,-42.073,-157.07,-0.424,0.04,0.771
116.95,-46.89,-175.73,-0.443,0.121,0.828
113.23,-51.829,-195.24,-0.479,0.194,0.9
107.68,-57.195,-215.91,-0.524,0.267,0.972
100.49,-62.744,-237.07,-0.574,0.347,1.059
91.22,-68.659,-257.81,-0.645,0.43,1.145
80.793,-74.512,-278.72,-0.726,0.491,1.208
69.939,-80.427,-299.51,-0.811,0.528,1.272
59.085,-86.524,-319.69,-0.903,0.528,1.317
47.5,-92.744,-338.84,-0.988,0.505,1.353
33.841,-98.476,-356.52,-1.078,0.476,1.366
19.573,-103.66,-372.5,-1.184,0.438,1.344
6.341,-108.48,-386.71,-1.278,0.383,1.298
-5.305,-112.19,-399.15,-1.349,0.324,1.256
-16.28,-114.08,-410.49,-1.417,0.242,1.229
-24.329,-114.21,-419.94,-1.511,0.136,1.249
-28.659,-112.44,-427.32,-1.653,-0.029,1.259
-30.122,-109.27,-431.89,-1.805,-0.242,1.285
-29.756,-105.92,-433.11,-1.947,-0.492,1.31
-26.768,-102.87,-429.51,-2.097,-0.81,1.265
-20.488,-100.67,-420.31,-2.227,-1.169,1.162
-11.89,-99.512,-405.92,-2.341,-1.535,1.038
-1.707,-99.939,-383.78,-2.486,-1.945,0.827
10.244,-103.54,-352.74,-2.642,-2.382,0.561
24.512,-111.04,-315.55,-2.783,-2.81,0.255
39.207,-124.51,-270.85,-2.924,-3.196,-0.076
49.817,-145.73,-218.66,-3.087,-3.55,-0.345
61.159,-171.83,-161.65,-3.259,-3.905,-0.624
77.134,-201.34,-100.92,-3.439,-4.215,-0.99
93.659,-235.31,-37.927,-3.609,-4.522,-1.341
112.74,-273.66,26.89,-3.82,-4.76,-1.665
136.52,-313.96,93.476,-4.056,-4.834,-1.964
164.02,-354.57,160.49,-4.267,-4.872,-2.293
197.5,-395,226.71,-4.422,-4.917,-2.631
237.32,-432.5,291.34,-4.498,-4.971,-2.918
279.33,-464.88,353.54,-4.496,-4.998,-3.104
321.77,-491.65,412.68,-4.4,-5.004,-3.209
361.65,-513.48,467.5,-4.197,-4.978,-3.262
399.33,-530.12,518.17,-3.878,-4.916,-3.289
435.12,-541.4,564.82,-3.476,-4.857,-3.336
468.48,-546.77,608.6,-3.006,-4.809,-3.374
499.27,-546.34,648.66,-2.496,-4.703,-3.385
529.02,-542.74,683.96,-1.925,-4.524,-3.315
561.22,-535.3,712.26,-1.34,-4.295,-3.208
594.02,-522.99,733.23,-0.796,-4.152,-3.079
625.24,-506.4,747.2,-0.316,-4.095,-2.931
656.34,-486.71,753.78,0.105,-4.095,-2.907
687.99,-464.33,754.21,0.543,-4.133,-2.875
719.76,-438.42,748.84,0.943,-4.14,-2.791
747.38,-410.18,733.72,1.289,-4.15,-2.684
771.83,-384.45,705,1.541,-4.155,-2.584
787.2,-366.77,658.17,1.713,-4.124,-2.585
796.95,-357.56,585.98,1.871,-4.049,-2.621
780.73,-354.51,480.92,1.969,-3.934,-2.625
743.05,-341.77,350.92,1.9,-3.822,-2.616
703.41,-318.72,226.46,1.774,-3.733,-2.589
672.8,-293.6,123.17,1.735,-3.528,-2.477
632.26,-259.88,35.488,1.976,-2.989,-2.008
574.57,-211.65,-19.634,2.275,-2.376,-1.491
512.99,-153.72,-34.695,2.561,-2.561,-1.13
448.96,-96.524,-20.488,3.001,-2.999,-1.174
368.42,-46.28,8.171,3.693,-2.542,-1.517
268.11,-9.024,36.22,4.511,-1.514,-1.903
151.95,6.28,57.195,5.181,-0.71,-2.328
32.744,2.988,77.683,5.562,-0.345,-2.683
-76.524,-5.122,100.18,5.734,0.062,-2.742
-157.44,-13.902,119.15,5.854,0.387,-2.31
-199.33,-19.878,128.48,5.699,0.346,-1.543
-208.35,-19.878,125.06,5.31,0.418,-0.833
-192.81,-14.39,111.83,4.84,0.58,-0.306
-161.34,-8.598,92.866,4.382,0.522,-0.233
-122.62,-9.634,71.28,4.09,0.255,-0.537
-83.659,-19.756,46.463,4.146,0.05,-0.897
-52.622,-33.598,19.268,4.364,-0.034,-1.048
-34.756,-46.22,-8.354,4.326,0.056,-0.928
-31.646,-56.098,-35.915,3.887,0.306,-0.688
-42.5,-63.354,-62.927,3.276,0.623,-0.515
-62.805,-67.134,-90,2.799,1.025,-0.445
-89.695,-67.195,-118.05,2.549,1.452,-0.406
-116.89,-63.963,-147.07,2.419,1.839,-0.346
-141.04,-58.171,-175.85,2.309,2.137,-0.268
-158.72,-50.915,-202.32,2.203,2.292,-0.17
-169.21,-43.354,-224.63,2.149,2.319,-0.009
-173.05,-36.28,-242.68,2.155,2.18,0.11
-170.67,-28.78,-257.26,2.188,1.922,0.277
-163.11,-20.427,-268.78,2.159,1.58,0.444
-152.74,-10.366,-276.95,2.115,1.166,0.652
-141.1,2.012,-282.26,2.077,0.723,0.878
-130.98,17.561,-285.73,2.049,0.27,1.125
-126.34,35.854,-286.77,2.025,-0.146,1.358
-130.06,55.793,-284.15,1.986,-0.508,1.55
-141.95,77.195,-278.6,1.93,-0.851,1.707
-162.74,103.48,-270.12,1.873,-1.128,1.833
-192.01,131.83,-259.69,1.794,-1.303,1.919
-228.05,161.71,-247.32,1.692,-1.406,1.994
-267.5,193.41,-233.23,1.523,-1.504,1.913
-306.89,223.54,-218.11,1.387,-1.572,1.915
-342.99,253.78,-203.17,1.335,-1.628,1.909
-375.18,281.71,-187.81,1.225,-1.688,1.806
-400.31,306.4,-172.07,1.129,-1.74,1.739
-415.79,329.39,-157.19,1.013,-1.766,1.591
-423.48,350.06,-142.26,0.83,-1.861,1.449
-422.99,367.87,-128.23,0.711,-1.935,1.348
-413.48,384.33,-115.61,0.516,-2.001,1.193
-395.98,398.11,-104.08,0.347,-2.013,1.077
-374.02,408.17,-91.585,0.174,-2.063,0.958
-350.12,414.27,-77.866,0.027,-2.137,0.838
-326.04,419.15,-62.744,-0.135,-2.206,0.702
-305.06,421.95,-47.256,-0.268,-2.263,0.61
-289.27,423.23,-31.89,-0.411,-2.321,0.512
-277.56,423.48,-17.744,-0.537,-2.272,0.386
-270.85,421.95,-4.695,-0.674,-2.169,0.271
-269.15,418.6,8.659,-0.767,-2.041,0.182
-271.16,413.48,22.866,-0.875,-1.904,0.063
-277.74,406.89,39.268,-0.974,-1.768,-0.045
-285.31,399.45,56.768,-1.086,-1.585,-0.122
-289.88,391.4,72.622,-1.204,-1.381,-0.149
-289.08,382.26,86.768,-1.334,-1.132,-0.145
-282.32,370.37,99.695,-1.456,-0.896,-0.156
-270.31,357.62,111.58,-1.564,-0.764,-0.219
-252.74,345,121.58,-1.637,-0.708,-0.306
-232.56,332.44,129.15,-1.664,-0.676,-0.422
-208.66,320.24,134.02,-1.652,-0.664,-0.538
-180.91,308.6,135.85,-1.632,-0.593,-0.602
-152.93,296.95,135.18,-1.628,-0.505,-0.576
-123.96,285.43,133.84,-1.628,-0.432,-0.519
-98.659,274.21,131.95,-1.647,-0.425,-0.427
-76.463,264.15,128.48,-1.675,-0.391,-0.273
-55.305,254.69,123.35,-1.68,-0.308,-0.158
-36.037,244.51,117.07,-1.649,-0.154,-0.056
-19.634,233.54,109.69,-1.603,0.032,0.001
-7.683,221.4,101.58,-1.579,0.191,0.023
0.549,208.96,93.902,-1.6,0.311,0.014
4.512,196.4,86.22,-1.636,0.401,-0.015
4.085,184.02,78.11,-1.646,0.526,-0.004
1.646,172.01,69.695,-1.632,0.669,0.019
-2.805,160.37,60.427,-1.604,0.792,0.063
-7.5,149.57,51.037,-1.576,0.869,0.157
-11.037,138.96,41.951,-1.564,0.905,0.232
-14.207,129.09,31.768,-1.559,0.931,0.284
-24.451,126.89,16.28,-1.548,0.941,0.317
-46.341,134.76,-8.72,-1.542,0.937,0.344
-68.659,143.9,-40.427,-1.558,0.936,0.362
-77.927,143.9,-62.317,-1.549,0.942,0.393
-68.415,135.55,-67.012,-1.362,1.066,0.554
-45.244,122.19,-66.402,-0.84,1.644,0.975
-15.305,109.08,-68.598,-0.581,2.175,1.343
13.598,97.561,-70.61,-0.779,2.227,1.63
37.317,85.915,-71.951,-1.238,1.483,1.675
57.744,72.683,-73.659,-1.44,0.912,1.301
75.122,56.89,-72.073,-1.465,0.291,0.689
85.671,40.305,-65.732,-1.455,-0.189,0.27
88.171,25.549,-57.256,-1.474,-0.537,0.02
84.268,13.293,-48.171,-1.504,-0.631,-0.07
73.232,4.695,-38.78,-1.573,-0.627,-0.078
53.72,0.061,-30.122,-1.611,-0.613,-0.07
25.671,-0.122,-22.927,-1.554,-0.561,-0.055
-7.012,2.927,-18.537,-1.476,-0.561,-0.081
-36.768,6.524,-15.61,-1.437,-0.561,-0.126
-53.72,9.085,-13.415,-1.402,-0.483,-0.128
-57.378,9.512,-11.829,-1.318,-0.346,-0.069
-49.939,9.451,-10.366,-1.22,-0.199,0.036
-33.78,10.366,-9.756,-1.145,-0.139,0.159
-11.341,11.768,-10,-1.119,-0.229,0.26
12.195,12.622,-10.366,-1.091,-0.407,0.291
34.085,12.012,-11.037,-1.051,-0.522,0.273
52.744,10.244,-11.829,-1.033,-0.538,0.266
65.122,8.902,-11.707,-1.03,-0.553,0.232
71.28,7.988,-10.732,-1.029,-0.535,0.218
70.793,6.829,-9.512,-0.995,-0.501,0.212
64.817,5.854,-8.171,-0.96,-0.406,0.193
55.671,5.366,-7.012,-0.932,-0.324,0.183
44.634,4.939,-5.976,-0.933,-0.259,0.151
32.988,4.756,-5,-0.954,-0.249,0.099
22.073,4.512,-3.598,-0.978,-0.238,0.067
12.805,4.512,-2.683,-1.022,-0.224,0.033
6.22,5.183,-1.768,-1.059,-0.219,0.003
2.195,5.61,-0.915,-1.075,-0.2,-0.016
-0.061,6.037,0.061,-1.093,-0.184,-0.035
0.488,6.707,0.915,-1.1,-0.183,-0.049
3.537,7.744,1.524,-1.091,-0.194,-0.039
7.439,8.598,1.89,-1.08,-0.21,-0.024
11.768,9.634,2.134,-1.055,-0.228,-0.001
16.22,10.854,2.195,-1.036,-0.25,0.044
19.085,11.524,2.5,-1.032,-0.281,0.09
20.976,12.195,3.232,-1.024,-0.311,0.125
21.463,13.232,3.902,-1.023,-0.333,0.164
20.915,14.085,4.512,-1.05,-0.329,0.188
19.268,14.695,5.122,-1.072,-0.323,0.194
17.256,14.878,5.671,-1.069,-0.288,0.193
15.671,15.122,5.854,-1.046,-0.243,0.204
15.061,15.488,5.244,-1.032,-0.238,0.198
14.817,15.671,4.634,-1.018,-0.257,0.187
14.573,15.183,3.78,-0.99,-0.275,0.178
13.659,14.695,2.805,-0.964,-0.272,0.177
12.073,14.146,2.134,-0.966,-0.262,0.172
10.244,13.537,1.768,-0.969,-0.273,0.167
8.049,12.988,1.341,-0.969,-0.291,0.14
5.366,12.195,0.61,-0.944,-0.276,0.133
2.744,11.159,-0.061,-0.924,-0.26,0.127
0.732,10.244,-0.915,-0.93,-0.259,0.108
-1.159,9.329,-2.195,-0.931,-0.263,0.108
-2.439,8.232,-3.232,-0.916,-0.273,0.107
-3.354,7.256,-4.207,-0.898,-0.276,0.099
-4.146,6.402,-5,-0.879,-0.278,0.097
-4.39,5.793,-5.671,-0.877,-0.296,0.088
-4.39,5.549,-6.524,-0.881,-0.319,0.08
-4.024,5.244,-7.195,-0.878,-0.317,0.079
-3.11,5.366,-8.11,-0.875,-0.325,0.087
-1.524,5.732,-8.72,-0.879,-0.333,0.094
0.854,6.28,-9.39,-0.881,-0.344,0.095
3.841,7.012,-10.183,-0.875,-0.355,0.104
6.951,7.439,-11.159,-0.853,-0.354,0.125
9.878,7.744,-11.951,-0.837,-0.345,0.141
12.561,8.232,-12.988,-0.835,-0.355,0.15
14.268,8.78,-13.841,-0.826,-0.377,0.15
14.817,9.573,-14.329,-0.816,-0.399,0.158
15,10.549,-14.817,-0.809,-0.409,0.156
14.817,11.22,-14.878,-0.812,-0.406,0.155
14.207,11.951,-14.512,-0.835,-0.392,0.148
14.085,12.805,-14.146,-0.816,-0.38,0.13
14.817,14.024,-13.902,-0.836,-0.371,0.104
15.915,14.756,-14.146,-0.842,-0.365,0.08
17.5,15,-14.512,-0.839,-0.351,0.073
19.573,15.244,-14.695,-0.819,-0.341,0.083
21.341,15.488,-15.122,-0.81,-0.341,0.1
22.744,15.244,-15.183,-0.814,-0.349,0.099
23.659,15.122,-15.244,-0.805,-0.366,0.102
24.451,14.939,-15.61,-0.801,-0.371,0.107
25.427,14.573,-16.037,-0.788,-0.362,0.103
26.098,14.207,-16.402,-0.778,-0.356,0.104
26.463,13.72,-16.89,-0.771,-0.342,0.108
26.585,13.354,-17.378,-0.759,-0.329,0.106
26.585,12.927,-17.805,-0.748,-0.339,0.103
26.159,12.378,-18.598,-0.736,-0.342,0.1
25.549,11.951,-19.39,-0.729,-0.336,0.097
25,11.646,-20.305,-0.735,-0.338,0.087
23.902,10.732,-21.463,-0.743,-0.333,0.076
22.744,9.939,-22.378,-0.743,-0.323,0.072
22.622,9.451,-23.232,-0.724,-0.317,0.074
23.049,8.78,-24.695,-0.72,-0.335,0.086
23.476,7.5,-26.28,-0.728,-0.339,0.09
24.451,5.915,-28.171,-0.734,-0.329,0.091
26.159,4.085,-30.305,-0.741,-0.319,0.094
28.902,2.134,-32.561,-0.739,-0.308,0.081
31.89,0.183,-35.366,-0.731,-0.322,0.064
34.573,-2.317,-38.72,-0.728,-0.316,0.059
36.463,-5.366,-42.256,-0.73,-0.316,0.046
38.354,-8.476,-46.159,-0.734,-0.328,0.04
40.244,-12.012,-50.366,-0.734,-0.326,0.039
42.134,-16.159,-54.329,-0.736,-0.321,0.051
44.817,-20.732,-58.476,-0.74,-0.311,0.066
49.024,-25.854,-62.927,-0.749,-0.286,0.085
54.756,-31.159,-67.073,-0.759,-0.28,0.104
61.829,-36.707,-71.341,-0.757,-0.29,0.112
69.207,-42.439,-75.976,-0.753,-0.291,0.114
76.402,-48.11,-80.549,-0.745,-0.289,0.117
83.415,-53.902,-86.159,-0.737,-0.286,0.145
90,-59.268,-92.622,-0.726,-0.276,0.19
96.28,-64.634,-100.43,-0.702,-0.262,0.259
101.28,-69.939,-109.39,-0.68,-0.244,0.333
104.39,-74.878,-119.69,-0.657,-0.191,0.403
107.07,-78.841,-131.77,-0.629,-0.132,0.47
108.17,-82.317,-145.91,-0.612,-0.077,0.524
105.31,-85.61,-161.46,-0.608,-0.021,0.58
100.92,-88.293,-177.38,-0.619,0.03,0.626
94.878,-90.61,-193.9,-0.65,0.082,0.687
85.915,-93.171,-210.73,-0.681,0.141,0.747
75.061,-96.463,-227.44,-0.708,0.178,0.8
62.5,-99.634,-243.96,-0.719,0.236,0.879
48.476,-102.07,-260.31,-0.726,0.285,0.99
33.72,-104.02,-276.34,-0.756,0.333,1.081
17.073,-106.04,-291.95,-0.818,0.372,1.144
-0.061,-106.95,-307.19,-0.904,0.383,1.185
-16.463,-107.5,-321.77,-1.001,0.399,1.219
-31.098,-107.44,-335.43,-1.119,0.404,1.257
-41.28,-105.85,-347.99,-1.242,0.388,1.287
-47.927,-104.69,-358.72,-1.427,0.346,1.302
-53.476,-103.6,-367.19,-1.64,0.258,1.33
-58.963,-101.71,-374.27,-1.857,0.174,1.348
-64.695,-99.207,-378.72,-2.117,0.04,1.389
-72.012,-96.341,-378.66,-2.287,-0.146,1.387
-79.573,-92.805,-373.72,-2.416,-0.344,1.338
-87.378,-88.659,-363.66,-2.558,-0.542,1.239
-97.683,-88.598,-347.38,-2.778,-0.777,1.074
-103.84,-90.854,-324.08,-3.112,-1.032,0.791
-102.93,-98.293,-292.32,-3.393,-1.279,0.443
-91.524,-112.68,-252.81,-3.586,-1.569,0.124
-65.427,-131.83,-207.5,-3.619,-1.892,-0.19
-28.598,-165.31,-156.46,-3.81,-2.199,-0.554
20.183,-204.82,-100.49,-4.052,-2.653,-0.841
79.634,-250.49,-41.89,-4.222,-3.09,-1.25
143.96,-299.21,21.22,-4.478,-3.666,-1.537
211.77,-345.31,85.122,-4.531,-4.163,-1.907
277.38,-387.56,149.45,-4.682,-4.587,-2.235
335.37,-424.27,214.82,-4.774,-4.853,-2.449
382.87,-454.15,280.24,-4.828,-5.014,-2.759
418.23,-476.28,344.82,-4.767,-5.181,-3.037
444.15,-490.79,406.52,-4.557,-5.225,-3.363
460,-499.69,464.33,-4.233,-5.209,-3.6
469.15,-504.88,517.74,-3.833,-5.101,-3.766
475.12,-507.99,566.4,-3.385,-4.955,-3.793
481.71,-508.84,609.21,-2.887,-4.776,-3.734
490.18,-508.05,644.7,-2.35,-4.591,-3.611
501.34,-505.73,672.62,-1.808,-4.366,-3.466
515.18,-501.65,692.74,-1.316,-4.201,-3.374
530.79,-496.1,704.33,-0.851,-4.076,-3.316
549.94,-489.33,708.23,-0.37,-3.966,-3.199
574.7,-482.19,704.57,0.048,-3.891,-3.016
604.82,-474.33,693.35,0.366,-3.866,-2.905
637.68,-467.38,673.84,0.724,-3.868,-2.738
672.68,-466.28,642.26,1.021,-3.833,-2.501
709.02,-472.32,592.99,1.168,-3.766,-2.388
746.52,-481.71,520,1.279,-3.754,-2.379
770.12,-491.83,423.11,1.41,-3.888,-2.359
781.34,-495.49,309.63,1.544,-3.974,-2.345
793.84,-489.51,193.05,1.672,-3.812,-2.373
791.22,-476.95,88.11,1.868,-3.418,-2.15
768.29,-450.79,1.22,2.058,-3,-1.702
724.33,-404.15,-55.427,2.079,-2.875,-1.554
677.01,-350.18,-79.085,2.33,-2.922,-1.686
615.24,-296.1,-79.268,3,-2.762,-1.657
527.93,-232.81,-66.341,3.639,-1.947,-1.842
418.29,-163.23,-50.244,4.292,-0.799,-2.152
293.9,-111.46,-42.744,4.747,-0.018,-2.613
165.73,-75.854,-36.28,5.097,0.535,-2.966
45.854,-46.22,-27.683,5.521,1.074,-3.015
-53.11,-21.829,-21.037,6.041,1.171,-2.47
-122.81,1.646,-16.585,6.097,1.115,-1.719
-163.29,24.695,-13.232,5.584,1.206,-1.091
-182.19,44.329,-9.939,5.096,1.181,-0.576
-185.18,57.317,-5.976,4.775,0.994,-0.415
-175.31,62.134,-3.902,4.589,0.712,-0.596
-156.89,60.122,-7.317,4.496,0.424,-0.888
-136.34,52.866,-17.5,4.44,0.253,-1.046
-119.45,41.037,-31.402,4.261,0.243,-0.984
-108.9,26.159,-45.183,3.821,0.341,-0.875
-105,10.305,-57.073,3.277,0.445,-0.796
-106.52,-4.512,-68.659,2.839,0.562,-0.779
-111.46,-15.976,-82.073,2.529,0.759,-0.742
-117.38,-23.11,-98.72,2.28,1.003,-0.636
-123.6,-26.463,-117.01,2.045,1.199,-0.486
-131.4,-26.341,-134.39,1.848,1.295,-0.338
-140.31,-23.963,-149.15,1.761,1.313,-0.254
-150.06,-21.098,-160.06,1.828,1.271,-0.169
-160.79,-17.134,-166.89,1.955,1.153,-0.021
-171.52,-11.098,-170.24,2.047,0.985,0.143
-184.02,-1.585,-171.71,2.076,0.768,0.321
-198.41,12.744,-172.07,2.079,0.561,0.544
-212.32,32.561,-172.13,2.001,0.314,0.791
-227.32,56.829,-172.68,1.941,0.046,1.037
-243.23,83.598,-173.35,1.956,-0.223,1.281
-260.55,111.52,-172.93,2.015,-0.47,1.469
-279.76,138.54,-170.12,2.05,-0.714,1.581
-300.55,164.27,-165.31,2.041,-0.959,1.655
-321.4,189.94,-158.17,1.959,-1.158,1.641
-341.46,216.22,-149.33,1.835,-1.294,1.666
-359.57,243.66,-139.88,1.639,-1.436,1.717
-374.88,271.34,-130.91,1.408,-1.567,1.768
-385.49,299.45,-123.11,1.2,-1.67,1.8
-391.83,326.22,-116.34,1.04,-1.719,1.758
-396.46,350.06,-108.11,0.892,-1.77,1.652
-399.27,371.46,-97.988,0.783,-1.869,1.506
-397.81,391.1,-87.317,0.628,-1.978,1.301
-392.68,407.38,-76.89,0.529,-2.066,1.206
-385.49,420.43,-67.073,0.367,-2.088,1.105
-374.76,429.39,-57.5,0.16,-2.03,0.992
-362.13,435.06,-46.402,-0.085,-2.021,0.862
-349.21,437.87,-33.72,-0.25,-2.023,0.748
-337.26,438.35,-20.183,-0.415,-2.02,0.599
-325.43,437.68,-5.976,-0.568,-2.006,0.453
-312.56,436.16,8.293,-0.718,-1.94,0.328
-300.31,432.56,21.89,-0.885,-1.803,0.231
-285.67,427.5,34.512,-1.032,-1.659,0.139
-269.45,421.16,47.012,-1.169,-1.53,0.03
-252.99,413.9,59.085,-1.282,-1.39,-0.07
-233.84,405.55,69.878,-1.328,-1.271,-0.185
-215.85,395.79,78.293,-1.334,-1.09,-0.27
-198.17,384.51,83.963,-1.379,-0.916,-0.331
-180,372.81,87.744,-1.451,-0.768,-0.412
-163.05,361.1,89.573,-1.494,-0.68,-0.465
-148.48,350,89.39,-1.495,-0.607,-0.502
-136.22,339.39,87.927,-1.479,-0.496,-0.536
-126.71,329.45,85.793,-1.495,-0.356,-0.54
-120.18,320.18,83.476,-1.533,-0.223,-0.519
-116.34,311.52,81.402,-1.553,-0.104,-0.474
-113.35,302.68,78.415,-1.565,-0.022,-0.44
-109.21,293.78,74.695,-1.584,0.094,-0.415
-104.02,284.82,70.793,-1.594,0.27,-0.339
-96.829,275.12,66.159,-1.63,0.389,-0.258
-87.866,264.82,60.671,-1.692,0.442,-0.225
-76.524,254.45,55.366,-1.725,0.495,-0.206
-63.963,243.41,50.061,-1.711,0.54,-0.163
-51.037,231.52,44.451,-1.71,0.566,-0.125
-37.927,218.66,39.939,-1.735,0.613,-0.104
-25.61,204.82,35.427,-1.758,0.664,-0.039
-15.488,190.85,30.976,-1.787,0.662,0.046
-7.378,176.46,27.134,-1.805,0.644,0.106
-0.366,161.46,23.537,-1.794,0.607,0.154
5.61,146.4,20.549,-1.768,0.604,0.19
10.732,131.28,17.683,-1.757,0.635,0.203
14.39,117.56,13.841,-1.747,0.638,0.209
14.573,109.82,4.939,-1.743,0.622,0.223
6.402,108.6,-9.512,-1.718,0.618,0.283
-2.866,108.29,-27.622,-1.698,0.603,0.324
-17.134,109.21,-42.439,-1.66,0.602,0.356
-25.732,106.52,-47.622,-1.455,0.701,0.451
-17.927,96.829,-48.598,-1.143,1.095,0.699
-2.744,86.098,-49.573,-0.995,1.442,1.01
11.402,77.683,-51.768,-1.058,1.646,1.226
26.585,68.902,-55.122,-1.209,1.452,1.306
41.768,57.927,-58.354,-1.401,0.879,1.063
53.963,45,-58.841,-1.499,0.369,0.588
61.768,31.951,-56.341,-1.552,0.045,0.178
65.976,20,-52.256,-1.569,-0.25,-0.076
65.427,9.512,-48.11,-1.568,-0.385,-0.169
60.427,0.488,-44.146,-1.615,-0.375,-0.166
50.671,-6.585,-40.305,-1.636,-0.354,-0.189
36.585,-10.976,-37.317,-1.588,-0.342,-0.215
19.268,-12.317,-35.61,-1.515,-0.371,-0.237
-0.061,-11.402,-34.878,-1.464,-0.412,-0.246
-19.451,-9.573,-34.512,-1.426,-0.42,-0.229
-34.451,-7.683,-33.902,-1.377,-0.359,-0.185
-41.22,-6.585,-32.317,-1.309,-0.25,-0.101
-39.634,-5.732,-30.305,-1.219,-0.165,0.014
-31.402,-5,-28.476,-1.129,-0.123,0.139
-19.268,-4.329,-27.073,-1.041,-0.126,0.27
-4.573,-3.476,-25.732,-1.001,-0.193,0.343
9.878,-2.927,-24.329,-1.018,-0.276,0.327
21.341,-3.232,-22.561,-1.03,-0.334,0.271
29.085,-3.476,-20.183,-1.041,-0.377,0.206
33.902,-3.415,-17.927,-1.072,-0.422,0.15
35.305,-2.988,-15.61,-1.083,-0.449,0.119
33.354,-2.256,-12.988,-1.079,-0.452,0.096
29.329,-1.402,-9.756,-1.073,-0.426,0.097
24.146,-0.427,-6.646,-1.066,-0.37,0.113
18.598,0.183,-3.537,-1.064,-0.318,0.116
13.232,0.61,-0.427,-1.069,-0.268,0.12
9.329,1.159,2.439,-1.079,-0.218,0.129
6.524,2.134,5.183,-1.083,-0.199,0.126
5.427,2.805,7.256,-1.073,-0.197,0.108
5.122,3.293,8.902,-1.058,-0.213,0.083
4.817,3.72,10.488,-1.052,-0.201,0.063
4.146,4.39,12.073,-1.055,-0.225,0.062
4.878,5.854,12.5,-1.063,-0.259,0.056
5.976,7.561,12.988,-1.064,-0.298,0.055
6.037,8.659,13.537,-1.066,-0.301,0.063
6.28,9.146,13.72,-1.052,-0.304,0.074
6.768,9.207,13.902,-1.062,-0.283,0.082
7.439,9.512,13.902,-1.058,-0.283,0.098
7.744,9.329,13.841,-1.047,-0.298,0.11
7.988,9.146,13.963,-1.017,-0.294,0.127
8.049,9.207,13.78,-0.993,-0.279,0.143
7.744,9.39,13.963,-0.975,-0.268,0.143
7.195,9.634,13.963,-0.951,-0.281,0.145
6.463,9.512,13.232,-0.93,-0.292,0.134
5.366,9.329,12.256,-0.928,-0.294,0.118
3.78,8.902,11.037,-0.943,-0.315,0.103
1.89,8.415,9.695,-0.955,-0.318,0.105
0.305,7.988,8.598,-0.953,-0.31,0.115
-0.793,7.683,7.622,-0.945,-0.311,0.123
-1.768,7.012,6.829,-0.928,-0.311,0.132
-2.622,6.037,6.098,-0.91,-0.294,0.134
-2.561,5.366,5.122,-0.882,-0.28,0.148
-1.28,5.122,4.024,-0.862,-0.282,0.152
0.122,4.939,2.5,-0.836,-0.306,0.141
1.341,4.512,0.915,-0.804,-0.335,0.142
2.683,4.451,-0.366,-0.804,-0.339,0.155
4.207,4.817,-1.402,-0.828,-0.361,0.152
6.098,5.427,-2.927,-0.853,-0.379,0.147
6.402,5.427,-4.024,-0.854,-0.373,0.135
6.22,5.549,-5.244,-0.862,-0.36,0.124
6.341,5.61,-7.073,-0.873,-0.362,0.122
5.732,5.976,-8.293,-0.882,-0.359,0.124
4.756,6.098,-9.39,-0.86,-0.375,0.12
3.293,6.341,-10.915,-0.851,-0.355,0.117
2.012,6.707,-12.317,-0.839,-0.339,0.13
0.549,7.012,-13.72,-0.861,-0.335,0.126
-0.366,7.012,-15.183,-0.87,-0.335,0.118
-0.488,7.378,-16.768,-0.869,-0.331,0.105
-1.159,7.683,-17.5,-0.879,-0.325,0.107
-1.402,8.11,-18.11,-0.89,-0.333,0.116
-0.915,8.476,-18.171,-0.903,-0.361,0.117
-0.244,9.512,-17.805,-0.905,-0.363,0.121
1.098,10.671,-17.378,-0.893,-0.381,0.121
2.378,11.402,-16.768,-0.898,-0.388,0.124
3.78,12.134,-16.159,-0.895,-0.393,0.134
5.732,12.744,-15.793,-0.905,-0.382,0.144
7.439,13.415,-14.939,-0.915,-0.378,0.168
8.902,14.146,-13.841,-0.908,-0.392,0.181
10.915,14.634,-12.439,-0.897,-0.394,0.195
13.049,14.939,-11.463,-0.88,-0.368,0.206
14.878,15.366,-10.427,-0.861,-0.361,0.223
16.707,15.61,-9.634,-0.842,-0.358,0.232
18.354,15.793,-9.024,-0.833,-0.348,0.228
19.451,15.732,-8.72,-0.829,-0.34,0.219
20.244,15.244,-8.476,-0.821,-0.333,0.214
21.098,14.695,-8.049,-0.818,-0.335,0.208
21.829,14.207,-7.805,-0.821,-0.335,0.198
22.378,13.476,-7.622,-0.833,-0.332,0.183
22.866,12.683,-7.622,-0.829,-0.318,0.167
23.415,11.707,-7.744,-0.817,-0.296,0.157
24.451,10.793,-7.866,-0.813,-0.283,0.148
25.976,9.817,-8.049,-0.798,-0.27,0.137
27.622,8.841,-8.72,-0.784,-0.258,0.13
29.695,7.378,-9.634,-0.769,-0.243,0.117
32.134,5.976,-10.793,-0.752,-0.232,0.115
34.756,4.634,-12.5,-0.738,-0.227,0.123
37.5,2.988,-14.573,-0.725,-0.22,0.129
40.122,1.159,-16.89,-0.713,-0.231,0.123
42.439,-1.037,-19.451,-0.709,-0.242,0.12
44.878,-3.354,-22.378,-0.707,-0.235,0.114
47.439,-5.854,-25.671,-0.697,-0.232,0.11
49.512,-8.78,-29.512,-0.681,-0.227,0.115
51.28,-12.012,-33.841,-0.669,-0.221,0.117
52.683,-15.122,-38.598,-0.658,-0.213,0.118
53.598,-18.293,-43.78,-0.646,-0.207,0.126
54.634,-21.829,-49.939,-0.63,-0.191,0.137
55.488,-25.671,-57.073,-0.621,-0.171,0.145
58.11,-30.122,-64.817,-0.605,-0.15,0.165
62.5,-35.305,-73.354,-0.592,-0.135,0.197
70.183,-40.854,-83.476,-0.583,-0.117,0.227
76.098,-45.976,-94.329,-0.568,-0.084,0.269
80.122,-50.183,-106.4,-0.537,-0.065,0.323
84.39,-54.146,-120.24,-0.51,-0.038,0.388
87.073,-58.049,-135.31,-0.509,-0.034,0.417
88.232,-62.378,-151.34,-0.54,0.017,0.435
88.049,-67.134,-168.29,-0.547,0.048,0.479
86.22,-71.707,-185.67,-0.558,0.06,0.54
82.317,-76.402,-203.41,-0.593,0.068,0.601
77.439,-81.159,-221.4,-0.65,0.08,0.643
70.915,-86.098,-238.6,-0.71,0.1,0.664
62.378,-91.951,-254.51,-0.76,0.135,0.7
52.805,-97.866,-268.84,-0.81,0.154,0.739
43.049,-104.27,-281.77,-0.851,0.155,0.778
32.744,-110.92,-293.23,-0.865,0.142,0.844
23.415,-117.38,-303.66,-0.873,0.129,0.935
15.366,-123.42,-313.66,-0.932,0.13,1.015
7.012,-129.02,-322.44,-1.028,0.129,1.097
0.183,-131.89,-330.61,-1.148,0.1,1.154
-5.61,-133.11,-337.13,-1.292,0.061,1.181
-11.463,-132.99,-341.34,-1.479,0.029,1.194
-16.159,-130.85,-342.81,-1.699,-0.04,1.194
-22.073,-128.96,-340.92,-2.019,-0.089,1.179
-27.134,-126.04,-335.55,-2.319,-0.192,1.212
-31.89,-123.48,-325.85,-2.587,-0.321,1.168
-39.024,-122.93,-311.83,-2.757,-0.531,1.128
-49.634,-123.23,-294.57,-2.835,-0.743,1.057
-60.366,-122.93,-275.73,-2.965,-0.9,0.967
-66.768,-121.16,-253.11,-3.132,-1.108,0.887
-68.537,-122.26,-226.16,-3.261,-1.279,0.702
-65.366,-126.71,-195.67,-3.399,-1.534,0.505
-51.463,-137.44,-160.49,-3.594,-1.72,0.19
-28.049,-158.41,-119.69,-3.923,-1.959,-0.038
4.39,-185.49,-73.78,-4.138,-2.186,-0.349
44.817,-218.29,-23.841,-4.217,-2.565,-0.723
91.098,-252.13,27.805,-4.249,-2.999,-1.003
140.06,-289.63,81.341,-4.216,-3.283,-1.309
189.02,-325.49,135.61,-4.326,-3.607,-1.6
235.91,-358.66,190.31,-4.426,-3.882,-1.907
277.87,-387.38,246.28,-4.584,-4.068,-2.14
312.93,-411.04,302.87,-4.492,-4.192,-2.384
340.31,-430.06,358.9,-4.345,-4.387,-2.656
361.28,-444.45,412.62,-4.094,-4.481,-2.935
376.71,-455.06,463.42,-3.783,-4.535,-3.167
387.56,-461.89,509.94,-3.369,-4.524,-3.299
394.88,-465.37,551.83,-2.923,-4.464,-3.345
399.39,-466.95,588.05,-2.5,-4.403,-3.333
402.87,-468.11,618.35,-2.069,-4.324,-3.33
405.18,-469.08,642.99,-1.609,-4.216,-3.32
407.56,-469.57,661.46,-1.148,-4.127,-3.243
412.32,-470.12,673.6,-0.749,-4.023,-3.113
418.96,-470.55,680.3,-0.39,-3.909,-2.989
430.06,-469.57,681.16,-0.078,-3.77,-2.886
445.61,-467.19,676.16,0.215,-3.652,-2.75
469.27,-465.92,666.34,0.475,-3.556,-2.613
496.89,-469.39,651.22,0.728,-3.461,-2.49
524.21,-475.79,628.11,0.98,-3.396,-2.389
561.04,-477.81,591.28,1.181,-3.447,-2.325
594.51,-475.31,533.84,1.34,-3.7,-2.286
616.71,-472.68,447.74,1.511,-3.909,-2.25
641.34,-461.16,335.79,1.674,-3.902,-2.256
655.79,-439.82,219.15,1.851,-3.603,-2.178
656.4,-411.04,120,2.008,-3.231,-1.821
640.91,-369.82,48.232,2.01,-2.986,-1.761
608.96,-314.88,13.598,2.154,-2.949,-1.882
566.71,-257.07,11.463,2.931,-3.204,-1.673
503.11,-205.18,24.085,3.735,-3.194,-1.543
412.01,-159.15,40.183,4.123,-2.119,-1.825
305.12,-121.95,49.878,4.374,-0.851,-2.106
189.51,-96.037,53.963,4.626,-0.246,-2.277
73.902,-79.024,59.451,4.894,0.005,-2.311
-32.134,-66.463,68.171,5.169,0.141,-2.036
-117.5,-55.671,77.195,5.341,0.306,-1.667
-175.18,-43.72,82.988,5.377,0.537,-1.264
-201.28,-28.78,81.524,5.226,0.708,-0.807
-201.95,-11.951,70.549,4.937,0.813,-0.368
-185.12,3.476,53.537,4.479,0.866,-0.174
-156.89,13.049,34.634,4.123,0.769,-0.242
-123.78,14.573,14.817,4.064,0.513,-0.387
-92.317,10.793,-6.28,4.198,0.306,-0.47
-67.683,5.122,-29.268,4.264,0.246,-0.349
-53.354,0.061,-53.293,4.006,0.341,-0.121
-50.183,-3.78,-76.951,3.502,0.509,0.102
-56.585,-5.854,-99.024,3.039,0.72,0.25
-71.28,-5.671,-120.49,2.737,0.986,0.35
-89.939,-3.232,-141.83,2.522,1.249,0.42
-109.15,1.098,-163.17,2.339,1.46,0.489
-127.19,6.341,-183.72,2.172,1.598,0.551
-142.44,13.354,-201.46,2.065,1.647,0.616
-153.78,21.098,-216.16,2.014,1.594,0.661
-160.55,29.756,-228.23,1.98,1.396,0.741
-162.93,40.244,-237.99,1.951,1.127,0.839
-162.56,51.524,-245.79,1.924,0.831,0.98
-159.33,63.72,-250.73,1.888,0.491,1.136
-156.65,77.866,-252.68,1.849,0.142,1.261
-157.07,94.329,-252.01,1.817,-0.188,1.404
-160.61,112.87,-248.9,1.768,-0.509,1.561
-168.78,132.93,-244.57,1.7,-0.801,1.729
-182.32,154.39,-239.39,1.614,-1.044,1.859
-201.52,177.74,-233.17,1.545,-1.244,1.918
-224.88,201.65,-226.4,1.47,-1.404,1.93
-251.16,225.24,-218.96,1.355,-1.512,1.882
-277.56,248.17,-210.31,1.231,-1.58,1.795
-302.01,270.37,-200.79,1.135,-1.619,1.704
-324.21,292.01,-189.82,1.043,-1.634,1.626
-342.13,311.28,-177.93,0.914,-1.636,1.563
-350.43,330.79,-167.26,0.761,-1.658,1.527
-353.35,348.48,-156.52,0.614,-1.684,1.49
-347.68,365.24,-145.06,0.5,-1.75,1.458
-335.31,378.84,-134.33,0.378,-1.764,1.292
-316.95,389.51,-123.23,0.232,-1.846,1.154
-292.01,397.38,-111.4,0.125,-1.838,1.006
-264.15,403.17,-99.085,-0.062,-1.908,0.871
-235.31,406.52,-86.463,-0.208,-1.966,0.743
-206.52,406.89,-74.085,-0.367,-2.055,0.657
-181.34,405.73,-62.622,-0.501,-2.037,0.594
-162.5,403.78,-51.585,-0.655,-1.983,0.505
-149.15,401.95,-40.671,-0.77,-1.963,0.414
-142.13,400.24,-30,-0.844,-1.945,0.31
-142.38,397.62,-20,-0.887,-1.84,0.229
-149.82,393.35,-10.122,-0.926,-1.645,0.16
-163.96,387.74,1.037,-1.008,-1.444,0.084
-180.85,382.5,12.561,-1.097,-1.268,0.032
-197.62,377.01,23.415,-1.158,-1.102,-0.015
-212.13,370.55,34.268,-1.203,-0.93,-0.121
-220.37,363.35,44.207,-1.233,-0.774,-0.265
-221.95,355,53.049,-1.31,-0.563,-0.416
-217.5,344.94,62.012,-1.357,-0.38,-0.529
-207.26,333.17,70.793,-1.384,-0.246,-0.604
-188.72,321.22,78.415,-1.405,-0.155,-0.615
-163.35,310.06,84.146,-1.421,-0.133,-0.585
-132.87,299.27,87.744,-1.438,-0.164,-0.511
-99.817,288.54,88.963,-1.428,-0.145,-0.397
-66.402,277.81,87.866,-1.427,-0.085,-0.297
-36.037,266.89,84.573,-1.44,-0.045,-0.218
-9.451,255.79,79.939,-1.454,-0.072,-0.176
12.622,244.76,74.634,-1.434,-0.06,-0.164
30.61,233.72,68.415,-1.393,0.023,-0.162
42.866,222.81,61.707,-1.334,0.103,-0.18
49.756,211.83,55.183,-1.303,0.204,-0.179
51.463,201.04,49.207,-1.33,0.333,-0.149
48.11,190.67,43.963,-1.378,0.465,-0.091
40.915,180.73,38.78,-1.405,0.573,-0.058
30.915,170.73,33.72,-1.427,0.681,-0.036
19.634,160.31,28.537,-1.449,0.794,-0.017
9.329,149.45,23.293,-1.469,0.877,-0.021
0.122,138.72,17.317,-1.479,0.936,-0.021
-5.61,128.6,10.854,-1.483,0.942,-0.002
-7.195,121.95,-1.524,-1.496,0.907,-0.011
-1.707,118.96,-21.463,-1.504,0.878,-0.012
12.317,111.83,-41.829,-1.473,0.866,0.013
19.085,106.46,-55.488,-1.396,0.846,0.078
23.11,102.26,-63.476,-1.207,0.862,0.212
30.549,94.939,-67.744,-0.89,1.224,0.523
35.305,85.793,-68.171,-0.861,1.291,0.718
38.049,77.256,-67.866,-1.055,1.305,0.745
39.878,68.537,-68.049,-1.163,1.303,0.725
40.488,59.085,-68.11,-1.298,0.944,0.521
39.512,49.695,-67.073,-1.375,0.5,0.245
35.732,40.732,-64.085,-1.45,0.242,0.04
29.268,32.622,-59.39,-1.524,-0.005,-0.125
20,25.183,-53.537,-1.542,-0.19,-0.209
7.744,19.39,-47.256,-1.555,-0.219,-0.215
-5.915,15.122,-40.793,-1.58,-0.209,-0.208
-19.329,12.134,-34.939,-1.562,-0.225,-0.21
-32.622,10.244,-30.183,-1.519,-0.249,-0.205
-44.146,8.963,-25.976,-1.478,-0.267,-0.204
-52.073,7.927,-22.744,-1.438,-0.286,-0.2
-56.402,7.134,-20.488,-1.378,-0.291,-0.18
-56.402,7.256,-19.573,-1.321,-0.282,-0.141
-50.183,7.927,-20.061,-1.278,-0.271,-0.085
-40,8.11,-20.793,-1.211,-0.249,-0.013
-26.159,7.988,-21.829,-1.151,-0.228,0.048
-9.756,7.927,-22.683,-1.11,-0.212,0.118
6.463,7.561,-22.988,-1.075,-0.206,0.181
19.268,6.28,-22.561,-1.055,-0.25,0.239
27.683,4.939,-21.768,-1.035,-0.244,0.286
32.012,4.024,-20.549,-1.054,-0.221,0.295
32.195,3.049,-18.963,-1.091,-0.226,0.262
28.354,2.195,-16.829,-1.104,-0.278,0.215
21.829,1.402,-14.39,-1.118,-0.285,0.176
13.902,0.61,-11.524,-1.136,-0.251,0.146
5.61,0.183,-8.293,-1.135,-0.226,0.118
-2.073,0,-5.183,-1.128,-0.196,0.108
-8.415,0.122,-2.622,-1.128,-0.176,0.099
-13.171,0.549,-0.305,-1.141,-0.165,0.08
-15.915,0.915,1.768,-1.15,-0.17,0.08
-16.768,1.402,3.354,-1.16,-0.174,0.078
-16.28,1.707,4.573,-1.163,-0.173,0.071
-14.329,2.256,5.61,-1.152,-0.181,0.073
-11.341,2.866,6.098,-1.138,-0.197,0.083
-7.439,3.476,6.22,-1.126,-0.211,0.095
-3.598,3.476,6.098,-1.104,-0.226,0.119
-0.366,2.988,5.793,-1.065,-0.235,0.155
2.195,2.622,5.732,-1.045,-0.224,0.185
3.537,2.317,5.793,-1.039,-0.222,0.203
4.024,2.195,6.22,-1.03,-0.229,0.189
4.085,2.683,6.463,-1.011,-0.235,0.164
3.293,3.049,5.854,-1,-0.227,0.147
1.28,3.232,5.488,-1.006,-0.233,0.109
-1.22,2.927,5.427,-1.017,-0.25,0.086
-4.207,2.5,5.305,-1.03,-0.26,0.079
-7.073,2.073,5.244,-1.032,-0.264,0.072
-9.146,1.585,4.695,-1.008,-0.287,0.077
-10.305,1.159,3.78,-0.973,-0.285,0.095
-11.037,0.61,2.805,-0.946,-0.27,0.105
-11.402,-0.183,1.768,-0.925,-0.279,0.106
-11.707,-0.915,0.732,-0.907,-0.289,0.092
-12.439,-1.829,-0.366,-0.894,-0.294,0.073
-13.537,-2.561,-1.585,-0.896,-0.315,0.059
-14.695,-2.866,-3.049,-0.905,-0.325,0.046
-15.732,-3.049,-4.39,-0.903,-0.319,0.052
-16.22,-3.293,-5.854,-0.899,-0.331,0.059
-16.341,-3.476,-7.134,-0.888,-0.331,0.073
-15.915,-3.902,-8.11,-0.874,-0.321,0.09
-15.488,-4.207,-8.841,-0.873,-0.343,0.091
-14.939,-4.207,-9.634,-0.876,-0.375,0.092
-14.146,-3.963,-10.549,-0.866,-0.39,0.092
-13.354,-3.415,-11.585,-0.847,-0.385,0.094
-12.866,-2.805,-12.866,-0.839,-0.379,0.099
-12.5,-2.195,-14.085,-0.838,-0.383,0.098
-12.683,-1.585,-15.61,-0.848,-0.378,0.095
-12.927,-1.28,-17.073,-0.85,-0.378,0.103
-13.232,-1.098,-18.537,-0.848,-0.378,0.116
-13.78,-0.732,-20.061,-0.845,-0.372,0.127
-14.207,-0.915,-21.463,-0.844,-0.373,0.139
-14.878,-0.854,-22.866,-0.841,-0.37,0.142
-15.488,-1.037,-24.451,-0.831,-0.359,0.153
-16.098,-1.524,-25.854,-0.822,-0.349,0.154
-17.195,-1.768,-27.073,-0.815,-0.339,0.155
-18.354,-1.402,-28.354,-0.803,-0.324,0.161
-19.268,-0.305,-30,-0.782,-0.309,0.154
-22.317,0.793,-30.61,-0.762,-0.301,0.147
-24.024,2.561,-31.829,-0.749,-0.284,0.14
-23.354,4.512,-33.659,-0.745,-0.258,0.136
-20.732,6.829,-35.061,-0.769,-0.245,0.134
-15.854,8.963,-36.585,-0.787,-0.288,0.118
-10.183,10.854,-37.988,-0.81,-0.277,0.121
-5.366,12.805,-37.744,-0.815,-0.317,0.121
-0.793,15,-36.585,-0.813,-0.349,0.12
5.549,17.012,-35.671,-0.79,-0.36,0.124
10.793,18.598,-34.207,-0.756,-0.403,0.113
15,20.61,-32.256,-0.747,-0.42,0.107
19.146,22.805,-29.939,-0.733,-0.449,0.115
23.049,24.39,-27.378,-0.712,-0.467,0.115
27.256,25.793,-24.817,-0.687,-0.487,0.116
29.756,27.195,-22.5,-0.667,-0.476,0.128
30.549,28.415,-20.366,-0.662,-0.481,0.135
31.037,29.329,-18.598,-0.673,-0.504,0.141
30.732,29.939,-16.829,-0.684,-0.526,0.143
29.695,30.427,-14.817,-0.679,-0.508,0.145
28.841,30.488,-13.171,-0.666,-0.475,0.146
28.354,30.427,-11.829,-0.666,-0.453,0.145
27.683,29.878,-10.915,-0.673,-0.424,0.146
26.951,29.024,-10.671,-0.695,-0.396,0.15
26.524,28.11,-10.671,-0.706,-0.364,0.152
26.463,26.951,-11.28,-0.714,-0.344,0.148
26.463,25.427,-12.683,-0.711,-0.313,0.148
26.524,23.598,-14.39,-0.72,-0.286,0.134
26.159,21.585,-16.768,-0.733,-0.269,0.126
25.61,19.39,-19.695,-0.747,-0.266,0.129
25.366,17.073,-23.354,-0.755,-0.264,0.137
25.244,14.817,-27.805,-0.752,-0.255,0.162
25.244,12.012,-33.11,-0.759,-0.234,0.191
26.037,8.598,-38.902,-0.782,-0.221,0.208
27.988,5.061,-45.305,-0.793,-0.216,0.23
30.793,1.585,-52.5,-0.791,-0.205,0.261
34.695,-2.256,-60.549,-0.784,-0.189,0.3
39.024,-6.402,-69.756,-0.777,-0.171,0.337
43.171,-10.488,-80.061,-0.773,-0.147,0.39
47.317,-14.085,-91.524,-0.775,-0.145,0.443
50.305,-17.439,-103.48,-0.789,-0.156,0.488
52.012,-20.976,-116.1,-0.805,-0.152,0.532
52.805,-24.512,-129.63,-0.83,-0.137,0.568
52.073,-28.11,-143.66,-0.888,-0.114,0.583
49.634,-32.195,-157.68,-0.958,-0.091,0.588
46.159,-37.012,-171.71,-1.031,-0.069,0.585
42.073,-42.5,-185.61,-1.089,-0.042,0.594
37.012,-48.354,-199.76,-1.114,-0.014,0.627
31.341,-54.085,-213.9,-1.123,0.005,0.668
25.61,-59.756,-228.23,-1.134,0.022,0.689
20.183,-64.939,-242.81,-1.161,0.044,0.703
15.549,-69.573,-257.07,-1.194,0.049,0.724
11.22,-73.902,-271.04,-1.257,0.026,0.737
6.707,-77.561,-284.15,-1.362,0.009,0.749
1.159,-80.427,-296.4,-1.5,-0.02,0.774
-5.366,-82.805,-307.01,-1.651,-0.061,0.8
-11.89,-83.293,-316.22,-1.766,-0.119,0.818
-18.476,-82.439,-323.96,-1.85,-0.189,0.802
-27.988,-83.841,-329.94,-1.938,-0.224,0.785
-40.854,-85.061,-334.15,-2.075,-0.255,0.742
-55.549,-86.28,-336.52,-2.224,-0.303,0.628
-71.646,-87.622,-336.52,-2.367,-0.416,0.579
-89.024,-90.732,-334.82,-2.365,-0.486,0.503
-105.67,-96.402,-331.34,-2.401,-0.547,0.413
-123.54,-106.4,-325.55,-2.489,-0.614,0.275
-140.67,-122.19,-316.46,-2.633,-0.717,0.097
-152.56,-141.83,-303.17,-2.75,-0.86,-0.105
-156.59,-169.02,-285.67,-2.835,-0.998,-0.315
-145.79,-200.12,-264.88,-2.954,-1.155,-0.539
-115.55,-235.12,-239.94,-3.143,-1.253,-0.824
-62.927,-275.92,-209.15,-3.501,-1.389,-1.101
9.207,-321.71,-173.23,-3.81,-1.533,-1.383
92.378,-370.73,-132.38,-4.173,-1.747,-1.761
180.06,-422.07,-85.366,-4.48,-2.18,-2.103
262.44,-471.89,-30.488,-4.763,-2.713,-2.494
335.92,-515.91,29.329,-4.919,-3.138,-2.821
395.18,-552.07,94.695,-4.873,-3.482,-3.038
439.76,-578.54,164.15,-4.729,-3.841,-3.152
471.46,-593.78,234.57,-4.584,-4.07,-3.243
490.98,-599.39,303.78,-4.376,-4.108,-3.39
503.17,-597.13,370.18,-3.999,-4.164,-3.529
512.07,-587.99,431.58,-3.551,-4.196,-3.609
517.07,-573.84,486.58,-3.099,-4.139,-3.625
524.21,-555.98,534.88,-2.593,-4.11,-3.564
534.63,-535.98,576.22,-2.066,-4.101,-3.431
547.8,-515.24,610.24,-1.574,-4.081,-3.284
565.06,-493.35,637.01,-1.125,-4.101,-3.108
585.67,-470.61,654.88,-0.704,-4.051,-2.872
610.67,-447.38,663.6,-0.337,-3.99,-2.648
638.23,-424.08,662.07,-0.018,-3.952,-2.454
667.44,-401.28,650.79,0.311,-3.884,-2.264
701.34,-379.21,628.72,0.609,-3.8,-2.04
735.43,-362.32,594.09,0.837,-3.708,-1.853
764.21,-359.08,543.6,1.041,-3.579,-1.737
790.79,-365.12,467.13,1.172,-3.511,-1.695
804.33,-365.43,361.16,1.273,-3.498,-1.679
798.29,-352.99,239.33,1.341,-3.588,-1.689
787.5,-333.78,115.85,1.422,-3.706,-1.876
766.77,-312.81,3.11,1.738,-3.464,-1.996
723.17,-281.46,-83.537,2.245,-2.786,-1.548
657.93,-232.07,-134.27,2.465,-2.516,-1.075
582.74,-176.34,-147.13,2.574,-2.78,-1.189
497.07,-131.34,-127.26,2.93,-2.597,-1.502
389.15,-97.683,-87.5,3.533,-1.568,-2.134
263.6,-79.085,-43.415,4.605,-0.347,-2.629
133.17,-75.061,-5.061,5.356,0.21,-2.916
13.659,-75.549,29.756,5.427,0.347,-3.024
-78.232,-76.89,56.585,5.146,0.719,-2.734
-130,-76.89,73.902,5.054,0.918,-2.018
-142.68,-72.5,83.902,5.063,0.781,-1.096
-128.05,-63.171,85.061,4.94,0.573,-0.279
-93.902,-50.427,77.012,4.565,0.438,0.15
-53.415,-37.439,63.11,4.054,0.157,0.156
-15.732,-29.695,47.134,3.766,-0.196,-0.145
13.049,-27.561,30.183,3.862,-0.383,-0.462
25.976,-25.61,11.951,4.132,-0.433,-0.565
23.293,-21.22,-7.256,4.186,-0.249,-0.435
6.159,-15.671,-27.805,3.793,0.129,-0.217
-23.598,-9.451,-46.707,3.184,0.584,-0.045
-59.695,-3.659,-63.049,2.691,1.036,0.023
-95.183,1.159,-77.195,2.419,1.407,0
-125.06,5.915,-90.671,2.305,1.711,-0.028
-147.5,10.915,-104.51,2.25,1.93,0.045
-162.62,16.22,-118.23,2.165,1.989,0.206
-169.57,21.89,-131.28,2.049,1.893,0.387
-170.79,27.927,-142.81,2.01,1.65,0.576
-167.5,34.207,-152.87,2.045,1.361,0.741
-160.79,41.037,-162.13,2.069,1.037,0.859
-152.32,49.329,-170.91,2.032,0.731,0.956
-145.43,59.512,-178.6,1.98,0.442,1.095
-142.44,71.768,-184.94,1.934,0.157,1.271
-144.82,86.829,-190.37,1.864,-0.102,1.411
-153.48,103.72,-195.06,1.786,-0.313,1.514
-168.48,122.01,-198.9,1.699,-0.457,1.57
-188.66,141.77,-202.01,1.616,-0.574,1.575
-212.38,162.68,-203.23,1.531,-0.67,1.582
-238.84,183.84,-200.98,1.409,-0.739,1.592
-265.67,205.31,-195.37,1.249,-0.798,1.605
-289.45,226.77,-188.23,1.093,-0.843,1.605
-309.15,248.29,-181.16,0.974,-0.886,1.604
-325.24,269.15,-173.9,0.873,-0.966,1.603
-338.05,288.66,-166.22,0.735,-1.07,1.558
-347.38,305.92,-157.99,0.597,-1.227,1.454
-352.93,321.58,-148.9,0.489,-1.397,1.313
-353.9,335.85,-138.84,0.382,-1.524,1.174
-351.4,347.81,-128.23,0.259,-1.643,1.071
-348.29,357.68,-116.46,0.096,-1.742,0.965
-343.84,365.61,-102.68,-0.084,-1.804,0.878
-338.11,372.44,-87.927,-0.249,-1.884,0.817
-329.02,378.42,-73.78,-0.378,-1.966,0.733
-317.07,383.11,-60,-0.465,-1.965,0.621
-303.9,384.94,-46.585,-0.556,-1.915,0.503
-289.39,384.33,-33.72,-0.671,-1.867,0.34
-274.88,382.19,-20.915,-0.769,-1.833,0.159
-261.34,378.42,-8.232,-0.832,-1.81,0.018
-250.06,373.35,4.146,-0.893,-1.769,-0.105
-239.45,367.19,15.793,-0.99,-1.675,-0.213
-229.45,359.21,26.037,-1.107,-1.528,-0.283
-221.71,350,35.427,-1.23,-1.379,-0.365
-215.85,339.76,44.329,-1.327,-1.256,-0.449
-210.85,329.51,52.317,-1.416,-1.11,-0.515
-205.73,319.39,59.024,-1.49,-0.974,-0.553
-199.76,309.08,64.573,-1.55,-0.829,-0.558
-192.07,299.08,69.268,-1.583,-0.664,-0.528
-182.38,289.27,73.232,-1.604,-0.502,-0.5
-170.55,279.39,76.28,-1.603,-0.354,-0.481
-156.04,270.18,78.415,-1.59,-0.218,-0.459
-140.31,261.52,78.841,-1.588,-0.068,-0.416
-122.93,253.05,77.683,-1.605,0.038,-0.354
-103.29,244.82,74.878,-1.595,0.089,-0.293
-84.085,237.56,70.793,-1.573,0.154,-0.241
-66.768,230.55,66.159,-1.569,0.244,-0.198
-51.28,223.48,60.915,-1.581,0.276,-0.156
-38.659,216.59,54.756,-1.594,0.312,-0.095
-29.878,209.57,48.293,-1.596,0.406,-0.048
-23.598,202.62,41.829,-1.585,0.467,-0.016
-19.085,194.82,35.976,-1.578,0.499,0.028
-16.829,186.1,31.159,-1.595,0.545,0.075
-16.646,176.46,27.683,-1.589,0.587,0.126
-17.927,166.46,25.488,-1.557,0.635,0.163
-18.841,156.71,24.024,-1.537,0.665,0.17
-18.902,146.71,22.5,-1.541,0.709,0.191
-17.134,136.52,20.793,-1.572,0.74,0.232
-13.902,125.92,18.841,-1.622,0.74,0.273
-10.305,116.1,16.341,-1.654,0.694,0.305
-6.951,107.13,13.902,-1.658,0.62,0.329
-5,101.22,9.573,-1.646,0.546,0.343
-8.659,100,1.341,-1.621,0.467,0.362
-18.963,103.84,-10.427,-1.603,0.44,0.386
-25.183,110,-24.756,-1.608,0.429,0.408
-16.707,109.57,-34.146,-1.571,0.41,0.437
1.159,101.89,-35.183,-1.411,0.661,0.565
21.89,93.72,-33.476,-1.291,0.833,0.729
42.927,86.22,-32.744,-1.153,1.063,0.963
62.012,78.476,-33.171,-1.206,0.909,1.122
76.585,69.695,-34.756,-1.406,0.529,1.009
85,59.634,-35.61,-1.513,0.261,0.665
86.463,48.11,-33.659,-1.519,-0.038,0.283
80.122,37.256,-30,-1.488,-0.342,-0.025
66.463,28.049,-26.341,-1.476,-0.44,-0.192
47.134,20.549,-22.988,-1.49,-0.397,-0.224
23.963,14.634,-20.244,-1.517,-0.338,-0.225
-0.549,10.244,-18.293,-1.504,-0.264,-0.225
-23.354,6.829,-16.707,-1.438,-0.23,-0.214
-42.012,3.963,-15.427,-1.363,-0.228,-0.208
-54.024,1.28,-14.634,-1.298,-0.21,-0.188
-58.537,-0.732,-14.512,-1.245,-0.18,-0.145
-55.305,-1.768,-15.183,-1.214,-0.188,-0.102
-46.098,-2.073,-16.89,-1.196,-0.244,-0.059
-33.293,-2.439,-18.963,-1.163,-0.297,-0.021
-18.659,-3.293,-20.549,-1.157,-0.342,-0.011
-4.024,-4.329,-21.524,-1.145,-0.384,-0.003
8.841,-5.305,-21.89,-1.095,-0.428,0.029
18.354,-6.22,-21.951,-1.055,-0.452,0.07
24.512,-7.012,-21.28,-1.024,-0.45,0.13
27.561,-7.561,-20.183,-1.003,-0.42,0.207
27.561,-8.232,-19.085,-1.004,-0.37,0.253
24.878,-9.268,-17.622,-1.021,-0.332,0.248
20.549,-10,-15.549,-1.029,-0.312,0.212
15.183,-10.366,-13.415,-1.037,-0.296,0.161
9.512,-10.366,-11.159,-1.051,-0.285,0.11
4.451,-10.061,-8.963,-1.068,-0.264,0.073
0.305,-9.573,-6.768,-1.075,-0.242,0.073
-2.744,-9.146,-4.39,-1.093,-0.249,0.069
-5.122,-8.72,-1.829,-1.102,-0.254,0.059
-6.524,-8.232,1.098,-1.106,-0.252,0.046
-6.707,-7.195,3.72,-1.111,-0.264,0.042
-5.915,-5.732,6.098,-1.09,-0.282,0.043
-3.963,-3.963,7.988,-1.063,-0.296,0.046
-1.768,-2.5,9.329,-1.038,-0.296,0.043
1.22,-0.976,10.183,-1.033,-0.287,0.048
4.024,0.488,10.427,-1.051,-0.303,0.058
6.585,1.951,10.61,-1.048,-0.333,0.081
8.902,3.232,10.61,-1.016,-0.338,0.118
10.183,4.329,10.549,-0.998,-0.327,0.146
10.183,5.305,10.427,-0.984,-0.318,0.156
9.451,6.037,10.793,-0.97,-0.322,0.156
7.988,6.951,11.524,-0.973,-0.333,0.148
6.098,7.439,12.195,-0.975,-0.315,0.138
3.72,7.683,12.561,-0.969,-0.289,0.113
1.646,7.866,12.439,-0.959,-0.26,0.09
-0.366,7.439,11.463,-0.95,-0.242,0.078
-2.317,6.646,10.427,-0.946,-0.254,0.054
-4.573,5.61,9.39,-0.925,-0.264,0.046
-6.829,4.756,8.293,-0.898,-0.278,0.066
-8.78,4.207,7.134,-0.886,-0.289,0.074
-9.695,4.024,6.159,-0.88,-0.302,0.082
-9.451,4.207,5.122,-0.861,-0.318,0.097
-8.598,3.841,3.963,-0.851,-0.32,0.099
-7.134,3.537,3.232,-0.867,-0.326,0.075
-5.305,3.415,2.378,-0.874,-0.337,0.054
-2.866,3.293,1.585,-0.873,-0.36,0.043
-0.732,2.744,0.549,-0.869,-0.384,0.028
1.22,2.5,-0.488,-0.857,-0.394,0.035
2.683,2.744,-2.012,-0.834,-0.397,0.058
3.841,2.988,-3.902,-0.813,-0.415,0.081
4.451,3.415,-5.549,-0.811,-0.426,0.089
4.268,4.024,-7.073,-0.813,-0.421,0.102
3.354,4.634,-8.537,-0.821,-0.408,0.112
1.89,4.939,-9.939,-0.83,-0.392,0.113
0.488,5.061,-11.098,-0.846,-0.394,0.108
-0.915,5.366,-12.439,-0.843,-0.379,0.111
-2.256,5.732,-13.598,-0.837,-0.371,0.116
-2.378,6.22,-14.878,-0.849,-0.381,0.104
-1.768,6.585,-16.098,-0.847,-0.369,0.1
-0.854,6.829,-16.89,-0.848,-0.355,0.103
0,7.073,-17.561,-0.853,-0.358,0.1
0.854,7.134,-18.049,-0.861,-0.364,0.094
1.829,7.317,-18.598,-0.865,-0.39,0.084
2.927,7.561,-19.451,-0.856,-0.407,0.085
2.195,7.012,-19.634,-0.843,-0.394,0.093
2.134,6.951,-20.183,-0.844,-0.386,0.102
2.561,7.073,-21.037,-0.854,-0.387,0.117
2.988,7.134,-21.402,-0.873,-0.387,0.127
3.293,6.585,-21.768,-0.826,-0.405,0.136
3.659,6.037,-22.561,-0.836,-0.375,0.114
4.939,5.61,-23.72,-0.833,-0.379,0.121
6.402,5.122,-25.061,-0.833,-0.36,0.115
7.744,4.756,-26.463,-0.821,-0.365,0.124
8.537,4.451,-27.866,-0.814,-0.35,0.101
8.902,4.024,-29.268,-0.821,-0.355,0.083
8.902,3.659,-30.671,-0.835,-0.351,0.058
8.598,3.293,-31.646,-0.843,-0.358,0.045
7.805,2.805,-32.317,-0.837,-0.368,0.045
6.951,1.89,-32.622,-0.841,-0.35,0.04
6.646,0.915,-32.622,-0.848,-0.334,0.043
7.195,0.122,-32.927,-0.842,-0.3,0.042
8.841,-1.22,-33.293,-0.849,-0.292,0.055
11.646,-2.988,-33.78,-0.837,-0.277,0.076
15.61,-4.634,-34.756,-0.832,-0.26,0.087
20.488,-6.463,-36.22,-0.824,-0.259,0.11
26.646,-8.476,-38.293,-0.796,-0.257,0.127
33.232,-10.671,-41.037,-0.778,-0.246,0.156
40.61,-12.683,-44.39,-0.768,-0.232,0.178
47.805,-14.817,-48.659,-0.762,-0.234,0.188
54.695,-17.012,-53.476,-0.752,-0.235,0.207
61.037,-19.085,-58.72,-0.739,-0.233,0.226
66.89,-21.341,-64.573,-0.733,-0.222,0.251
71.463,-23.232,-70.61,-0.723,-0.204,0.282
75.244,-25.061,-77.378,-0.715,-0.164,0.309
78.841,-26.707,-85.61,-0.697,-0.132,0.341
81.22,-28.049,-94.756,-0.683,-0.102,0.383
83.049,-28.78,-104.57,-0.678,-0.067,0.418
84.024,-29.268,-115.37,-0.661,-0.047,0.48
83.963,-29.573,-126.22,-0.654,-0.06,0.526
81.829,-29.817,-137.01,-0.662,-0.06,0.548
78.293,-29.817,-147.68,-0.682,-0.047,0.582
74.512,-29.817,-157.5,-0.699,-0.03,0.62
70,-29.939,-167.07,-0.707,-0.023,0.647
65.427,-29.817,-176.83,-0.709,-0.013,0.675
60.793,-29.817,-186.22,-0.708,0.001,0.701
55.915,-30.122,-195.79,-0.71,0.017,0.725
50.488,-30.732,-205.12,-0.705,0.031,0.755
44.329,-31.646,-214.94,-0.702,0.03,0.79
37.927,-33.171,-225.43,-0.712,0.01,0.824
31.463,-35.183,-236.04,-0.739,-0.025,0.852
24.329,-37.317,-245.85,-0.78,-0.063,0.892
17.073,-39.573,-254.51,-0.852,-0.093,0.929
8.841,-41.89,-262.62,-0.948,-0.094,0.938
-0.549,-43.902,-270.18,-1.086,-0.101,0.939
-11.646,-45.549,-277.07,-1.251,-0.157,0.931
-23.598,-46.098,-282.38,-1.394,-0.218,0.917
-35.122,-45.244,-285.79,-1.518,-0.257,0.903
-45.61,-44.329,-287.19,-1.669,-0.296,0.86
-56.402,-44.512,-286.16,-1.87,-0.35,0.811
-68.171,-46.951,-282.56,-2.141,-0.413,0.732
-80.793,-51.037,-275.85,-2.428,-0.512,0.6
-91.89,-55,-265.18,-2.627,-0.629,0.463
-102.62,-64.329,-249.57,-2.723,-0.782,0.342
-112.44,-77.805,-230.73,-2.778,-0.922,0.202
-115.55,-93.902,-210.24,-2.863,-1.044,-0.013
-110.37,-115.98,-185.49,-3.126,-1.159,-0.214
-92.744,-143.17,-156.59,-3.348,-1.289,-0.443
-57.073,-173.54,-125.43,-3.551,-1.49,-0.716
-9.512,-209.02,-92.927,-3.746,-1.675,-0.986
47.378,-250.31,-57.195,-3.98,-1.943,-1.219
109.15,-294.94,-18.11,-4.255,-2.199,-1.608
170.37,-339.57,24.329,-4.443,-2.513,-1.969
227.07,-381.52,70.061,-4.483,-2.891,-2.331
274.45,-419.33,118.54,-4.482,-3.261,-2.613
308.48,-452.26,169.51,-4.461,-3.447,-2.812
329.27,-480.18,222.87,-4.419,-3.515,-2.965
339.15,-504.21,277.56,-4.313,-3.559,-3.142
341.04,-525.06,331.46,-4.086,-3.537,-3.346
338.84,-541.52,382.87,-3.756,-3.505,-3.545
334.88,-554.09,430.73,-3.381,-3.472,-3.637
332.38,-564.45,473.6,-2.994,-3.369,-3.642
335.06,-572.38,511.52,-2.595,-3.276,-3.62
342.5,-578.48,545.06,-2.201,-3.219,-3.574
355.43,-583.6,573.84,-1.792,-3.249,-3.493
376.46,-586.4,597.68,-1.382,-3.302,-3.346
404.94,-587.44,616.28,-1.03,-3.318,-3.148
438.66,-585.98,628.48,-0.716,-3.353,-2.914
475.67,-581.28,634.82,-0.418,-3.381,-2.665
516.83,-572.5,634.7,-0.159,-3.358,-2.427
560.3,-561.1,627.38,0.083,-3.347,-2.28
601.77,-550.37,611.83,0.412,-3.357,-2.22
642.44,-543.48,585.18,0.774,-3.366,-2.151
685.06,-539.7,541.83,1.063,-3.396,-2.096
721.4,-536.1,477.62,1.301,-3.457,-2.021
750.91,-529.21,394.51,1.489,-3.456,-1.961
773.11,-515.91,301.1,1.604,-3.394,-1.934
787.68,-492.93,207.26,1.728,-3.148,-1.79
784.63,-461.83,122.68,1.911,-3.015,-1.48
761.04,-416.83,56.829,2.077,-3.068,-1.116
723.84,-352.74,12.134,2.218,-3.208,-0.767
670.06,-276.71,-12.073,2.438,-3.11,-0.752
589.21,-199.63,-22.866,2.876,-2.596,-1.037
482.87,-125.31,-25.915,3.424,-1.774,-1.415
353.29,-57.317,-24.939,4.106,-0.832,-1.772
206.4,-9.756,-20,4.73,-0.089,-2.016
54.512,17.561,-7.439,5.231,0.31,-2.161
-88.415,33.598,9.268,5.527,0.628,-2.202
-209.39,42.378,24.451,5.641,1.063,-1.862
-295.12,46.037,37.073,5.447,1.237,-1.303
-333.23,49.024,44.024,4.998,1.225,-0.755
-328.48,54.207,43.354,4.667,1.161,-0.242
-291.28,58.841,36.159,4.408,1.099,0.145
-232.81,59.512,24.817,4.014,0.76,0.234
-164.69,54.695,10.732,3.654,0.266,0.083
-97.073,44.695,-5.427,3.584,-0.171,-0.094
-40.549,31.402,-22.988,3.674,-0.565,-0.242
-1.951,18.232,-40.793,3.645,-0.789,-0.281
17.561,7.134,-58.232,3.368,-0.751,-0.173
18.537,-1.585,-74.146,2.958,-0.539,0.023
2.317,-7.439,-88.293,2.566,-0.236,0.183
-27.378,-11.585,-101.22,2.282,0.145,0.239
-64.573,-14.451,-113.23,2.097,0.566,0.218
-102.32,-16.28,-126.22,1.966,0.96,0.185
-137.99,-16.829,-139.94,1.865,1.25,0.188
-167.38,-16.037,-154.15,1.8,1.403,0.225
-189.69,-13.049,-168.66,1.731,1.412,0.29
-202.74,-8.293,-182.26,1.642,1.307,0.377
-204.39,-0.976,-194.94,1.578,1.138,0.491
-203.72,8.78,-205.12,1.569,0.898,0.572
-194.21,20.488,-215.43,1.596,0.624,0.729
-184.33,36.402,-224.21,1.531,0.316,0.907
-175.37,53.963,-229.02,1.439,0.001,1.092
-168.05,72.561,-231.04,1.395,-0.359,1.309
-164.57,92.439,-232.62,1.369,-0.643,1.313
-166.46,114.15,-234.27,1.392,-0.855,1.456
-175.55,137.38,-234.76,1.262,-1.062,1.521
-191.89,161.46,-233.29,1.078,-1.248,1.541
-212.99,185.85,-229.63,0.935,-1.376,1.543
-239.02,209.88,-223.6,0.861,-1.443,1.552
-267.19,234.33,-215.73,0.781,-1.471,1.588
-294.76,258.96,-206.28,0.66,-1.476,1.594
-319.02,283.35,-195.98,0.542,-1.481,1.579
-337.81,306.89,-185.98,0.435,-1.502,1.531
-351.1,328.6,-175.31,0.339,-1.53,1.421
-358.6,347.68,-163.78,0.287,-1.593,1.297
-359.69,364.27,-151.71,0.205,-1.65,1.141
-355.85,377.68,-139.57,0.136,-1.731,1.008
-348.05,388.35,-127.26,0.037,-1.827,0.871
-336.52,396.22,-114.94,-0.062,-1.895,0.751
-324.39,401.89,-102.32,-0.199,-1.939,0.646
-313.78,405.37,-89.207,-0.365,-1.966,0.537
-305.61,406.71,-75,-0.538,-1.963,0.416
-298.35,407.81,-60.488,-0.673,-1.896,0.332
-293.05,407.56,-45.793,-0.79,-1.819,0.25
-291.77,406.1,-30.732,-0.921,-1.702,0.143
-289.69,404.39,-15.244,-1.031,-1.596,0.042
-283.9,402.07,-1.098,-1.13,-1.423,-0.028
-276.34,397.32,11.098,-1.233,-1.216,-0.103
-268.48,390.98,22.317,-1.346,-1.036,-0.2
-258.78,383.54,32.683,-1.438,-0.939,-0.266
-245.18,375.73,41.524,-1.482,-0.862,-0.299
-227.99,368.17,49.146,-1.471,-0.819,-0.308
-209.15,360.31,55.488,-1.437,-0.772,-0.29
-187.93,352.81,60.061,-1.438,-0.689,-0.295
-166.1,345.73,63.72,-1.47,-0.573,-0.315
-144.76,338.29,66.098,-1.508,-0.484,-0.313
-124.33,330.24,67.439,-1.55,-0.419,-0.322
-106.89,321.65,67.927,-1.589,-0.334,-0.333
-91.402,312.62,67.378,-1.593,-0.255,-0.291
-76.829,302.38,66.341,-1.59,-0.168,-0.261
-66.037,292.32,65.122,-1.617,-0.09,-0.228
-57.744,282.01,63.659,-1.625,-0.021,-0.179
-52.195,271.1,61.951,-1.618,0.052,-0.151
-47.988,259.27,59.573,-1.591,0.139,-0.132
-44.451,247.01,56.585,-1.589,0.211,-0.11
-41.098,234.94,52.927,-1.612,0.301,-0.088
-37.439,222.38,48.232,-1.665,0.359,-0.07
-31.768,209.45,42.866,-1.718,0.388,-0.083
-24.695,196.22,37.195,-1.757,0.429,-0.099
-16.341,182.13,31.768,-1.752,0.465,-0.068
-6.402,167.5,27.073,-1.739,0.462,-0.01
4.695,152.62,22.378,-1.716,0.445,0.06
16.524,137.01,17.805,-1.694,0.417,0.11
28.11,121.28,12.927,-1.679,0.367,0.12
38.659,105.67,8.232,-1.685,0.354,0.135
48.598,90.549,4.146,-1.699,0.35,0.17
57.134,75.549,0.732,-1.701,0.301,0.205
63.11,61.402,-1.646,-1.681,0.254,0.238
67.012,49.085,-3.354,-1.649,0.236,0.279
66.585,38.598,-5.122,-1.63,0.236,0.32
60.976,30.976,-7.561,-1.616,0.229,0.35
47.5,26.829,-10.854,-1.593,0.193,0.372
26.951,26.951,-15.305,-1.567,0.161,0.375
0.061,31.28,-21.829,-1.55,0.181,0.363
-22.683,36.037,-28.537,-1.503,0.267,0.368
-31.768,35.854,-31.159,-1.422,0.429,0.426
-30.244,32.378,-29.512,-1.327,0.62,0.538
-21.524,29.817,-27.744,-1.25,0.746,0.683
-6.89,26.829,-28.354,-1.162,0.916,0.864
10.427,22.683,-30.061,-1.217,0.703,0.955
29.512,17.805,-31.22,-1.305,0.372,0.839
48.659,11.89,-31.463,-1.344,0.116,0.584
64.695,5.549,-30.793,-1.333,-0.164,0.309
76.402,-0.732,-28.841,-1.309,-0.421,0.076
83.049,-6.402,-25.976,-1.292,-0.54,-0.027
83.293,-10.915,-22.744,-1.3,-0.551,-0.047
77.317,-13.841,-19.024,-1.314,-0.54,-0.063
65,-15.427,-15.671,-1.308,-0.529,-0.099
47.988,-15.793,-12.744,-1.274,-0.472,-0.155
28.232,-15.061,-10.305,-1.206,-0.404,-0.197
8.598,-13.11,-8.841,-1.148,-0.355,-0.2
-8.537,-10.976,-8.11,-1.112,-0.306,-0.169
-22.5,-9.329,-7.317,-1.067,-0.257,-0.113
-30.854,-7.805,-6.402,-1.027,-0.199,-0.031
-33.537,-5.976,-5.793,-0.993,-0.142,0.042
-32.134,-4.451,-5.122,-0.977,-0.142,0.094
-26.829,-3.415,-4.39,-0.991,-0.215,0.1
-18.232,-2.561,-3.72,-0.993,-0.268,0.11
-8.537,-2.256,-3.11,-0.966,-0.293,0.115
1.098,-2.256,-2.134,-0.95,-0.332,0.102
9.634,-2.317,-1.22,-0.94,-0.366,0.079
16.037,-2.195,-0.671,-0.943,-0.382,0.072
20.305,-1.524,-0.183,-0.931,-0.384,0.067
22.866,-0.488,0.122,-0.916,-0.388,0.082
23.232,0.305,0.244,-0.909,-0.375,0.102
21.524,0.854,0.549,-0.917,-0.343,0.109
18.415,1.402,1.037,-0.922,-0.311,0.106
14.878,2.012,1.524,-0.938,-0.275,0.104
10.793,2.622,2.012,-0.955,-0.268,0.096
6.341,3.11,2.683,-0.957,-0.275,0.087
1.89,3.415,3.537,-0.95,-0.271,0.079
-2.256,3.841,4.39,-0.941,-0.263,0.076
-5.976,4.268,5.244,-0.937,-0.253,0.067
-9.024,5.061,5.915,-0.928,-0.244,0.056
-11.585,6.098,5.793,-0.92,-0.242,0.053
-13.11,7.073,5.61,-0.929,-0.246,0.051
-13.537,7.561,5,-0.936,-0.244,0.039
-14.024,7.988,4.146,-0.932,-0.242,0.039
-14.024,7.927,2.988,-0.921,-0.245,0.039
-13.659,7.561,1.768,-0.92,-0.268,0.046
-13.232,7.073,0.732,-0.909,-0.302,0.065
-12.988,6.585,-0.183,-0.891,-0.324,0.093
-12.866,6.341,-0.976,-0.875,-0.332,0.108
-13.049,6.22,-1.646,-0.861,-0.339,0.115
-13.354,6.341,-2.012,-0.848,-0.341,0.116
-13.537,6.829,-2.378,-0.838,-0.335,0.111
-13.476,7.5,-3.11,-0.835,-0.329,0.101
-13.537,8.171,-3.841,-0.839,-0.323,0.093
-13.293,9.024,-4.512,-0.842,-0.344,0.093
-12.927,9.756,-5.183,-0.849,-0.359,0.094
-12.439,10.244,-5.793,-0.851,-0.359,0.097
-12.195,10.976,-6.463,-0.846,-0.379,0.104
-11.402,11.768,-7.073,-0.852,-0.404,0.115
-10.061,12.134,-7.805,-0.852,-0.406,0.129
-9.207,12.256,-8.354,-0.842,-0.401,0.14
-8.476,12.317,-8.598,-0.83,-0.391,0.137
-7.988,12.439,-8.72,-0.834,-0.388,0.127
-7.805,12.744,-8.841,-0.852,-0.395,0.106
-8.659,13.415,-9.085,-0.856,-0.403,0.085
-9.939,14.207,-9.207,-0.841,-0.401,0.085
-11.524,15.061,-9.39,-0.837,-0.386,0.086
-13.293,15.732,-9.817,-0.848,-0.383,0.08
-15.488,16.159,-10.305,-0.866,-0.389,0.069
-17.683,16.463,-10.671,-0.878,-0.397,0.061
-19.634,16.402,-10.976,-0.893,-0.387,0.056
-21.646,16.463,-11.037,-0.904,-0.374,0.045
-22.866,16.768,-10.793,-0.918,-0.371,0.038
-23.293,16.951,-10.427,-0.916,-0.362,0.047
-22.805,16.585,-10.122,-0.906,-0.363,0.057
-21.829,15.854,-10.244,-0.891,-0.36,0.073
-20.122,15.061,-10.488,-0.88,-0.35,0.094
-17.561,14.085,-10.549,-0.879,-0.362,0.108
-14.451,13.171,-10.61,-0.882,-0.379,0.125
-10.305,12.378,-10.976,-0.878,-0.384,0.146
-6.341,11.098,-11.159,-0.874,-0.398,0.145
-3.354,9.329,-10.854,-0.868,-0.402,0.125
-1.037,7.683,-10.244,-0.876,-0.407,0.112
1.159,6.037,-9.695,-0.887,-0.403,0.114
2.5,4.39,-9.146,-0.895,-0.402,0.106
3.415,2.622,-8.78,-0.904,-0.405,0.098
4.573,0.915,-8.841,-0.905,-0.381,0.1
5.488,-1.159,-9.512,-0.901,-0.356,0.093
7.012,-3.72,-10.671,-0.893,-0.357,0.092
8.963,-6.341,-11.768,-0.882,-0.375,0.104
11.402,-9.207,-13.415,-0.867,-0.383,0.134
14.573,-12.439,-15.793,-0.856,-0.382,0.157
18.11,-15.732,-18.659,-0.848,-0.386,0.168
22.5,-18.537,-22.561,-0.829,-0.385,0.178
27.927,-21.28,-27.439,-0.8,-0.363,0.194
34.329,-23.659,-33.171,-0.762,-0.343,0.213
41.646,-25.305,-39.329,-0.729,-0.328,0.238
49.634,-26.829,-46.341,-0.712,-0.303,0.275
57.561,-28.537,-53.78,-0.703,-0.287,0.318
66.159,-30.671,-61.89,-0.693,-0.272,0.347
75.61,-32.5,-71.159,-0.679,-0.247,0.384
82.744,-34.268,-81.22,-0.649,-0.213,0.423
87.805,-35.549,-92.073,-0.613,-0.173,0.493
92.073,-36.159,-104.27,-0.579,-0.155,0.568
94.146,-36.585,-117.32,-0.563,-0.161,0.643
93.78,-37.378,-131.34,-0.551,-0.124,0.67
90.61,-38.659,-145.98,-0.556,-0.096,0.694
85.061,-39.817,-161.34,-0.514,-0.054,0.732
77.744,-40.61,-177.68,-0.477,-0.002,0.77
68.171,-41.585,-194.94,-0.462,0.021,0.814
57.012,-42.5,-212.38,-0.471,0.042,0.857
45,-43.72,-230.06,-0.51,0.064,0.885
32.256,-45.671,-247.44,-0.568,0.08,0.912
20.183,-48.11,-264.27,-0.628,0.067,0.936
9.573,-50.305,-280.18,-0.68,0.04,0.955
-0.122,-52.134,-295.06,-0.745,0.034,0.97
-7.683,-53.963,-308.9,-0.824,0.027,0.985
-13.232,-55.488,-321.77,-0.929,0.012,0.99
-16.951,-56.829,-333.9,-1.063,-0.001,0.992
-17.317,-58.78,-345.12,-1.211,-0.055,0.988
-16.341,-61.463,-355.18,-1.362,-0.167,0.978
-15.549,-63.841,-363.6,-1.482,-0.263,0.992
-14.451,-65.976,-369.76,-1.583,-0.383,1.031
-10.61,-65.305,-374.02,-1.684,-0.521,1.072
-5.427,-65.244,-376.04,-1.786,-0.632,1.118
-0.183,-65.976,-374.76,-1.915,-0.771,1.121
4.939,-68.049,-370.98,-2.082,-0.95,1.053
8.659,-72.683,-364.82,-2.357,-1.082,0.976
10.244,-79.268,-354.69,-2.563,-1.242,0.909
12.866,-85.915,-340.31,-2.742,-1.4,0.767
14.756,-96.646,-321.22,-2.862,-1.573,0.607
14.573,-111.46,-297.32,-2.996,-1.71,0.367
16.646,-128.78,-269.57,-3.213,-1.828,0.067
22.805,-153.29,-236.16,-3.58,-1.916,-0.244
34.573,-182.01,-196.46,-3.845,-1.997,-0.531
59.329,-213.11,-154.02,-4.01,-2.103,-0.832
95.488,-246.59,-109.76,-4.222,-2.286,-1.12
138.84,-282.68,-62.5,-4.391,-2.476,-1.407
187.19,-320.55,-12.5,-4.594,-2.683,-1.685
238.11,-356.58,40.854,-4.731,-2.918,-1.993
291.22,-388.23,96.89,-4.748,-3.292,-2.372
339.76,-415.67,154.45,-4.617,-3.777,-2.67
380.98,-438.9,212.99,-4.394,-4.124,-2.874
415.06,-456.04,271.28,-4.138,-4.31,-3.016
440.61,-468.23,327.62,-3.811,-4.404,-3.107
457.99,-476.46,381.1,-3.434,-4.515,-3.227
468.29,-480.79,431.46,-3.04,-4.625,-3.366
474.08,-481.46,477.19,-2.624,-4.63,-3.442
475.61,-479.33,517.74,-2.196,-4.532,-3.472
473.9,-476.46,554.21,-1.771,-4.369,-3.471
472.68,-473.23,586.95,-1.364,-4.189,-3.439
475.12,-469.57,615.49,-0.993,-4.062,-3.415
482.38,-465.61,639.51,-0.641,-3.99,-3.372
494.45,-461.52,657.38,-0.284,-3.938,-3.248
512.32,-456.58,667.13,0.014,-3.856,-3.078
537.87,-449.76,669.63,0.247,-3.796,-2.92
568.54,-440.67,665.49,0.475,-3.792,-2.753
604.21,-429.63,653.96,0.695,-3.855,-2.641
646.22,-417.32,635.18,0.922,-3.912,-2.541
687.74,-408.23,605.37,1.12,-3.958,-2.433
723.9,-401.89,559.39,1.298,-4.012,-2.314
754.82,-391.28,489.08,1.421,-4.07,-2.204
773.29,-369.76,391.16,1.502,-4.107,-2.125
779.02,-337.81,278.29,1.591,-4.143,-2.039
773.41,-300,168.11,1.735,-4.02,-2.002
743.84,-254.69,77.988,2.021,-3.64,-1.959
685.3,-193.35,17.439,2.5,-3.119,-1.646
616.1,-123.66,-15.976,2.941,-3,-1.497
527.07,-60.976,-28.049,3.461,-2.867,-1.441
412.74,-10.366,-22.012,3.771,-2.101,-1.573
275.92,23.232,-9.207,4.015,-0.948,-1.999
129.21,37.988,5.732,4.499,0.181,-2.566
-15.427,40.793,27.561,4.936,0.757,-2.935
-136.83,35.183,51.768,5.086,1.107,-2.95
-219.76,25.122,74.024,4.985,1.417,-2.465
-253.29,16.28,92.378,4.818,1.423,-1.673
-238.35,10.305,102.32,4.73,1.132,-0.776
-192.44,7.195,101.16,4.621,0.91,-0.12
-130,5.854,89.695,4.333,0.758,0.184
-66.037,4.451,71.707,3.945,0.362,0.028
-11.707,-1.28,51.585,3.803,-0.111,-0.354
25.549,-11.037,31.159,4.028,-0.432,-0.578
41.402,-20.305,10.671,4.282,-0.504,-0.618
35.244,-26.89,-10.427,4.219,-0.262,-0.447
10.244,-31.159,-31.89,3.767,0.228,-0.219
-26.646,-32.683,-52.561,3.176,0.776,-0.113
-68.11,-32.317,-73.11,2.746,1.327,-0.126
-107.07,-31.159,-95.122,2.526,1.83,-0.177
-137.68,-28.598,-119.02,2.426,2.222,-0.174
-159.09,-24.939,-143.29,2.34,2.478,-0.083
-170.91,-20.915,-165.98,2.229,2.541,0.04
-171.71,-16.524,-186.4,2.162,2.404,0.17
-164.09,-12.195,-204.39,2.19,2.139,0.339
-150.43,-8.049,-219.76,2.227,1.824,0.521
-134.39,-3.537,-232.19,2.207,1.469,0.692
-119.57,1.951,-242.32,2.149,1.084,0.872
-108.48,9.634,-251.04,2.109,0.707,1.071
-103.78,21.463,-257.56,2.09,0.354,1.251
-107.01,36.341,-261.46,2.049,0.045,1.428
-118.48,53.963,-262.99,2.003,-0.241,1.576
-137.19,74.329,-262.81,1.978,-0.488,1.662
-161.59,98.232,-261.04,1.965,-0.668,1.728
-189.15,124.15,-257.87,1.886,-0.817,1.738
-218.66,150.49,-252.99,1.769,-0.949,1.693
-247.44,177.07,-246.16,1.669,-1.071,1.659
-273.29,204.51,-237.62,1.595,-1.184,1.637
-295.92,232.01,-227.81,1.509,-1.303,1.633
-313.96,259.08,-217.19,1.395,-1.446,1.629
-327.26,284.88,-206.46,1.272,-1.612,1.618
-334.63,309.51,-195.43,1.153,-1.785,1.625
-336.65,332.26,-183.96,1.029,-1.957,1.574
-334.82,351.71,-172.32,0.902,-2.121,1.45
-329.63,368.17,-159.88,0.771,-2.245,1.301
-321.52,381.65,-146.46,0.628,-2.352,1.151
-311.58,392.56,-132.44,0.508,-2.462,1.027
-299.76,400.18,-118.84,0.379,-2.531,0.87
-286.28,404.51,-105.06,0.244,-2.525,0.715
-273.6,405.73,-91.098,0.096,-2.465,0.541
-262.13,403.54,-77.317,-0.069,-2.404,0.375
-251.83,398.84,-64.268,-0.235,-2.36,0.228
-243.84,393.17,-52.134,-0.38,-2.325,0.076
-238.9,386.04,-40.488,-0.502,-2.258,-0.043
-237.01,377.74,-29.329,-0.65,-2.156,-0.18
-237.19,368.66,-18.293,-0.806,-2.018,-0.29
-237.44,359.39,-7.378,-0.964,-1.849,-0.381
-236.28,349.57,3.171,-1.101,-1.713,-0.484
-233.9,339.15,12.683,-1.182,-1.585,-0.562
-228.9,328.29,21.22,-1.25,-1.428,-0.634
-220.49,316.77,28.049,-1.342,-1.235,-0.748
-209.02,305.06,33.354,-1.439,-1.069,-0.841
-193.54,293.48,37.439,-1.514,-0.992,-0.896
-174.76,282.68,40.549,-1.554,-0.942,-0.897
-152.87,272.5,42.561,-1.578,-0.868,-0.868
-130.31,262.19,43.841,-1.616,-0.758,-0.827
-108.96,252.01,44.939,-1.663,-0.661,-0.772
-88.232,242.13,45.671,-1.703,-0.585,-0.689
-68.415,233.48,45.671,-1.709,-0.512,-0.572
-50.976,226.65,44.39,-1.691,-0.408,-0.439
-37.195,220.73,41.951,-1.684,-0.287,-0.333
-27.439,215.12,38.841,-1.698,-0.153,-0.28
-22.5,209.63,35.915,-1.711,-0.025,-0.241
-22.561,204.57,33.354,-1.721,0.076,-0.185
-25.305,199.88,31.22,-1.746,0.168,-0.159
-30.061,195.18,28.476,-1.757,0.236,-0.15
-35.732,191.77,25.427,-1.719,0.321,-0.092
-40.854,188.9,22.927,-1.689,0.451,-0.015
-44.207,186.59,20.427,-1.714,0.543,0.048
-44.573,184.57,18.354,-1.753,0.591,0.1
-42.134,180.98,17.073,-1.78,0.631,0.164
-36.22,175.24,16.341,-1.821,0.636,0.217
-26.951,168.05,16.037,-1.872,0.631,0.208
-15.122,160,16.402,-1.903,0.631,0.197
-0.488,151.59,16.646,-1.884,0.591,0.201
16.159,143.35,16.341,-1.853,0.526,0.229
32.439,135.31,15.366,-1.82,0.468,0.269
47.622,127.13,13.293,-1.765,0.401,0.338
60.244,118.48,10.793,-1.707,0.328,0.389
68.11,109.82,7.927,-1.672,0.268,0.397
70.671,101.52,5.61,-1.605,0.189,0.414
67.439,93.78,3.11,-1.556,0.146,0.393
59.573,86.707,0.427,-1.53,0.151,0.355
49.146,80.366,-1.89,-1.503,0.2,0.331
36.463,74.939,-4.878,-1.479,0.249,0.303
22.683,70.305,-8.171,-1.46,0.309,0.277
9.939,66.89,-12.134,-1.455,0.363,0.259
-0.915,64.451,-17.195,-1.458,0.357,0.251
-8.415,62.134,-23.049,-1.428,0.335,0.267
-10.061,58.659,-28.293,-1.372,0.323,0.301
-5.671,53.841,-32.683,-1.317,0.327,0.347
3.902,48.476,-35.915,-1.251,0.332,0.396
16.829,42.378,-38.841,-1.187,0.277,0.45
31.89,36.037,-41.341,-1.139,0.199,0.489
47.012,29.573,-43.11,-1.122,0.12,0.446
60.671,23.598,-45.305,-1.106,0.028,0.363
72.073,18.049,-47.195,-1.105,-0.099,0.233
79.146,12.073,-47.988,-1.118,-0.239,0.111
81.463,6.89,-47.805,-1.132,-0.359,0.035
79.756,2.927,-46.463,-1.149,-0.41,0.002
74.085,-0.366,-44.39,-1.168,-0.43,-0.008
64.695,-3.11,-41.768,-1.167,-0.448,-0.024
52.622,-5.122,-38.415,-1.149,-0.424,-0.036
38.902,-6.707,-35,-1.144,-0.383,-0.048
24.939,-7.866,-31.89,-1.146,-0.348,-0.076
12.195,-8.354,-28.841,-1.138,-0.305,-0.106
1.22,-8.537,-26.22,-1.109,-0.267,-0.127
-7.5,-8.415,-23.78,-1.086,-0.25,-0.116
-13.171,-7.988,-21.341,-1.076,-0.268,-0.096
-16.646,-7.256,-18.232,-1.082,-0.298,-0.071
-18.415,-6.28,-14.817,-1.088,-0.333,-0.054
-18.598,-5.244,-11.829,-1.102,-0.361,-0.052
-17.073,-4.146,-9.207,-1.096,-0.378,-0.04
-14.634,-3.171,-7.134,-1.074,-0.385,-0.022
-12.195,-2.317,-5.122,-1.067,-0.395,-0.003
-10.61,-1.28,-2.927,-1.07,-0.41,0.021
-9.756,0.244,-0.793,-1.07,-0.418,0.034
-10.061,1.768,1.098,-1.065,-0.402,0.031
-10.671,3.171,2.805,-1.055,-0.36,0.038
-11.159,4.329,3.963,-1.058,-0.326,0.046
-11.402,4.939,4.756,-1.07,-0.292,0.059
-11.585,5.244,5.305,-1.064,-0.266,0.08
-11.585,5.061,6.159,-1.062,-0.251,0.09
-11.22,4.878,7.256,-1.073,-0.224,0.099
-10.793,4.756,8.293,-1.071,-0.216,0.101
-10.793,4.207,9.268,-1.072,-0.228,0.088
-11.159,3.476,10,-1.075,-0.234,0.059
-12.012,2.622,10.549,-1.076,-0.236,0.031
-13.476,1.646,10.915,-1.086,-0.234,0.011
-15.671,0.793,11.585,-1.093,-0.251,0.001
-18.232,0.366,12.256,-1.079,-0.275,0.003
-20.549,0.183,12.561,-1.053,-0.284,0.019
-22.683,-0.305,12.622,-1.032,-0.291,0.032
-24.451,-0.549,12.561,-1.012,-0.294,0.043
-25.976,-0.854,12.622,-0.991,-0.294,0.05
-27.317,-1.341,12.5,-0.973,-0.308,0.053
-28.11,-1.768,12.195,-0.959,-0.316,0.054
-28.293,-1.768,12.073,-0.948,-0.332,0.073
-27.927,-1.585,11.89,-0.937,-0.354,0.094
-26.829,-1.098,11.402,-0.92,-0.375,0.103
-25.61,-0.671,10.549,-0.9,-0.39,0.106
-23.78,-0.427,9.817,-0.881,-0.403,0.127
-21.646,-0.183,8.902,-0.871,-0.424,0.135
-19.451,0.366,7.866,-0.863,-0.434,0.147
-16.951,1.037,6.768,-0.845,-0.441,0.155
-14.207,1.707,5.305,-0.837,-0.455,0.168
-12.378,2.439,4.085,-0.833,-0.451,0.173
-11.341,3.232,3.171,-0.83,-0.438,0.17
-10.976,3.72,2.256,-0.839,-0.428,0.152
-11.463,4.268,1.28,-0.837,-0.425,0.142
-13.049,4.878,0.427,-0.827,-0.435,0.137
-15,5.549,-0.305,-0.82,-0.442,0.138
-17.195,6.098,-1.28,-0.827,-0.429,0.129
-19.268,6.707,-2.317,-0.833,-0.412,0.107
-21.402,7.195,-3.841,-0.831,-0.392,0.098
-22.805,7.805,-5.488,-0.829,-0.367,0.094
-23.841,8.72,-7.073,-0.836,-0.357,0.089
-24.146,9.756,-8.963,-0.84,-0.354,0.09
-23.841,10.915,-10.854,-0.845,-0.335,0.091
-23.354,11.768,-12.561,-0.851,-0.313,0.084
-22.378,12.5,-14.024,-0.852,-0.311,0.082
-20.976,12.988,-15.366,-0.854,-0.322,0.074
-19.024,13.049,-16.037,-0.846,-0.338,0.078
-16.585,13.293,-16.341,-0.821,-0.359,0.088
-13.72,13.476,-16.524,-0.805,-0.381,0.099
-10.488,13.232,-16.646,-0.799,-0.406,0.111
-6.341,12.683,-16.463,-0.804,-0.422,0.119
-1.524,11.646,-16.159,-0.802,-0.426,0.138
4.268,10.061,-16.037,-0.792,-0.433,0.162
10.732,8.11,-16.098,-0.775,-0.452,0.175
17.073,6.037,-16.768,-0.749,-0.465,0.183
23.415,3.902,-17.927,-0.729,-0.464,0.199
29.817,1.829,-19.451,-0.717,-0.474,0.216
35.854,-0.244,-21.524,-0.701,-0.49,0.226
41.341,-2.378,-24.573,-0.687,-0.491,0.246
46.037,-4.756,-28.232,-0.686,-0.479,0.26
50.549,-7.439,-32.561,-0.694,-0.45,0.268
55,-9.878,-38.049,-0.698,-0.439,0.287
59.451,-12.378,-44.268,-0.702,-0.438,0.311
64.268,-14.939,-51.159,-0.705,-0.416,0.354
69.085,-17.561,-58.659,-0.701,-0.383,0.385
72.5,-20.305,-66.646,-0.687,-0.338,0.409
75.549,-23.049,-75.549,-0.672,-0.292,0.429
77.256,-25.671,-85.244,-0.649,-0.259,0.466
77.134,-27.805,-95.366,-0.625,-0.219,0.503
75.366,-29.329,-106.4,-0.603,-0.152,0.538
71.829,-30.305,-118.9,-0.575,-0.101,0.576
66.951,-30.671,-132.19,-0.564,-0.05,0.598
60.61,-31.402,-145.67,-0.593,0.008,0.591
53.293,-32.012,-159.15,-0.651,0.048,0.592
45.793,-32.439,-172.07,-0.681,0.105,0.605
37.988,-33.11,-184.82,-0.694,0.133,0.625
30.366,-33.659,-197.38,-0.711,0.134,0.657
22.988,-34.024,-210.31,-0.727,0.146,0.679
16.098,-34.268,-223.11,-0.751,0.147,0.708
9.573,-34.939,-235.49,-0.779,0.16,0.722
3.354,-35.244,-247.5,-0.813,0.15,0.734
-2.744,-35.244,-259.76,-0.858,0.136,0.737
-8.659,-35.122,-271.95,-0.938,0.104,0.732
-13.963,-34.39,-282.93,-1.038,0.061,0.732
-19.268,-33.293,-292.74,-1.141,0.019,0.717
-24.512,-32.256,-301.34,-1.237,-0.01,0.692
-30.183,-31.89,-308.29,-1.341,-0.054,0.641
-35.854,-31.829,-313.29,-1.461,-0.12,0.6
-40.122,-32.561,-315.67,-1.583,-0.184,0.563
-43.902,-34.634,-315.24,-1.686,-0.268,0.532
-47.866,-38.902,-311.65,-1.776,-0.357,0.492
-51.768,-46.098,-305.37,-1.894,-0.451,0.426
-55.183,-55.671,-296.28,-2.039,-0.557,0.365
-57.866,-68.293,-284.57,-2.202,-0.699,0.278
-59.146,-84.512,-271.16,-2.355,-0.874,0.172
-56.768,-104.15,-255.73,-2.523,-1.021,0.026
-47.683,-125.73,-237.01,-2.723,-1.152,-0.134
-31.524,-150.06,-215.24,-2.936,-1.323,-0.318
-6.037,-178.78,-189.45,-3.18,-1.5,-0.554
27.378,-211.34,-160.79,-3.432,-1.645,-0.819
65.122,-248.35,-128.9,-3.686,-1.806,-1.083
106.28,-288.9,-93.11,-3.934,-2.038,-1.36
148.54,-329.94,-54.146,-4.123,-2.359,-1.666
186.22,-370.73,-11.829,-4.228,-2.679,-1.999
219.51,-410.61,33.11,-4.244,-2.979,-2.297
247.99,-446.58,80.183,-4.262,-3.19,-2.543
271.16,-477.93,130.31,-4.314,-3.311,-2.772
289.88,-506.16,182.99,-4.257,-3.472,-2.968
304.88,-531.65,236.16,-4.095,-3.536,-3.109
316.58,-554.02,289.63,-3.93,-3.492,-3.281
326.95,-572.62,343.42,-3.762,-3.545,-3.445
337.32,-586.77,396.04,-3.524,-3.68,-3.583
350.61,-596.77,445.49,-3.175,-3.759,-3.638
368.9,-603.23,489.88,-2.77,-3.8,-3.596
392.07,-606.4,528.29,-2.368,-3.841,-3.487
420.79,-606.52,560.85,-1.977,-3.878,-3.333
455.18,-603.05,586.95,-1.563,-3.922,-3.177
496.04,-595.3,607.5,-1.156,-3.953,-3.005
540.06,-584.02,623.05,-0.773,-3.957,-2.835
585.3,-570.61,633.72,-0.421,-3.976,-2.646
633.17,-554.63,638.84,-0.084,-3.965,-2.477
682.74,-535.79,636.65,0.229,-3.93,-2.367
730.43,-517.56,625.91,0.563,-3.925,-2.306
772.38,-504.76,605.12,0.933,-3.908,-2.277
807.56,-497.13,569.21,1.283,-3.858,-2.226
833.78,-489.08,512.87,1.541,-3.845,-2.162
848.41,-474.82,436.46,1.708,-3.917,-2.098
852.62,-451.77,346.4,1.835,-4.015,-2.042
845.49,-420.43,253.84,2.015,-4.036,-1.938
815.37,-378.84,172.74,2.274,-3.784,-1.731
757.44,-322.38,111.83,2.513,-3.462,-1.463
678.84,-251.77,71.951,2.671,-3.259,-1.353
586.52,-177.13,46.829,2.93,-3.102,-1.434
471.52,-107.5,32.317,3.438,-2.646,-1.542
335.61,-44.878,25.732,4.021,-1.759,-1.681
184.02,1.463,23.171,4.591,-0.731,-2.058
35.183,24.939,24.695,5.146,0.086,-2.461
-92.561,35.854,29.634,5.525,0.756,-2.661
-191.1,40.854,33.72,5.61,1.299,-2.552
-248.05,41.646,35.183,5.376,1.521,-2.028
-258.9,41.28,31.89,4.846,1.425,-1.393
-231.16,39.878,22.012,4.372,1.274,-0.765
-178.48,38.11,6.524,4.041,1.048,-0.293
-114.76,34.207,-10.793,3.733,0.655,-0.146
-53.354,25.793,-26.829,3.543,0.151,-0.213
-4.207,13.354,-40.183,3.639,-0.284,-0.341
24.878,-0.305,-52.134,3.853,-0.562,-0.435
32.439,-12.927,-64.39,3.833,-0.644,-0.423
21.22,-23.171,-77.927,3.459,-0.482,-0.327
-4.756,-30.488,-92.805,2.969,-0.103,-0.195
-40.427,-35.366,-107.5,2.602,0.323,-0.098
-78.476,-37.744,-121.95,2.386,0.71,-0.05
-112.93,-38.415,-136.59,2.233,1.075,-0.036
-141.46,-37.622,-151.71,2.11,1.36,-0.004
-163.66,-35.976,-165.91,2.018,1.519,0.059
-178.48,-33.598,-177.99,1.95,1.525,0.146
-184.69,-29.878,-188.54,1.888,1.38,0.237
-183.29,-24.756,-198.17,1.874,1.15,0.358
-175.79,-17.805,-206.83,1.867,0.892,0.543
-164.82,-8.415,-214.45,1.818,0.6,0.758
-153.9,3.537,-220.73,1.746,0.292,0.961
-145.06,18.841,-225.18,1.686,-0.014,1.15
-140.43,36.22,-227.38,1.635,-0.3,1.301
-141.71,55.549,-228.05,1.578,-0.553,1.431
-148.84,77.5,-227.13,1.514,-0.774,1.539
-162.19,101.4,-224.94,1.422,-0.927,1.64
-181.34,127.07,-221.95,1.292,-1.057,1.699
-205.79,154.21,-217.68,1.146,-1.199,1.719
-233.17,181.77,-212.01,1.022,-1.298,1.728
-262.44,208.78,-205.49,0.926,-1.367,1.696
-291.16,235.67,-198.41,0.862,-1.413,1.653
-317.99,262.62,-190.55,0.774,-1.418,1.619
-342.13,289.15,-181.46,0.656,-1.457,1.579
-360.12,315.06,-171.04,0.562,-1.545,1.523
-370.49,340.37,-159.94,0.5,-1.597,1.44
-371.04,363.6,-148.29,0.424,-1.628,1.339
-362.5,382.99,-136.4,0.334,-1.684,1.198
-346.46,397.19,-124.69,0.238,-1.716,1.066
-323.35,406.52,-113.29,0.116,-1.761,0.96
-296.4,412.38,-101.89,-0.026,-1.861,0.837
-268.54,415.79,-90.793,-0.161,-1.984,0.748
-244.21,416.83,-79.939,-0.297,-2.065,0.631
-225.49,416.52,-69.146,-0.437,-2.088,0.506
-213.84,416.4,-58.354,-0.564,-2.013,0.406
-208.23,415.43,-48.049,-0.693,-1.906,0.313
-207.93,413.17,-37.378,-0.811,-1.781,0.212
-212.32,410.18,-25.976,-0.9,-1.627,0.116
-220.06,407.81,-14.024,-0.975,-1.491,0.023
-227.5,405.49,-1.829,-1.036,-1.347,-0.102
-234.69,401.52,9.634,-1.1,-1.182,-0.219
-238.84,396.22,20.915,-1.172,-0.964,-0.301
-237.44,389.39,31.037,-1.237,-0.765,-0.324
-230.73,381.46,39.512,-1.288,-0.643,-0.344
-220.43,372.68,46.524,-1.334,-0.557,-0.402
-206.4,363.29,52.195,-1.355,-0.524,-0.418
-187.68,354.15,55.854,-1.366,-0.449,-0.383
-167.19,345,57.683,-1.399,-0.355,-0.369
-145.85,336.34,57.683,-1.428,-0.328,-0.383
-123.66,327.26,56.402,-1.423,-0.292,-0.374
-103.78,318.29,54.573,-1.419,-0.202,-0.346
-84.756,309.63,51.829,-1.43,-0.14,-0.298
-68.11,300.55,48.354,-1.448,-0.088,-0.265
-54.695,290.79,43.902,-1.496,-0.017,-0.234
-42.073,280.49,38.72,-1.54,0.065,-0.205
-32.012,268.66,33.171,-1.582,0.171,-0.184
-24.573,256.1,27.073,-1.617,0.24,-0.146
-18.11,243.41,21.037,-1.631,0.295,-0.114
-13.049,230.43,15.305,-1.634,0.344,-0.082
-9.939,216.65,10.183,-1.634,0.389,-0.04
-7.073,202.93,5.793,-1.649,0.432,-0.006
-4.695,190.18,1.768,-1.677,0.482,0.02
-2.988,177.38,-2.378,-1.696,0.521,0.015
-1.037,163.54,-6.22,-1.706,0.516,0.01
2.256,148.72,-8.902,-1.733,0.537,-0.001
6.341,133.35,-10.976,-1.743,0.572,0.023
11.585,118.05,-12.195,-1.752,0.547,0.049
16.829,102.74,-11.524,-1.753,0.48,0.099
23.232,89.085,-10.915,-1.748,0.443,0.185
28.902,76.341,-10.671,-1.747,0.419,0.265
30.61,64.695,-9.512,-1.746,0.398,0.344
29.024,55.793,-9.329,-1.678,0.369,0.407
19.878,50.976,-10.793,-1.675,0.363,0.422
4.878,48.902,-13.11,-1.625,0.339,0.451
-10.427,47.439,-17.012,-1.566,0.349,0.446
-21.585,46.159,-21.646,-1.496,0.375,0.444
-23.415,43.537,-24.878,-1.385,0.444,0.471
-17.683,39.268,-26.463,-1.318,0.556,0.536
-8.476,34.512,-27.439,-1.284,0.566,0.567
3.598,29.451,-29.024,-1.262,0.546,0.613
17.683,23.78,-31.463,-1.255,0.45,0.665
31.951,17.561,-34.756,-1.29,0.253,0.58
45.122,10.732,-37.012,-1.311,0.026,0.41
56.341,4.512,-37.744,-1.293,-0.201,0.239
64.39,-1.037,-37.683,-1.279,-0.373,0.086
68.049,-5.732,-37.073,-1.274,-0.45,-0.02
66.524,-9.512,-35.61,-1.271,-0.495,-0.091
59.451,-11.951,-33.476,-1.274,-0.53,-0.13
47.866,-13.11,-31.098,-1.257,-0.538,-0.166
33.78,-13.293,-29.207,-1.197,-0.531,-0.19
19.451,-12.744,-27.5,-1.111,-0.505,-0.188
7.134,-11.951,-26.098,-1.039,-0.477,-0.165
-2.805,-11.037,-24.939,-1.001,-0.454,-0.117
-9.634,-10,-23.537,-0.969,-0.434,-0.064
-11.037,-8.232,-22.378,-0.933,-0.417,-0.013
-7.988,-5.976,-21.585,-0.91,-0.409,0.015
-2.988,-4.39,-21.037,-0.918,-0.411,0.016
3.476,-3.537,-20.122,-0.931,-0.423,0.019
10.488,-2.805,-19.146,-0.948,-0.42,0.016
16.585,-2.012,-18.476,-0.964,-0.415,0.014
21.159,-1.22,-17.683,-0.96,-0.433,0.021
24.39,-0.061,-16.768,-0.953,-0.455,0.036
25.793,0.976,-16.22,-0.942,-0.414,0.066
25.366,1.646,-15.488,-0.929,-0.376,0.099
23.72,2.256,-14.512,-0.95,-0.364,0.106
20.854,2.744,-13.171,-0.99,-0.325,0.108
17.683,2.744,-11.463,-1.017,-0.276,0.104
13.537,2.5,-10,-1.042,-0.24,0.085
9.024,2.134,-8.11,-1.065,-0.204,0.068
3.902,1.646,-5.976,-1.081,-0.193,0.048
-1.22,1.341,-3.78,-1.077,-0.191,0.032
-5.793,0.854,-1.951,-1.072,-0.2,0.03
-10.488,0.427,-0.305,-1.068,-0.186,0.028
-14.512,-0.061,1.22,-1.067,-0.167,0.027
-17.073,-0.488,2.256,-1.084,-0.161,0.011
-18.537,-0.854,3.415,-1.116,-0.163,-0.006
-19.207,-1.341,4.39,-1.114,-0.184,-0.01
-18.841,-1.646,5,-1.087,-0.204,0.007
-17.988,-1.585,5.671,-1.07,-0.213,0.02
-17.317,-1.89,5.854,-1.05,-0.24,0.03
-17.012,-2.195,6.037,-1.023,-0.278,0.039
-16.646,-2.134,5.793,-0.999,-0.305,0.057
-16.341,-2.134,5.122,-0.979,-0.317,0.088
-16.707,-2.195,4.268,-0.975,-0.336,0.105
-17.5,-2.195,3.537,-0.97,-0.353,0.111
-18.232,-1.951,2.805,-0.959,-0.349,0.108
-18.841,-2.073,1.89,-0.953,-0.354,0.093
-19.634,-2.012,0.976,-0.943,-0.367,0.076
-20.061,-1.646,0.427,-0.927,-0.37,0.076
-20.061,-0.915,0,-0.915,-0.374,0.075
-19.695,-0.183,-0.366,-0.912,-0.376,0.057
-19.512,0.61,-0.854,-0.902,-0.374,0.039
-19.268,1.585,-1.341,-0.892,-0.379,0.026
-18.659,2.317,-1.768,-0.882,-0.389,0.024
-17.927,3.293,-2.378,-0.855,-0.402,0.024
-17.5,4.39,-3.232,-0.833,-0.425,0.037
-17.805,5.488,-4.085,-0.816,-0.449,0.044
-18.11,7.012,-5.061,-0.814,-0.467,0.047
-19.024,8.78,-6.341,-0.823,-0.47,0.049
-20.976,10.305,-7.866,-0.828,-0.467,0.048
-23.476,11.89,-9.024,-0.843,-0.481,0.046
-25.976,13.78,-10.549,-0.849,-0.486,0.046
-28.232,15.549,-11.951,-0.858,-0.479,0.042
-29.512,17.134,-12.988,-0.872,-0.469,0.035
-29.329,19.024,-14.146,-0.875,-0.465,0.043
-27.927,20.549,-15.061,-0.868,-0.445,0.053
-25.854,21.341,-15.549,-0.86,-0.417,0.062
-23.293,21.524,-15.732,-0.862,-0.403,0.063
-20.122,21.951,-15.915,-0.854,-0.395,0.07
-17.561,22.317,-16.463,-0.84,-0.406,0.065
-15.61,22.256,-16.829,-0.824,-0.422,0.063
-14.634,22.317,-16.951,-0.804,-0.427,0.081
-14.573,22.134,-17.073,-0.802,-0.417,0.101
-14.756,21.951,-17.195,-0.817,-0.422,0.116
-15.061,21.646,-17.378,-0.833,-0.438,0.125
-15.61,20.915,-17.683,-0.834,-0.443,0.139
-15.732,20.122,-18.049,-0.825,-0.435,0.144
-15.427,19.39,-18.171,-0.833,-0.423,0.154
-14.878,18.598,-18.293,-0.854,-0.421,0.149
-12.805,17.622,-18.354,-0.876,-0.419,0.143
-9.634,16.098,-18.354,-0.896,-0.395,0.129
-5.671,14.207,-18.415,-0.896,-0.377,0.129
-1.098,12.012,-18.415,-0.887,-0.389,0.15
4.329,9.451,-18.598,-0.871,-0.4,0.167
9.634,6.89,-18.902,-0.853,-0.402,0.167
14.878,4.268,-19.573,-0.835,-0.403,0.175
20,1.646,-20.732,-0.816,-0.408,0.196
24.878,-0.671,-22.256,-0.813,-0.404,0.207
29.512,-3.11,-24.39,-0.804,-0.403,0.218
34.634,-5.61,-26.89,-0.802,-0.406,0.216
39.695,-8.171,-30,-0.806,-0.409,0.211
45.122,-10.61,-33.354,-0.805,-0.407,0.225
51.341,-13.11,-37.012,-0.808,-0.397,0.226
58.11,-15.61,-41.22,-0.809,-0.381,0.228
65.366,-18.415,-45.915,-0.808,-0.366,0.217
73.049,-21.402,-50.793,-0.792,-0.358,0.221
80.366,-24.695,-55.976,-0.774,-0.352,0.233
86.829,-27.5,-62.134,-0.757,-0.332,0.243
91.89,-30.305,-68.415,-0.742,-0.303,0.272
99.39,-33.415,-75.183,-0.717,-0.292,0.328
110.49,-36.524,-83.476,-0.672,-0.266,0.371
118.9,-39.207,-92.195,-0.65,-0.226,0.419
124.15,-41.22,-101.1,-0.615,-0.184,0.487
127.32,-43.232,-110.61,-0.564,-0.155,0.564
127.99,-44.939,-120.85,-0.528,-0.143,0.627
125.98,-46.159,-132.44,-0.502,-0.08,0.652
121.71,-46.829,-145.06,-0.508,-0.045,0.68
115.98,-46.646,-158.66,-0.51,0,0.694
108.78,-46.22,-172.99,-0.514,0.059,0.727
100.92,-45.305,-187.68,-0.515,0.098,0.777
92.317,-43.963,-202.26,-0.537,0.109,0.81
82.683,-43.232,-216.65,-0.562,0.113,0.857
71.707,-42.866,-231.04,-0.59,0.123,0.902
60.366,-42.683,-245.67,-0.626,0.138,0.92
49.146,-42.988,-260.12,-0.652,0.149,0.953
37.744,-43.232,-274.45,-0.68,0.141,0.984
25.549,-43.902,-288.48,-0.713,0.137,1.01
12.805,-45,-302.01,-0.773,0.124,1.007
0.244,-46.037,-315.18,-0.86,0.104,1.002
-11.402,-46.89,-327.07,-0.957,0.05,0.995
-22.073,-47.683,-336.95,-1.051,-0.031,0.983
-30.549,-48.415,-344.39,-1.157,-0.119,0.943
-36.829,-48.72,-349.51,-1.288,-0.191,0.897
-40.488,-48.841,-352.44,-1.423,-0.257,0.885
-40.793,-49.573,-353.23,-1.564,-0.397,0.913
-39.024,-50.976,-352.01,-1.704,-0.594,0.913
-34.939,-53.415,-348.6,-1.79,-0.787,0.864
-28.902,-57.744,-342.93,-1.86,-0.984,0.791
-21.646,-65.061,-333.17,-1.969,-1.207,0.687
-13.293,-76.585,-318.66,-2.15,-1.439,0.52
-2.073,-93.598,-299.08,-2.41,-1.687,0.283
11.098,-116.58,-274.57,-2.71,-1.918,-0.038
26.22,-150,-243.41,-2.992,-2.178,-0.368
44.695,-189.27,-205.06,-3.247,-2.479,-0.723
68.963,-233.05,-160.37,-3.45,-2.766,-1.069
97.683,-280.79,-109.45,-3.732,-3.044,-1.294
130,-331.22,-54.573,-3.958,-3.271,-1.604
164.39,-383.17,3.171,-4.254,-3.502,-1.982
200.31,-433.11,64.268,-4.492,-3.711,-2.334
236.83,-478.78,128.66,-4.686,-3.97,-2.721
269.51,-519.39,195.31,-4.767,-4.216,-3.029
298.05,-553.66,263.78,-4.74,-4.38,-3.268
322.74,-580.73,332.44,-4.638,-4.526,-3.454
344.76,-600.18,398.78,-4.418,-4.668,-3.565
364.21,-612.44,461.83,-4.091,-4.736,-3.633
382.19,-618.9,519.76,-3.692,-4.689,-3.638
400.12,-620.3,571.22,-3.266,-4.564,-3.592
418.6,-616.65,616.95,-2.801,-4.455,-3.543
437.13,-609.33,657.8,-2.295,-4.359,-3.466
455.37,-599.57,694.45,-1.763,-4.288,-3.399
476.77,-587.87,727.62,-1.232,-4.19,-3.349
500.85,-574.27,755.61,-0.703,-4.095,-3.245
525.98,-559.15,776.28,-0.224,-4.027,-3.059
555.24,-541.4,789.51,0.153,-3.97,-2.836
587.01,-521.59,794.15,0.445,-3.969,-2.603
621.1,-500.18,791.04,0.696,-3.992,-2.415
657.32,-478.96,779.76,0.941,-4.03,-2.268
694.33,-460.43,760.37,1.159,-4.11,-2.163
727.07,-448.11,726.83,1.377,-4.263,-2.106
755,-440.67,670.24,1.539,-4.453,-2.072
782.38,-429.21,585.43,1.637,-4.585,-2.079
791.59,-409.39,478.72,1.664,-4.643,-2.157
786.71,-377.13,367.38,1.648,-4.604,-2.287
775.98,-340.24,266.04,1.607,-4.4,-2.385
746.89,-297.13,183.11,1.582,-4.108,-2.108
688.17,-242.74,128.72,1.553,-3.927,-1.362
614.7,-178.35,102.38,1.381,-4.044,-1.024
522.74,-115.24,92.927,1.512,-3.939,-1.279
407.07,-58.293,97.927,2.148,-3.045,-1.754
275,-12.927,104.33,3.271,-1.896,-2.171
137.01,9.634,106.16,4.435,-0.895,-2.38
5.122,13.78,107.44,5.241,-0.209,-2.558
-109.94,9.207,110.49,5.533,0.141,-2.546
-194.45,-1.646,115.24,5.222,0.472,-2.272
-232.87,-16.098,117.93,4.832,0.646,-1.676
-227.07,-27.439,112.62,4.423,0.528,-0.96
-186.95,-32.256,98.232,4.151,0.501,-0.307
-125.67,-32.805,78.049,3.84,0.362,0.06
-55.671,-33.293,56.707,3.507,-0.049,0.094
9.268,-36.341,37.256,3.498,-0.488,-0.043
60.549,-42.378,20.549,3.823,-0.854,-0.181
89.39,-50.305,3.415,4.077,-1.119,-0.289
93.72,-57.561,-14.634,3.999,-1.11,-0.322
76.829,-63.476,-32.988,3.659,-0.771,-0.281
42.561,-67.805,-51.22,3.284,-0.321,-0.181
-2.683,-70.183,-68.171,2.997,0.101,-0.119
-51.707,-71.037,-85.244,2.793,0.544,-0.09
-100.18,-69.634,-103.48,2.611,0.981,-0.068
-144.82,-67.378,-121.83,2.428,1.35,-0.046
-183.35,-65.366,-140.12,2.282,1.569,-0.007
-212.26,-62.622,-158.48,2.171,1.626,0.034
-229.76,-58.537,-176.89,2.125,1.598,0.087
-233.41,-53.354,-194.69,2.116,1.486,0.179
-225.18,-47.012,-211.16,2.073,1.245,0.3
