gyrx(deg/s),gyry(deg/s),gyrz(deg/s),accx(g),accy(g),accz(g)
-13.659,-20.732,-13.171,0.582,0.221,0.064
-16.951,-21.402,-9.512,0.574,0.214,0.047
-23.78,-21.829,-5.305,0.566,0.214,0.021
-32.195,-21.829,-2.012,0.571,0.232,-0.008
-41.646,-21.22,1.402,0.579,0.268,-0.04
-50.122,-19.634,5.305,0.587,0.292,-0.084
-57.744,-19.085,9.39,0.602,0.341,-0.107
-64.329,-18.476,13.232,0.609,0.41,-0.145
-69.695,-17.317,17.744,0.613,0.435,-0.18
-75.427,-17.561,21.89,0.631,0.455,-0.214
-79.634,-18.78,24.695,0.655,0.466,-0.248
-81.463,-16.341,27.134,0.677,0.471,-0.268
-81.829,-11.768,29.573,0.717,0.461,-0.277
-80.793,-8.354,30.854,0.756,0.452,-0.275
-79.085,-6.28,30.976,0.814,0.465,-0.274
-75.732,-2.012,30.793,0.902,0.484,-0.283
-71.098,7.256,30,0.99,0.444,-0.305
-66.768,18.293,28.963,1.054,0.38,-0.327
-65.671,33.11,28.11,1.102,0.332,-0.347
-57.622,45.732,25.427,1.178,0.323,-0.339
-51.098,58.049,20.427,1.311,0.322,-0.306
-49.939,74.634,15.549,1.438,0.268,-0.299
-48.841,92.012,8.171,1.61,0.162,-0.301
-50.549,107.19,1.829,1.746,0.203,-0.255
-58.72,125.85,-3.72,1.847,0.23,-0.247
-63.659,146.71,-6.463,2.064,0.164,-0.288
-72.134,166.83,-7.134,2.229,0.143,-0.219
-77.195,182.81,0.732,2.356,0.143,-0.155
-92.988,207.19,2.927,2.534,0.119,-0.121
-112.19,231.77,6.28,2.63,0.03,0.021
-128.29,255.31,12.378,2.763,-0.099,0.083
-142.62,274.69,19.329,2.936,-0.28,0.119
-152.19,295.06,26.28,3.025,-0.417,0.142
-170.49,314.69,30.671,3.23,-0.687,0.107
-187.87,332.68,36.768,3.481,-0.839,0.053
-202.5,347.32,43.659,3.729,-1.05,0.048
-221.28,359.82,49.512,3.922,-1.212,-0.035
-242.26,369.51,54.634,4.007,-1.345,-0.105
-264.02,376.95,58.232,4.043,-1.442,-0.162
-289.88,381.28,60.488,4.055,-1.536,-0.23
-316.28,381.28,60,4.024,-1.582,-0.237
-341.71,375.12,60.366,3.964,-1.562,-0.229
-369.57,364.15,59.329,3.865,-1.493,-0.266
-395,352.32,55.915,3.75,-1.4,-0.331
-415.85,342.38,50,3.642,-1.282,-0.41
-450.31,336.58,35.976,3.59,-1.135,-0.523
-481.22,331.65,24.512,3.547,-0.989,-0.613
-515.55,328.54,7.195,3.454,-0.809,-0.731
-548.54,326.34,-13.72,3.421,-0.641,-0.896
-577.74,326.52,-37.805,3.297,-0.496,-0.977
-610.49,329.45,-66.707,3.193,-0.313,-1.077
-646.22,334.76,-99.573,3.056,-0.237,-1.163
-681.28,346.22,-135.49,2.831,-0.15,-1.228
-715.79,362.62,-171.28,2.664,-0.108,-1.309
-758.84,380.98,-204.51,2.44,-0.025,-1.332
-817.2,406.34,-240.24,2.183,0.064,-1.341
-893.29,438.78,-273.72,1.914,0.1,-1.39
-974.27,475.06,-291.4,1.602,0.099,-1.527
-1055.7,512.01,-295.85,1.199,0.177,-1.576
-1123.8,554.39,-291.4,0.739,0.284,-1.502
-1140.8,621.22,-279.88,0.315,0.307,-1.4
-1075.4,831.95,-270.61,-0.155,0.302,-1.256
-979.09,1125.5,-223.78,-0.777,0.181,-1.072
-984.15,1106,-189.33,-1.711,-0.081,-0.837
-916.52,658.41,-212.5,-3.206,-0.366,-0.448
-774.39,428.72,-255.91,-4.335,-0.442,0.189
-637.01,365.24,-211.16,-3.675,-0.931,0.731
-467.19,291.58,-169.51,-9.314,-2.776,0.806
-284.76,235.73,-164.21,-16,-2.136,1.383
-126.65,190,-119.51,-13.586,0.864,3.601
19.817,90.61,-42.439,-8.092,0.247,3.893
139.51,-46.159,50.488,-6.46,0.428,3.206
249.15,-161.65,128.11,-4.736,0.03,1.244
348.78,-256.52,192.56,-3.521,-0.414,-0.364
417.13,-339.15,244.02,-4.089,-0.792,-1.267
455,-369.08,273.42,-4.53,-1.563,-2.007
471.58,-321.28,235.31,-4.549,-2.114,-2.228
449.51,-251.1,179.63,-4.356,-2.004,-1.914
409.94,-197.5,125.98,-3.892,-1.717,-1.631
368.54,-149.88,67.439,-3.068,-1.679,-0.838
324.57,-115.12,17.5,-1.961,-1.455,0.376
272.44,-97.195,-10,-0.938,-1.089,1.393
209.39,-84.268,-15.183,-0.694,-0.826,1.228
148.41,-81.585,0.61,-0.254,-0.464,0.605
89.329,-79.756,31.463,0.14,-0.208,0.031
34.573,-70.915,55.854,0.032,-0.639,-0.388
-8.11,-57.683,68.902,-0.183,-0.969,-0.552
-35.244,-47.439,74.634,-0.337,-0.973,-0.558
-47.195,-40.488,73.841,-0.344,-1.135,-0.31
-46.585,-38.841,69.939,-0.246,-1.304,-0.013
-33.049,-42.805,66.402,-0.197,-1.037,0.279
-2.988,-50.854,63.537,-0.297,-0.744,0.517
39.817,-60.366,61.28,-0.496,-0.809,0.666
91.707,-70,58.476,-0.76,-1.023,0.767
152.81,-79.268,53.78,-1.033,-1.177,0.862
217.99,-86.829,48.171,-1.273,-1.358,0.963
285.61,-93.78,40.244,-1.443,-1.575,1.064
356.71,-100.79,27.439,-1.562,-1.759,1.14
425.67,-107.81,14.268,-1.651,-1.871,1.177
489.63,-114.33,2.561,-1.688,-1.888,1.221
546.95,-120.37,-6.768,-1.693,-1.779,1.254
599.94,-127.19,-12.256,-1.708,-1.605,1.266
645.73,-132.44,-13.11,-1.674,-1.396,1.241
682.32,-136.89,-10.427,-1.627,-1.172,1.185
713.35,-139.76,-5.122,-1.575,-0.959,1.128
739.76,-142.5,3.293,-1.538,-0.756,1.09
762.56,-146.89,15.244,-1.492,-0.576,0.986
782.62,-151.16,28.841,-1.402,-0.335,0.873
798.23,-153.05,42.073,-1.303,-0.126,0.78
810.06,-156.77,56.037,-1.213,0.072,0.696
816.71,-161.89,70.244,-1.146,0.276,0.583
820.06,-166.52,83.659,-1.074,0.467,0.462
821.28,-170.24,96.402,-1.022,0.654,0.35
817.8,-172.07,108.17,-0.967,0.814,0.233
812.2,-173.11,118.54,-0.908,0.931,0.123
804.27,-175.12,128.17,-0.844,1.004,0.034
790.55,-178.6,137.62,-0.756,1.06,-0.091
769.51,-181.28,145.67,-0.625,1.108,-0.226
745.37,-182.62,152.62,-0.5,1.17,-0.346
720.3,-183.29,159.82,-0.378,1.224,-0.458
693.54,-185.18,167.38,-0.255,1.282,-0.547
663.54,-187.38,174.63,-0.15,1.314,-0.62
629.15,-189.88,181.46,-0.05,1.289,-0.692
595.85,-193.72,186.52,0.076,1.246,-0.793
556.95,-198.29,191.89,0.201,1.191,-0.859
517.5,-209.21,195.85,0.321,1.141,-0.871
491.28,-207.81,190.31,0.461,1.073,-0.848
453.35,-204.63,188.48,0.584,1.018,-0.844
412.68,-223.29,185.85,0.689,0.985,-0.816
381.77,-242.68,170,0.704,0.919,-0.873
338.66,-245.24,166.77,0.86,0.882,-0.756
279.45,-258.96,175.06,0.917,0.847,-0.675
252.68,-263.29,165.85,0.87,0.708,-0.763
219.27,-224.51,165.37,0.777,0.623,-0.671
182.93,-179.09,169.21,1.138,0.577,-0.561
146.46,-154.27,167.56,1.17,0.572,-0.555
99.634,-150.31,172.01,1.124,0.481,-0.341
49.146,-159.39,181.04,1.809,0.462,-0.12
8.963,-175.67,188.05,2.108,0.494,0.04
-19.451,-172.74,187.62,1.99,0.437,0.109
-60.854,-168.29,188.96,1.801,0.439,0.105
-81.585,-200.61,195.73,1.713,0.394,0.1
-81.402,-200.49,196.22,1.624,0.272,0.058
-82.5,-186.46,188.84,1.825,0.226,0.113
-69.878,-187.68,183.48,2.07,0.109,0.072
-67.561,-186.04,171.95,1.693,-0.031,-0.14
-61.22,-190.06,160.98,1.907,-0.25,-0.107
-46.28,-196.52,148.17,2.502,-0.465,-0.055
-42.683,-180,136.65,2.322,-0.614,-0.211
-46.159,-150.85,128.66,2.273,-0.801,-0.235
-52.256,-118.72,118.6,2.166,-0.978,-0.223
-44.878,-91.829,107.99,2.213,-1.119,-0.179
-35.427,-64.756,103.72,2.453,-1.075,-0.028
-29.512,-43.537,102.68,2.419,-0.971,0.201
-27.195,-22.744,103.17,2.324,-0.761,0.331
-32.195,-4.329,101.89,2.205,-0.683,0.474
-40.366,1.646,98.841,2.097,-0.722,0.574
-53.476,1.768,91.463,1.992,-0.7,0.563
-70.732,4.024,81.524,1.892,-0.589,0.483
-83.963,4.695,73.293,1.924,-0.447,0.343
-94.451,1.463,64.329,1.799,-0.322,0.204
-106.34,-6.951,54.939,1.736,-0.188,0.044
-121.46,-17.012,47.012,1.819,-0.168,-0.117
-134.39,-22.988,37.195,1.754,-0.056,-0.188
-136.34,-21.585,32.195,1.646,0.074,-0.259
-137.32,-15.244,27.256,1.584,0.108,-0.299
-132.44,-14.268,26.341,1.49,0.215,-0.317
-116.1,-11.829,27.317,1.539,0.345,-0.268
-103.17,-5.061,24.329,1.634,0.276,-0.206
-90.976,-1.098,19.268,1.639,0.118,-0.167
-79.451,-3.598,12.744,1.537,0.07,-0.184
-69.39,-2.744,5.793,1.536,0.125,-0.181
-62.988,-0.122,-1.463,1.548,0.228,-0.206
-57.378,0,-8.049,1.498,0.294,-0.232
-50.061,0.122,-13.293,1.406,0.37,-0.298
-43.415,-0.671,-17.805,1.441,0.444,-0.361
-39.512,-2.744,-21.585,1.5,0.499,-0.397
-36.341,-4.146,-24.817,1.447,0.525,-0.45
-31.89,-1.951,-26.463,1.39,0.559,-0.47
-26.585,2.805,-28.293,1.349,0.523,-0.483
-24.695,7.439,-29.573,1.306,0.476,-0.494
-23.963,14.146,-31.463,1.256,0.478,-0.48
-18.171,19.207,-32.195,1.224,0.548,-0.433
-14.146,19.756,-32.256,1.194,0.577,-0.383
-12.317,18.171,-31.951,1.154,0.529,-0.323
-9.207,15.366,-31.22,1.143,0.581,-0.273
-6.768,14.634,-29.268,1.108,0.628,-0.242
-4.512,17.195,-26.28,1.021,0.566,-0.233
-1.829,19.512,-23.963,0.932,0.492,-0.241
0.61,20.915,-21.707,0.891,0.463,-0.24
3.415,22.195,-19.634,0.846,0.456,-0.213
6.037,23.354,-17.866,0.873,0.488,-0.202
9.573,24.024,-15.915,0.868,0.503,-0.187
14.268,23.232,-14.085,0.853,0.481,-0.176
17.439,21.829,-11.585,0.835,0.462,-0.165
20.671,20.61,-8.476,0.818,0.45,-0.147
24.878,20,-6.646,0.798,0.429,-0.145
26.341,19.817,-4.634,0.754,0.377,-0.134
26.89,19.817,-3.171,0.714,0.275,-0.108
26.89,20.244,-1.585,0.706,0.246,-0.076
25.244,20.549,0.488,0.688,0.272,-0.036
22.073,20.793,2.744,0.693,0.26,-0.013
17.317,21.159,4.756,0.682,0.267,-0.002
13.415,21.22,6.585,0.664,0.282,0.007
7.195,21.037,9.085,0.639,0.277,0.008
1.646,22.195,12.195,0.614,0.26,-0.001
-2.5,22.378,15.244,0.595,0.243,-0.002
-7.134,22.134,17.317,0.587,0.251,0
-11.585,22.195,19.207,0.561,0.222,-0.014
-14.329,22.866,20.915,0.548,0.248,-0.002
-17.073,22.561,22.805,0.512,0.26,-0.017
-18.415,22.012,23.841,0.484,0.226,-0.029
-19.024,20.915,25,0.467,0.217,-0.043
-20.061,19.207,26.037,0.473,0.249,-0.037
-20.366,18.171,27.012,0.471,0.23,-0.072
-20.122,17.683,28.415,0.484,0.22,-0.078
-19.634,17.683,29.634,0.487,0.222,-0.084
-18.659,17.378,30.305,0.477,0.216,-0.118
-16.463,17.317,30.61,0.476,0.221,-0.125
-14.146,16.646,30.488,0.479,0.236,-0.127
-12.134,15.366,30.122,0.492,0.26,-0.134
-9.878,13.963,29.329,0.516,0.283,-0.153
-7.744,11.768,28.11,0.544,0.313,-0.163
-5.427,9.451,26.768,0.571,0.335,-0.178
-2.561,7.5,25.976,0.602,0.349,-0.203
0.427,5.671,25.305,0.637,0.37,-0.222
2.744,3.537,24.085,0.668,0.394,-0.239
4.817,1.402,22.561,0.704,0.421,-0.252
7.073,-1.159,20.61,0.739,0.447,-0.257
9.39,-3.902,18.415,0.778,0.461,-0.261
12.012,-6.585,16.402,0.809,0.479,-0.263
13.902,-9.146,14.695,0.838,0.505,-0.278
15.305,-11.768,12.988,0.867,0.537,-0.288
16.89,-14.451,11.646,0.887,0.579,-0.297
18.354,-17.073,10.61,0.898,0.606,-0.301
19.146,-19.39,9.756,0.908,0.619,-0.299
19.695,-20.915,9.146,0.921,0.624,-0.298
20.183,-22.439,8.72,0.933,0.621,-0.288
20.427,-23.78,7.927,0.941,0.624,-0.278
20.549,-24.939,7.378,0.939,0.625,-0.255
20.671,-26.341,6.951,0.932,0.622,-0.239
20.976,-27.439,6.28,0.919,0.625,-0.231
21.28,-28.232,5.61,0.907,0.623,-0.216
21.768,-29.024,5.183,0.897,0.615,-0.212
22.378,-29.573,4.756,0.887,0.596,-0.214
22.988,-29.756,4.39,0.88,0.573,-0.21
23.598,-29.573,4.207,0.882,0.546,-0.207
24.329,-29.39,3.72,0.885,0.516,-0.198
25.183,-29.207,3.293,0.88,0.489,-0.186
