gyrx(deg/s),gyry(deg/s),gyrz(deg/s),accx(g),accy(g),accz(g)
38.537,2.561,8.476,0.889,0.327,-0.314
40.549,1.524,7.439,0.9,0.338,-0.298
42.073,0.061,6.28,0.907,0.358,-0.297
43.11,-1.28,5.488,0.913,0.376,-0.299
43.232,-2.256,5.122,0.917,0.381,-0.295
42.195,-3.11,5.427,0.929,0.376,-0.296
40.793,-3.354,6.159,0.942,0.387,-0.298
38.78,-2.683,6.524,0.958,0.397,-0.293
35.915,-1.28,6.768,0.986,0.39,-0.288
32.439,0.732,6.707,1.012,0.372,-0.287
28.78,3.232,7.134,1.031,0.363,-0.284
24.939,7.134,6.524,1.051,0.344,-0.287
20.244,12.622,4.756,1.079,0.317,-0.294
16.768,17.927,3.537,1.11,0.294,-0.292
14.024,23.902,1.402,1.157,0.287,-0.288
11.402,31.646,-1.646,1.203,0.281,-0.285
7.622,41.524,-5.305,1.247,0.241,-0.282
2.073,52.683,-10.549,1.305,0.232,-0.265
-2.683,64.756,-16.28,1.367,0.201,-0.244
-7.073,78.049,-21.402,1.445,0.136,-0.234
-16.707,92.805,-26.524,1.528,0.103,-0.235
-27.866,108.35,-31.098,1.632,0.048,-0.213
-39.512,127.32,-33.841,1.754,-0.028,-0.166
-57.683,148.11,-37.317,1.844,-0.065,-0.116
-74.329,168.9,-39.939,1.931,-0.151,-0.093
-87.012,187.74,-36.341,2.012,-0.209,-0.025
-102.44,208.23,-37.927,2.136,-0.316,0.076
-108.78,229.02,-39.878,2.257,-0.514,0.182
-111.71,247.99,-44.756,2.358,-0.614,0.271
-119.88,267.56,-45.427,2.548,-0.765,0.326
-121.34,286.83,-45.549,2.634,-0.93,0.378
-123.48,307.81,-50.915,2.751,-1.093,0.365
-127.44,324.76,-52.195,2.89,-1.268,0.292
-132.26,341.22,-59.451,3.08,-1.463,0.285
-133.96,347.87,-62.805,3.298,-1.63,0.209
-129.45,353.42,-66.768,3.418,-1.806,0.21
-137.5,371.52,-81.707,3.555,-1.87,0.212
-147.13,382.99,-89.573,3.624,-1.915,0.228
-158.29,378.54,-87.622,3.668,-1.847,0.251
-176.16,367.87,-80.915,3.761,-1.711,0.187
-196.71,358.84,-78.902,3.718,-1.637,0.092
-230,348.35,-80,3.732,-1.379,0.099
-266.04,335.98,-81.524,3.694,-1.239,-0.042
-306.28,328.29,-90.854,3.601,-1.156,-0.125
-354.21,321.16,-102.5,3.529,-0.956,-0.303
-408.11,319.88,-119.69,3.357,-0.809,-0.351
-463.72,318.05,-136.28,3.294,-0.567,-0.502
-525.67,313.72,-150.24,3.107,-0.438,-0.582
-590.55,309.82,-164.21,3.037,-0.191,-0.709
-660.3,306.1,-180.12,2.852,0.062,-0.828
-737.8,303.42,-195.61,2.667,0.22,-1.07
-824.45,307.5,-209.69,2.416,0.409,-1.26
-908.41,320.61,-218.66,2.121,0.553,-1.374
-992.62,335.73,-223.41,1.788,0.683,-1.442
-1084.7,353.05,-226.04,1.48,0.841,-1.489
-1182,374.33,-225.98,1.216,0.983,-1.428
-1279,412.5,-217.01,1.035,0.977,-1.344
-1368.5,467.26,-200.12,0.764,0.87,-1.281
-1415.9,517.01,-181.89,0.347,0.747,-1.185
-1397.3,611.22,-159.02,-0.125,0.53,-1.128
-1319,705.37,-129.94,-0.653,0.312,-1.101
-1234.8,781.04,-100.92,-1.198,0.215,-0.929
-1166.5,670.79,-93.11,-2.502,0.067,-0.725
-1035.9,507.87,-104.76,-3.304,-0.145,-0.161
-863.48,434.08,-93.476,-4.536,-0.535,0.521
-675.12,344.33,-109.63,-6.472,-1.119,1.416
-406.89,220.98,-132.5,-10.04,-1.829,2.143
-144.51,154.51,-117.07,-11.209,-0.884,2.426
84.024,104.27,-111.71,-8.053,-0.219,2.63
280.92,60.976,-103.96,-6.461,0.099,2.13
462.99,2.439,-74.268,-5.535,-1.154,1.233
585,-70,-21.89,-4.646,-2.003,0.906
649.33,-148.17,41.585,-4.12,-2.056,0.281
698.29,-93.72,95.183,-3.82,-1.809,-0.057
710.49,-53.537,154.15,-3.627,-1.959,-0.794
667.01,-75.183,173.78,-3.609,-2.076,-1.265
616.71,-80.488,144.69,-3.748,-1.599,-1.708
580.06,-85.915,103.6,-2.207,-0.839,-0.948
524.33,-86.768,58.598,-1.56,-0.615,-0.083
442.26,-79.634,15.061,-2.114,-0.386,0.487
352.81,-68.841,-2.073,-1.643,0.034,1.214
279.33,-56.89,-6.28,-1.233,0.428,1.242
225.37,-44.268,-5.793,-0.883,0.347,0.756
178.54,-25.244,1.341,-0.957,-0.156,0.104
145.49,-7.683,12.439,-0.951,-0.613,-0.271
119.33,6.829,20.549,-0.712,-0.978,-0.466
100.85,16.707,26.098,-0.412,-1.295,-0.422
86.585,21.585,30.732,-0.15,-1.391,-0.24
77.378,21.951,35.976,-0.022,-1.284,0.01
79.024,17.378,43.354,-0.111,-1.145,0.341
88.841,8.963,50.732,-0.303,-1.04,0.644
105.06,0.366,56.463,-0.584,-1.034,0.906
127.19,-9.207,64.756,-0.834,-1.048,1.13
158.54,-21.524,71.768,-0.994,-1.07,1.283
192.74,-34.756,76.341,-1.102,-1.088,1.4
230.18,-47.317,77.561,-1.198,-1.143,1.459
272.01,-60.732,79.146,-1.2,-1.199,1.396
315.98,-74.512,78.537,-1.273,-1.211,1.3
360.61,-88.354,76.463,-1.368,-1.15,1.236
406.52,-101.34,74.634,-1.483,-1.087,1.196
450.31,-112.44,73.354,-1.575,-0.987,1.157
492.87,-122.19,73.171,-1.692,-0.893,1.135
532.87,-129.82,74.085,-1.782,-0.782,1.127
570.24,-135.61,77.317,-1.833,-0.64,1.124
601.28,-139.51,82.195,-1.843,-0.477,1.102
628.11,-141.46,87.561,-1.831,-0.321,1.082
650.61,-142.87,94.39,-1.826,-0.167,1.074
665,-142.5,102.13,-1.82,-0.037,0.99
676.83,-143.11,112.74,-1.753,0.135,0.854
682.26,-142.68,123.54,-1.646,0.325,0.747
684.39,-141.52,134.82,-1.531,0.504,0.622
682.99,-141.16,146.65,-1.449,0.667,0.511
677.8,-140.55,157.93,-1.359,0.827,0.38
668.6,-140.43,169.69,-1.282,0.956,0.288
656.59,-140.37,179.88,-1.223,1.097,0.247
645.43,-140.61,189.15,-1.148,1.208,0.228
632.13,-141.77,197.74,-1.082,1.313,0.209
617.26,-142.19,203.48,-0.991,1.358,0.15
605.06,-142.87,209.09,-0.903,1.375,0.058
592.38,-143.84,215,-0.816,1.387,-0.054
576.04,-145.12,219.15,-0.743,1.394,-0.155
562.01,-145.98,223.54,-0.598,1.384,-0.264
546.65,-146.89,225.79,-0.471,1.393,-0.336
526.59,-147.93,227.87,-0.309,1.326,-0.442
505,-148.29,231.04,-0.163,1.3,-0.5
483.9,-148.72,233.54,-0.053,1.263,-0.529
456.89,-150.61,234.69,0.102,1.156,-0.552
423.23,-158.66,234.57,0.221,1.107,-0.54
384.51,-169.02,232.81,0.349,1.038,-0.564
361.1,-181.65,231.77,0.479,0.913,-0.571
336.65,-233.23,224.63,0.584,0.784,-0.569
318.6,-276.04,213.11,0.691,0.715,-0.539
300.55,-261.34,211.95,0.709,0.667,-0.498
295.18,-237.19,209.94,0.864,0.59,-0.331
292.32,-224.39,199.15,0.611,0.526,-0.48
280.79,-228.72,194.02,0.395,0.566,-0.579
262.56,-233.11,190.55,1.272,0.336,-0.328
241.83,-254.27,187.74,1.75,0.224,-0.333
216.65,-279.15,190.18,1.759,0.19,-0.387
192.44,-279.21,191.16,1.521,0.017,-0.495
174.82,-257.26,183.72,1.626,-0.192,-0.462
159.21,-227.62,176.52,1.662,-0.288,-0.502
128.66,-196.89,177.62,1.568,-0.369,-0.512
89.939,-182.68,180.12,1.952,-0.457,-0.262
58.841,-176.65,178.96,2.449,-0.535,-0.089
29.695,-170.06,176.71,2.655,-0.558,0.059
3.11,-158.23,176.1,2.617,-0.531,0.159
-16.646,-144.63,176.34,2.556,-0.586,0.216
-41.707,-130.12,167.93,2.493,-0.611,0.327
-62.866,-105.55,156.46,2.466,-0.657,0.46
-78.232,-79.695,143.41,2.458,-0.692,0.526
-90.427,-61.524,129.45,2.419,-0.739,0.578
-101.34,-43.049,121.95,2.412,-0.723,0.519
-109.27,-24.024,114.45,2.465,-0.668,0.503
-112.87,-14.146,105,2.49,-0.598,0.503
-117.44,-4.512,100.18,2.417,-0.682,0.492
-116.83,1.89,95.915,2.483,-0.81,0.505
-114.57,5.122,93.415,2.517,-0.699,0.51
-111.46,6.098,89.085,2.424,-0.63,0.377
-106.83,1.89,83.963,2.248,-0.685,0.314
-100.06,-7.439,75.976,2.088,-0.531,0.246
-92.805,-15.732,69.878,1.936,-0.449,0.138
-88.902,-26.829,64.451,1.877,-0.406,0.042
-83.293,-42.134,46.402,1.834,-0.337,-0.063
-72.927,-37.195,35.976,1.775,-0.291,-0.172
-54.817,-20.122,36.646,1.7,-0.268,-0.209
-37.988,-3.841,31.951,1.742,-0.231,-0.269
-18.841,0.244,26.646,1.638,0,-0.172
-3.841,-7.195,20.183,1.695,0.08,-0.079
10.793,-5.488,15.732,1.759,-0.168,-0.101
22.744,2.134,11.463,1.736,-0.196,-0.11
32.683,5.732,5.976,1.557,-0.152,-0.098
38.415,9.024,0.122,1.392,-0.059,-0.214
42.622,12.683,-5.366,1.412,0.102,-0.293
43.537,15.671,-11.402,1.443,0.235,-0.324
49.329,18.902,-17.744,1.423,0.262,-0.446
51.89,29.024,-22.073,1.42,0.257,-0.468
51.524,33.659,-26.829,1.42,0.265,-0.507
52.622,32.439,-32.073,1.414,0.289,-0.545
54.451,35.183,-37.439,1.42,0.311,-0.562
54.451,40.854,-41.951,1.411,0.289,-0.497
54.268,44.695,-46.22,1.344,0.276,-0.518
56.646,47.988,-50.671,1.307,0.254,-0.514
60.488,50.732,-54.939,1.358,0.239,-0.451
63.11,52.012,-59.451,1.373,0.222,-0.413
64.878,52.927,-63.476,1.323,0.212,-0.39
68.232,56.22,-66.646,1.293,0.208,-0.37
71.463,62.256,-68.963,1.274,0.154,-0.331
72.561,68.476,-71.341,1.247,0.05,-0.297
66.768,74.39,-72.866,1.213,-0.021,-0.26
55.915,81.22,-74.634,1.193,0.013,-0.207
44.329,86.159,-77.134,1.182,0.057,-0.166
35.122,88.537,-79.756,1.149,0.049,-0.144
25.244,93.78,-81.829,1.119,0.025,-0.128
14.756,100.06,-83.963,1.086,0.08,-0.108
1.463,102.74,-85.854,1.011,0.073,-0.178
-10,105.24,-87.195,0.977,-0.015,-0.229
-21.037,108.29,-88.598,1.007,-0.063,-0.244
-34.878,111.89,-90.976,1.023,-0.056,-0.28
-39.939,117.26,-93.476,0.957,-0.07,-0.259
-49.268,124.02,-93.171,0.899,-0.055,-0.234
-59.207,126.71,-92.927,0.866,-0.028,-0.226
-65.183,132.56,-94.939,0.856,-0.035,-0.217
-72.073,139.63,-96.037,0.84,-0.026,-0.168
-76.646,146.28,-95.61,0.817,-0.068,-0.175
-81.951,151.1,-95.61,0.764,-0.063,-0.263
-85.183,154.33,-95.244,0.77,-0.028,-0.23
-90.854,144.09,-89.451,0.782,-0.107,-0.288
-62.622,142.01,-74.695,0.754,-0.101,-0.285
-10.915,147.99,-56.22,0.729,-0.087,-0.314
33.72,145.91,-45.854,0.714,-0.084,-0.332
61.707,155.85,-37.561,0.568,-0.041,-0.369
60.976,172.62,-32.256,0.253,0.324,-0.256
28.232,148.23,-33.598,0.311,0.214,-0.078
-13.049,122.19,-48.293,0.36,0.331,0.056
-39.207,138.78,-47.561,0.495,0.683,0.041
-54.756,159.69,-40.427,0.576,0.796,-0.046
-54.329,156.52,-28.476,0.256,1.467,-0.039
-64.817,149.69,-14.756,0.088,2.006,0.175
-55.915,158.35,-12.378,0.43,1.48,0.447
-60.061,170.12,-8.171,0.683,0.984,0.365
-68.049,178.41,-5.671,0.515,0.284,0.207
-67.744,187.07,-2.622,0.484,-0.275,-0.037
-63.902,190.85,0.488,0.558,0.454,-0.072
-55.122,193.72,0.244,0.581,0.457,-0.3
-42.988,188.96,-5.61,0.575,0.317,-0.383
-38.293,170.06,-12.439,0.494,0.343,-0.398
-22.561,166.04,-14.451,0.37,0.382,-0.353
-6.22,166.1,-13.354,0.326,0.436,-0.226
17.439,166.83,-13.598,0.235,0.521,-0.127
33.841,169.57,-15.732,0.166,0.526,-0.042
52.744,173.72,-20.061,0.077,0.563,0.206
65.915,179.02,-26.89,0.149,0.456,0.467
78.049,185.18,-37.927,0.265,0.403,0.563
90.671,186.89,-45.061,0.406,0.381,0.61
94.817,187.99,-50.183,0.431,0.432,0.599
95.488,189.63,-57.317,0.454,0.421,0.493
92.134,191.83,-63.354,0.494,0.409,0.402
95.671,190.79,-74.146,0.423,0.375,0.249
100.98,186.65,-81.28,0.373,0.377,0.208
107.07,176.89,-88.72,0.396,0.409,0.219
110.18,171.71,-94.085,0.493,0.388,0.294
115.73,168.05,-100,0.334,0.409,0.299
119.21,162.68,-111.71,0.451,0.299,0.36
127.62,154.39,-122.62,0.46,0.293,0.406
135.49,145.98,-130.55,0.49,0.364,0.519
