gyrx(deg/s),gyry(deg/s),gyrz(deg/s),accx(g),accy(g),accz(g)
16.951,-11.341,12.439,0.679,0.361,-0.303
19.024,-10.305,9.451,0.686,0.396,-0.31
16.585,-10.549,7.561,0.702,0.404,-0.314
14.024,-10.305,5.305,0.716,0.417,-0.319
11.037,-10.488,3.476,0.741,0.436,-0.311
8.537,-10.427,2.134,0.738,0.446,-0.387
5.427,-9.756,0.122,0.764,0.449,-0.36
0.061,-9.939,-1.402,0.78,0.462,-0.402
-3.11,-8.902,-2.195,0.806,0.496,-0.42
-5.854,-7.256,-3.049,0.844,0.535,-0.443
-8.902,-3.78,-3.293,0.912,0.521,-0.455
-10.732,1.585,-4.329,0.965,0.487,-0.46
-11.89,6.829,-5.671,1.051,0.522,-0.458
-13.293,14.512,-7.256,1.117,0.567,-0.398
-15.793,24.878,-10.244,1.224,0.535,-0.38
-21.28,37.073,-14.695,1.332,0.504,-0.34
-25,51.829,-18.598,1.473,0.525,-0.326
-29.146,67.256,-20.549,1.622,0.489,-0.304
-34.39,84.512,-20.244,1.775,0.425,-0.275
-48.841,105.18,-19.817,1.91,0.377,-0.226
-61.341,126.77,-17.927,2.054,0.339,-0.174
-67.073,149.57,-13.11,2.187,0.314,-0.078
-67.439,169.76,-1.768,2.315,0.289,0.015
-78.232,188.17,3.171,2.423,0.212,0.123
-93.293,211.46,4.207,2.548,0.092,0.228
-94.695,231.65,14.39,2.674,-0.062,0.273
-100.98,249.33,19.878,2.844,-0.19,0.276
-104.15,270.92,17.866,3.011,-0.329,0.235
-108.6,294.45,17.866,3.083,-0.502,0.325
-106.83,309.94,23.415,3.248,-0.646,0.277
-102.62,324.57,31.098,3.402,-0.814,0.216
-95.793,341.04,34.939,3.433,-1.018,0.191
-94.268,358.66,29.512,3.47,-1.233,0.173
-87.561,360.49,32.561,3.501,-1.336,0.135
-92.439,372.99,23.659,3.484,-1.417,0.133
-95.854,379.33,17.073,3.491,-1.45,0.078
-103.05,381.04,12.744,3.447,-1.508,-0.005
-112.56,382.81,2.744,3.47,-1.503,-0.072
-127.07,379.51,-7.134,3.441,-1.402,-0.107
-144.82,374.76,-18.11,3.451,-1.345,-0.16
-169.02,367.19,-30.671,3.441,-1.258,-0.23
-200.06,358.84,-44.024,3.366,-1.17,-0.363
-236.71,345.24,-55.671,3.29,-0.98,-0.451
-281.71,332.32,-71.341,3.233,-0.779,-0.538
-338.84,318.35,-85.183,3.064,-0.628,-0.618
-396.83,298.84,-93.11,2.964,-0.427,-0.668
-457.56,287.44,-110,2.813,-0.21,-0.678
-529.51,275.92,-127.93,2.649,-0.066,-0.708
-596.28,265.61,-143.23,2.531,0.203,-0.656
-667.87,263.66,-160.37,2.388,0.47,-0.744
-736.4,269.51,-179.88,2.235,0.61,-0.767
-806.4,283.17,-203.72,1.974,0.775,-0.726
-880.06,297.32,-226.16,1.813,0.894,-0.775
-959.94,311.65,-245.98,1.621,0.88,-0.789
-1053.7,336.34,-270.79,1.406,0.971,-0.865
-1151.7,368.54,-295.31,1.158,0.912,-1.01
-1230.5,403.05,-304.88,0.831,0.849,-1.184
-1279.7,443.05,-306.65,0.426,0.827,-1.3
-1294.3,541.04,-317.87,-0.012,0.774,-1.256
-1271.3,780.55,-326.1,-0.485,0.719,-1.153
-1200.9,904.45,-299.76,-1.05,0.698,-1.081
-1145.9,810,-302.81,-2.087,0.678,-0.975
-1019,560.43,-324.15,-3.368,0.348,-0.583
-786.1,452.62,-335.55,-2.76,0.134,0.149
-667.99,437.81,-325.06,-3.938,-0.479,0.128
-565.55,317.68,-302.99,-8.364,-1.672,0.233
-351.71,241.59,-239.51,-11.754,-2.179,1.002
-126.46,219.39,-186.16,-10.226,-1.393,2.038
77.439,199.21,-113.72,-6.806,-0.371,2.57
258.72,147.19,-29.573,-6.44,0.524,1.898
403.66,58.354,60.488,-5.054,-1.889,1.383
510.06,-30.366,147.81,-3.127,-2.445,0.719
567.74,-140.24,228.66,-2.645,-2.375,0.155
572.8,-213.9,284.57,-3.04,-2.408,-0.69
544.21,-218.96,294.63,-3.16,-2.297,-1.711
488.29,-204.02,255.73,-3.472,-1.904,-2.28
442.07,-167.87,182.19,-3.768,-1.38,-2.51
384.15,-128.78,94.634,-3.665,-1.131,-2.244
295.73,-97.439,25.122,-2.586,-0.903,-1.026
189.69,-60.732,-8.841,-1.893,-0.343,0.18
86.646,-43.232,-29.146,-1.073,0.252,1.407
-13.354,-44.39,-28.415,-0.686,0.784,1.866
-91.22,-41.402,-2.683,-0.347,1.155,1.503
-140.49,-34.268,25.244,-0.031,0.848,0.795
-170.43,-26.951,42.683,0.2,-0.093,0.223
-181.04,-20.854,51.28,0.151,-0.609,-0.097
-171.1,-19.512,54.878,-0.003,-0.67,-0.17
-149.76,-24.817,55.793,-0.103,-0.821,-0.052
-118.42,-35,57.317,-0.152,-1.051,0.209
-77.927,-47.683,61.159,-0.331,-1.063,0.498
-29.573,-61.829,66.768,-0.592,-1.045,0.729
20.976,-75.488,71.768,-0.843,-1.198,0.881
70.427,-88.232,74.207,-1.049,-1.396,0.955
122.07,-99.268,72.378,-1.215,-1.542,0.986
172.19,-109.63,68.963,-1.326,-1.643,1.007
220.79,-118.84,64.634,-1.383,-1.712,0.994
268.6,-126.95,60.244,-1.423,-1.702,0.984
309.57,-136.04,56.159,-1.472,-1.596,0.976
343.84,-146.52,52.317,-1.496,-1.45,0.992
374.45,-154.09,50.122,-1.517,-1.284,1.025
406.1,-153.29,49.451,-1.528,-1.137,1.034
432.32,-151.52,51.646,-1.542,-1.006,1.035
455.85,-150.98,54.817,-1.562,-0.895,1.021
478.48,-152.26,57.744,-1.533,-0.808,1.011
498.48,-155.31,62.012,-1.4,-0.697,1.072
512.99,-157.56,65.793,-1.331,-0.592,1.104
528.05,-160.91,68.659,-1.297,-0.473,1.132
542.68,-164.27,70.61,-1.291,-0.377,1.161
562.07,-169.02,75.366,-1.298,-0.255,1.119
573.11,-172.19,78.415,-1.258,-0.112,1.07
583.41,-176.22,83.841,-1.2,0.005,1.019
593.23,-179.63,90,-1.166,0.143,0.959
600.18,-182.5,96.768,-1.139,0.3,0.855
607.13,-185.24,103.29,-1.14,0.429,0.779
612.99,-187.32,109.88,-1.108,0.557,0.695
617.8,-187.56,114.57,-1.096,0.655,0.613
623.35,-188.41,118.78,-1.037,0.743,0.552
626.83,-188.11,122.13,-0.947,0.823,0.514
629.76,-186.95,122.87,-0.812,0.876,0.502
633.9,-186.95,124.63,-0.659,0.936,0.484
635.55,-185.43,126.46,-0.508,0.979,0.436
636.28,-182.74,128.17,-0.378,1.029,0.375
636.4,-180.31,131.04,-0.269,1.054,0.303
633.84,-178.84,134.69,-0.145,1.07,0.168
631.52,-176.46,138.48,-0.028,1.071,0.037
628.17,-174.27,142.26,0.084,1.065,-0.079
620.61,-173.9,145.49,0.201,1.034,-0.206
610,-174.21,148.29,0.316,0.989,-0.301
594.76,-173.84,151.22,0.435,0.954,-0.353
575.98,-174.21,153.9,0.561,0.912,-0.42
554.76,-169.33,160.06,0.657,0.873,-0.483
524.39,-181.34,165.67,0.726,0.854,-0.525
500,-218.11,159.02,0.767,0.853,-0.537
479.88,-222.68,154.51,0.815,0.76,-0.593
455.98,-186.46,160.98,0.913,0.615,-0.496
410.49,-202.5,170,0.896,0.524,-0.474
369.82,-261.04,161.46,0.724,0.52,-0.43
347.32,-279.51,150.37,1.023,0.546,-0.285
322.87,-268.05,142.38,1.598,0.442,-0.03
292.62,-241.04,138.54,1.411,0.351,-0.184
252.13,-245.12,148.78,0.754,0.306,-0.369
221.77,-262.99,144.02,1.142,0.306,-0.184
199.33,-254.21,131.59,1.52,0.199,-0.059
165.18,-238.35,131.28,1.957,0.084,-0.109
128.66,-215.61,132.5,1.895,-0.011,-0.122
96.341,-190.55,133.54,1.552,-0.114,-0.199
61.829,-172.32,132.62,1.805,-0.232,0
30.549,-157.87,129.51,2.083,-0.397,-0.049
0.122,-139.27,129.02,2.176,-0.398,-0.04
-31.707,-121.83,129.76,2.257,-0.364,0.119
-63.232,-110.49,129.94,2.217,-0.338,0.284
-86.829,-104.21,129.09,2.175,-0.331,0.436
-110.43,-102.68,126.4,2.192,-0.365,0.591
-130.37,-100,122.07,2.144,-0.405,0.631
-147.56,-93.476,117.44,2.026,-0.4,0.659
-162.62,-86.829,112.26,1.878,-0.352,0.686
-176.16,-80.549,106.1,1.759,-0.257,0.536
-190,-72.561,98.598,1.743,-0.223,0.371
-207.13,-68.476,88.232,1.786,-0.259,0.283
-214.94,-69.939,75.244,1.817,-0.274,0.188
-216.34,-68.78,63.232,1.87,-0.24,0.149
-209.39,-62.744,57.988,1.918,-0.151,0.113
-196.16,-54.024,58.963,1.909,-0.022,0.063
-183.72,-57.195,59.024,1.877,-0.013,0.11
-167.5,-79.817,53.232,1.893,-0.216,0.367
-151.89,-90.793,43.171,1.867,-0.42,0.539
-142.74,-69.451,35.549,1.742,-0.479,0.671
-135,-43.72,29.085,1.494,-0.294,0.627
-125.37,-37.805,21.89,1.277,0.051,0.354
-116.95,-40.366,16.829,1.41,0.322,0.099
-113.29,-37.012,15.793,1.767,0.437,-0.088
-111.22,-31.585,16.646,1.831,0.542,-0.25
-106.4,-31.524,16.768,1.612,0.619,-0.348
-100.55,-34.634,15.854,1.478,0.568,-0.437
-94.268,-35.793,14.512,1.5,0.448,-0.511
-86.646,-34.695,13.293,1.499,0.407,-0.516
-80.976,-33.963,11.951,1.406,0.501,-0.468
-76.89,-33.659,9.939,1.319,0.641,-0.385
-72.805,-31.707,8.78,1.295,0.753,-0.34
-68.78,-30,7.622,1.297,0.814,-0.329
-64.329,-30.061,5.366,1.29,0.798,-0.329
-58.354,-29.451,2.866,1.28,0.734,-0.369
-51.768,-27.805,0.488,1.305,0.654,-0.42
-46.524,-25.122,-2.256,1.317,0.624,-0.444
-42.439,-22.805,-4.939,1.302,0.643,-0.451
-37.988,-21.22,-7.378,1.302,0.662,-0.45
-33.049,-19.207,-9.146,1.307,0.651,-0.451
-27.927,-16.829,-10.183,1.311,0.612,-0.438
-23.476,-15.549,-10.549,1.3,0.583,-0.428
-20.366,-13.963,-10.488,1.28,0.592,-0.414
-18.171,-11.524,-9.512,1.265,0.6,-0.378
-16.037,-10.061,-8.598,1.239,0.582,-0.351
-14.146,-8.293,-7.927,1.193,0.537,-0.321
-12.805,-5.61,-7.134,1.161,0.476,-0.3
-11.22,-3.415,-6.402,1.132,0.437,-0.273
-9.695,-1.768,-5.854,1.085,0.434,-0.233
-9.085,0.854,-4.939,1.037,0.441,-0.188
-8.963,3.11,-3.78,1.004,0.437,-0.146
-9.329,2.988,-2.927,0.953,0.409,-0.108
-9.695,1.707,-2.378,0.9,0.363,-0.08
-9.878,2.5,-2.134,0.862,0.296,-0.061
-9.756,5.793,-1.89,0.82,0.234,-0.024
-7.683,8.415,-1.89,0.75,0.203,0.005
-4.512,10.305,-2.317,0.701,0.194,0.038
-2.5,12.195,-2.378,0.698,0.198,0.067
-1.951,14.512,-2.073,0.696,0.208,0.071
-0.427,16.341,-1.707,0.663,0.211,0.057
1.707,17.927,-1.463,0.621,0.185,0.044
3.11,20.366,-0.671,0.607,0.118,0.012
3.659,22.5,-0.122,0.606,0.073,-0.014
4.695,23.537,0.061,0.592,0.084,-0.024
6.463,24.268,0.366,0.579,0.101,-0.02
8.537,25.183,0.732,0.575,0.1,-0.017
9.695,25.915,1.28,0.562,0.09,-0.04
10,26.341,1.89,0.53,0.09,-0.043
10.305,27.073,2.439,0.51,0.091,-0.058
12.012,28.049,2.988,0.5,0.08,-0.074
14.329,28.11,3.598,0.482,0.057,-0.079
15.671,27.134,4.207,0.468,0.045,-0.095
16.829,26.159,4.512,0.468,0.062,-0.096
19.451,25.854,4.939,0.465,0.098,-0.106
23.049,25.915,5.61,0.442,0.122,-0.116
26.22,25.732,6.341,0.425,0.116,-0.134
28.841,25.549,7.195,0.423,0.11,-0.156
31.463,25.427,8.171,0.433,0.129,-0.17
34.817,24.817,9.207,0.443,0.151,-0.179
37.744,24.024,10.244,0.441,0.163,-0.196
39.329,22.866,11.402,0.457,0.16,-0.208
40.854,21.341,12.439,0.461,0.168,-0.221
42.256,20.183,13.232,0.455,0.198,-0.231
42.805,18.476,14.085,0.456,0.211,-0.229
42.622,16.402,14.634,0.461,0.217,-0.239
42.195,14.39,14.634,0.474,0.231,-0.249
42.195,12.256,14.451,0.495,0.258,-0.248
42.683,9.695,14.329,0.501,0.269,-0.261
42.988,8.232,14.024,0.516,0.275,-0.278
42.195,6.402,13.78,0.535,0.295,-0.293
41.707,4.268,13.659,0.555,0.326,-0.3
42.134,2.256,14.024,0.572,0.356,-0.301
42.683,0.427,14.451,0.595,0.37,-0.304
42.317,-1.402,14.878,0.622,0.36,-0.32
41.829,-3.11,15.427,0.632,0.38,-0.324
