gyrx(deg/s),gyry(deg/s),gyrz(deg/s),accx(g),accy(g),accz(g)
4.817,7.5,7.195,0.712,-0.323,0.26
5.671,7.927,8.659,0.694,-0.309,0.251
6.707,8.537,10.244,0.68,-0.298,0.238
8.11,8.963,12.256,0.663,-0.285,0.227
9.39,10.122,14.573,0.649,-0.276,0.216
10.244,10.793,17.012,0.628,-0.262,0.201
9.817,11.524,20.793,0.607,-0.247,0.177
9.207,14.695,26.037,0.582,-0.228,0.156
7.195,17.561,33.049,0.548,-0.204,0.128
62.988,14.268,37.439,0.512,-0.167,0.102
17.988,30.61,55.549,0.484,-0.122,0.074
-19.024,35.915,77.561,0.448,-0.068,0.04
-23.537,40.793,96.22,0.397,-0.015,0.009
-28.11,48.476,123.17,0.331,0.043,-0.03
-32.805,54.207,155.98,0.248,0.081,-0.053
-37.012,56.707,191.71,0.035,-0.093,-0.116
-40.183,59.329,229.51,0.14,0.369,-0.049
-34.451,62.988,269.02,0.004,0.535,-0.042
-23.963,66.037,307.44,-0.255,0.233,0.046
-12.134,68.72,341.52,-0.385,0.359,0.057
10.671,69.512,370.37,-0.401,0.315,0.099
40.488,69.939,393.29,-0.539,0.271,0.187
72.927,67.561,410.85,-0.725,0.196,0.313
109.88,62.805,425.67,-0.883,0.192,0.426
147.32,57.805,438.72,-0.962,0.139,0.543
180.24,54.878,449.45,-1.019,0.135,0.783
214.09,53.659,460.49,-0.999,0.195,1.015
244.27,51.707,468.9,-0.877,0.19,1.235
268.29,47.256,473.78,-0.714,0.13,1.421
289.27,43.354,478.17,-0.539,0.018,1.578
306.04,41.402,481.89,-0.345,-0.155,1.7
318.66,40.244,482.62,-0.17,-0.386,1.844
328.9,37.805,479.57,0.025,-0.576,1.938
335.49,35.061,472.26,0.31,-0.849,2.044
337.99,31.402,459.08,0.585,-1.085,2.176
337.56,26.098,438.54,0.862,-1.288,2.244
333.6,19.207,410.24,1.157,-1.494,2.267
326.04,12.561,374.69,1.484,-1.759,2.268
315.49,3.659,330.79,1.825,-2.052,2.257
302.56,-10,279.51,2.167,-2.332,2.214
285.55,-25.976,223.35,2.532,-2.58,2.174
266.34,-44.756,161.77,2.887,-2.792,2.113
248.54,-65.488,96.768,3.241,-2.981,1.972
229.69,-82.927,31.768,3.603,-3.178,1.765
208.35,-98.415,-32.5,3.963,-3.42,1.525
185.18,-111.58,-94.329,4.245,-3.667,1.274
157.32,-121.4,-154.02,4.391,-3.92,1.028
125.85,-125.18,-211.59,4.39,-4.221,0.769
92.622,-122.99,-266.34,4.254,-4.461,0.497
58.537,-114.27,-317.74,4.01,-4.636,0.207
27.622,-98.841,-366.71,3.723,-4.879,-0.059
1.585,-77.195,-414.02,3.375,-5.057,-0.289
-20.183,-47.866,-458.72,2.997,-5.13,-0.518
-34.817,-13.171,-500.37,2.647,-5.163,-0.713
-41.28,25,-538.78,2.343,-5.164,-0.891
-40.305,67.012,-574.21,2.051,-5.155,-0.999
-30.915,112.5,-606.52,1.779,-5.131,-1.055
-14.939,159.76,-635.79,1.535,-5.044,-1.091
4.756,208.48,-661.59,1.352,-4.94,-1.121
29.878,255.91,-685.43,1.21,-4.852,-1.107
59.329,301.46,-707.2,1.067,-4.755,-1.07
87.439,343.9,-724.76,0.889,-4.637,-1.027
116.16,383.48,-734.94,0.68,-4.526,-0.975
146.22,421.71,-738.17,0.446,-4.436,-0.91
181.77,457.01,-736.34,0.157,-4.314,-0.841
223.17,487.81,-729.33,-0.156,-4.146,-0.789
269.94,514.39,-717.38,-0.452,-4.021,-0.728
325.43,536.65,-698.35,-0.674,-3.974,-0.626
393.11,552.5,-667.32,-0.89,-3.944,-0.57
468.29,562.93,-622.5,-1.124,-3.965,-0.54
532.56,568.17,-574.51,-1.397,-3.981,-0.53
613.29,575.18,-511.46,-1.667,-4,-0.565
670.37,631.89,-438.9,-1.94,-4.026,-0.662
677.56,575.24,-366.28,-2.264,-4.009,-0.738
646.59,403.35,-317.01,-2.808,-3.999,-0.814
615.3,283.11,-277.62,-3.678,-4.136,-0.892
599.02,222.44,-221.4,-4.834,-4.184,-0.977
457.32,167.19,-133.54,-6.361,-3.844,-1.41
338.05,111.46,-51.951,-7.34,-3.308,-1.845
149.33,14.146,-64.695,-9.023,-2.82,-1.949
-5.244,-67.073,-58.354,-10.909,-2.177,-2.338
-173.96,-109.21,15.488,-8.021,-0.605,-3.669
-342.68,-134.94,65.305,-5.928,1.214,-4.981
-498.84,-147.32,97.378,-5.628,2.223,-5.175
-615.91,-123.48,117.68,-6.457,2.589,-4.379
-651.16,-115.73,154.27,-7.187,4.065,-3.687
-618.35,-97.195,172.5,-6.368,5.142,-2.851
-614.02,-82.805,202.99,-4.242,5.461,-2.212
-556.1,-57.805,226.34,-3.208,5.242,-1.775
-444.33,-38.415,236.04,-3.09,4.415,-1.424
-321.22,-28.476,247.56,-3.259,4.013,-0.841
-193.05,-27.683,261.71,-3.441,4.178,-0.658
-78.232,-30.244,275.67,-3.302,2.965,-0.588
15.793,-28.537,290.37,-2.767,1.917,-0.09
84.39,-25.732,305.24,-2.43,1.474,0.521
120.49,-26.341,319.39,-2.412,0.942,1.416
121.65,-33.293,331.52,-2.135,0.635,1.86
91.89,-50.366,340.12,-1.804,0.312,2.067
35.427,-72.561,345.98,-1.696,0.038,2.155
-40.305,-87.5,348.35,-1.767,-0.015,2.137
-125.73,-115.61,347.38,-1.771,0.043,2.067
-212.99,-154.94,342.44,-1.67,0.094,2.026
-294.57,-197.87,332.32,-1.548,0.133,2.045
-367.07,-241.4,315,-1.492,0.147,2.073
-416.83,-271.83,297.44,-1.458,0.063,2.073
-451.28,-304.57,275.24,-1.299,-0.125,2.053
-489.63,-345.55,247.44,-1.361,-0.321,1.877
-499.51,-373.84,218.11,-1.484,-0.599,1.64
-492.99,-394.82,187.5,-1.556,-1.014,1.369
-479.94,-411.04,157.32,-1.574,-1.464,1.116
-461.89,-423.54,127.56,-1.403,-1.985,0.824
-441.4,-434.08,98.354,-1.403,-2.382,0.673
-419.82,-441.04,72.317,-1.217,-2.686,0.362
-395.92,-443.9,50,-0.998,-2.832,0.12
-372.32,-443.96,31.159,-0.771,-2.898,-0.104
-352.93,-441.65,15.183,-0.538,-2.901,-0.287
-336.4,-437.44,1.098,-0.322,-2.833,-0.428
-322.38,-431.89,-9.878,-0.157,-2.736,-0.568
-311.95,-425.79,-18.963,-0.053,-2.583,-0.689
-302.32,-418.6,-26.951,0.022,-2.376,-0.799
-294.63,-409.57,-33.049,0.064,-2.168,-0.913
-288.17,-398.35,-37.744,0.11,-1.997,-0.995
-279.51,-384.51,-40.183,0.158,-1.805,-1.061
-271.95,-369.27,-41.28,0.202,-1.573,-1.119
-265.06,-353.35,-41.098,0.266,-1.37,-1.156
-254.94,-336.52,-39.085,0.328,-1.194,-1.188
-241.83,-318.54,-36.89,0.369,-1.046,-1.215
-226.34,-300.92,-34.817,0.443,-0.95,-1.241
-209.27,-283.54,-32.561,0.56,-0.863,-1.271
-192.26,-266.28,-28.78,0.66,-0.838,-1.274
-174.88,-248.84,-23.598,0.726,-0.841,-1.241
-157.5,-231.46,-17.866,0.775,-0.761,-1.181
-142.13,-214.02,-12.317,0.866,-0.665,-1.139
-128.41,-195.67,-6.585,0.921,-0.634,-1.103
-115.31,-176.34,-1.037,0.958,-0.64,-1.067
-103.66,-156.1,3.902,1.021,-0.621,-1.013
-94.085,-133.48,7.988,1.113,-0.612,-0.962
-86.402,-108.84,11.159,1.187,-0.598,-0.914
-80.61,-81.829,12.439,1.27,-0.567,-0.87
-75.732,-55,12.012,1.409,-0.514,-0.814
-71.89,-29.756,9.817,1.603,-0.434,-0.735
-68.11,-5.488,6.89,1.818,-0.345,-0.667
-64.39,18.415,4.634,2.033,-0.288,-0.59
-60.976,41.768,2.988,2.229,-0.218,-0.492
-55.854,64.451,2.683,2.404,-0.138,-0.363
-49.756,85.122,2.5,2.53,-0.063,-0.214
-42.744,102.13,2.378,2.645,-0.015,-0.088
-32.988,115.24,2.622,2.724,-0.004,0.016
-20.732,123.6,3.11,2.793,-0.026,0.135
-5.61,126.58,3.354,2.861,-0.091,0.23
11.585,125.12,3.537,2.927,-0.138,0.319
28.232,117.32,-1.22,2.979,-0.204,0.413
47.012,109.94,-2.561,2.96,-0.312,0.502
64.817,101.04,-4.268,2.859,-0.403,0.593
81.646,88.659,-10.488,2.752,-0.514,0.637
95.427,75.793,-16.646,2.616,-0.638,0.65
106.52,62.683,-22.561,2.43,-0.731,0.675
113.11,49.573,-28.049,2.225,-0.808,0.688
115.06,37.561,-32.988,1.995,-0.84,0.692
112.81,26.159,-37.378,1.859,-0.885,0.661
106.1,15.793,-41.098,1.658,-0.857,0.633
97.012,6.829,-43.902,1.518,-0.886,0.598
85.61,0,-46.098,1.385,-0.889,0.571
72.561,-5.366,-48.049,1.291,-0.874,0.554
58.902,-9.268,-49.268,1.215,-0.846,0.543
44.756,-12.256,-50.244,1.156,-0.819,0.543
31.22,-13.963,-51.768,1.095,-0.8,0.525
18.598,-14.146,-53.232,1.035,-0.769,0.496
7.439,-13.476,-54.573,0.968,-0.747,0.46
-1.829,-12.622,-56.098,0.917,-0.742,0.417
-8.78,-11.098,-57.439,0.873,-0.731,0.386
-13.171,-8.902,-58.72,0.836,-0.709,0.359
-15.183,-6.524,-59.817,0.797,-0.686,0.338
-14.939,-3.902,-61.098,0.759,-0.663,0.312
-12.683,-1.037,-62.317,0.732,-0.649,0.285
-9.451,1.768,-63.171,0.705,-0.65,0.267
-5.122,4.451,-63.598,0.669,-0.652,0.247
0.488,7.256,-63.354,0.631,-0.654,0.229
6.159,10.305,-63.11,0.604,-0.646,0.216
12.012,13.293,-62.744,0.576,-0.632,0.203
17.439,15.793,-61.585,0.558,-0.618,0.195
22.134,18.476,-60.366,0.544,-0.61,0.194
26.28,20.976,-59.085,0.528,-0.589,0.189
29.451,23.171,-57.866,0.51,-0.559,0.182
31.341,25.549,-56.463,0.496,-0.529,0.168
32.012,27.5,-54.695,0.485,-0.502,0.162
31.28,29.329,-52.561,0.469,-0.469,0.152
29.451,30.671,-50.427,0.454,-0.431,0.142
26.707,32.012,-48.049,0.439,-0.395,0.131
23.232,33.11,-45.183,0.418,-0.361,0.118
19.024,34.024,-42.256,0.401,-0.336,0.113
14.024,34.756,-39.329,0.392,-0.316,0.112
8.293,35.488,-36.463,0.385,-0.303,0.109
2.561,35.854,-33.415,0.382,-0.286,0.104
-3.049,35.976,-30.244,0.383,-0.269,0.096
-9.085,36.037,-27.012,0.379,-0.255,0.089
-14.39,35.671,-23.72,0.379,-0.243,0.083
-18.72,34.573,-20.305,0.371,-0.234,0.09
-22.073,33.354,-17.134,0.368,-0.23,0.102
-24.695,32.073,-13.902,0.365,-0.229,0.109
-26.829,30.549,-10.854,0.361,-0.236,0.111
-27.805,28.78,-7.805,0.351,-0.256,0.121
-27.927,26.768,-4.756,0.342,-0.277,0.124
-27.5,24.756,-1.524,0.344,-0.297,0.134
-27.256,22.744,1.951,0.348,-0.314,0.147
-26.22,20.305,5.305,0.35,-0.336,0.163
-24.695,17.805,8.232,0.36,-0.361,0.186
-23.11,15.122,10.793,0.376,-0.382,0.209
-20.915,12.134,13.476,0.394,-0.409,0.229
-18.902,9.512,16.28,0.412,-0.445,0.248
-17.439,6.829,19.573,0.421,-0.486,0.273
-15.976,4.024,23.476,0.436,-0.498,0.298
-14.939,1.585,28.11,0.465,-0.505,0.311
-14.39,-0.427,33.232,0.484,-0.513,0.319
-14.329,-1.89,38.415,0.5,-0.517,0.336
-14.756,-2.5,43.598,0.53,-0.53,0.363
-16.159,-2.622,48.171,0.57,-0.548,0.39
-17.5,-2.622,51.89,0.606,-0.571,0.418
-19.695,-2.012,54.573,0.646,-0.589,0.447
-22.256,-0.366,56.159,0.688,-0.604,0.475
-24.573,2.012,56.89,0.726,-0.609,0.502
-26.707,4.39,56.402,0.764,-0.602,0.533
-28.841,7.195,54.878,0.813,-0.593,0.569
-30.244,10.183,52.134,0.858,-0.573,0.601
-30.915,13.293,49.024,0.899,-0.56,0.615
-31.22,16.402,45.488,0.946,-0.55,0.627
-30.61,19.085,41.768,0.994,-0.536,0.646
-28.78,21.768,38.171,1.045,-0.527,0.67
-26.22,24.207,33.902,1.094,-0.524,0.689
-22.988,26.22,28.902,1.146,-0.528,0.704
-18.598,27.683,23.72,1.203,-0.542,0.708
-13.171,28.963,18.537,1.261,-0.569,0.699
-7.012,29.695,13.11,1.302,-0.582,0.692
-0.061,29.695,7.073,1.336,-0.598,0.682
7.683,28.902,0.976,1.361,-0.618,0.688
15.915,27.683,-5.122,1.377,-0.63,0.688
23.963,25.732,-11.098,1.381,-0.63,0.68
31.098,23.415,-16.646,1.366,-0.632,0.663
37.5,20.732,-21.402,1.335,-0.64,0.646
42.988,17.805,-25.61,1.299,-0.641,0.625
46.951,14.817,-29.268,1.257,-0.629,0.603
49.756,12.073,-32.195,1.215,-0.621,0.579
51.28,9.39,-34.573,1.166,-0.621,0.562
51.585,6.707,-36.585,1.119,-0.62,0.542
50.671,4.207,-37.744,1.075,-0.605,0.524
48.72,1.768,-38.78,1.036,-0.583,0.505
46.28,-0.488,-39.695,0.989,-0.557,0.481
42.927,-2.561,-40.122,0.944,-0.535,0.455
39.085,-4.329,-40.244,0.89,-0.516,0.432
34.756,-5.976,-40.305,0.849,-0.5,0.402
30.244,-7.195,-40.183,0.806,-0.48,0.38
25.488,-8.476,-39.756,0.764,-0.457,0.357
20.915,-9.634,-39.024,0.725,-0.434,0.328
16.341,-10.366,-38.049,0.683,-0.415,0.293
12.012,-11.22,-36.585,0.647,-0.396,0.271
8.049,-11.89,-35.061,0.616,-0.377,0.25
4.39,-12.317,-33.415,0.593,-0.366,0.242
0.976,-12.378,-31.159,0.576,-0.357,0.232
-2.256,-12.256,-28.598,0.553,-0.349,0.222
-4.939,-11.951,-25.915,0.533,-0.352,0.203
-7.134,-11.524,-22.866,0.513,-0.355,0.188
-8.902,-10.915,-19.878,0.489,-0.361,0.182
-10,-10.122,-16.585,0.474,-0.364,0.178
-10.732,-9.451,-13.293,0.462,-0.371,0.181
-11.585,-8.476,-10.305,0.452,-0.387,0.189
-11.89,-7.683,-7.134,0.44,-0.396,0.19
-12.073,-7.134,-4.268,0.433,-0.409,0.196
-12.378,-6.463,-1.341,0.433,-0.415,0.204
-12.561,-5.549,1.768,0.424,-0.417,0.202
-12.805,-4.939,5.244,0.411,-0.426,0.207
-13.049,-4.329,8.841,0.409,-0.438,0.22
-13.598,-3.902,12.5,0.411,-0.438,0.227
-13.902,-3.537,16.22,0.413,-0.434,0.237
-13.963,-3.415,20,0.425,-0.436,0.24
-14.085,-3.72,23.293,0.438,-0.448,0.256
-14.146,-3.902,26.28,0.451,-0.466,0.278
-14.024,-4.207,28.72,0.471,-0.478,0.304
-13.659,-4.756,30.61,0.501,-0.486,0.323
-13.11,-5.427,32.073,0.534,-0.492,0.34
-12.073,-6.037,33.232,0.563,-0.497,0.359
-11.341,-6.463,33.841,0.592,-0.502,0.383
-10.793,-6.89,34.39,0.619,-0.504,0.4
-10.305,-7.073,34.695,0.655,-0.5,0.423
-9.817,-6.89,34.634,0.696,-0.493,0.441
-9.39,-6.585,34.634,0.733,-0.481,0.45
-9.146,-6.159,34.329,0.765,-0.47,0.468
-8.659,-5.61,33.902,0.805,-0.459,0.485
-8.171,-4.756,33.293,0.837,-0.45,0.5
-7.256,-3.72,32.5,0.86,-0.447,0.509
-5.915,-2.805,31.768,0.885,-0.441,0.514
-4.329,-1.89,30.793,0.902,-0.442,0.521
-2.378,-0.915,29.39,0.916,-0.446,0.53
-0.366,-0.061,28.171,0.932,-0.446,0.534
1.646,0.793,27.134,0.946,-0.454,0.542
3.415,1.524,26.463,0.947,-0.465,0.549
4.451,2.195,26.22,0.946,-0.483,0.556
5.061,2.988,26.341,0.938,-0.497,0.562
4.695,4.024,27.256,0.925,-0.501,0.566
3.537,5.427,28.78,0.922,-0.501,0.56
2.195,6.951,30.366,0.91,-0.507,0.558
0.915,8.598,31.829,0.9,-0.515,0.541
-0.488,10.305,33.11,0.883,-0.523,0.505
-1.22,11.646,33.902,0.869,-0.526,0.471
-1.341,12.378,34.39,0.853,-0.523,0.437
-0.244,12.683,34.573,0.835,-0.523,0.41
1.829,12.439,34.085,0.814,-0.522,0.385
4.756,11.524,33.293,0.786,-0.521,0.37
7.988,10.488,32.439,0.769,-0.522,0.369
11.402,9.207,31.22,0.757,-0.52,0.366
15,7.866,29.695,0.735,-0.522,0.354
17.683,6.585,28.415,0.7,-0.534,0.341
19.329,5.183,27.744,0.656,-0.551,0.321
19.756,3.72,27.622,0.618,-0.559,0.3
18.659,2.073,27.866,0.585,-0.55,0.282
15.915,0.366,28.476,0.568,-0.547,0.264
11.402,-1.098,29.39,0.544,-0.547,0.26
5.488,-2.317,30,0.523,-0.549,0.252
-1.646,-3.171,30.671,0.502,-0.55,0.233
-9.451,-3.659,31.768,0.492,-0.544,0.204
-17.561,-3.841,33.11,0.475,-0.529,0.163
-25.183,-3.659,34.939,0.456,-0.499,0.135
-32.134,-3.11,37.561,0.44,-0.456,0.108
-37.927,-2.439,40.976,0.417,-0.417,0.083
-42.744,-1.524,45,0.395,-0.385,0.077
-47.317,-0.061,49.695,0.369,-0.352,0.07
-51.22,1.89,55.061,0.332,-0.327,0.07
-54.634,3.598,60.793,0.303,-0.301,0.072
-57.744,5.305,66.707,0.279,-0.281,0.05
-60.793,7.683,73.963,0.229,-0.257,0.013
-63.78,10.488,82.744,0.171,-0.24,-0.036
-66.22,13.963,93.598,0.108,-0.209,-0.089
-68.537,17.5,106.95,0.05,-0.173,-0.117
-69.573,20.671,123.96,-0.002,-0.133,-0.142
-69.268,22.927,144.09,-0.073,-0.091,-0.159
-67.012,24.817,166.89,-0.148,-0.042,-0.156
-61.463,27.073,191.71,-0.229,-0.001,-0.125
-51.951,28.537,217.62,-0.301,0.04,-0.069
-38.476,29.634,244.02,-0.365,0.062,0.006
-21.463,30.122,269.08,-0.408,0.063,0.113
-0.366,30.061,292.68,-0.458,0.06,0.248
22.622,28.415,313.78,-0.525,0.047,0.409
47.317,27.195,331.71,-0.585,0.036,0.582
72.317,26.585,346.95,-0.604,0.003,0.785
97.805,26.707,360.61,-0.573,-0.053,1.008
122.81,26.28,372.01,-0.493,-0.127,1.241
147.5,24.573,380.31,-0.389,-0.19,1.458
174.94,23.049,387.38,-0.239,-0.268,1.646
202.13,22.561,392.68,-0.058,-0.368,1.797
228.9,22.256,395.18,0.154,-0.499,1.925
253.78,20.671,395.49,0.384,-0.634,2.033
275,15.793,391.34,0.632,-0.813,2.157
299.94,14.634,384.63,0.893,-1.049,2.263
315.79,12.5,373.96,1.14,-1.274,2.309
325.98,9.024,360.31,1.398,-1.516,2.311
328.11,4.878,341.65,1.695,-1.798,2.289
321.34,1.768,315.67,2.033,-2.075,2.251
310.06,-0.122,282.38,2.353,-2.311,2.193
290.98,-0.976,240.79,2.659,-2.537,1.964
267.56,-3.293,190.18,2.931,-2.656,1.733
233.05,-11.951,131.4,3.216,-2.836,1.414
178.11,-26.22,69.695,3.445,-3.1,1.103
193.96,-12.439,11.646,3.627,-3.394,0.814
182.07,-12.5,-49.756,3.786,-3.583,0.578
163.17,-13.171,-110.98,3.915,-3.728,0.385
151.04,-9.146,-170,3.991,-3.857,0.235
141.83,-3.841,-226.22,3.992,-4.017,0.085
131.34,7.195,-280.67,3.809,-4,-0.111
123.72,19.573,-333.78,3.743,-4.73,-0.349
118.29,33.476,-383.48,3.445,-4.792,-0.635
114.45,50.976,-427.81,3.172,-4.9,-0.834
109.82,71.768,-467.87,3.008,-5.04,-1.016
107.01,94.39,-504.15,2.795,-5.097,-1.189
107.01,118.6,-536.46,2.579,-5.078,-1.338
109.21,144.57,-564.09,2.285,-5.056,-1.447
113.42,171.34,-587.56,1.995,-5.007,-1.563
119.57,198.96,-607.32,1.747,-4.89,-1.679
125.55,228.23,-623.17,1.488,-4.756,-1.747
132.01,259.69,-635.3,1.21,-4.619,-1.745
140,293.11,-645.12,0.966,-4.461,-1.729
147.44,326.58,-652.56,0.744,-4.325,-1.708
157.38,359.21,-658.17,0.511,-4.215,-1.629
174.02,389.27,-663.72,0.269,-4.09,-1.544
198.11,416.34,-668.72,0.016,-3.96,-1.46
231.65,440.49,-671.95,-0.229,-3.821,-1.37
270.61,460.85,-672.38,-0.458,-3.717,-1.306
321.77,477.38,-668.6,-0.703,-3.672,-1.195
395.43,488.48,-658.29,-0.939,-3.617,-1.108
430,478.11,-635.18,-1.191,-3.594,-1.071
511.83,489.02,-592.68,-1.459,-3.667,-1.065
585.55,483.48,-524.09,-1.741,-3.811,-1.108
625.98,476.65,-437.93,-2.016,-3.972,-1.18
631.34,503.6,-363.6,-2.287,-4.078,-1.265
551.16,427.87,-268.48,-2.535,-3.949,-1.427
465.73,297.26,-207.07,-2.726,-4.059,-1.698
385.55,235.67,-161.59,-3.229,-3.642,-1.886
290.31,164.02,-121.52,-4.322,-3.418,-1.99
275.43,65.244,-98.902,-6.141,-3.509,-1.93
223.05,-19.939,-101.65,-7.707,-3.26,-1.507
77.256,-70.854,-154.02,-9.599,-3.307,-1.575
-89.756,-93.354,-119.39,-9.878,-2.438,-2.564
-256.52,-122.62,-53.72,-7.14,-0.397,-4.058
-424.82,-126.1,-20.732,-6.208,1.16,-4.775
-552.99,-108.42,3.598,-6.468,2.702,-4.704
-640.3,-95.366,33.476,-6.888,3.588,-3.868
-678.78,-80.732,58.841,-7.299,4.354,-2.876
-663.96,-49.634,80.183,-5.909,3.799,-1.903
-615.73,-38.537,92.622,-4.451,3.746,-1.317
-550.85,-25.976,113.72,-3.854,3.616,-0.533
-476.83,-8.415,144.82,-3.275,3.537,-0.22
-372.13,-12.744,166.65,-3.377,3.482,0.076
-258.66,-22.012,190.91,-3.204,3.288,0.332
-150.61,-34.085,215,-2.739,2.99,0.661
-54.085,-49.451,237.81,-2.478,2.373,1.066
26.159,-64.146,258.35,-2.489,1.593,1.734
80.854,-81.341,276.1,-2.188,1.27,2.363
104.76,-105.37,291.77,-2.208,0.771,2.708
99.573,-148.72,305.37,-2.058,0.447,2.928
67.134,-168.54,317.13,-2.014,0.231,2.946
14.878,-172.32,325.73,-2.123,0.062,2.931
-51.768,-194.09,331.22,-2.121,0.018,2.861
-125.12,-229.45,333.48,-2.04,0.038,2.793
-202.26,-268.84,330.73,-1.922,0.05,2.773
-267.26,-295,326.71,-1.951,0.069,2.679
-305.67,-313.54,296.46,-1.734,-0.026,2.689
-344.76,-359.94,264.02,-1.386,-0.114,2.638
-406.16,-388.54,278.54,-1.412,-0.216,2.424
-415.98,-409.27,248.35,-1.468,-0.43,2.109
-411.77,-433.78,213.29,-1.484,-0.781,1.812
-397.19,-452.56,179.76,-1.342,-1.177,1.521
-374.82,-467.56,147.01,-1.251,-1.56,1.234
-352.38,-479.15,116.52,-1.418,-1.669,0.885
-326.65,-485.61,89.939,-0.828,-2.788,0.589
-298.96,-488.17,65.854,-0.941,-2.494,0.354
-272.74,-487.32,43.293,-0.93,-2.702,0.107
-247.32,-482.13,23.11,-0.745,-2.791,-0.107
-224.69,-470.67,5.305,-0.606,-2.805,-0.225
-206.22,-454.02,-10.488,-0.477,-2.842,-0.299
-190.91,-434.88,-24.268,-0.312,-2.728,-0.414
-179.09,-414.76,-34.695,-0.181,-2.54,-0.569
-169.15,-393.17,-42.683,-0.113,-2.321,-0.713
-159.94,-370.92,-48.78,-0.04,-2.063,-0.901
-150.67,-347.81,-53.537,0.071,-1.829,-1.107
-140.43,-324.45,-57.744,0.18,-1.63,-1.25
-128.11,-301.95,-62.744,0.274,-1.447,-1.303
-117.87,-281.58,-67.378,0.384,-1.301,-1.285
-108.35,-262.74,-70.854,0.492,-1.204,-1.263
-99.573,-244.82,-73.354,0.534,-1.142,-1.274
-91.829,-227.26,-74.085,0.521,-1.058,-1.295
-85.793,-211.1,-72.561,0.517,-0.959,-1.297
-79.695,-195.49,-69.451,0.55,-0.841,-1.303
-72.073,-179.09,-66.341,0.589,-0.76,-1.262
-62.134,-163.41,-64.085,0.626,-0.694,-1.199
-51.037,-149.33,-63.354,0.668,-0.642,-1.144
-38.476,-136.16,-63.293,0.726,-0.634,-1.1
-25.61,-123.17,-63.476,0.789,-0.649,-1.049
-12.927,-110.61,-62.927,0.848,-0.629,-0.995
-1.707,-98.78,-61.89,0.932,-0.568,-0.933
8.537,-87.012,-60.488,1.016,-0.499,-0.851
18.598,-74.756,-59.695,1.085,-0.427,-0.755
28.171,-62.561,-59.756,1.159,-0.369,-0.663
37.195,-51.22,-60.671,1.225,-0.353,-0.579
45.61,-40.366,-61.768,1.324,-0.361,-0.492
52.5,-30.549,-62.988,1.455,-0.374,-0.39
58.537,-21.159,-64.329,1.614,-0.367,-0.287
63.11,-12.622,-65.122,1.766,-0.318,-0.192
66.28,-4.878,-65.427,1.905,-0.252,-0.106
68.963,1.829,-65.549,2.015,-0.194,-0.039
71.098,7.195,-65.671,2.112,-0.147,0.029
72.683,11.646,-65.732,2.189,-0.108,0.106
75.122,14.939,-65.427,2.272,-0.092,0.155
77.866,17.073,-65.732,2.311,-0.08,0.19
81.28,18.049,-66.524,2.331,-0.066,0.264
84.024,15.549,-67.561,2.38,-0.063,0.342
87.5,16.463,-67.988,2.414,-0.091,0.407
89.512,16.585,-68.659,2.404,-0.124,0.483
90.183,14.817,-69.146,2.367,-0.128,0.565
90.61,12.988,-69.634,2.333,-0.128,0.626
89.634,10.854,-70.305,2.278,-0.138,0.666
87.195,8.354,-71.159,2.184,-0.161,0.676
83.659,6.098,-71.768,2.081,-0.194,0.688
78.841,4.146,-71.829,1.985,-0.223,0.671
73.415,2.561,-71.524,1.877,-0.234,0.65
67.439,1.829,-71.159,1.78,-0.235,0.617
61.463,1.707,-70.122,1.688,-0.232,0.578
55.183,2.317,-68.841,1.602,-0.248,0.535
48.537,4.085,-67.622,1.519,-0.27,0.503
41.89,6.098,-65.671,1.446,-0.282,0.468
35.793,8.659,-63.841,1.384,-0.285,0.429
30.305,11.646,-62.134,1.322,-0.28,0.389
25.915,14.817,-60.61,1.254,-0.286,0.353
22.439,17.988,-59.146,1.186,-0.308,0.313
20.305,21.037,-57.561,1.118,-0.338,0.275
19.146,24.024,-56.22,1.051,-0.348,0.245
19.634,26.707,-55.122,0.994,-0.353,0.222
21.341,29.268,-53.902,0.942,-0.366,0.185
23.476,31.341,-52.5,0.875,-0.384,0.163
25.305,33.415,-50.732,0.824,-0.399,0.138
27.195,35.366,-48.841,0.769,-0.411,0.114
28.537,36.89,-46.646,0.709,-0.416,0.101
29.695,38.049,-44.329,0.656,-0.414,0.083
30.183,39.024,-41.768,0.604,-0.418,0.063
29.817,40,-39.207,0.554,-0.429,0.051
28.963,40.671,-36.707,0.506,-0.437,0.062
27.317,40.854,-34.634,0.477,-0.438,0.071
24.451,40.732,-32.866,0.447,-0.425,0.072
20.793,40.549,-31.341,0.414,-0.4,0.086
16.402,40.183,-29.817,0.387,-0.373,0.093
11.037,39.756,-27.744,0.356,-0.344,0.09
4.756,39.329,-25.183,0.324,-0.319,0.077
-2.134,38.78,-22.012,0.288,-0.289,0.067
-9.39,38.11,-18.232,0.261,-0.258,0.063
-16.22,37.073,-14.329,0.23,-0.229,0.052
-23.232,35.976,-10.488,0.202,-0.22,0.05
-30.183,35,-6.463,0.189,-0.217,0.055
-36.524,33.841,-2.134,0.177,-0.229,0.071
-42.5,32.561,2.5,0.171,-0.237,0.089
-47.561,31.159,7.195,0.171,-0.243,0.106
-52.134,29.878,12.256,0.155,-0.245,0.11
-55.671,28.476,17.195,0.138,-0.263,0.121
-58.537,26.829,21.829,0.129,-0.289,0.13
-60.122,24.939,26.28,0.123,-0.294,0.142
-60.976,22.927,30.183,0.122,-0.314,0.143
-61.28,20.915,33.598,0.112,-0.336,0.149
-60.976,18.659,36.89,0.112,-0.357,0.161
-60.183,15.976,39.756,0.124,-0.373,0.182
-59.146,12.988,41.89,0.134,-0.383,0.206
-57.5,9.878,43.841,0.149,-0.396,0.222
-56.037,6.707,45.854,0.16,-0.419,0.233
-55.061,3.537,48.232,0.171,-0.438,0.243
-54.451,0.366,50.732,0.189,-0.444,0.261
-53.78,-2.683,52.988,0.228,-0.438,0.282
-53.598,-5.549,55.366,0.274,-0.436,0.3
-53.963,-8.354,57.561,0.319,-0.434,0.313
-54.756,-10.549,59.451,0.354,-0.438,0.338
-56.402,-11.707,61.341,0.394,-0.451,0.355
-58.659,-12.195,62.988,0.432,-0.463,0.374
-61.341,-12.073,64.39,0.482,-0.464,0.403
-64.207,-11.28,65.183,0.537,-0.458,0.425
-66.159,-10.183,65.366,0.583,-0.462,0.448
-66.951,-9.207,64.695,0.631,-0.471,0.467
-67.012,-8.415,63.598,0.696,-0.478,0.487
-65.854,-7.378,62.012,0.768,-0.477,0.512
-63.476,-6.768,59.878,0.839,-0.478,0.564
-59.878,-6.707,57.317,0.91,-0.476,0.62
-55.122,-6.646,54.268,0.985,-0.48,0.665
-50.061,-6.646,50.793,1.053,-0.489,0.706
-44.634,-6.829,47.012,1.11,-0.501,0.757
-38.72,-7.378,42.805,1.166,-0.512,0.782
-32.927,-7.988,38.171,1.214,-0.519,0.806
-27.012,-8.78,33.841,1.261,-0.521,0.83
-21.28,-9.573,29.39,1.303,-0.521,0.841
-16.341,-10.671,25.061,1.336,-0.535,0.85
-11.585,-11.768,20.976,1.354,-0.528,0.868
-6.951,-12.744,17.012,1.374,-0.516,0.875
-2.866,-13.841,12.927,1.389,-0.515,0.88
0.793,-14.817,8.841,1.395,-0.512,0.882
3.963,-15.732,5.549,1.383,-0.513,0.873
6.402,-16.28,2.439,1.359,-0.522,0.858
8.415,-17.012,-0.427,1.328,-0.524,0.833
10.427,-17.5,-3.354,1.288,-0.522,0.813
11.646,-17.683,-6.037,1.253,-0.518,0.786
12.439,-17.622,-8.476,1.219,-0.512,0.762
12.805,-17.561,-10.732,1.183,-0.513,0.74
12.561,-17.073,-12.805,1.144,-0.52,0.708
11.951,-16.646,-14.573,1.105,-0.522,0.678
11.28,-16.098,-16.402,1.073,-0.508,0.645
10.183,-15.488,-17.988,1.042,-0.5,0.61
9.024,-14.939,-19.329,1.011,-0.488,0.584
7.988,-14.329,-20.732,0.972,-0.477,0.549
6.707,-14.085,-21.951,0.941,-0.468,0.52
5.854,-13.902,-23.11,0.909,-0.453,0.491
4.878,-13.72,-23.963,0.882,-0.437,0.464
3.902,-13.598,-24.817,0.853,-0.42,0.431
2.927,-13.415,-25.122,0.825,-0.412,0.403
1.951,-13.232,-24.878,0.793,-0.397,0.389
1.037,-13.049,-24.268,0.768,-0.387,0.375
0.061,-12.683,-23.171,0.749,-0.375,0.356
-1.159,-12.073,-21.646,0.721,-0.375,0.342
-2.622,-11.22,-20,0.693,-0.377,0.327
-4.024,-10.671,-18.476,0.676,-0.374,0.319
-5.366,-10,-16.829,0.652,-0.374,0.311
-6.22,-9.512,-14.878,0.638,-0.375,0.302
-7.073,-9.024,-13.11,0.625,-0.379,0.288
-7.622,-8.659,-11.22,0.611,-0.381,0.285
-8.049,-8.354,-9.085,0.6,-0.381,0.278
-8.293,-8.354,-6.89,0.594,-0.369,0.272
-8.354,-8.598,-4.512,0.59,-0.363,0.273
-8.354,-8.78,-2.073,0.583,-0.357,0.267
-8.415,-8.902,0.427,0.569,-0.354,0.262
-8.476,-8.902,2.988,0.567,-0.358,0.264
-8.598,-9.024,5.671,0.574,-0.363,0.267
-8.963,-8.902,8.171,0.579,-0.366,0.273
-9.512,-8.841,10.61,0.583,-0.372,0.275
-9.878,-8.902,12.988,0.59,-0.372,0.277
-10.244,-8.963,15.183,0.598,-0.38,0.294
-10.305,-8.963,17.134,0.602,-0.391,0.313
-10.671,-9.451,19.024,0.606,-0.397,0.323
-11.28,-9.695,21.037,0.612,-0.404,0.34
-11.402,-10.305,22.744,0.622,-0.411,0.349
-11.768,-11.037,24.329,0.631,-0.413,0.366
-12.012,-11.768,25.427,0.644,-0.419,0.377
-12.134,-12.378,25.854,0.667,-0.424,0.389
-12.073,-13.293,25.793,0.691,-0.435,0.399
-11.89,-14.146,25.61,0.709,-0.445,0.418
-11.22,-14.817,24.939,0.74,-0.452,0.435
-10.366,-15.488,23.659,0.771,-0.45,0.445
-9.451,-15.915,22.317,0.803,-0.454,0.45
-8.293,-16.22,20.976,0.834,-0.448,0.462
-7.317,-16.402,19.512,0.863,-0.441,0.477
-6.646,-16.159,17.866,0.891,-0.435,0.487
-6.28,-15.61,16.28,0.913,-0.435,0.486
-6.098,-14.939,15,0.927,-0.44,0.488
-5.61,-14.207,13.537,0.94,-0.447,0.497
-5.183,-13.293,11.707,0.957,-0.445,0.502
-4.634,-12.012,9.878,0.969,-0.451,0.508
-3.72,-10.854,8.11,0.973,-0.46,0.517
-2.866,-9.695,6.159,0.978,-0.469,0.516
-2.195,-8.78,4.207,0.978,-0.473,0.521
-1.463,-7.744,2.134,0.974,-0.473,0.523
-1.037,-6.585,0.183,0.972,-0.475,0.516
-0.488,-5.732,-1.768,0.963,-0.48,0.508
-0.061,-5,-3.232,0.952,-0.485,0.505
0.549,-4.39,-4.451,0.949,-0.486,0.49
1.402,-4.085,-5.488,0.945,-0.483,0.476
2.5,-3.841,-6.159,0.935,-0.474,0.461
3.659,-3.841,-6.402,0.929,-0.468,0.438
4.573,-3.841,-6.646,0.922,-0.47,0.413
5.305,-4.085,-7.195,0.911,-0.476,0.398
5.305,-4.512,-7.378,0.895,-0.486,0.388
4.817,-4.939,-7.134,0.883,-0.496,0.376
3.659,-4.939,-6.89,0.862,-0.499,0.363
2.317,-5.061,-6.28,0.838,-0.488,0.348
1.22,-5.61,-5.549,0.817,-0.48,0.334
0.305,-5.854,-4.878,0.792,-0.472,0.327
-0.488,-5.61,-3.902,0.768,-0.465,0.312
-1.341,-5.366,-2.683,0.744,-0.465,0.294
-2.195,-4.878,-1.463,0.71,-0.462,0.277
-3.049,-4.451,-0.122,0.687,-0.458,0.274
-4.085,-3.78,1.037,0.668,-0.45,0.271
-5.549,-2.805,2.195,0.649,-0.435,0.258
-7.073,-1.951,3.293,0.627,-0.423,0.256
-9.085,-1.402,4.268,0.607,-0.428,0.255
-11.707,-0.732,5.732,0.59,-0.43,0.254
-14.878,-0.305,7.683,0.579,-0.424,0.259
-18.963,-0.244,10.061,0.559,-0.424,0.256
-23.659,-0.244,12.744,0.536,-0.413,0.244
-28.902,-0.671,15.488,0.502,-0.39,0.224
-34.39,-1.159,18.293,0.481,-0.378,0.195
-39.268,-1.646,21.585,0.459,-0.374,0.158
-43.902,-1.768,25.183,0.423,-0.366,0.115
-48.537,-2.195,29.695,0.384,-0.359,0.077
-53.232,-2.439,35.061,0.353,-0.343,0.048
-56.463,-2.683,41.768,0.303,-0.323,0.013
-58.902,-2.805,49.878,0.244,-0.295,-0.016
-60.793,-3.11,59.634,0.187,-0.261,-0.04
-61.89,-3.415,72.134,0.118,-0.242,-0.06
-62.805,-4.085,87.073,0.022,-0.231,-0.057
-63.415,-4.756,103.9,-0.075,-0.216,-0.046
-63.415,-6.037,122.81,-0.162,-0.19,-0.043
-61.768,-7.927,144.15,-0.257,-0.172,-0.04
-58.78,-10.549,166.89,-0.36,-0.154,-0.028
-52.683,-13.72,190.18,-0.458,-0.135,-0.012
-43.598,-16.646,213.84,-0.557,-0.117,0.01
-31.585,-19.146,238.05,-0.645,-0.101,0.055
-16.951,-21.402,262.32,-0.701,-0.085,0.129
-0.976,-23.049,284.88,-0.74,-0.067,0.208
16.22,-22.256,305.67,-0.758,-0.058,0.316
34.939,-21.098,324.21,-0.746,-0.049,0.428
53.78,-17.622,340.31,-0.691,-0.038,0.54
71.646,-12.378,353.42,-0.583,-0.032,0.666
87.439,-5.549,363.54,-0.432,-0.037,0.821
101.89,2.439,371.71,-0.248,-0.069,0.969
116.58,9.695,378.11,-0.046,-0.097,1.135
133.11,14.024,383.35,0.185,-0.109,1.283
150.91,15.854,390.18,0.411,-0.135,1.415
170.06,15.488,396.4,0.634,-0.208,1.521
189.76,11.951,401.65,0.863,-0.336,1.61
208.78,5.488,404.45,1.046,-0.477,1.71
226.89,-3.841,403.6,1.218,-0.64,1.789
240.85,-14.146,398.23,1.389,-0.86,1.831
250.12,-23.476,387.38,1.554,-1.144,1.809
253.9,-30.305,369.88,1.715,-1.471,1.754
251.1,-34.39,343.54,1.885,-1.798,1.65
241.4,-35.366,308.54,2.098,-2.103,1.524
223.29,-32.866,266.16,2.319,-2.366,1.364
199.82,-32.866,216.59,2.479,-2.639,1.155
173.05,-24.939,164.21,2.585,-2.898,0.921
145.06,-5.915,110.06,2.679,-3.152,0.679
120.37,3.72,46.463,2.806,-3.354,0.476
95.366,14.817,-15.854,2.975,-3.497,0.269
82.744,32.866,-70.732,3.196,-3.631,0.05
77.073,50.61,-124.39,3.408,-3.706,-0.169
73.049,67.561,-178.84,3.671,-3.729,-0.414
79.146,85.793,-228.41,3.987,-3.756,-0.601
91.341,104.08,-274.21,4.164,-3.915,-0.819
106.4,121.1,-316.46,4.289,-4.056,-0.979
123.11,137.32,-354.08,4.247,-4.163,-1.178
139.09,153.96,-388.23,3.968,-4.355,-1.367
150.18,172.74,-420.12,3.677,-4.529,-1.501
155.98,192.93,-448.96,3.381,-4.562,-1.683
156.22,214.21,-474.82,3.066,-4.578,-1.828
152.68,238.11,-498.54,2.753,-4.547,-1.936
145.37,265,-520.37,2.418,-4.502,-2.03
134.02,293.6,-538.96,2.054,-4.427,-2.094
122.07,323.72,-552.8,1.716,-4.32,-2.12
112.13,356.28,-562.68,1.451,-4.161,-2.091
104.27,391.22,-569.15,1.232,-3.963,-2.043
100.98,426.83,-571.71,1.021,-3.733,-1.994
105.67,462.87,-570.67,0.814,-3.579,-1.934
119.08,496.95,-566.83,0.628,-3.498,-1.857
144.94,529.33,-563.35,0.42,-3.431,-1.772
184.39,554.39,-560.12,0.169,-3.375,-1.682
237.68,573.35,-556.4,-0.083,-3.375,-1.6
311.16,592.74,-551.52,-0.313,-3.42,-1.518
400.24,609.7,-546.46,-0.551,-3.472,-1.426
497.74,613.48,-534.15,-0.842,-3.542,-1.381
604.63,605.79,-505.37,-1.131,-3.667,-1.375
717.56,582.74,-465.12,-1.451,-3.795,-1.381
788.05,531.59,-415,-1.767,-3.896,-1.427
807.38,478.48,-373.72,-1.98,-4.005,-1.552
786.77,472.81,-344.08,-2.274,-4.186,-1.589
730.55,409.94,-263.96,-2.775,-4.383,-1.476
648.6,266.95,-225.98,-3.422,-4.584,-1.416
502.87,161.77,-234.15,-4.454,-4.833,-1.546
464.08,95.915,-229.51,-5.844,-4.964,-1.787
398.9,48.598,-193.9,-7.043,-4.472,-2.184
220.24,-17.927,-153.9,-8.095,-3.646,-2.816
20.915,-65,-105.12,-9.398,-2.514,-3.585
-170.37,-107.26,-59.756,-9.342,-0.993,-4.042
-332.38,-121.71,-19.39,-7.032,0.81,-4.604
-453.23,-120.37,13.659,-5.109,2.423,-4.63
-552.5,-117.38,32.256,-3.84,3.626,-3.96
-617.8,-103.72,42.866,-4.429,3.68,-2.751
-638.78,-85.793,61.585,-4.898,3.566,-2.111
-616.52,-66.098,80.488,-4.901,3.749,-1.905
-560.43,-42.683,101.71,-4.161,3.854,-1.886
-482.01,-25.305,121.65,-3.484,3.942,-1.54
-383.78,-13.171,140.49,-3.303,3.722,-0.925
-269.88,-6.463,160.49,-3.294,3.34,-0.293
-157.19,-8.232,178.54,-3.048,2.823,0.136
-55.427,-8.78,198.9,-2.44,2.236,0.446
23.11,-8.78,221.16,-2.164,1.657,0.901
72.134,-10.427,242.44,-2.228,1.188,1.48
93.476,-12.317,262.62,-2.256,0.867,2.046
86.707,-16.22,280.18,-2.061,0.782,2.349
54.634,-29.695,292.81,-1.814,0.707,2.362
0.854,-40.854,303.54,-1.745,0.693,2.322
-67.134,-52.073,309.57,-1.805,0.707,2.269
-143.48,-74.268,311.71,-1.832,0.76,2.246
-222.68,-100,310.98,-1.74,0.858,2.261
-297.38,-127.13,306.77,-1.62,0.99,2.271
-364.63,-156.22,300.12,-1.577,1.046,2.297
-418.35,-186.1,289.27,-1.521,1.057,2.29
-451.34,-216.59,271.16,-1.458,0.907,2.178
-464.63,-245.24,249.88,-1.58,0.712,1.972
-457.99,-272.68,221.95,-1.671,0.334,1.748
-436.16,-299.69,190.12,-1.711,-0.192,1.501
-403.29,-324.63,158.17,-1.732,-0.822,1.287
-362.62,-345.49,126.58,-1.74,-1.401,1.114
-315.55,-360.61,97.317,-1.651,-1.821,0.896
-271.83,-374.45,70,-1.41,-2.226,0.818
-230.12,-385.43,46.098,-1.114,-2.565,0.709
-196.65,-393.84,23.659,-0.836,-2.825,0.572
-171.34,-399.27,3.354,-0.655,-3.039,0.471
-154.94,-402.5,-13.78,-0.565,-3.213,0.384
-147.13,-404.51,-27.683,-0.467,-3.11,0.139
-146.22,-403.9,-39.634,-0.438,-3.14,0.008
-150.31,-402.68,-49.451,-0.399,-2.956,-0.164
-157.38,-398.42,-57.988,-0.382,-2.735,-0.295
-165.43,-392.56,-65.854,-0.319,-2.494,-0.403
-172.32,-385.79,-72.988,-0.209,-2.239,-0.534
-178.17,-378.66,-79.268,-0.138,-2.008,-0.625
-182.5,-371.04,-83.476,-0.047,-1.813,-0.692
-183.78,-362.5,-85.122,0.015,-1.621,-0.774
-181.89,-353.35,-85.061,0.099,-1.421,-0.824
-175.73,-342.68,-84.146,0.168,-1.225,-0.864
-165.79,-333.84,-82.256,0.241,-1.06,-0.878
-152.99,-324.21,-80.061,0.321,-0.96,-0.869
-137.87,-313.96,-77.317,0.346,-0.899,-0.871
-122.32,-305.49,-74.512,0.355,-0.863,-0.884
-105.98,-297.01,-71.159,0.359,-0.835,-0.891
-89.573,-288.66,-66.463,0.387,-0.793,-0.88
-74.756,-279.45,-61.098,0.439,-0.734,-0.874
-61.951,-269.33,-55.427,0.465,-0.672,-0.83
-50.671,-258.78,-49.512,0.471,-0.612,-0.773
-41.22,-247.5,-43.72,0.5,-0.561,-0.717
-34.39,-236.28,-37.927,0.565,-0.542,-0.678
-29.39,-224.82,-32.012,0.623,-0.511,-0.636
-25.915,-213.54,-26.28,0.67,-0.456,-0.604
-23.659,-199.51,-21.463,0.742,-0.39,-0.572
-22.5,-178.9,-18.78,0.834,-0.313,-0.54
-22.561,-160.49,-16.463,0.944,-0.247,-0.513
-21.951,-140.12,-15.122,1.063,-0.192,-0.491
-21.951,-118.29,-15,1.177,-0.145,-0.464
-23.415,-100.18,-15.488,1.298,-0.09,-0.425
-24.024,-81.585,-16.463,1.435,-0.032,-0.375
-23.11,-57.195,-16.28,1.656,0.013,-0.316
-21.89,-32.805,-15.122,1.793,0.078,-0.264
-21.524,-12.927,-12.378,1.968,0.148,-0.199
-21.22,4.451,-8.11,2.159,0.178,-0.116
-19.024,20.061,-3.232,2.255,0.188,-0.056
-13.659,32.683,1.402,2.33,0.204,0.018
-6.463,42.317,4.695,2.422,0.225,0.112
3.293,49.451,6.646,2.503,0.2,0.198
15.366,53.049,7.683,2.521,0.118,0.272
28.537,56.28,7.073,2.522,0.012,0.355
42.195,56.22,5.854,2.49,-0.064,0.433
54.939,53.78,4.451,2.443,-0.115,0.497
66.585,50.305,2.561,2.403,-0.176,0.547
76.768,45.732,0.061,2.368,-0.236,0.587
85.305,40.244,-2.927,2.301,-0.282,0.618
92.317,34.146,-6.402,2.244,-0.35,0.638
97.317,27.927,-10.366,2.153,-0.4,0.648
100.67,22.256,-14.695,2.039,-0.475,0.662
101.4,17.012,-19.085,1.932,-0.567,0.668
100,12.134,-23.11,1.817,-0.646,0.675
97.012,8.049,-26.646,1.712,-0.681,0.669
92.134,4.878,-30.549,1.625,-0.709,0.64
85.549,2.317,-34.634,1.532,-0.729,0.625
77.866,0.488,-38.293,1.459,-0.748,0.601
69.695,-0.488,-41.585,1.393,-0.777,0.568
61.646,-0.793,-45.061,1.321,-0.781,0.535
53.72,-0.549,-48.354,1.251,-0.766,0.494
46.463,0.366,-51.159,1.19,-0.75,0.459
40.122,1.768,-53.78,1.124,-0.739,0.422
34.573,3.598,-56.28,1.073,-0.723,0.383
30.061,5.488,-58.232,1.019,-0.708,0.342
26.646,7.744,-60.122,0.958,-0.696,0.299
24.024,10.366,-61.646,0.909,-0.681,0.267
22.195,12.805,-63.11,0.867,-0.663,0.233
21.098,14.939,-64.451,0.828,-0.645,0.206
20,17.256,-65.122,0.788,-0.623,0.187
18.963,19.451,-65.61,0.75,-0.604,0.166
17.561,21.768,-65.549,0.715,-0.579,0.15
15.976,23.902,-65,0.68,-0.552,0.128
14.268,25.976,-64.024,0.637,-0.536,0.107
12.317,27.805,-62.866,0.604,-0.521,0.093
10.183,29.634,-61.28,0.578,-0.497,0.075
8.293,31.402,-59.573,0.553,-0.479,0.074
6.159,32.866,-58.049,0.528,-0.464,0.065
3.963,34.146,-56.341,0.505,-0.446,0.063
1.524,35.366,-54.39,0.482,-0.423,0.061
-0.427,36.22,-52.256,0.459,-0.397,0.053
-2.5,36.89,-50.061,0.442,-0.368,0.044
-4.695,37.439,-47.561,0.425,-0.336,0.039
-6.341,37.622,-44.939,0.399,-0.313,0.033
-7.805,37.683,-41.951,0.376,-0.292,0.04
-8.902,37.5,-38.902,0.344,-0.278,0.049
-9.634,37.317,-35.854,0.318,-0.265,0.055
-10.183,36.951,-32.317,0.3,-0.266,0.063
-10.549,36.341,-28.659,0.285,-0.266,0.066
-11.585,35.366,-24.939,0.28,-0.259,0.08
-12.561,33.963,-21.159,0.271,-0.246,0.086
-13.78,32.5,-17.317,0.263,-0.244,0.085
-14.695,30.915,-13.354,0.25,-0.248,0.084
-15.793,28.841,-9.268,0.245,-0.246,0.081
-17.5,26.524,-5.122,0.242,-0.258,0.09
-19.573,24.207,-0.488,0.246,-0.273,0.097
-21.524,22.195,4.939,0.246,-0.271,0.119
-23.841,19.756,10.61,0.245,-0.274,0.13
-26.463,17.134,16.524,0.25,-0.28,0.14
-29.268,14.817,22.622,0.249,-0.292,0.145
-32.378,12.5,28.963,0.25,-0.314,0.155
-35.244,10.427,35.305,0.262,-0.341,0.168
-38.354,8.476,41.098,0.278,-0.352,0.192
-40.732,6.22,46.159,0.297,-0.369,0.211
-42.134,4.085,50.183,0.311,-0.396,0.23
-43.72,2.134,53.293,0.333,-0.416,0.246
-44.817,-0.183,55.976,0.372,-0.437,0.267
-45.976,-2.195,58.293,0.414,-0.457,0.3
-46.768,-4.146,60.183,0.457,-0.483,0.34
-47.561,-6.037,61.768,0.497,-0.495,0.379
-48.171,-7.866,62.439,0.536,-0.494,0.401
-48.171,-9.207,62.561,0.583,-0.5,0.429
-47.683,-10.366,61.524,0.622,-0.514,0.465
-46.707,-11.341,59.024,0.679,-0.532,0.496
-44.512,-11.89,55.732,0.751,-0.545,0.533
-41.524,-11.829,51.951,0.826,-0.559,0.575
-37.988,-11.585,47.683,0.896,-0.576,0.61
-33.537,-10.854,43.415,0.961,-0.584,0.643
-28.476,-9.878,38.841,1.031,-0.583,0.675
-23.232,-8.659,34.085,1.098,-0.576,0.713
-17.5,-7.317,29.451,1.163,-0.566,0.731
-11.829,-5.793,24.451,1.228,-0.571,0.766
-6.159,-4.329,19.39,1.285,-0.592,0.804
-0.488,-2.744,14.207,1.338,-0.612,0.826
4.39,-1.159,8.963,1.386,-0.617,0.839
8.963,0.244,3.963,1.426,-0.611,0.852
13.598,1.585,-1.098,1.456,-0.604,0.857
17.927,2.866,-5.793,1.466,-0.605,0.854
22.134,3.72,-10.183,1.461,-0.6,0.848
25.915,4.39,-14.207,1.448,-0.585,0.831
29.512,4.878,-17.805,1.431,-0.566,0.811
33.049,5.183,-21.098,1.416,-0.551,0.787
36.098,4.939,-24.268,1.384,-0.536,0.759
38.598,4.39,-27.378,1.343,-0.531,0.731
40.549,3.841,-30,1.299,-0.54,0.699
42.134,3.232,-32.134,1.247,-0.543,0.666
42.927,2.317,-33.78,1.194,-0.542,0.639
43.659,0.915,-35.183,1.144,-0.528,0.615
44.39,-0.915,-36.524,1.088,-0.52,0.583
44.695,-3.049,-37.439,1.033,-0.507,0.547
44.695,-5.183,-38.293,0.984,-0.494,0.515
44.634,-7.378,-38.598,0.94,-0.479,0.474
44.085,-10,-38.537,0.897,-0.466,0.44
43.415,-12.378,-38.537,0.859,-0.448,0.421
42.622,-14.451,-37.866,0.831,-0.433,0.386
41.22,-16.707,-36.829,0.79,-0.42,0.352
39.329,-18.659,-35.488,0.75,-0.411,0.33
36.646,-20.183,-33.841,0.721,-0.402,0.307
33.11,-21.463,-31.89,0.692,-0.397,0.284
29.085,-22.439,-29.512,0.663,-0.39,0.27
24.024,-22.927,-27.012,0.636,-0.384,0.252
18.72,-23.232,-24.268,0.604,-0.386,0.226
12.866,-23.293,-21.22,0.581,-0.392,0.209
6.707,-23.232,-17.988,0.551,-0.393,0.202
0.976,-22.744,-14.756,0.526,-0.388,0.201
-4.268,-22.317,-11.829,0.503,-0.377,0.191
-9.024,-21.463,-9.146,0.478,-0.368,0.187
-13.11,-20.793,-6.585,0.459,-0.368,0.177
-16.28,-20.427,-4.024,0.449,-0.379,0.174
-18.415,-20.061,-1.585,0.43,-0.379,0.18
-20.183,-19.573,0.732,0.423,-0.375,0.184
-21.402,-18.902,3.171,0.419,-0.374,0.187
-22.134,-18.11,5.976,0.422,-0.377,0.195
-22.378,-17.317,8.72,0.427,-0.381,0.208
-22.561,-16.159,11.28,0.436,-0.384,0.218
-22.927,-14.756,13.78,0.439,-0.393,0.223
-23.293,-13.171,16.098,0.449,-0.4,0.23
-23.78,-11.037,18.232,0.469,-0.403,0.245
-24.268,-8.72,20.366,0.496,-0.405,0.261
-24.817,-6.098,22.012,0.525,-0.405,0.269
-25.366,-3.598,23.293,0.556,-0.403,0.276
-25.488,-0.915,24.695,0.589,-0.404,0.293
-25.122,1.89,25.549,0.624,-0.408,0.316
-24.329,4.329,25.915,0.671,-0.4,0.335
-22.866,6.585,25.671,0.723,-0.391,0.356
-20.854,8.659,24.939,0.77,-0.393,0.377
-18.171,10.427,23.841,0.815,-0.398,0.397
-15.183,11.707,22.073,0.853,-0.403,0.426
-11.768,12.805,20.061,0.893,-0.401,0.448
-8.11,13.537,17.622,0.928,-0.401,0.469
-4.329,14.146,15.183,0.958,-0.409,0.481
-0.915,14.207,12.744,0.973,-0.42,0.5
2.561,14.268,10.366,0.989,-0.427,0.515
5.61,14.085,8.049,1.005,-0.437,0.528
8.354,13.78,6.098,1.011,-0.443,0.537
10.427,13.415,4.39,1.01,-0.454,0.558
11.951,13.232,2.805,1.018,-0.47,0.564
12.683,12.866,1.585,1.019,-0.492,0.57
13.293,12.805,-0.122,1.01,-0.497,0.579
13.72,12.5,-1.951,1.01,-0.504,0.583
13.659,12.256,-3.537,1.004,-0.524,0.578
13.354,12.195,-5.122,0.993,-0.54,0.583
13.232,11.829,-6.707,0.983,-0.551,0.587
13.354,11.463,-8.293,0.97,-0.552,0.584
13.78,11.159,-9.512,0.953,-0.543,0.574
14.085,10.61,-10.793,0.939,-0.532,0.558
15.183,9.939,-11.951,0.93,-0.525,0.547
16.28,9.329,-13.11,0.912,-0.519,0.533
17.561,8.354,-14.024,0.901,-0.506,0.524
18.78,7.317,-14.817,0.89,-0.504,0.518
19.878,6.463,-15.61,0.876,-0.501,0.501
20.915,5.366,-16.28,0.859,-0.5,0.486
21.524,4.39,-16.829,0.843,-0.492,0.475
21.829,3.354,-17.195,0.837,-0.484,0.461
21.707,2.378,-17.256,0.822,-0.481,0.45
21.22,1.463,-17.012,0.807,-0.479,0.435
20.366,0.61,-16.585,0.789,-0.471,0.423
18.78,0,-16.037,0.769,-0.466,0.401
16.89,-0.671,-14.878,0.759,-0.459,0.386
14.695,-1.402,-13.598,0.743,-0.453,0.374
12.256,-2.256,-12.195,0.729,-0.436,0.368
9.939,-2.988,-10.793,0.722,-0.422,0.361
7.439,-3.415,-9.329,0.712,-0.414,0.349
5.244,-3.537,-7.927,0.704,-0.409,0.341
3.11,-3.659,-6.707,0.692,-0.405,0.33
1.159,-3.659,-5.549,0.682,-0.392,0.319
-0.427,-3.293,-4.512,0.674,-0.38,0.303
-2.195,-2.561,-3.72,0.671,-0.369,0.289
-3.963,-1.768,-2.683,0.667,-0.351,0.269
-5.61,-0.915,-1.951,0.649,-0.336,0.257
-7.317,0.183,-1.707,0.641,-0.324,0.244
-9.207,1.22,-1.524,0.635,-0.319,0.232
-11.585,2.439,-1.402,0.624,-0.318,0.233
-14.024,3.659,-1.402,0.61,-0.323,0.229
-16.707,4.817,-1.524,0.598,-0.326,0.237
-19.695,6.341,-1.89,0.589,-0.336,0.239
-23.354,7.866,-1.951,0.58,-0.341,0.234
-26.951,9.268,-1.768,0.561,-0.341,0.226
-30.61,10.854,-1.159,0.554,-0.335,0.216
-33.72,11.89,-0.549,0.539,-0.328,0.198
-37.195,12.866,0.061,0.523,-0.32,0.184
-40.427,13.354,0.793,0.517,-0.315,0.158
-43.293,13.537,1.524,0.51,-0.319,0.141
-45.732,13.354,2.439,0.503,-0.319,0.116
-49.024,14.268,3.72,0.506,-0.303,0.082
-52.561,15.366,5.488,0.504,-0.29,0.041
-57.012,17.561,8.476,0.495,-0.285,-0.007
-63.537,22.256,13.354,0.488,-0.264,-0.044
-71.951,28.902,20.793,0.468,-0.248,-0.084
-82.622,38.232,31.524,0.436,-0.216,-0.113
-95.671,50.732,47.073,0.381,-0.18,-0.151
-110.85,64.695,67.927,0.305,-0.139,-0.21
-125,78.72,95.549,0.196,-0.072,-0.271
-138.23,92.256,130.43,0.08,0.003,-0.313
-146.71,104.21,171.46,-0.042,0.087,-0.338
-150.67,114.21,217.19,-0.196,0.168,-0.33
-148.17,121.1,265.67,-0.385,0.21,-0.296
-137.74,123.35,314.69,-0.605,0.231,-0.196
-119.08,119.63,362.26,-0.809,0.248,-0.074
-92.683,112.62,404.94,-1.014,0.232,0.033
-57.195,102.5,441.52,-1.23,0.182,0.16
-15.061,91.524,472.68,-1.433,0.132,0.326
28.171,80.854,498.23,-1.564,0.1,0.537
72.256,71.463,519.76,-1.584,0.074,0.766
110.37,65.671,534.76,-1.518,0.061,1.019
143.23,62.805,543.72,-1.348,0.043,1.253
171.59,63.171,549.88,-1.114,0.032,1.469
191.65,66.707,552.93,-0.863,-0.035,1.656
198.78,65,552.68,-0.61,-0.166,1.838
213.72,67.805,551.65,-0.336,-0.359,2.007
224.39,68.659,544.39,-0.029,-0.562,2.239
224.51,65.244,533.9,0.334,-0.704,2.447
207.38,55.976,518.35,0.663,-0.874,2.61
170.67,37.256,495.43,0.953,-1.122,2.727
227.32,41.159,468.54,1.212,-1.439,2.838
231.65,28.963,431.77,1.438,-1.799,2.897
232.81,15.122,390.49,1.686,-2.227,2.929
240.06,2.5,345.12,1.846,-2.625,2.911
245.55,-10.976,292.44,2.04,-3.009,2.854
250.43,-23.11,232.38,2.196,-2.896,2.766
252.87,-34.695,166.16,2.571,-4.039,2.536
252.74,-46.829,95.732,2.8,-4.02,2.333
253.17,-59.207,24.085,3.125,-4.225,2.121
250,-71.341,-46.159,3.517,-4.495,1.842
238.6,-81.463,-114.76,3.863,-4.716,1.558
223.05,-91.402,-181.1,4.118,-4.912,1.288
201.65,-98.232,-244.69,4.242,-5.03,0.997
179.15,-100.55,-305.85,4.282,-5.106,0.703
160.24,-100.79,-363.66,4.22,-5.16,0.395
142.19,-97.073,-416.95,4.035,-5.262,0.134
124.27,-88.841,-465.31,3.799,-5.431,-0.101
107.99,-74.756,-509.33,3.492,-5.527,-0.354
94.024,-55.793,-549.94,3.064,-5.517,-0.595
81.585,-32.5,-586.34,2.607,-5.452,-0.88
70,-4.451,-618.11,2.144,-5.455,-1.154
60.427,27.5,-645.79,1.734,-5.375,-1.416
53.293,63.049,-669.94,1.374,-5.25,-1.605
49.39,102.07,-689.94,1.051,-5.146,-1.744
48.537,143.29,-705.79,0.774,-5.055,-1.792
52.439,185.61,-717.68,0.563,-4.925,-1.773
60.61,228.11,-725.85,0.393,-4.78,-1.759
72.561,269.39,-730.79,0.213,-4.627,-1.716
89.756,308.6,-732.62,0.031,-4.495,-1.673
113.35,344.88,-730.98,-0.148,-4.37,-1.679
144.51,377.01,-726.52,-0.361,-4.296,-1.621
182.81,405.67,-719.51,-0.591,-4.23,-1.505
224.27,432.56,-708.72,-0.78,-4.159,-1.424
275.49,457.44,-691.34,-0.962,-4.11,-1.354
341.22,482.56,-669.57,-1.145,-4.052,-1.282
414.51,500,-629.33,-1.326,-3.992,-1.257
472.44,502.26,-563.9,-1.503,-3.932,-1.273
512.68,479.51,-484.15,-1.696,-3.891,-1.332
541.95,450.24,-425.18,-1.875,-3.893,-1.372
558.35,458.66,-372.26,-2.037,-3.869,-1.419
562.99,408.6,-323.54,-2.29,-3.966,-1.408
592.74,306.04,-295.73,-2.802,-4.134,-1.331
624.76,219.15,-279.63,-3.848,-4.719,-1.324
636.83,112.81,-250.31,-5.516,-4.982,-1.2
585.91,14.817,-209.15,-7.081,-4.924,-1.218
456.95,-30.061,-135.18,-8.238,-4.289,-1.277
316.89,-101.89,-76.768,-9.253,-3.502,-1.256
130.31,-162.93,-87.256,-9.252,-2.513,-1.827
24.512,-158.05,-46.463,-7.159,-0.669,-3.045
-130.18,-153.05,-10.854,-6.312,0.695,-3.784
-318.42,-165.67,18.232,-6.606,1.194,-3.624
-477.74,-160.31,45,-6.991,2.052,-3.193
-608.72,-144.15,67.256,-7.278,2.34,-2.912
-688.48,-121.58,94.085,-6.897,3.958,-2.345
-717.93,-83.841,119.45,-5.061,5.385,-1.467
-675.43,-46.159,135.31,-4.001,5.128,-0.873
-639.7,-31.22,150.73,-3.262,4.846,-0.457
-601.83,-15.305,180,-3.062,4.767,-0.011
-509.94,-6.585,202.74,-3.134,4.266,0.209
-415.92,-9.451,228.17,-3.021,3.89,0.2
-313.23,-13.598,254.09,-2.646,3.487,0.346
-212.93,-18.049,274.57,-2.333,2.962,0.564
-107.56,-25.244,288.66,-2.27,2.23,1.066
-7.439,-34.024,297.44,-1.845,2.098,1.599
74.329,-44.756,304.51,-1.792,1.338,2.161
133.54,-56.89,311.77,-1.704,0.822,2.417
163.84,-71.037,319.15,-1.731,0.406,2.537
163.9,-97.073,327.87,-1.823,0.106,2.475
138.54,-118.17,336.1,-1.846,-0.062,2.349
93.598,-116.1,338.42,-1.754,-0.254,2.334
30.915,-133.41,338.42,-1.555,-0.47,2.37
-41.341,-162.81,335.37,-1.406,-0.637,2.377
-118.96,-201.71,327.93,-1.329,-0.745,2.374
-196.83,-236.46,317.99,-1.317,-0.784,2.28
-269.57,-251.89,305.43,-1.305,-0.745,2.119
-332.19,-282.93,289.27,-0.932,-0.656,1.964
-383.11,-313.6,269.82,-1.055,-0.656,1.749
-410.18,-334.88,246.16,-1.128,-0.713,1.521
-434.57,-362.19,217.44,-1.127,-0.858,1.319
-452.38,-381.71,200.12,-1.157,-1.101,1.108
-441.95,-394.21,174.76,-0.909,-1.292,0.872
-418.66,-404.51,149.76,-1.036,-1.527,0.606
-388.54,-414.39,126.04,-1.031,-1.794,0.342
-352.56,-422.99,103.54,-0.956,-2.008,0.1
-311.95,-425.24,84.085,-0.897,-2.127,-0.097
-270.61,-422.99,67.195,-0.63,-2.49,-0.325
-232.13,-417.62,53.11,-0.569,-2.444,-0.392
-198.35,-410.06,42.439,-0.402,-2.427,-0.444
-173.05,-399.76,34.39,-0.222,-2.376,-0.48
-154.94,-386.58,28.537,-0.077,-2.284,-0.54
-144.02,-371.34,24.329,0.046,-2.138,-0.599
-140.06,-354.82,21.037,0.129,-1.956,-0.672
-140.85,-337.93,18.415,0.183,-1.755,-0.742
-144.02,-320.61,15.976,0.226,-1.549,-0.785
-150.43,-302.5,13.659,0.261,-1.38,-0.829
-158.41,-284.33,12.805,0.304,-1.232,-0.893
-164.45,-266.77,13.293,0.353,-1.068,-0.918
-168.48,-250.12,13.902,0.399,-0.914,-0.926
-168.29,-233.9,14.207,0.454,-0.77,-0.936
-164.02,-218.78,14.817,0.457,-0.664,-0.929
-157.32,-204.63,15.305,0.433,-0.613,-0.92
-146.77,-190.79,15.305,0.434,-0.606,-0.92
-133.6,-177.38,15.732,0.489,-0.614,-0.91
-118.78,-164.39,17.012,0.556,-0.627,-0.86
-102.56,-152.01,18.78,0.603,-0.605,-0.815
-84.817,-140.37,20.976,0.634,-0.575,-0.771
-66.098,-128.35,22.5,0.673,-0.579,-0.688
-47.744,-116.58,22.927,0.732,-0.582,-0.62
-30.366,-106.04,23.537,0.813,-0.595,-0.566
-12.134,-95.61,23.902,0.907,-0.62,-0.491
3.841,-85.976,23.232,1.011,-0.639,-0.428
17.195,-78.232,22.988,1.106,-0.635,-0.358
28.659,-70.854,22.622,1.207,-0.609,-0.286
37.866,-63.78,21.524,1.321,-0.583,-0.236
46.89,-57.195,20.427,1.455,-0.537,-0.174
53.354,-51.768,19.39,1.577,-0.499,-0.113
57.5,-47.378,18.232,1.671,-0.503,-0.079
59.268,-43.598,17.5,1.75,-0.514,-0.034
59.695,-39.756,16.707,1.831,-0.507,0.015
59.756,-36.098,15.488,1.917,-0.488,0.065
58.415,-32.866,13.537,2.004,-0.448,0.108
55.488,-30.305,11.098,2.088,-0.446,0.164
52.927,-27.866,8.659,2.149,-0.469,0.221
49.634,-25.854,5.305,2.19,-0.483,0.261
45.976,-24.146,1.768,2.208,-0.474,0.286
42.927,-22.439,-1.524,2.215,-0.461,0.323
39.451,-20.671,-5.061,2.229,-0.469,0.349
36.89,-18.902,-8.78,2.223,-0.491,0.382
35.427,-17.073,-11.951,2.201,-0.493,0.422
33.963,-15.549,-15.488,2.174,-0.505,0.444
32.256,-14.329,-18.963,2.134,-0.527,0.458
30.915,-12.988,-22.5,2.089,-0.529,0.462
29.756,-11.402,-25.854,2.034,-0.546,0.445
28.598,-9.634,-28.963,1.97,-0.555,0.421
27.622,-7.805,-32.317,1.894,-0.566,0.382
26.524,-5.793,-35.671,1.816,-0.598,0.356
25.732,-3.171,-38.659,1.736,-0.641,0.353
25,-0.549,-41.402,1.668,-0.673,0.342
24.329,2.073,-44.451,1.598,-0.695,0.328
23.72,5,-47.439,1.516,-0.715,0.303
23.232,7.988,-50.305,1.431,-0.728,0.279
22.744,11.402,-53.232,1.361,-0.73,0.249
22.439,14.695,-55.915,1.295,-0.718,0.219
22.195,17.988,-58.415,1.228,-0.709,0.197
22.012,20.976,-60.793,1.168,-0.702,0.182
21.951,23.72,-62.683,1.115,-0.699,0.165
21.829,26.341,-64.329,1.058,-0.678,0.157
21.707,28.537,-65.549,1.005,-0.657,0.148
21.159,30.366,-66.22,0.961,-0.639,0.136
20.366,31.89,-66.585,0.915,-0.623,0.13
20.366,33.293,-66.585,0.87,-0.593,0.114
19.512,34.329,-66.768,0.831,-0.562,0.099
18.659,34.878,-66.585,0.786,-0.528,0.093
17.622,35.488,-65.854,0.747,-0.512,0.089
16.341,35.976,-64.878,0.716,-0.495,0.099
15.305,36.28,-63.537,0.682,-0.469,0.112
14.39,36.463,-61.646,0.648,-0.439,0.112
13.171,36.341,-59.756,0.611,-0.427,0.119
11.646,36.098,-57.683,0.571,-0.417,0.128
10.61,35.671,-55.549,0.539,-0.407,0.146
9.695,35,-53.049,0.503,-0.411,0.156
9.024,34.024,-50.366,0.47,-0.416,0.163
8.354,32.866,-47.622,0.438,-0.429,0.175
7.317,31.524,-44.939,0.407,-0.446,0.185
6.28,29.695,-42.012,0.38,-0.455,0.202
5,27.622,-39.39,0.362,-0.451,0.213
3.537,25.549,-37.073,0.345,-0.447,0.212
2.073,23.354,-34.451,0.328,-0.451,0.204
0.305,20.976,-32.195,0.309,-0.437,0.2
-1.768,18.049,-29.756,0.3,-0.429,0.212
-4.146,15.122,-26.951,0.3,-0.417,0.225
-6.646,12.5,-24.024,0.299,-0.414,0.224
-9.024,9.573,-20.915,0.283,-0.413,0.221
-11.89,7.195,-17.805,0.27,-0.404,0.22
-15.061,5,-14.268,0.269,-0.403,0.218
-18.476,3.293,-10.122,0.268,-0.405,0.223
-21.829,2.195,-5.915,0.271,-0.404,0.229
-25.549,1.22,-2.256,0.272,-0.398,0.229
-28.72,0.488,1.585,0.271,-0.394,0.232
-31.402,-0.061,5.244,0.275,-0.406,0.241
-33.72,-0.671,8.659,0.277,-0.417,0.248
-35.244,-1.463,12.073,0.276,-0.433,0.265
-36.463,-1.951,15.366,0.294,-0.45,0.285
-36.707,-2.744,18.537,0.307,-0.471,0.3
-36.463,-3.72,21.463,0.322,-0.467,0.307
-35.305,-4.39,24.512,0.333,-0.47,0.322
-33.72,-5,26.951,0.351,-0.484,0.329
-32.439,-5.549,28.963,0.376,-0.5,0.35
-30.61,-5.976,30.793,0.409,-0.522,0.375
-28.11,-6.037,32.561,0.433,-0.545,0.398
-25.366,-5.488,33.963,0.453,-0.564,0.419
-22.378,-5,34.39,0.484,-0.567,0.434
-19.085,-4.329,34.207,0.533,-0.566,0.452
-15.366,-3.354,33.354,0.6,-0.578,0.482
-11.098,-2.561,31.768,0.669,-0.581,0.513
-6.768,-1.585,29.207,0.733,-0.568,0.543
-2.378,-0.427,25.976,0.813,-0.569,0.563
2.378,0.549,22.439,0.895,-0.571,0.604
6.585,1.402,18.415,0.977,-0.564,0.637
10.305,2.317,14.146,1.057,-0.558,0.662
13.598,3.171,10,1.116,-0.549,0.686
16.28,4.146,6.098,1.164,-0.545,0.697
18.537,4.695,2.744,1.209,-0.548,0.706
20.488,5.244,-0.488,1.245,-0.538,0.711
22.378,5.61,-3.659,1.281,-0.533,0.721
24.146,5.854,-6.768,1.316,-0.535,0.73
25.488,5.915,-9.634,1.336,-0.537,0.73
26.768,5.61,-12.317,1.342,-0.542,0.722
27.622,5.122,-14.878,1.337,-0.547,0.722
28.537,4.695,-17.195,1.325,-0.545,0.72
29.329,3.963,-19.207,1.313,-0.544,0.704
29.878,3.476,-21.037,1.282,-0.545,0.688
30.122,3.171,-22.561,1.249,-0.551,0.669
30.366,2.439,-23.841,1.217,-0.545,0.651
30.671,2.073,-24.695,1.181,-0.536,0.63
30.732,1.646,-25.793,1.144,-0.525,0.605
30.427,1.524,-26.707,1.111,-0.521,0.578
29.939,1.341,-27.317,1.071,-0.511,0.546
29.207,1.341,-27.988,1.03,-0.504,0.516
28.415,1.098,-28.354,0.995,-0.498,0.489
27.5,1.28,-28.354,0.952,-0.487,0.461
26.28,1.463,-28.354,0.911,-0.483,0.439
25.183,1.463,-28.171,0.866,-0.487,0.413
23.659,1.768,-27.805,0.83,-0.485,0.392
22.073,2.073,-27.378,0.8,-0.479,0.376
19.939,2.195,-26.951,0.77,-0.472,0.353
17.927,2.378,-26.402,0.733,-0.467,0.341
15.976,2.683,-25.793,0.708,-0.461,0.318
13.72,2.988,-25,0.674,-0.45,0.295
11.22,3.415,-23.963,0.646,-0.443,0.277
8.476,3.78,-22.622,0.623,-0.435,0.26
5.61,4.207,-20.732,0.604,-0.419,0.245
2.195,4.573,-18.78,0.586,-0.404,0.228
-1.098,4.939,-16.402,0.568,-0.392,0.211
-4.085,5.244,-14.024,0.555,-0.379,0.203
-6.951,5.427,-11.646,0.539,-0.376,0.198
-8.902,5.427,-9.268,0.526,-0.369,0.194
-10.366,5.183,-7.134,0.526,-0.361,0.203
-12.134,4.939,-4.573,0.517,-0.365,0.206
-13.537,4.512,-2.073,0.511,-0.366,0.206
-14.634,3.841,0.183,0.497,-0.364,0.205
-15.183,3.11,2.988,0.481,-0.361,0.206
-15.61,2.256,5.976,0.468,-0.361,0.2
-15.61,1.159,8.902,0.457,-0.36,0.2
-15.854,-0.366,12.134,0.45,-0.373,0.21
-16.28,-1.829,15.427,0.444,-0.379,0.228
-16.585,-2.988,19.085,0.447,-0.379,0.24
-16.829,-4.512,22.622,0.45,-0.383,0.252
-17.012,-6.159,25.549,0.46,-0.386,0.255
-17.439,-7.439,28.415,0.473,-0.39,0.271
-17.5,-8.598,31.037,0.487,-0.397,0.282
-17.805,-9.939,33.049,0.51,-0.407,0.3
-18.232,-11.159,34.451,0.531,-0.411,0.324
-18.659,-12.195,35.671,0.549,-0.407,0.335
-18.902,-13.232,36.463,0.566,-0.403,0.349
-18.841,-13.72,36.585,0.583,-0.402,0.367
-18.841,-14.207,36.341,0.614,-0.402,0.386
-18.841,-14.573,35.793,0.658,-0.407,0.404
-18.354,-14.756,35.183,0.699,-0.414,0.428
-17.988,-14.878,34.085,0.732,-0.417,0.45
-17.988,-14.512,32.622,0.759,-0.417,0.471
-17.317,-13.902,31.098,0.797,-0.419,0.493
-16.28,-13.11,29.207,0.843,-0.423,0.504
-14.939,-12.378,27.256,0.882,-0.431,0.52
-13.415,-11.585,25.427,0.914,-0.436,0.534
-11.768,-10.488,23.415,0.938,-0.449,0.543
-9.573,-9.573,21.829,0.967,-0.466,0.551
-7.195,-8.598,20.244,0.984,-0.474,0.552
-4.512,-7.622,18.415,0.997,-0.48,0.557
-1.951,-6.768,16.585,1.011,-0.494,0.554
0.488,-6.037,14.939,1.022,-0.514,0.551
2.622,-5.366,13.598,1.028,-0.539,0.551
4.695,-5,12.439,1.024,-0.551,0.562
6.159,-4.939,11.22,1.023,-0.559,0.563
7.439,-5.366,9.878,1.02,-0.562,0.55
8.963,-5.915,8.476,1.02,-0.574,0.541
9.756,-6.402,7.073,1.008,-0.58,0.538
10.61,-7.256,5.793,1,-0.584,0.522
11.585,-8.11,4.085,0.988,-0.584,0.504
12.195,-9.024,2.378,0.978,-0.584,0.486
12.927,-10.183,1.159,0.966,-0.582,0.463
13.78,-11.463,-0.305,0.944,-0.573,0.439
14.573,-12.805,-2.134,0.925,-0.573,0.405
15.488,-14.024,-3.963,0.904,-0.584,0.38
16.159,-15.061,-5.915,0.882,-0.586,0.357
15.793,-16.098,-7.988,0.867,-0.589,0.338
14.939,-17.073,-10.061,0.855,-0.592,0.325
13.415,-17.927,-12.5,0.834,-0.592,0.315
11.402,-18.415,-14.634,0.806,-0.576,0.31
8.902,-18.841,-16.341,0.785,-0.558,0.297
5.976,-18.902,-17.744,0.755,-0.541,0.289
3.11,-18.598,-18.902,0.722,-0.535,0.291
0.305,-18.232,-20.061,0.687,-0.523,0.292
-2.012,-17.744,-20.854,0.663,-0.505,0.291
-3.841,-17.195,-21.341,0.647,-0.486,0.29
-4.878,-16.463,-21.646,0.631,-0.473,0.28
-5.244,-15.488,-21.646,0.606,-0.458,0.281
-5.122,-14.756,-21.463,0.588,-0.445,0.275
-4.878,-14.024,-21.098,0.575,-0.437,0.269
-4.207,-13.415,-20.305,0.568,-0.423,0.267
-3.659,-12.988,-18.902,0.554,-0.409,0.268
-3.049,-12.195,-17.012,0.542,-0.392,0.257
-2.988,-11.341,-14.451,0.527,-0.377,0.25
-3.293,-10.366,-11.402,0.512,-0.358,0.237
-3.171,-8.963,-7.988,0.498,-0.338,0.203
-3.354,-7.317,-3.659,0.48,-0.316,0.168
-4.39,-4.695,1.768,0.457,-0.299,0.125
-6.037,-1.22,9.39,0.438,-0.284,0.073
-8.72,3.293,18.293,0.411,-0.277,0.035
-13.537,8.598,28.537,0.376,-0.269,0.007
-19.817,15.061,40.244,0.339,-0.252,-0.01
-27.012,22.378,53.049,0.296,-0.234,-0.022
-35.671,30.183,67.805,0.237,-0.219,-0.028
-43.293,37.866,84.939,0.154,-0.191,-0.039
-50,45.061,104.33,0.06,-0.161,-0.048
-55.61,50.793,125.49,-0.069,-0.139,-0.054
-59.024,54.695,147.62,-0.202,-0.115,-0.042
-58.415,56.768,170.73,-0.326,-0.099,-0.018
-53.415,57.012,194.33,-0.46,-0.073,-0.007
-45.061,55.305,217.99,-0.602,-0.043,0.007
-32.561,51.341,241.46,-0.732,-0.028,0.037
-16.829,45.671,264.76,-0.819,-0.035,0.093
1.646,40.488,286.77,-0.862,-0.03,0.174
22.561,35.488,306.77,-0.859,-0.024,0.243
44.207,30.732,324.45,-0.83,-0.026,0.33
64.939,28.11,339.45,-0.769,-0.07,0.449
85.488,27.744,352.07,-0.675,-0.142,0.596
103.9,30.183,362.5,-0.535,-0.22,0.75
119.08,35.732,370.43,-0.349,-0.293,0.89
131.1,43.72,376.1,-0.13,-0.336,1.037
140.12,52.256,380.24,0.141,-0.375,1.185
146.65,59.817,382.44,0.463,-0.431,1.33
152.13,66.341,381.4,0.819,-0.507,1.461
158.54,72.561,377.87,1.225,-0.591,1.57
164.09,78.659,370.31,1.637,-0.665,1.664
170.24,84.512,356.4,2.049,-0.752,1.738
178.11,90.366,334.45,2.441,-0.895,1.776
185.61,91.402,302.32,2.761,-1.106,1.769
187.93,92.622,260.67,3.027,-1.375,1.679
191.46,101.22,211.65,3.277,-1.652,1.502
198.29,112.87,160.12,3.534,-1.983,1.272
201.04,113.96,98.78,3.781,-2.323,1.04
203.11,113.42,35.244,4.032,-2.642,0.777
207.81,113.05,-26.098,4.186,-2.983,0.509
211.28,111.34,-84.512,4.291,-3.306,0.298
210.98,108.42,-140.43,4.368,-3.477,0.104
209.15,104.15,-193.05,4.426,-3.737,-0.121
205.85,98.171,-241.16,4.3,-3.867,-0.242
200.43,91.768,-285.06,4.197,-4,-0.397
193.54,85.061,-324.21,3.991,-4.079,-0.541
182.5,78.11,-359.15,3.711,-4.156,-0.675
167.44,72.744,-390.37,3.392,-4.196,-0.767
151.04,69.756,-417.5,3.099,-4.146,-0.835
134.15,69.634,-441.28,2.831,-4.015,-0.895
117.13,72.805,-462.74,2.563,-3.916,-0.933
99.512,79.024,-481.4,2.268,-3.849,-0.948
81.037,88.293,-497.19,1.978,-3.808,-0.938
64.146,100.98,-510.73,1.703,-3.746,-0.947
50.366,118.29,-522.2,1.449,-3.648,-0.961
38.841,140.06,-530.43,1.23,-3.522,-0.967
31.098,166.22,-536.28,1.047,-3.399,-0.971
29.573,197.32,-540.24,0.893,-3.31,-0.946
32.317,232.81,-543.05,0.734,-3.246,-0.89
38.78,270.12,-544.94,0.546,-3.171,-0.843
51.524,307.93,-545.98,0.39,-3.114,-0.823
77.134,344.51,-545,0.274,-3.1,-0.817
116.89,380.31,-545.06,0.145,-3.092,-0.802
168.35,414.45,-544.82,-0.044,-3.057,-0.771
233.72,449.33,-540.18,-0.235,-3.059,-0.705
302.13,478.23,-523.78,-0.438,-3.11,-0.628
381.95,495.73,-503.72,-0.678,-3.16,-0.604
462.74,502.26,-468.6,-0.977,-3.143,-0.662
518.9,488.29,-420.73,-1.278,-3.21,-0.799
539.39,481.22,-373.54,-1.571,-3.39,-0.919
546.77,494.76,-322.56,-1.914,-3.517,-0.986
549.88,440.67,-273.48,-2.304,-3.601,-0.982
530.73,357.68,-253.84,-3.051,-3.665,-0.904
505.37,280.06,-241.83,-4.063,-3.757,-0.891
510,206.34,-236.28,-5.466,-3.92,-0.84
444.51,140.91,-211.77,-6.685,-3.749,-0.866
325,83.049,-170.49,-7.589,-3.225,-1.117
201.04,36.707,-116.28,-8.469,-2.32,-1.601
35,-19.268,-63.841,-7.682,-1.235,-2.023
-152.32,-55.61,-17.439,-5.949,0.286,-2.771
-289.15,-78.841,17.378,-4.965,1.505,-2.895
-376.16,-88.841,43.293,-4.503,2.253,-2.461
-477.19,-96.159,60.732,-4.842,2.617,-1.855
-547.62,-95.244,78.049,-4.885,3.307,-1.396
-572.74,-76.463,100.24,-4.819,3.562,-1.073
-567.87,-61.89,121.22,-4.193,3.725,-0.945
-532.68,-51.402,134.21,-3.398,3.96,-0.631
-467.93,-45.671,144.94,-2.946,4.485,-0.035
-377.13,-44.817,155.79,-2.843,4.08,0.373
-273.72,-45.244,166.83,-2.878,3.373,0.632
-168.35,-50.427,177.56,-2.622,2.761,0.84
-71.159,-55.061,188.9,-2.535,2.06,1.086
13.354,-57.988,200.85,-2.516,1.464,1.541
80.488,-61.341,213.78,-2.432,1.046,2.067
124.63,-66.585,226.89,-2.221,0.799,2.492
142.93,-74.512,240.67,-1.964,0.528,2.611
137.87,-86.341,254.33,-1.88,0.213,2.696
111.34,-104.45,266.16,-1.913,-0.017,2.686
67.073,-112.93,275.79,-1.938,-0.122,2.59
11.159,-120.61,284.33,-1.865,-0.135,2.477
-52.134,-143.54,291.89,-1.696,-0.124,2.38
-119.21,-176.16,296.65,-1.531,-0.101,2.301
-183.78,-193.66,298.11,-1.439,-0.061,2.21
-240.67,-212.68,296.95,-1.427,-0.043,2.074
-288.35,-239.15,292.93,-1.296,-0.07,1.949
-326.16,-268.29,281.1,-1.157,-0.146,1.767
-355.98,-294.15,267.01,-1.234,-0.281,1.562
-368.48,-302.56,253.9,-1.321,-0.55,1.364
-369.15,-316.16,237.38,-1.18,-0.778,1.163
-376.04,-339.88,215.06,-1.052,-0.982,0.94
-362.62,-348.29,194.21,-1.071,-1.306,0.719
-341.4,-355.06,174.02,-0.954,-1.553,0.432
-317.38,-361.04,153.35,-0.903,-1.869,0.211
-291.89,-365.43,134.15,-0.705,-1.989,0.028
-267.44,-367.62,116.65,-0.66,-2.148,-0.128
-243.29,-367.99,100.43,-0.494,-2.357,-0.298
-219.33,-366.83,87.073,-0.324,-2.286,-0.358
-197.87,-364.88,76.585,-0.163,-2.24,-0.442
-180.98,-361.95,67.683,-0.005,-2.163,-0.532
-168.35,-358.11,60.305,0.121,-2.072,-0.615
-157.93,-353.54,54.268,0.186,-1.964,-0.712
-150.91,-347.32,49.024,0.207,-1.859,-0.829
-146.71,-339.82,44.39,0.252,-1.709,-0.952
-143.96,-331.28,41.463,0.324,-1.57,-1.04
-143.96,-322.07,40.122,0.376,-1.472,-1.074
-145.55,-312.19,39.695,0.413,-1.374,-1.082
-148.11,-301.77,40.671,0.458,-1.251,-1.081
-151.77,-290.98,42.317,0.5,-1.141,-1.1
-155.37,-279.39,44.024,0.516,-1.054,-1.113
-158.72,-266.89,45.244,0.536,-0.972,-1.148
-160.73,-253.23,44.512,0.567,-0.926,-1.181
-159.94,-237.93,42.378,0.604,-0.878,-1.176
-156.59,-221.77,39.085,0.67,-0.823,-1.158
-151.52,-205.37,34.817,0.765,-0.785,-1.129
-145.73,-189.15,29.512,0.864,-0.749,-1.072
-138.78,-172.26,23.841,0.98,-0.711,-1.005
-131.1,-155.18,20.305,1.137,-0.677,-0.932
-122.93,-137.5,17.683,1.286,-0.591,-0.867
-116.1,-119.08,14.634,1.417,-0.503,-0.803
-108.78,-100.92,12.256,1.549,-0.455,-0.717
-102.13,-82.927,9.878,1.688,-0.451,-0.653
-96.28,-65.732,6.951,1.813,-0.434,-0.612
-88.659,-49.024,3.72,1.949,-0.378,-0.555
-80.854,-33.415,0.061,2.092,-0.367,-0.499
-72.256,-19.024,-2.988,2.225,-0.389,-0.442
-62.683,-6.037,-5.122,2.328,-0.381,-0.354
-53.415,5.122,-6.585,2.433,-0.381,-0.256
-44.268,13.841,-7.561,2.535,-0.379,-0.154
-34.817,20.366,-9.146,2.603,-0.356,-0.056
-25.61,25.549,-11.037,2.629,-0.379,0.016
-17.195,29.329,-13.171,2.611,-0.423,0.079
-9.634,31.585,-15.976,2.548,-0.457,0.142
-2.988,32.927,-19.329,2.472,-0.514,0.2
3.232,33.476,-22.5,2.403,-0.568,0.252
8.963,32.866,-25.915,2.324,-0.605,0.296
13.171,31.341,-29.573,2.24,-0.641,0.351
15.793,29.207,-32.805,2.158,-0.684,0.4
18.049,26.402,-36.159,2.074,-0.724,0.444
18.902,23.354,-40.122,1.997,-0.755,0.488
17.988,19.939,-44.512,1.898,-0.781,0.519
15.854,16.829,-48.72,1.789,-0.819,0.546
12.439,13.963,-52.927,1.699,-0.867,0.575
8.598,11.28,-56.829,1.605,-0.9,0.598
4.268,9.024,-60.122,1.509,-0.89,0.618
0.305,7.256,-62.927,1.431,-0.879,0.621
-3.049,6.037,-65.305,1.362,-0.883,0.617
-6.037,5.061,-67.195,1.286,-0.859,0.61
-8.476,4.39,-68.476,1.22,-0.832,0.592
-9.939,4.451,-69.39,1.161,-0.807,0.56
-9.573,4.939,-70.122,1.105,-0.773,0.533
-8.537,5.61,-70.549,1.05,-0.75,0.495
-6.524,6.463,-70.793,0.992,-0.736,0.458
-3.78,7.683,-70.854,0.947,-0.733,0.436
-0.488,8.963,-70.671,0.907,-0.732,0.419
4.268,10.244,-70.061,0.867,-0.724,0.4
9.573,11.646,-69.146,0.826,-0.703,0.367
15.183,13.049,-68.171,0.779,-0.686,0.348
20.549,14.634,-67.012,0.742,-0.675,0.328
25.549,15.976,-65.549,0.709,-0.664,0.307
30.122,17.378,-63.78,0.676,-0.641,0.281
34.146,18.72,-61.89,0.636,-0.615,0.256
37.378,20,-60,0.6,-0.598,0.24
39.756,21.098,-57.683,0.567,-0.581,0.214
41.341,22.256,-55.427,0.537,-0.568,0.204
42.378,23.293,-52.927,0.512,-0.545,0.197
42.866,24.024,-50.488,0.486,-0.52,0.183
42.134,24.817,-47.927,0.464,-0.494,0.168
40.976,25.427,-44.939,0.442,-0.473,0.15
39.146,25.854,-41.646,0.417,-0.446,0.134
36.585,26.28,-38.537,0.399,-0.421,0.117
33.171,26.585,-35.61,0.377,-0.388,0.094
29.817,26.768,-32.744,0.356,-0.362,0.082
25.854,26.951,-29.939,0.338,-0.353,0.083
21.22,27.134,-27.195,0.322,-0.342,0.074
16.646,27.134,-24.207,0.306,-0.334,0.062
11.829,27.195,-21.098,0.293,-0.323,0.06
7.134,26.89,-18.171,0.278,-0.312,0.055
2.561,26.402,-15.549,0.269,-0.303,0.053
-1.646,25.793,-13.049,0.258,-0.304,0.047
-5.549,25.122,-10,0.25,-0.315,0.047
-9.573,24.39,-6.768,0.238,-0.329,0.048
-13.232,23.537,-3.537,0.222,-0.348,0.051
-16.646,22.378,-0.244,0.209,-0.366,0.051
-19.146,21.341,3.11,0.204,-0.373,0.051
-21.159,20.488,6.463,0.202,-0.386,0.052
-21.768,19.207,10.061,0.198,-0.396,0.045
-21.707,17.561,13.537,0.197,-0.415,0.043
-20.915,15.549,17.256,0.194,-0.446,0.053
-19.329,13.171,20.976,0.197,-0.473,0.067
-17.5,10.732,24.39,0.207,-0.487,0.075
-15.793,8.171,27.927,0.217,-0.503,0.091
-13.963,5.549,32.134,0.23,-0.532,0.111
-13.598,2.622,37.012,0.244,-0.567,0.128
-13.659,-0.793,42.683,0.258,-0.603,0.142
-14.146,-4.573,49.268,0.275,-0.621,0.164
-15.244,-8.841,56.402,0.288,-0.64,0.175
-15.61,-13.354,63.049,0.314,-0.667,0.187
-14.39,-17.927,68.659,0.355,-0.689,0.2
-11.768,-22.256,72.988,0.408,-0.731,0.214
-8.11,-27.195,75.244,0.456,-0.771,0.231
-2.988,-32.5,75.305,0.503,-0.794,0.265
4.024,-39.451,73.659,0.563,-0.828,0.296
12.866,-41.037,70.61,0.625,-0.853,0.322
20.671,-43.598,66.22,0.682,-0.842,0.352
26.524,-46.098,61.28,0.734,-0.846,0.383
30.549,-47.012,55.854,0.778,-0.865,0.434
32.256,-46.768,49.817,0.844,-0.869,0.463
31.585,-45.244,43.476,0.895,-0.839,0.496
28.476,-42.5,37.134,0.98,-0.826,0.527
23.841,-38.72,30.671,1.053,-0.787,0.554
17.805,-33.841,23.659,1.132,-0.756,0.592
10.732,-28.354,17.134,1.226,-0.719,0.619
3.293,-22.683,10.793,1.32,-0.674,0.639
-3.963,-16.707,4.756,1.406,-0.625,0.657
-10.427,-10.732,-1.28,1.479,-0.578,0.684
-15.366,-5.122,-6.646,1.544,-0.54,0.704
-19.085,0,-11.707,1.598,-0.508,0.713
-20.854,4.573,-16.402,1.626,-0.483,0.713
-20.244,8.171,-21.159,1.632,-0.476,0.716
-17.927,11.28,-25.793,1.625,-0.474,0.706
-14.329,13.72,-29.939,1.608,-0.482,0.693
-9.085,15.915,-33.354,1.581,-0.493,0.672
-2.744,17.622,-36.524,1.535,-0.511,0.649
4.512,19.024,-39.207,1.478,-0.532,0.625
12.195,20.122,-41.524,1.415,-0.551,0.604
20.061,20.976,-43.354,1.355,-0.567,0.58
28.11,21.707,-44.817,1.292,-0.59,0.554
35.61,22.195,-46.341,1.222,-0.607,0.53
42.195,22.622,-47.378,1.164,-0.625,0.499
47.866,22.805,-48.171,1.102,-0.637,0.475
52.5,22.622,-48.72,1.044,-0.634,0.458
55.61,22.317,-49.085,0.989,-0.626,0.435
57.195,21.768,-49.146,0.933,-0.613,0.408
57.317,21.098,-48.902,0.887,-0.605,0.384
56.22,20.366,-48.232,0.842,-0.598,0.363
54.146,19.634,-47.561,0.798,-0.575,0.348
51.098,18.78,-46.829,0.758,-0.547,0.32
47.195,17.988,-45.61,0.727,-0.531,0.303
42.744,17.5,-44.024,0.699,-0.512,0.287
37.683,16.768,-42.195,0.666,-0.484,0.263
32.927,15.732,-40.244,0.63,-0.457,0.243
28.354,14.634,-37.988,0.605,-0.43,0.222
23.78,13.476,-35.671,0.585,-0.408,0.206
19.451,12.561,-32.988,0.568,-0.39,0.195
15.122,11.829,-29.695,0.547,-0.376,0.183
11.402,11.037,-26.159,0.524,-0.362,0.181
7.988,10.183,-22.744,0.512,-0.343,0.173
4.878,9.329,-19.573,0.501,-0.332,0.163
2.683,8.72,-16.098,0.49,-0.328,0.156
0.61,8.232,-13.049,0.473,-0.332,0.153
-1.159,7.805,-10,0.464,-0.339,0.152
-2.561,7.073,-6.829,0.458,-0.344,0.157
-3.902,6.585,-3.659,0.45,-0.353,0.162
-4.939,6.098,-0.427,0.446,-0.368,0.164
-5.793,5.427,2.866,0.44,-0.368,0.162
-6.89,4.756,6.341,0.434,-0.376,0.166
-7.317,3.537,9.878,0.427,-0.394,0.173
-7.927,2.378,13.11,0.43,-0.403,0.187
-8.659,1.585,16.646,0.438,-0.425,0.194
-9.756,0.427,20.305,0.447,-0.442,0.2
-11.28,-1.037,23.78,0.457,-0.454,0.208
-13.11,-2.256,27.012,0.472,-0.479,0.212
-15.305,-3.659,29.939,0.482,-0.493,0.226
-17.317,-4.878,32.683,0.493,-0.495,0.232
-19.756,-6.098,35.061,0.514,-0.499,0.236
-22.317,-7.317,37.012,0.543,-0.503,0.252
-24.695,-8.415,38.78,0.563,-0.51,0.273
-26.89,-9.512,39.878,0.583,-0.515,0.29
-29.207,-10.366,40.183,0.606,-0.511,0.309
-31.159,-11.159,40.061,0.636,-0.51,0.327
-32.805,-11.524,39.939,0.668,-0.508,0.341
-33.659,-11.646,39.39,0.693,-0.509,0.359
-34.207,-11.646,38.232,0.718,-0.507,0.372
-34.146,-11.341,36.585,0.743,-0.497,0.39
-32.988,-10.976,34.207,0.786,-0.498,0.407
-31.707,-10.305,31.524,0.825,-0.5,0.432
-30.488,-9.207,28.963,0.861,-0.499,0.444
-28.963,-7.866,26.951,0.887,-0.506,0.44
-27.134,-6.037,25.366,0.913,-0.515,0.445
-25.61,-3.78,24.024,0.939,-0.508,0.452
-24.146,-1.707,22.622,0.971,-0.498,0.446
-22.5,0.244,21.22,1,-0.505,0.445
-20.671,2.5,19.451,1.025,-0.519,0.457
-18.476,4.634,17.744,1.05,-0.531,0.465
-16.098,6.341,16.098,1.076,-0.543,0.465
-13.659,7.805,14.39,1.085,-0.561,0.468
-11.463,9.451,12.988,1.086,-0.569,0.474
-8.78,10.61,11.22,1.089,-0.56,0.479
-6.646,11.098,8.598,1.096,-0.546,0.478
-4.634,11.341,5.915,1.09,-0.545,0.472
-3.293,11.28,2.866,1.077,-0.549,0.456
-2.5,10.732,-0.671,1.061,-0.549,0.449
-2.134,10,-4.695,1.047,-0.544,0.439
-2.561,9.146,-8.598,1.032,-0.546,0.424
-3.11,8.354,-12.5,1,-0.558,0.409
-3.78,7.012,-16.89,0.969,-0.558,0.389
-4.939,5.732,-21.28,0.931,-0.555,0.383
-5.549,4.573,-25,0.896,-0.561,0.372
-6.28,3.415,-28.598,0.864,-0.559,0.356
-6.402,2.073,-32.195,0.826,-0.555,0.35
-6.037,0.488,-35.427,0.786,-0.559,0.333
-5.061,-1.098,-38.232,0.738,-0.566,0.332
-3.476,-2.683,-40.915,0.714,-0.57,0.325
-1.585,-4.329,-43.171,0.688,-0.566,0.315
0.366,-6.098,-45,0.648,-0.565,0.317
2.134,-7.866,-46.159,0.623,-0.564,0.304
3.415,-9.817,-47.012,0.598,-0.564,0.297
4.39,-12.134,-47.5,0.564,-0.552,0.283
4.39,-14.756,-47.378,0.533,-0.539,0.263
4.085,-17.439,-46.402,0.505,-0.521,0.243
2.622,-20.122,-44.634,0.477,-0.501,0.227
-0.427,-23.171,-41.89,0.453,-0.475,0.217
-5.427,-25.732,-37.561,0.417,-0.44,0.194
-11.402,-27.5,-30.244,0.378,-0.399,0.168
-18.232,-28.293,-20.305,0.317,-0.361,0.123
-27.622,-28.598,-7.439,0.248,-0.32,0.064
-37.927,-28.171,9.146,0.171,-0.293,-0.002
-49.878,-27.5,28.354,0.069,-0.273,-0.066
-62.073,-26.524,49.39,-0.057,-0.25,-0.121
-73.232,-25.244,71.829,-0.19,-0.211,-0.174
-83.598,-23.72,95.793,-0.324,-0.208,-0.241
-92.012,-22.561,121.34,-0.475,-0.246,-0.291
-97.683,-21.646,148.48,-0.646,-0.248,-0.318
-100,-21.646,176.71,-0.82,-0.259,-0.341
-98.659,-22.439,205.24,-0.975,-0.252,-0.337
-93.72,-23.415,232.99,-1.101,-0.218,-0.345
-83.72,-24.634,259.33,-1.202,-0.187,-0.331
-69.756,-25.061,283.48,-1.269,-0.176,-0.287
-52.927,-23.963,304.82,-1.276,-0.182,-0.218
-34.756,-20.488,322.5,-1.231,-0.218,-0.108
-15.305,-14.207,336.77,-1.154,-0.273,0.033
4.512,-3.11,347.56,-1.035,-0.334,0.196
22.805,12.134,354.51,-0.886,-0.352,0.384
41.829,29.512,357.5,-0.672,-0.341,0.578
60,47.622,357.26,-0.39,-0.342,0.768
79.756,64.39,355.49,-0.077,-0.361,0.962
102.68,74.756,354.08,0.281,-0.379,1.152
129.94,77.256,355.73,0.662,-0.39,1.358
159.15,74.939,357.87,1.064,-0.394,1.601
192.19,68.659,362.38,1.458,-0.441,1.848
230.31,67.195,368.35,1.789,-0.54,2.112
258.96,57.5,370.43,2.077,-0.711,2.349
284.94,48.841,370.24,2.349,-0.964,2.53
304.39,39.146,364.94,2.521,-1.289,2.578
316.71,28.78,352.5,2.523,-1.62,2.492
322.01,20.976,331.77,2.409,-1.988,2.405
319.57,15.976,302.68,2.499,-2.416,2.189
312.19,12.622,264.82,2.643,-2.575,2.005
302.32,10.183,218.05,2.838,-2.768,1.85
291.4,5.976,163.35,3.061,-2.88,1.742
285.18,-0.61,104.08,3.269,-2.955,1.613
284.63,-8.841,45.183,3.467,-3.046,1.421
282.32,-17.378,-12.256,3.689,-3.135,1.217
279.76,-23.171,-65.854,3.936,-3.155,1.029
284.21,-24.024,-116.4,4.203,-3.142,0.824
284.45,-26.402,-166.95,4.44,-3.205,0.612
281.4,-26.28,-217.99,4.559,-3.359,0.432
277.01,-22.256,-267.01,4.475,-3.629,0.256
268.17,-13.11,-313.96,4.243,-4.029,0.037
254.21,2.073,-359.51,3.976,-4.418,-0.192
238.41,22.561,-401.65,3.743,-4.657,-0.538
217.32,47.195,-440,3.433,-4.781,-0.78
194.82,75.671,-474.33,3.161,-4.783,-1.025
174.94,108.54,-504.69,2.908,-4.69,-1.266
158.78,145.49,-530.18,2.641,-4.614,-1.481
148.35,185.24,-550.61,2.342,-4.571,-1.618
144.69,226.34,-566.04,2.106,-4.508,-1.689
148.78,267.19,-576.65,1.943,-4.453,-1.68
165.67,306.58,-583.96,1.787,-4.366,-1.609
190.98,344.88,-591.89,1.595,-4.22,-1.532
224.39,381.34,-600.06,1.369,-4.08,-1.5
268.35,414.82,-605.49,1.119,-4,-1.468
320.37,442.68,-605.55,0.842,-3.956,-1.391
379.39,464.51,-604.39,0.566,-3.909,-1.321
443.78,479.94,-601.65,0.268,-3.848,-1.259
512.93,489.27,-595.67,-0.051,-3.876,-1.167
587.13,493.54,-586.89,-0.323,-3.974,-1.048
665.12,494.21,-573.96,-0.558,-4.046,-0.961
734.82,483.78,-546.52,-0.799,-4.114,-0.917
803.84,461.58,-505.92,-1.076,-4.214,-0.949
861.1,417.38,-469.82,-1.386,-4.333,-1.03
821.22,421.83,-425.12,-1.746,-4.382,-1.148
750.37,395.73,-375.55,-2.148,-4.402,-1.32
653.29,288.72,-312.5,-2.623,-4.475,-1.52
560.43,186.4,-281.52,-3.487,-4.61,-1.743
468.66,129.27,-241.83,-4.851,-4.645,-1.979
398.11,66.829,-212.87,-6.487,-4.49,-2.235
233.41,28.476,-169.21,-7.688,-4.198,-2.372
86.28,-9.146,-124.76,-8.752,-3.599,-2.765
-78.537,-76.341,-78.415,-9.173,-2.375,-3.509
-237.87,-105.06,-37.805,-6.901,-0.432,-4.114
-356.65,-81.463,-3.11,-4.833,1.193,-4.625
-443.17,-60.427,16.646,-3.759,2.307,-4.549
-498.11,-59.024,28.476,-4.267,2.683,-3.808
-513.54,-49.939,43.841,-4.802,3.068,-3.021
-485.79,-25.61,60.793,-4.832,3.356,-2.872
-430.61,-0.915,76.463,-3.844,3.407,-2.785
-357.19,20.549,86.524,-3.005,3.516,-2.268
-267.81,38.659,93.476,-2.797,3.321,-1.53
-171.95,50.061,101.52,-2.906,2.976,-1.042
-83.354,52.927,110.37,-2.583,2.499,-0.657
-14.817,51.768,121.16,-2.173,1.981,-0.375
29.817,46.768,134.51,-2.233,1.38,-0.012
51.159,37.744,149.27,-2.43,1.071,0.549
50.976,24.634,165.18,-2.361,1.065,1.023
33.049,8.841,180.79,-2.082,1.079,1.333
-1.707,-10.061,195.49,-1.845,1.065,1.443
-50.305,-34.634,209.02,-1.84,0.972,1.53
-109.02,-65.732,220.73,-1.962,0.954,1.592
-169.51,-100.06,231.1,-1.974,1.006,1.618
-225.37,-131.28,240.55,-1.893,1.103,1.647
-278.9,-167.01,247.5,-1.799,1.2,1.691
-328.84,-204.82,250.61,-1.752,1.238,1.781
-372.38,-241.46,251.52,-1.714,1.194,1.857
-405.92,-276.28,250,-1.658,1.083,1.879
-432.26,-311.46,244.88,-1.603,0.909,1.82
-451.71,-342.07,237.07,-1.457,0.708,1.689
-462.13,-371.22,227.32,-1.479,0.394,1.57
-465.12,-398.48,215.61,-1.465,0.032,1.431
-462.38,-419.88,202.62,-1.384,-0.326,1.319
-458.84,-439.45,188.11,-1.25,-0.63,1.19
-451.89,-455.85,172.5,-1.157,-1.003,1.052
-441.4,-468.29,156.83,-1.033,-1.303,0.899
-432.26,-476.58,140.31,-0.954,-1.536,0.707
-418.9,-481.65,123.66,-0.89,-1.736,0.502
-401.28,-483.6,107.87,-0.756,-1.834,0.309
-385.49,-481.77,94.024,-0.657,-1.938,0.161
-369.69,-477.32,81.463,-0.541,-1.942,0.032
-350.37,-471.46,70.183,-0.408,-1.859,-0.117
-330.12,-463.6,60.366,-0.298,-1.802,-0.27
-311.58,-453.9,51.28,-0.196,-1.746,-0.409
-294.94,-442.99,43.11,-0.129,-1.692,-0.5
-282.07,-430.37,35.488,-0.071,-1.65,-0.554
-270.24,-415.55,28.72,-0.041,-1.607,-0.597
-259.88,-399.21,24.024,-0.025,-1.508,-0.695
-252.62,-382.44,21.707,0.024,-1.401,-0.803
-246.95,-366.4,21.463,0.085,-1.316,-0.874
-238.05,-349.39,21.768,0.127,-1.214,-0.92
-226.1,-331.46,22.317,0.163,-1.106,-0.945
-213.48,-313.48,23.354,0.225,-0.992,-0.972
-199.39,-295.18,24.573,0.282,-0.925,-0.997
-183.6,-276.1,25.793,0.34,-0.929,-1.005
-167.81,-257.62,27.439,0.399,-0.952,-0.976
-154.15,-238.78,29.207,0.469,-0.897,-0.959
-140.24,-219.02,31.829,0.56,-0.822,-0.968
-126.1,-199.02,34.634,0.636,-0.786,-0.952
-115.06,-179.27,36.341,0.698,-0.75,-0.931
-106.22,-159.69,38.049,0.771,-0.717,-0.91
-97.744,-139.33,40.793,0.858,-0.705,-0.871
-91.585,-118.35,44.207,0.986,-0.722,-0.824
-86.22,-97.805,47.988,1.11,-0.688,-0.77
-81.28,-77.744,51.89,1.215,-0.611,-0.718
-77.866,-58.232,54.817,1.327,-0.586,-0.653
-73.232,-39.329,56.768,1.448,-0.563,-0.599
-68.354,-21.524,57.439,1.585,-0.504,-0.563
-64.39,-5.305,56.463,1.739,-0.471,-0.535
-59.329,9.512,54.695,1.89,-0.454,-0.483
-53.78,23.171,52.012,2.053,-0.415,-0.406
-48.049,34.817,48.537,2.229,-0.388,-0.327
-40.732,43.598,44.39,2.396,-0.35,-0.239
-32.012,50.488,38.598,2.532,-0.323,-0.143
-22.134,55.305,31.585,2.646,-0.324,-0.065
-11.098,57.561,24.512,2.726,-0.305,0.024
0.793,58.171,16.646,2.794,-0.305,0.118
13.049,56.89,8.659,2.825,-0.34,0.21
24.512,53.841,0.549,2.81,-0.374,0.293
35,49.085,-7.744,2.755,-0.425,0.366
44.085,42.805,-15.732,2.662,-0.491,0.435
51.585,35.61,-23.72,2.546,-0.557,0.499
57.622,27.988,-31.89,2.436,-0.632,0.559
61.768,19.817,-39.512,2.314,-0.709,0.626
63.476,11.89,-46.646,2.184,-0.786,0.683
62.988,4.329,-53.049,2.046,-0.854,0.726
59.939,-2.927,-58.841,1.912,-0.893,0.739
54.939,-9.39,-63.659,1.789,-0.911,0.728
48.537,-14.817,-68.11,1.676,-0.907,0.708
40.549,-19.146,-72.073,1.557,-0.887,0.684
32.256,-22.317,-75.61,1.449,-0.871,0.651
24.207,-24.268,-78.293,1.36,-0.847,0.624
17.195,-25.122,-80.183,1.275,-0.824,0.597
10.915,-24.634,-81.524,1.201,-0.789,0.57
5.976,-23.72,-82.561,1.128,-0.754,0.541
2.683,-22.012,-83.293,1.068,-0.73,0.514
0.671,-19.634,-83.841,1.017,-0.709,0.488
0.366,-16.646,-84.024,0.965,-0.693,0.458
1.951,-13.171,-83.78,0.918,-0.685,0.419
4.817,-9.39,-83.049,0.873,-0.693,0.389
8.841,-5.671,-81.951,0.825,-0.697,0.363
13.72,-1.707,-80.732,0.779,-0.691,0.335
19.268,2.195,-78.841,0.744,-0.684,0.307
25.061,6.037,-77.012,0.716,-0.67,0.278
30.976,9.756,-75.061,0.687,-0.657,0.239
36.098,13.598,-72.561,0.639,-0.654,0.204
40.061,17.5,-69.756,0.603,-0.65,0.177
43.293,21.098,-66.402,0.582,-0.629,0.159
45.732,24.39,-62.805,0.562,-0.603,0.15
47.073,27.622,-59.207,0.543,-0.576,0.141
47.195,30.488,-55.549,0.524,-0.543,0.128
46.585,32.988,-51.89,0.501,-0.517,0.12
44.817,35.61,-48.049,0.483,-0.501,0.115
41.768,37.988,-44.451,0.468,-0.473,0.103
38.902,40.244,-40.671,0.451,-0.434,0.087
35.183,42.378,-36.951,0.437,-0.403,0.075
30.427,44.146,-33.171,0.423,-0.384,0.07
24.939,45.793,-29.146,0.412,-0.364,0.068
19.39,46.951,-24.939,0.398,-0.341,0.066
14.146,47.805,-20.61,0.384,-0.317,0.06
8.902,48.354,-15.976,0.365,-0.292,0.048
3.78,48.72,-11.402,0.344,-0.279,0.039
-0.305,48.72,-6.951,0.331,-0.28,0.038
-3.78,48.293,-2.622,0.325,-0.287,0.044
-7.012,47.561,1.707,0.322,-0.289,0.051
-9.268,46.524,5.854,0.324,-0.302,0.05
-11.463,44.817,9.756,0.324,-0.319,0.047
-13.354,43.232,13.415,0.313,-0.333,0.049
-14.146,41.341,17.012,0.311,-0.343,0.055
-14.878,39.085,20.549,0.315,-0.354,0.055
-15.671,36.646,23.72,0.322,-0.37,0.071
-15.976,34.024,27.073,0.326,-0.395,0.082
-16.402,31.159,30.61,0.33,-0.419,0.086
-16.768,28.049,34.146,0.331,-0.439,0.091
-18.049,24.939,37.378,0.33,-0.456,0.101
-19.207,21.707,40.305,0.337,-0.476,0.105
-20.427,18.232,43.171,0.346,-0.507,0.118
-22.012,14.939,45.61,0.367,-0.533,0.139
-23.354,11.159,47.317,0.39,-0.566,0.158
-24.817,7.561,48.598,0.415,-0.587,0.165
-26.402,4.451,49.085,0.449,-0.62,0.186
-27.256,1.341,48.963,0.488,-0.643,0.206
-28.78,-1.402,47.805,0.526,-0.646,0.223
-30.183,-3.598,46.22,0.569,-0.664,0.244
-31.829,-5.366,44.329,0.608,-0.678,0.266
-33.232,-7.134,42.134,0.638,-0.688,0.289
-34.634,-8.293,39.634,0.677,-0.695,0.319
-35.793,-8.659,36.524,0.729,-0.697,0.351
-36.89,-8.415,33.11,0.79,-0.704,0.379
-37.5,-7.927,29.634,0.834,-0.703,0.417
-37.5,-7.073,25.671,0.888,-0.706,0.457
-37.134,-5.732,21.341,0.956,-0.696,0.486
-35.915,-3.963,17.073,1.019,-0.686,0.503
-33.963,-2.195,12.744,1.088,-0.688,0.533
-30.976,-0.122,8.537,1.145,-0.687,0.561
-27.439,1.951,4.329,1.2,-0.662,0.592
-23.232,3.902,0,1.247,-0.644,0.608
-18.537,5.61,-3.841,1.291,-0.63,0.627
-13.232,7.134,-7.195,1.323,-0.617,0.637
-7.073,8.598,-10.427,1.344,-0.611,0.65
-0.732,9.695,-13.415,1.354,-0.607,0.65
6.037,10.61,-15.915,1.357,-0.605,0.653
12.805,11.098,-17.988,1.354,-0.607,0.659
19.39,11.707,-19.939,1.343,-0.613,0.652
25.61,12.195,-21.646,1.326,-0.617,0.643
31.28,12.622,-23.11,1.298,-0.606,0.626
36.402,12.744,-24.451,1.266,-0.6,0.613
40.549,12.683,-25.732,1.229,-0.596,0.596
43.78,12.866,-26.646,1.189,-0.58,0.578
46.159,12.866,-27.744,1.147,-0.563,0.556
47.256,12.866,-28.476,1.104,-0.546,0.532
48.049,12.988,-28.78,1.058,-0.526,0.508
47.5,12.805,-28.841,1.008,-0.519,0.488
46.707,12.622,-28.659,0.96,-0.502,0.462
45.427,12.439,-28.354,0.911,-0.48,0.435
43.415,12.317,-27.927,0.875,-0.467,0.412
41.037,12.012,-27.195,0.838,-0.452,0.389
38.963,11.585,-26.28,0.798,-0.435,0.36
36.585,10.732,-25.244,0.767,-0.419,0.341
34.085,10.061,-24.085,0.727,-0.402,0.324
31.585,9.573,-22.744,0.689,-0.396,0.299
29.024,8.963,-21.098,0.663,-0.389,0.276
26.341,8.049,-19.878,0.63,-0.378,0.26
23.598,7.134,-18.841,0.607,-0.372,0.244
21.28,6.159,-17.683,0.58,-0.364,0.229
18.476,5.366,-16.341,0.549,-0.367,0.216
15.854,4.634,-14.817,0.532,-0.371,0.2
13.537,3.78,-13.232,0.508,-0.364,0.201
11.646,3.232,-11.22,0.486,-0.367,0.196
10.549,3.537,-8.841,0.48,-0.373,0.188
10.671,3.963,-5.915,0.463,-0.374,0.173
11.463,4.451,-3.049,0.445,-0.379,0.157
13.232,5,-0.061,0.434,-0.383,0.144
16.159,5.305,2.988,0.435,-0.396,0.132
19.512,5.122,5.671,0.431,-0.418,0.126
22.439,4.512,8.049,0.429,-0.447,0.107
25.061,3.841,10.732,0.427,-0.488,0.1
27.073,2.927,13.841,0.431,-0.521,0.122
28.415,1.28,16.768,0.451,-0.533,0.142
29.085,-0.427,19.329,0.46,-0.539,0.164
28.232,-2.378,22.195,0.466,-0.556,0.189
26.28,-4.207,24.878,0.474,-0.574,0.206
23.232,-6.037,27.317,0.485,-0.575,0.229
18.963,-8.171,29.512,0.501,-0.557,0.253
13.598,-10.061,31.159,0.527,-0.539,0.271
7.256,-11.829,32.5,0.559,-0.529,0.287
0.122,-13.354,33.354,0.578,-0.524,0.299
-7.744,-14.878,33.72,0.594,-0.511,0.308
-15.732,-16.463,33.963,0.617,-0.484,0.319
-23.293,-17.927,33.902,0.652,-0.459,0.334
-30.549,-18.963,33.415,0.692,-0.438,0.355
-36.707,-19.878,32.866,0.725,-0.413,0.371
-41.402,-20.488,31.829,0.751,-0.406,0.389
-44.329,-20.671,30.793,0.793,-0.408,0.41
-45.366,-20.732,29.634,0.822,-0.404,0.437
-45.427,-20.671,28.171,0.857,-0.406,0.458
-44.39,-20.061,26.707,0.893,-0.416,0.475
-42.073,-19.024,25.488,0.922,-0.425,0.478
-38.78,-17.683,23.902,0.945,-0.441,0.485
-34.756,-16.341,21.951,0.972,-0.459,0.489
-30.244,-14.878,20,0.996,-0.483,0.491
-24.756,-13.232,18.293,1.015,-0.511,0.499
-18.963,-12.012,15.732,1.034,-0.529,0.507
-13.171,-10.854,12.988,1.053,-0.54,0.512
-7.622,-9.573,10.427,1.061,-0.561,0.504
-1.646,-8.659,7.866,1.062,-0.576,0.497
3.902,-7.805,4.695,1.062,-0.587,0.498
8.72,-7.134,1.707,1.063,-0.589,0.503
12.5,-6.402,-1.037,1.06,-0.601,0.508
15.549,-5.854,-3.902,1.048,-0.627,0.503
17.561,-5.488,-6.646,1.035,-0.629,0.507
18.354,-5.183,-9.085,1.016,-0.619,0.5
18.537,-4.878,-11.22,1.001,-0.616,0.488
17.988,-4.634,-13.78,0.982,-0.613,0.478
16.402,-4.329,-16.22,0.955,-0.611,0.471
14.268,-4.39,-18.171,0.928,-0.615,0.468
11.402,-4.695,-19.939,0.903,-0.609,0.458
8.598,-5,-21.524,0.892,-0.599,0.449
5.793,-5.244,-22.622,0.873,-0.579,0.441
3.11,-5.671,-23.598,0.846,-0.56,0.42
1.28,-6.159,-24.268,0.82,-0.546,0.394
0.427,-6.707,-24.573,0.798,-0.533,0.376
0.061,-7.317,-25,0.771,-0.523,0.37
-0.366,-8.11,-24.817,0.754,-0.516,0.356
-0.305,-8.902,-24.024,0.739,-0.521,0.34
-0.061,-9.329,-22.927,0.72,-0.523,0.331
0.244,-9.634,-21.829,0.707,-0.506,0.324
0.305,-10.366,-20.976,0.688,-0.489,0.303
0.61,-11.159,-20.183,0.673,-0.49,0.289
1.402,-11.951,-19.634,0.661,-0.494,0.284
1.707,-12.683,-18.841,0.651,-0.491,0.271
1.037,-13.354,-17.683,0.637,-0.483,0.256
1.22,-14.451,-16.159,0.62,-0.469,0.241
0.549,-15.854,-14.329,0.595,-0.445,0.225
-0.183,-17.378,-12.744,0.586,-0.416,0.206
-1.585,-18.78,-10.854,0.565,-0.398,0.183
-2.439,-20.427,-8.415,0.542,-0.4,0.165
-2.744,-22.439,-5.915,0.523,-0.393,0.128
-3.293,-23.963,-3.049,0.509,-0.395,0.119
-4.329,-25.366,0.183,0.491,-0.376,0.077
-5.793,-26.768,4.146,0.47,-0.373,0.038
-6.951,-27.439,9.39,0.446,-0.355,-0.016
-9.451,-27.134,15.671,0.41,-0.33,-0.063
-13.659,-27.073,22.866,0.366,-0.315,-0.119
-17.256,-27.378,31.159,0.295,-0.316,-0.187
-22.439,-27.622,40,0.224,-0.317,-0.243
-29.817,-27.439,49.451,0.142,-0.307,-0.281
-37.622,-27.256,60.305,0.041,-0.284,-0.318
-46.524,-27.439,72.683,-0.076,-0.285,-0.337
-57.988,-27.561,86.341,-0.167,-0.297,-0.346
-70.122,-27.744,101.65,-0.247,-0.292,-0.359
-82.012,-28.049,117.81,-0.351,-0.282,-0.355
-94.512,-28.963,134.76,-0.442,-0.258,-0.376
-105.55,-29.634,152.81,-0.533,-0.218,-0.392
-113.17,-29.695,172.13,-0.634,-0.187,-0.377
-117.13,-28.902,191.89,-0.702,-0.181,-0.337
-117.5,-26.463,211.16,-0.731,-0.165,-0.282
-113.05,-22.805,229.02,-0.753,-0.15,-0.184
-102.38,-15.976,245.24,-0.754,-0.149,-0.045
-87.927,-1.829,257.5,-0.684,-0.16,0.068
-68.659,6.585,267.5,-0.553,-0.167,0.191
-45.366,24.573,273.42,-0.404,-0.165,0.334
-18.659,43.415,276.58,-0.239,-0.2,0.501
10.854,59.756,277.01,-0.037,-0.244,0.696
43.293,72.5,276.04,0.223,-0.267,0.897
79.146,82.317,275.31,0.5,-0.304,1.136
117.01,86.829,274.02,0.824,-0.361,1.374
157.38,84.695,274.33,1.144,-0.404,1.642
197.56,76.707,277.38,1.493,-0.456,1.918
233.41,65,281.34,1.805,-0.553,2.16
264.02,51.768,285.18,1.996,-0.708,2.33
286.1,39.451,286.52,2.06,-0.916,2.387
304.94,28.598,287.62,2.062,-1.2,2.375
311.83,18.78,284.63,1.994,-1.474,2.312
309.51,9.939,278.29,1.913,-1.761,2.218
301.4,1.768,268.96,1.833,-2.035,2.13
290.37,-4.512,254.69,1.836,-2.239,2.057
276.77,-8.293,235.24,2.006,-2.343,1.996
266.16,-14.634,207.38,2.312,-2.388,1.859
261.1,-12.927,166.46,2.607,-2.33,1.798
262.32,-5.793,112.5,2.867,-2.313,1.686
270.12,-8.293,58.293,3.104,-2.353,1.478
277.38,-7.195,2.073,3.406,-2.486,1.14
285.49,-2.622,-52.622,3.777,-2.681,0.767
286.4,2.5,-106.16,4.242,-2.81,0.432
284.02,8.415,-158.11,4.593,-2.853,0.142
277.56,16.768,-207.56,5.12,-2.957,-0.064
265.55,28.415,-253.05,5.066,-3.226,-0.227
248.48,42.378,-296.28,5.016,-3.428,-0.413
229.09,59.878,-336.52,4.788,-3.777,-0.727
211.34,81.22,-374.57,4.392,-4.053,-0.975
192.62,107.01,-410.06,3.951,-4.219,-1.263
174.69,134.88,-442.07,3.572,-4.263,-1.468
159.45,165.18,-470.79,3.271,-4.293,-1.602
148.72,198.17,-496.71,2.955,-4.324,-1.675
142.74,232.26,-519.21,2.65,-4.272,-1.756
140.67,266.95,-537.32,2.372,-4.221,-1.917
143.23,301.89,-552.13,2.102,-4.244,-1.991
150.12,336.46,-564.15,1.853,-4.26,-2.008
163.84,369.88,-573.66,1.59,-4.24,-1.968
185.73,402.07,-581.34,1.358,-4.205,-1.921
211.34,432.26,-587.26,1.091,-4.178,-1.865
242.74,457.81,-591.46,0.797,-4.147,-1.798
282.87,476.52,-593.48,0.504,-4.089,-1.727
334.82,491.52,-591.46,0.235,-4.025,-1.68
389.51,505.43,-584.76,-0.022,-3.941,-1.646
441.34,510.98,-572.38,-0.31,-3.873,-1.595
501.52,515.18,-553.41,-0.619,-3.9,-1.492
573.96,512.93,-520.91,-0.878,-3.941,-1.374
673.72,488.48,-479.69,-1.106,-3.95,-1.33
677.8,450.43,-423.48,-1.351,-3.949,-1.376
618.41,424.45,-399.82,-1.651,-4.038,-1.44
584.02,393.29,-341.52,-2.175,-4.182,-1.475
541.4,268.78,-277.87,-2.764,-4.149,-1.546
473.54,146.65,-255.73,-3.57,-4.141,-1.59
383.72,70.671,-220.37,-4.718,-4.374,-1.62
338.05,3.841,-190.12,-6.275,-4.656,-1.632
198.9,-57.317,-147.07,-7.579,-4.473,-1.542
9.695,-134.82,-95.061,-8.474,-3.303,-2.107
-209.15,-196.28,-45.793,-9.082,-1.938,-2.863
-338.72,-206.28,5.854,-7.467,-0.307,-3.491
-456.52,-206.1,45.244,-5.861,1.244,-3.82
-572.99,-212.93,59.085,-4.89,2.544,-3.259
-657.07,-221.22,74.817,-4.896,3.168,-2.337
-693.78,-214.21,97.744,-5.104,3.286,-1.96
-677.8,-194.27,116.52,-4.953,3.464,-1.955
-629.45,-168.29,130.67,-4.296,4.109,-1.941
-547.87,-144.45,148.17,-3.832,4.52,-1.611
-443.96,-126.4,162.56,-3.577,4.236,-0.693
-334.69,-111.52,174.27,-3.096,3.982,0.011
-218.54,-99.39,186.28,-2.646,3.557,0.462
-106.46,-85.671,198.17,-2.412,2.758,0.526
-11.646,-71.951,208.11,-2.33,2.008,0.697
60.244,-60.61,219.15,-2.479,1.472,1.223
109.51,-52.439,231.46,-2.419,1.03,1.786
135.61,-49.39,241.34,-2.138,0.711,2.243
138.96,-72.927,248.66,-1.925,0.559,2.475
121.28,-85.244,255,-1.774,0.422,2.458
87.012,-47.134,256.52,-1.722,0.294,2.386
39.817,-54.512,260.98,-1.752,0.197,2.286
-15.976,-72.805,264.27,-1.748,0.147,2.195
-75.732,-88.902,265.61,-1.687,0.136,2.122
-132.93,-107.93,265.67,-1.709,0.15,2.028
-182.68,-129.02,264.27,-1.741,0.18,1.954
-222.5,-151.95,260.49,-1.019,0.152,2.05
-253.54,-178.29,253.66,-1.342,0.09,1.81
-276.16,-204.15,245.24,-1.391,-0.097,1.619
-286.95,-227.74,234.02,-1.326,-0.294,1.499
-289.76,-248.9,220.73,-1.267,-0.541,1.366
-287.19,-267.5,205.67,-1.185,-0.798,1.257
-280.37,-283.9,190.06,-1.071,-1.063,1.123
-270.37,-297.74,174.39,-0.984,-1.358,0.923
-257.99,-306.65,159.76,-0.886,-1.62,0.748
-244.63,-310.49,146.34,-0.789,-1.8,0.533
-231.4,-310.61,133.23,-0.68,-1.916,0.363
-218.78,-308.11,120.12,-0.567,-2.044,0.223
-206.46,-303.6,107.93,-0.459,-2.139,0.085
-194.69,-297.38,96.159,-0.375,-2.192,-0.051
-183.66,-290.18,84.695,-0.265,-2.188,-0.186
-172.19,-282.01,75.122,-0.118,-2.148,-0.331
-163.72,-274.02,67.134,0.044,-2.079,-0.423
-156.52,-266.28,60.427,0.167,-1.979,-0.46
-149.45,-258.78,54.573,0.268,-1.858,-0.5
-144.94,-251.4,49.207,0.338,-1.764,-0.552
-143.48,-244.09,44.207,0.383,-1.688,-0.613
-142.01,-237.87,39.451,0.408,-1.612,-0.689
-141.46,-232.32,34.634,0.425,-1.548,-0.741
-141.95,-225.85,30.549,0.441,-1.441,-0.776
-143.23,-217.93,27.378,0.473,-1.331,-0.798
-145.73,-211.16,24.756,0.512,-1.241,-0.815
-148.29,-204.94,22.561,0.563,-1.158,-0.789
-149.69,-198.11,20.61,0.613,-1.052,-0.755
-150,-190.91,18.841,0.67,-0.971,-0.737
-150.37,-184.33,17.927,0.727,-0.908,-0.733
-148.54,-176.65,17.866,0.784,-0.855,-0.727
-143.9,-169.63,18.659,0.815,-0.823,-0.696
-140.43,-163.78,19.146,0.871,-0.783,-0.657
-136.1,-158.72,20.244,0.961,-0.738,-0.628
-130,-153.48,21.585,1.056,-0.708,-0.594
-122.13,-148.23,22.134,1.107,-0.696,-0.552
-114.08,-143.05,22.317,1.164,-0.673,-0.517
-107.56,-137.74,22.073,1.212,-0.667,-0.489
-102.32,-132.07,21.707,1.264,-0.689,-0.443
-95.305,-125.24,21.463,1.319,-0.661,-0.381
-89.268,-118.11,20.671,1.372,-0.588,-0.309
-83.659,-109.88,19.634,1.443,-0.534,-0.245
-78.293,-100.73,19.207,1.527,-0.517,-0.167
-74.146,-91.646,18.841,1.614,-0.512,-0.098
-71.768,-81.89,17.561,1.703,-0.487,-0.019
-68.598,-71.951,16.098,1.817,-0.421,0.046
-64.146,-62.073,14.451,1.938,-0.386,0.115
-60.366,-51.707,11.829,2.057,-0.369,0.202
-54.695,-41.159,9.451,2.172,-0.361,0.288
-48.841,-31.463,7.073,2.254,-0.376,0.377
-42.622,-22.5,4.634,2.34,-0.391,0.46
-33.902,-14.39,2.012,2.405,-0.383,0.537
-23.598,-7.073,-1.037,2.458,-0.365,0.582
-12.988,-0.854,-4.634,2.502,-0.384,0.62
-0.854,4.146,-8.537,2.511,-0.408,0.652
11.89,7.744,-12.561,2.505,-0.46,0.684
24.512,10.427,-17.134,2.491,-0.511,0.718
37.012,11.707,-22.195,2.444,-0.543,0.745
48.537,12.134,-27.439,2.373,-0.599,0.769
58.232,11.037,-32.561,2.292,-0.678,0.792
66.829,10.61,-36.89,2.195,-0.739,0.811
73.841,10.793,-41.22,2.077,-0.793,0.802
77.988,10.244,-45.427,1.948,-0.845,0.785
79.817,9.573,-49.634,1.824,-0.885,0.757
79.817,9.024,-53.72,1.717,-0.915,0.712
77.683,8.963,-57.866,1.621,-0.927,0.673
73.232,9.39,-61.646,1.528,-0.919,0.638
67.561,10.244,-64.512,1.448,-0.904,0.598
61.098,11.585,-67.195,1.368,-0.87,0.557
54.024,13.171,-69.39,1.299,-0.838,0.51
46.707,15,-71.159,1.229,-0.79,0.47
39.695,16.951,-72.622,1.165,-0.758,0.426
32.927,19.39,-73.78,1.116,-0.736,0.384
26.585,22.012,-74.512,1.06,-0.71,0.346
21.159,24.695,-75.366,1.002,-0.677,0.31
16.402,27.317,-75.671,0.954,-0.656,0.278
12.927,29.939,-75.915,0.909,-0.633,0.246
11.037,32.439,-76.22,0.863,-0.61,0.22
9.573,34.878,-76.098,0.822,-0.597,0.193
8.415,37.073,-75.549,0.774,-0.588,0.168
8.476,38.537,-74.695,0.726,-0.571,0.153
9.329,39.939,-73.72,0.688,-0.559,0.138
10.61,41.159,-72.5,0.644,-0.546,0.109
11.951,41.951,-70.976,0.593,-0.535,0.084
13.537,42.622,-69.085,0.555,-0.548,0.08
15.183,43.232,-67.012,0.517,-0.555,0.088
16.22,43.902,-64.695,0.483,-0.547,0.093
17.439,44.207,-61.951,0.458,-0.536,0.09
18.476,44.39,-59.085,0.431,-0.523,0.087
19.512,44.451,-55.61,0.396,-0.509,0.086
20.122,44.268,-52.073,0.372,-0.493,0.081
20.183,43.902,-48.476,0.35,-0.479,0.069
19.878,43.415,-44.817,0.33,-0.466,0.067
18.72,42.561,-40.976,0.311,-0.449,0.066
17.256,41.585,-37.256,0.292,-0.433,0.064
15.549,40.061,-33.537,0.275,-0.417,0.063
13.293,38.476,-29.695,0.256,-0.416,0.061
10.732,36.768,-25.671,0.24,-0.413,0.063
7.561,35.122,-21.28,0.211,-0.406,0.064
3.72,33.537,-17.195,0.184,-0.399,0.082
-0.122,31.646,-12.744,0.164,-0.402,0.084
-3.963,29.817,-8.293,0.145,-0.411,0.09
-8.476,28.293,-4.268,0.127,-0.417,0.104
-12.988,26.768,-0.122,0.117,-0.426,0.122
-17.317,25,3.902,0.115,-0.436,0.139
-21.341,23.232,7.927,0.116,-0.441,0.151
-25.366,21.524,11.463,0.116,-0.443,0.16
-29.39,19.939,15.549,0.114,-0.452,0.167
-33.354,18.78,19.817,0.12,-0.471,0.17
-37.378,16.829,23.476,0.13,-0.485,0.175
-40.854,14.512,26.829,0.134,-0.49,0.197
-43.537,12.5,30.122,0.138,-0.501,0.223
-46.341,10.671,33.232,0.154,-0.528,0.242
-48.598,8.78,36.28,0.172,-0.549,0.262
-50.671,7.012,39.024,0.188,-0.57,0.3
-51.951,5.427,41.524,0.214,-0.59,0.337
-53.11,4.146,43.11,0.252,-0.595,0.357
-53.598,3.171,43.78,0.293,-0.599,0.372
-52.927,2.195,43.598,0.34,-0.605,0.393
-51.707,1.28,42.195,0.408,-0.61,0.424
-49.878,0.793,39.817,0.494,-0.625,0.462
-46.524,0.122,36.89,0.576,-0.629,0.506
-42.561,-0.549,33.049,0.646,-0.639,0.561
-37.561,-1.159,28.598,0.732,-0.642,0.617
-31.707,-1.159,23.963,0.813,-0.638,0.668
-25.366,-1.22,19.329,0.892,-0.647,0.713
-18.902,-1.585,14.939,0.961,-0.662,0.754
-12.317,-2.134,10.61,1.013,-0.662,0.799
-5.61,-2.561,6.28,1.064,-0.675,0.842
1.098,-3.11,1.768,1.119,-0.685,0.873
7.012,-3.537,-2.439,1.163,-0.694,0.898
12.5,-3.902,-6.829,1.203,-0.705,0.919
17.134,-4.146,-11.037,1.238,-0.72,0.933
21.28,-3.902,-14.573,1.262,-0.725,0.951
24.451,-3.293,-18.11,1.282,-0.723,0.956
27.134,-3.171,-21.585,1.299,-0.708,0.955
29.512,-3.049,-24.939,1.302,-0.701,0.947
31.524,-2.561,-28.049,1.302,-0.684,0.943
32.866,-1.89,-31.159,1.301,-0.666,0.918
34.085,-1.402,-33.902,1.292,-0.638,0.895
35.366,-0.915,-36.159,1.284,-0.616,0.875
35.976,-0.061,-38.537,1.27,-0.59,0.85
36.951,0.732,-40.305,1.248,-0.562,0.821
37.866,1.524,-41.951,1.223,-0.538,0.786
38.354,2.378,-43.171,1.194,-0.526,0.752
38.78,3.171,-44.085,1.163,-0.506,0.716
39.39,3.902,-45.061,1.117,-0.485,0.67
40.244,4.634,-46.159,1.074,-0.48,0.634
41.098,5.244,-47.073,1.03,-0.47,0.602
42.195,5.854,-47.805,0.99,-0.464,0.559
43.11,6.463,-48.11,0.947,-0.462,0.529
44.329,6.89,-48.171,0.902,-0.449,0.503
45.488,7.134,-48.171,0.856,-0.435,0.471
46.524,7.073,-47.805,0.819,-0.426,0.441
47.622,6.829,-47.134,0.78,-0.424,0.411
47.805,6.585,-46.28,0.739,-0.416,0.388
47.683,5.976,-45.244,0.7,-0.407,0.364
46.89,5.305,-43.841,0.664,-0.397,0.344
45.488,4.573,-42.5,0.628,-0.386,0.324
43.598,3.902,-41.037,0.597,-0.374,0.305
40.976,2.683,-39.573,0.57,-0.365,0.287
38.049,1.585,-37.805,0.542,-0.36,0.282
34.39,0.549,-35.427,0.515,-0.348,0.268
30.244,-0.549,-32.317,0.492,-0.336,0.257
25.976,-1.768,-28.841,0.47,-0.327,0.249
21.524,-2.866,-25.061,0.447,-0.313,0.239
16.768,-3.78,-21.341,0.425,-0.296,0.229
12.134,-4.451,-17.5,0.41,-0.292,0.22
7.378,-5.061,-13.598,0.402,-0.307,0.219
2.622,-5.732,-9.695,0.388,-0.318,0.229
-1.951,-6.463,-5.976,0.38,-0.327,0.24
-6.402,-6.89,-2.622,0.374,-0.337,0.244
-10.305,-7.5,0.305,0.37,-0.349,0.25
-13.841,-8.171,2.988,0.374,-0.352,0.249
-16.951,-8.537,6.159,0.381,-0.358,0.248
-19.268,-9.146,9.39,0.391,-0.355,0.255
-20.915,-9.939,12.561,0.407,-0.354,0.259
-21.768,-10.915,15.366,0.423,-0.358,0.269
-22.012,-11.768,18.049,0.439,-0.358,0.281
-21.89,-12.866,20.488,0.463,-0.362,0.293
-21.463,-13.659,22.622,0.492,-0.375,0.31
-21.037,-14.207,24.268,0.526,-0.385,0.339
-20.366,-14.695,25.671,0.564,-0.397,0.373
-19.756,-15.061,26.402,0.602,-0.409,0.397
-19.085,-15,26.463,0.636,-0.418,0.42
-18.293,-14.939,26.037,0.655,-0.423,0.439
-17.134,-14.756,25.305,0.687,-0.427,0.46
-15.183,-14.573,24.207,0.732,-0.432,0.486
-13.232,-13.963,23.232,0.778,-0.434,0.506
-11.646,-13.11,22.5,0.812,-0.435,0.532
-10.244,-12.744,21.585,0.851,-0.435,0.567
-9.146,-12.012,20.427,0.894,-0.434,0.605
-8.354,-10.915,19.39,0.939,-0.435,0.614
-7.622,-9.817,18.11,0.966,-0.425,0.617
-6.829,-8.72,16.707,0.989,-0.429,0.617
-6.098,-7.683,15.183,1.018,-0.437,0.625
-5.183,-6.524,13.659,1.037,-0.443,0.647
-3.841,-5.244,11.89,1.062,-0.441,0.651
-2.012,-4.146,10.061,1.078,-0.438,0.656
-0.122,-3.293,8.354,1.081,-0.441,0.654
2.134,-2.561,6.707,1.08,-0.444,0.649
4.878,-1.829,5.122,1.072,-0.438,0.642
7.805,-1.402,3.72,1.062,-0.441,0.629
10.854,-1.159,2.561,1.042,-0.447,0.621
13.659,-0.793,1.524,1.027,-0.451,0.61
16.098,-0.549,0.549,1.008,-0.462,0.6
18.354,-0.671,-0.488,0.989,-0.476,0.59
20,-0.915,-1.402,0.966,-0.48,0.576
21.037,-0.976,-2.134,0.939,-0.482,0.563
21.646,-1.159,-2.683,0.913,-0.487,0.544
21.524,-1.22,-3.171,0.885,-0.491,0.525
21.098,-1.402,-3.232,0.857,-0.486,0.515
20.244,-1.646,-3.415,0.829,-0.479,0.497
18.902,-1.463,-3.598,0.802,-0.479,0.474
17.622,-1.402,-3.537,0.774,-0.473,0.456
15.976,-1.524,-3.415,0.742,-0.462,0.44
14.268,-1.402,-3.232,0.724,-0.461,0.428
12.744,-1.28,-2.866,0.706,-0.45,0.412
10.61,-0.732,-2.012,0.676,-0.435,0.389
8.171,-0.061,-1.037,0.65,-0.421,0.369
5.122,0.671,0.488,0.626,-0.397,0.353
1.402,1.341,2.256,0.606,-0.384,0.337
-1.646,2.256,4.268,0.584,-0.369,0.313
-4.817,2.988,6.646,0.562,-0.35,0.287
-7.805,3.049,8.902,0.547,-0.336,0.267
-10.671,2.866,11.402,0.54,-0.309,0.25
-13.354,2.988,14.024,0.537,-0.275,0.23
-15.244,2.439,16.646,0.524,-0.239,0.21
-17.256,1.89,18.72,0.516,-0.199,0.177
-19.878,1.768,20.732,0.502,-0.172,0.124
-23.354,1.28,22.561,0.475,-0.15,0.084
-27.073,0.732,23.72,0.454,-0.133,0.04
-32.195,0.427,24.329,0.435,-0.123,-0.002
-38.902,0.549,25.305,0.402,-0.124,-0.046
-47.256,0.976,26.768,0.365,-0.139,-0.071
-57.256,1.951,29.878,0.316,-0.158,-0.091
-68.598,3.841,35.427,0.253,-0.171,-0.111
-80.915,7.805,44.878,0.177,-0.174,-0.149
-93.841,13.049,59.512,0.092,-0.172,-0.198
-107.13,19.146,79.573,-0.001,-0.168,-0.253
-119.94,25,103.78,-0.112,-0.15,-0.303
-130.06,28.963,131.22,-0.218,-0.121,-0.334
-137.07,30.61,160.61,-0.343,-0.082,-0.354
-138.41,30.488,191.4,-0.46,-0.069,-0.357
-134.09,28.659,222.13,-0.584,-0.078,-0.316
-122.5,25,251.52,-0.685,-0.113,-0.247
-106.77,20.183,279.27,-0.788,-0.143,-0.192
-89.634,15.183,305.18,-0.924,-0.166,-0.116
-68.232,9.573,328.96,-1.076,-0.168,-0.038
-45.305,4.146,351.16,-1.225,-0.148,0.044
-23.841,-0.61,371.46,-1.333,-0.146,0.146
-2.195,-5.122,389.27,-1.389,-0.146,0.298
18.171,-6.951,404.82,-1.399,-0.167,0.462
35.793,-5.976,417.5,-1.337,-0.224,0.648
52.073,-3.293,427.01,-1.215,-0.263,0.857
67.256,0.427,435.67,-1.038,-0.31,1.069
80.854,8.415,440.98,-0.816,-0.411,1.277
92.073,17.317,445.79,-0.578,-0.517,1.485
101.95,24.512,452.38,-0.32,-0.602,1.671
110.73,27.439,457.38,-0.03,-0.703,1.844
117.13,25.549,455.55,0.314,-0.827,2.034
129.27,25.061,449.45,0.725,-0.943,2.176
140.98,26.463,435,1.143,-1.059,2.294
154.51,26.098,410.55,1.574,-1.266,2.339
170.37,25,377.5,2.05,-1.591,2.356
189.39,20.732,337.01,2.539,-1.938,2.368
208.23,16.098,291.1,2.923,-2.305,2.366
222.93,7.988,241.1,3.174,-2.653,2.293
229.27,2.988,189.69,3.358,-3.011,2.131
230.18,-0.915,132.68,3.495,-3.245,2.029
225.73,-5.427,70.244,3.675,-3.491,1.804
216.71,-9.756,5.549,3.832,-3.764,1.594
207.07,-13.415,-59.024,3.994,-4.13,1.301
196.16,-15.671,-122.81,4.138,-4.443,1.011
184.57,-17.683,-184.39,4.314,-4.637,0.702
172.93,-18.963,-243.29,4.353,-4.785,0.471
160.24,-16.341,-299.51,4.259,-4.885,0.283
147.26,-9.024,-353.11,4.145,-4.893,0.07
136.4,2.439,-403.17,3.956,-4.948,-0.159
124.88,17.744,-449.94,3.74,-5.006,-0.42
112.74,38.171,-492.19,3.471,-5.121,-0.699
102.44,63.476,-529.63,3.188,-5.181,-0.981
93.171,92.378,-563.11,2.875,-5.14,-1.229
86.524,124.27,-592.87,2.581,-5.008,-1.455
82.927,160.24,-619.15,2.308,-4.875,-1.63
81.402,199.15,-642.07,2.025,-4.79,-1.765
82.5,239.15,-661.83,1.717,-4.714,-1.875
87.5,280.31,-678.23,1.426,-4.624,-1.936
95.61,320.73,-690.61,1.179,-4.525,-1.952
106.58,358.9,-698.11,0.952,-4.413,-1.952
123.11,395.18,-701.22,0.725,-4.3,-1.946
145.55,427.74,-700.49,0.502,-4.19,-1.903
173.05,457.19,-697.07,0.267,-4.104,-1.83
207.01,483.54,-692.07,0.023,-4.037,-1.735
246.77,504.27,-686.65,-0.235,-3.999,-1.655
291.58,520,-681.4,-0.498,-3.997,-1.576
341.46,533.78,-672.93,-0.704,-3.989,-1.501
396.52,544.51,-654.7,-0.899,-3.968,-1.473
471.95,553.54,-621.1,-1.105,-3.935,-1.472
538.48,548.96,-551.52,-1.339,-3.861,-1.541
572.38,535.79,-455.24,-1.601,-3.781,-1.646
620,532.93,-360.18,-1.857,-3.706,-1.834
591.22,515.55,-283.66,-2.113,-3.639,-2.043
541.89,431.28,-204.09,-2.342,-3.537,-2.168
509.45,324.45,-152.93,-2.648,-3.48,-2.212
484.08,289.63,-105.73,-3.354,-3.508,-2.152
507.62,232.26,-83.049,-4.591,-3.733,-2.088
521.83,191.83,-51.402,-6.059,-3.598,-1.755
420,127.81,-56.951,-7.669,-3.451,-1.569
287.44,40.671,-48.049,-8.787,-2.885,-1.78
145.24,10.61,-5.305,-7.684,-1.407,-2.925
-1.646,-11.646,30.244,-5.547,0.313,-4.112
-145.67,-23.963,49.329,-4.851,1.763,-4.481
-270.12,-30.732,63.11,-5.434,2.722,-3.655
-365.49,-27.134,72.256,-6.039,2.737,-2.792
-428.72,-20.61,78.659,-6.336,2.688,-2.244
-456.34,-6.829,82.744,-5.052,2.987,-1.754
-456.4,3.415,87.622,-4.493,3.145,-1.359
-433.42,10.488,96.341,-4.225,3.13,-0.889
-387.44,17.073,110,-3.956,3.188,-0.546
-321.89,21.646,125.61,-3.75,3.118,-0.338
-242.13,23.78,142.93,-3.603,2.893,-0.062
-157.26,23.293,158.72,-3.399,2.621,0.305
-76.098,21.28,174.51,-3.108,2.078,0.736
-8.537,18.354,190.73,-2.771,1.54,1.199
42.439,14.634,206.22,-2.555,1.181,1.547
77.317,7.866,220.37,-2.453,0.91,1.82
93.476,-1.037,233.84,-2.341,0.776,2.049
91.707,-12.073,246.59,-2.127,0.754,2.134
74.451,-34.268,257.62,-1.944,0.704,2.187
40.183,-54.268,266.95,-1.828,0.633,2.257
-2.744,-48.11,272.93,-1.744,0.577,2.302
-51.768,-64.268,278.29,-1.704,0.571,2.341
-103.96,-89.878,281.58,-1.651,0.559,2.337
-155.61,-116.04,282.99,-1.589,0.521,2.294
-206.34,-142.26,282.68,-1.599,0.471,2.217
-249.76,-167.07,281.1,-1.637,0.382,2.142
-283.96,-195.98,276.65,-1.278,0.289,2.144
-308.96,-224.33,270.61,-1.426,0.182,2.013
-325.24,-249.76,263.84,-1.482,-0.033,1.883
-335.55,-276.52,254.02,-1.422,-0.29,1.732
-339.82,-300.67,241.52,-1.376,-0.58,1.587
-337.99,-322.56,226.4,-1.282,-0.815,1.413
-331.77,-342.19,209.88,-1.25,-1.095,1.186
-323.96,-359.63,192.74,-1.184,-1.384,1.011
-314.76,-374.76,174.76,-1.068,-1.67,0.823
-304.21,-386.28,157.13,-0.982,-1.864,0.689
-292.68,-393.84,141.28,-0.83,-1.965,0.524
-283.11,-398.6,125.98,-0.685,-2.02,0.372
-275.06,-401.34,110.06,-0.562,-2.034,0.243
-266.4,-402.44,96.037,-0.455,-2.01,0.139
-260.31,-401.52,83.232,-0.368,-1.994,0.024
-254.51,-399.08,70.61,-0.271,-1.936,-0.137
-249.15,-395.73,59.512,-0.179,-1.87,-0.304
-244.39,-391.52,50.122,-0.098,-1.819,-0.443
-239.51,-385.98,42.134,-0.02,-1.721,-0.56
-234.82,-378.96,35.366,0.056,-1.587,-0.66
-231.83,-372.07,29.878,0.126,-1.502,-0.73
-228.66,-364.57,26.098,0.162,-1.442,-0.799
-225.43,-355.49,23.659,0.179,-1.371,-0.884
-221.83,-344.57,22.988,0.191,-1.295,-0.966
-217.99,-332.87,23.11,0.203,-1.225,-1.038
-213.29,-320.67,22.805,0.215,-1.164,-1.107
-206.34,-308.29,21.768,0.233,-1.115,-1.134
-196.46,-295.31,20.915,0.256,-1.05,-1.128
-185.06,-281.4,19.878,0.305,-0.994,-1.145
-171.83,-268.05,19.756,0.365,-0.949,-1.183
-157.68,-254.76,20.244,0.432,-0.911,-1.183
-142.62,-241.16,22.195,0.524,-0.861,-1.138
-127.74,-227.87,24.695,0.619,-0.763,-1.072
-113.6,-214.39,26.951,0.73,-0.667,-1.018
-99.939,-200.73,29.085,0.837,-0.652,-0.969
-86.89,-186.52,30.915,0.902,-0.652,-0.917
-75.671,-171.83,32.683,0.998,-0.645,-0.861
-65.732,-156.71,34.817,1.123,-0.626,-0.816
-57.012,-140.61,36.829,1.253,-0.612,-0.752
-49.695,-123.78,38.598,1.378,-0.567,-0.69
-44.39,-106.16,39.817,1.508,-0.507,-0.628
-40.854,-87.988,40.305,1.637,-0.477,-0.554
-38.049,-70.366,40.793,1.796,-0.452,-0.471
-36.402,-53.049,40.122,1.973,-0.398,-0.407
-36.159,-37.012,38.049,2.152,-0.342,-0.364
-35.793,-21.646,35.915,2.3,-0.282,-0.3
-35.976,-7.012,32.927,2.443,-0.226,-0.233
-35.244,5.61,29.268,2.596,-0.183,-0.165
-33.659,16.707,24.878,2.729,-0.152,-0.103
-31.768,26.28,19.695,2.845,-0.136,-0.022
-28.598,34.024,14.085,2.913,-0.133,0.048
-23.659,39.878,8.476,2.932,-0.125,0.117
-18.293,44.268,2.012,2.92,-0.127,0.186
-12.988,47.012,-4.451,2.886,-0.13,0.247
-7.5,48.415,-10.732,2.822,-0.158,0.296
-2.866,48.659,-16.463,2.747,-0.219,0.337
1.098,47.561,-21.89,2.641,-0.263,0.373
4.39,45.488,-26.951,2.523,-0.285,0.41
5.915,43.11,-31.89,2.396,-0.338,0.438
6.585,40.427,-36.402,2.261,-0.401,0.465
6.524,37.5,-40.488,2.113,-0.448,0.501
5.244,34.878,-44.695,1.97,-0.493,0.516
3.11,32.439,-48.78,1.836,-0.537,0.514
0.549,30,-52.561,1.701,-0.57,0.508
-2.317,28.232,-55.732,1.576,-0.609,0.489
-5.488,26.768,-58.598,1.453,-0.645,0.472
-8.598,25.854,-61.098,1.35,-0.655,0.458
-11.28,25.61,-63.293,1.262,-0.66,0.438
-13.72,25.793,-64.939,1.185,-0.667,0.419
-15.366,25.915,-65.854,1.112,-0.661,0.407
-16.037,26.402,-66.951,1.032,-0.646,0.388
-16.28,27.317,-68.171,0.969,-0.641,0.361
-15.061,28.415,-68.902,0.908,-0.644,0.341
-12.744,29.634,-69.268,0.848,-0.643,0.326
-9.451,30.915,-69.756,0.79,-0.646,0.312
-5,32.195,-69.817,0.74,-0.643,0.297
-0.61,33.354,-69.634,0.693,-0.642,0.292
4.573,34.634,-68.963,0.651,-0.643,0.281
9.939,35.915,-67.866,0.619,-0.637,0.263
15.061,37.073,-66.402,0.58,-0.63,0.249
20.061,38.293,-65.061,0.534,-0.623,0.236
24.512,39.146,-63.537,0.503,-0.604,0.221
28.293,39.756,-61.524,0.477,-0.586,0.213
30.915,40.488,-59.268,0.447,-0.568,0.215
32.988,40.915,-56.951,0.413,-0.545,0.217
34.573,41.28,-54.512,0.382,-0.519,0.208
34.878,41.463,-51.951,0.359,-0.5,0.207
34.451,41.524,-49.268,0.331,-0.473,0.199
33.598,41.585,-46.341,0.295,-0.445,0.188
31.89,41.341,-42.927,0.271,-0.418,0.182
29.573,40.976,-39.146,0.252,-0.401,0.173
26.585,40.61,-34.878,0.244,-0.377,0.174
22.927,39.878,-30.549,0.234,-0.362,0.166
19.024,39.024,-26.22,0.219,-0.342,0.165
15.061,37.805,-21.951,0.208,-0.329,0.158
10.732,36.402,-17.683,0.211,-0.327,0.146
6.463,35.061,-12.988,0.209,-0.33,0.14
1.707,33.232,-7.988,0.205,-0.335,0.139
-3.11,31.402,-2.927,0.207,-0.346,0.136
-7.5,29.634,2.073,0.218,-0.344,0.134
-11.829,27.927,7.439,0.22,-0.344,0.132
-16.463,26.463,12.988,0.216,-0.361,0.133
-20.915,25,18.415,0.222,-0.375,0.147
-25.183,23.537,23.841,0.215,-0.395,0.165
-29.268,22.439,29.329,0.218,-0.412,0.174
-32.927,21.463,34.207,0.228,-0.429,0.175
-35.732,20.427,38.11,0.235,-0.444,0.176
-37.012,19.207,41.341,0.252,-0.472,0.176
-37.134,17.561,43.841,0.276,-0.502,0.188
-36.768,15.732,46.159,0.322,-0.531,0.203
-35.732,14.146,48.11,0.373,-0.563,0.236
-33.902,12.134,49.878,0.413,-0.583,0.278
-31.037,9.695,50.915,0.46,-0.605,0.317
-27.439,7.317,51.463,0.507,-0.62,0.349
-23.598,5.061,51.768,0.554,-0.639,0.375
-19.329,2.927,51.585,0.59,-0.67,0.404
-14.695,0.854,50.854,0.637,-0.692,0.437
-9.756,-1.341,49.451,0.697,-0.702,0.494
-4.817,-3.415,47.073,0.776,-0.71,0.551
0.061,-5.305,43.78,0.857,-0.726,0.593
4.817,-6.829,39.634,0.921,-0.729,0.642
8.902,-8.11,34.695,0.987,-0.727,0.689
12.927,-9.329,29.39,1.07,-0.727,0.733
16.22,-10.366,23.72,1.149,-0.713,0.771
18.963,-10.976,17.927,1.209,-0.701,0.796
21.22,-11.341,12.378,1.257,-0.687,0.811
23.049,-11.524,7.012,1.306,-0.671,0.825
24.573,-11.524,1.768,1.342,-0.659,0.836
25.793,-11.646,-3.11,1.366,-0.644,0.854
26.707,-11.646,-7.378,1.388,-0.632,0.852
27.866,-11.585,-11.341,1.398,-0.628,0.85
28.78,-11.402,-15.183,1.389,-0.611,0.839
29.634,-11.22,-18.78,1.378,-0.597,0.815
30.427,-11.037,-21.951,1.362,-0.586,0.786
31.646,-10.61,-24.878,1.342,-0.57,0.768
32.927,-10,-27.439,1.317,-0.564,0.739
33.963,-9.451,-29.39,1.278,-0.557,0.726
35.122,-8.841,-30.976,1.243,-0.552,0.69
36.28,-8.11,-32.256,1.209,-0.55,0.658
37.439,-7.317,-33.232,1.163,-0.544,0.626
38.049,-6.402,-34.024,1.109,-0.538,0.585
38.476,-5.427,-34.512,1.064,-0.533,0.551
38.659,-4.756,-34.695,1.022,-0.533,0.52
38.171,-4.024,-34.573,0.97,-0.526,0.489
37.378,-3.293,-34.207,0.924,-0.514,0.457
36.402,-2.561,-33.72,0.883,-0.494,0.432
34.939,-1.646,-33.049,0.851,-0.478,0.406
33.537,-0.915,-32.073,0.812,-0.461,0.383
32.134,-0.061,-30.854,0.771,-0.448,0.37
30.671,0.854,-29.39,0.739,-0.439,0.342
29.207,1.28,-27.927,0.704,-0.435,0.326
27.866,1.646,-26.159,0.671,-0.424,0.313
26.89,2.012,-24.207,0.642,-0.412,0.29
25.244,2.378,-21.89,0.618,-0.394,0.278
23.841,2.622,-19.39,0.604,-0.375,0.267
22.5,2.5,-16.768,0.584,-0.356,0.249
20.915,2.195,-14.024,0.559,-0.335,0.241
19.329,2.317,-11.159,0.544,-0.323,0.229
17.683,2.439,-8.232,0.53,-0.325,0.22
15.976,2.439,-5.061,0.505,-0.317,0.219
13.841,2.5,-1.829,0.481,-0.311,0.225
11.159,2.805,1.341,0.463,-0.311,0.224
8.354,3.049,4.756,0.448,-0.32,0.225
5.305,3.171,8.11,0.433,-0.333,0.223
2.805,3.232,11.22,0.414,-0.335,0.228
0.488,3.049,14.085,0.407,-0.343,0.239
-1.829,2.805,16.585,0.409,-0.345,0.249
-3.841,2.195,18.902,0.417,-0.354,0.264
-5,1.159,20.915,0.423,-0.363,0.284
-5.732,0.183,22.5,0.437,-0.37,0.3
-6.28,-0.976,23.78,0.451,-0.376,0.313
-6.28,-2.317,24.512,0.462,-0.383,0.317
-6.159,-3.78,24.634,0.487,-0.394,0.333
-5.244,-5.122,24.024,0.527,-0.4,0.362
-4.146,-6.22,23.049,0.566,-0.405,0.385
-2.866,-7.012,21.463,0.6,-0.417,0.406
-1.524,-7.805,19.817,0.633,-0.429,0.435
0.732,-8.415,18.11,0.68,-0.441,0.458
2.073,-8.902,16.402,0.719,-0.442,0.488
3.171,-9.146,15.122,0.758,-0.444,0.502
4.39,-9.085,14.146,0.788,-0.447,0.511
4.756,-8.72,13.293,0.814,-0.46,0.524
4.573,-8.171,12.439,0.839,-0.458,0.537
4.024,-7.378,11.768,0.869,-0.462,0.549
3.232,-6.524,10.549,0.894,-0.487,0.561
2.134,-5.488,9.146,0.922,-0.501,0.578
1.22,-4.451,7.866,0.947,-0.514,0.582
0.549,-3.476,6.463,0.962,-0.528,0.586
0.061,-2.317,4.573,0.971,-0.54,0.589
-0.244,-1.28,2.5,0.975,-0.536,0.586
-0.061,-0.427,0.671,0.973,-0.539,0.582
0.549,0.244,-0.976,0.968,-0.54,0.574
2.012,0.976,-2.134,0.974,-0.535,0.561
3.598,1.22,-3.049,0.967,-0.527,0.553
5.122,1.22,-3.78,0.961,-0.519,0.544
6.89,1.159,-4.329,0.954,-0.504,0.538
8.537,1.037,-4.695,0.947,-0.496,0.525
9.939,0.915,-4.817,0.934,-0.498,0.514
11.159,0.488,-4.756,0.914,-0.501,0.495
11.768,-0.061,-4.695,0.898,-0.51,0.485
12.012,-0.549,-4.39,0.886,-0.516,0.479
11.829,-1.098,-4.085,0.873,-0.512,0.464
11.402,-1.524,-3.902,0.852,-0.513,0.457
10.488,-1.89,-3.659,0.838,-0.512,0.448
9.573,-2.195,-3.293,0.816,-0.507,0.438
8.902,-2.561,-2.988,0.792,-0.498,0.422
7.866,-2.988,-2.805,0.771,-0.49,0.407
6.768,-3.293,-2.622,0.746,-0.475,0.404
5.549,-3.902,-2.195,0.728,-0.461,0.397
4.634,-4.695,-1.89,0.71,-0.455,0.388
3.841,-5.488,-1.585,0.686,-0.438,0.373
2.805,-6.159,-1.22,0.659,-0.426,0.358
1.951,-7.012,-0.671,0.634,-0.425,0.344
1.098,-7.927,-0.366,0.616,-0.415,0.333
0.183,-8.963,0.427,0.594,-0.408,0.333
-0.793,-10.122,1.768,0.588,-0.396,0.318
-1.707,-11.463,3.11,0.572,-0.379,0.312
-2.256,-12.988,4.451,0.554,-0.36,0.298
-3.598,-15,5.854,0.536,-0.341,0.278
-4.817,-17.988,7.134,0.524,-0.325,0.266
-6.22,-21.646,8.415,0.514,-0.317,0.254
-8.354,-26.341,9.573,0.506,-0.304,0.239
-10,-32.073,10.732,0.499,-0.288,0.218
-11.89,-38.841,11.89,0.487,-0.269,0.186
-12.744,-46.524,13.293,0.466,-0.251,0.143
-12.622,-55.061,14.695,0.456,-0.227,0.08
-12.256,-63.72,16.89,0.429,-0.2,-0.005
-13.537,-71.89,19.39,0.391,-0.18,-0.106
-17.073,-79.207,22.378,0.343,-0.146,-0.206
-24.207,-85.732,25.427,0.301,-0.129,-0.317
-33.598,-90.915,28.841,0.266,-0.144,-0.432
-47.378,-97.195,33.354,0.232,-0.155,-0.525
-62.683,-92.622,40.854,0.192,-0.145,-0.577
-83.354,-87.195,51.28,0.145,-0.15,-0.633
-107.56,-79.329,65.854,0.077,-0.134,-0.685
-133.84,-68.659,84.878,0.001,-0.097,-0.718
-160.12,-55.793,109.33,-0.078,-0.032,-0.757
-184.27,-41.89,138.6,-0.171,0.026,-0.81
-203.41,-27.866,170.55,-0.295,-0.021,-0.789
-215.06,-15.244,202.68,-0.448,-0.065,-0.695
-217.87,-3.78,232.56,-0.574,-0.109,-0.561
-209.88,7.561,259.69,-0.67,-0.179,-0.383
-195.67,18.415,282.99,-0.74,-0.269,-0.168
-169.15,29.939,300.79,-0.837,-0.377,0.058
-133.9,43.963,312.74,-0.962,-0.497,0.287
-97.378,60.183,321.52,-1.038,-0.608,0.543
-58.415,79.39,326.83,-1.052,-0.658,0.782
-18.049,101.46,328.54,-0.989,-0.63,0.992
21.646,124.08,327.26,-0.865,-0.61,1.209
61.89,145.79,324.57,-0.658,-0.627,1.441
99.817,162.87,321.77,-0.329,-0.624,1.642
144.39,170.67,321.58,0.137,-0.576,1.918
189.76,169.09,322.81,0.71,-0.553,2.23
236.52,160.18,327.68,1.298,-0.576,2.521
284.51,145,335.43,1.787,-0.637,2.807
326.22,125.06,342.93,2.141,-0.726,3.073
363.66,105.55,349.63,2.402,-0.878,3.278
392.81,84.634,352.26,2.544,-1.22,3.288
414.08,63.659,350.12,2.425,-1.609,3.235
429.15,42.256,343.6,2.116,-2.01,3.032
435.31,21.829,333.6,1.904,-2.37,2.815
432.68,3.537,320.43,1.858,-2.634,2.673
420.18,-14.146,301.52,1.875,-2.807,2.527
398.78,-32.317,272.62,1.996,-2.885,2.422
372.32,-48.476,233.54,2.195,-2.921,2.298
344.57,-62.5,187.74,2.409,-2.9,2.139
317.74,-74.512,137.5,2.652,-2.882,1.905
246.22,-107.01,82.866,2.919,-2.921,1.612
238.05,-102.26,28.78,3.199,-3.026,1.343
259.88,-93.354,-30.122,3.493,-3.132,1.101
239.76,-95.061,-83.598,3.829,-3.151,0.838
226.04,-89.085,-136.1,4.198,-3.153,0.525
220.43,-81.341,-188.48,4.5,-3.278,0.228
217.5,-70.549,-239.27,4.572,-3.478,-0.017
213.6,-54.146,-288.66,4.438,-3.605,-0.259
208.72,-32.012,-336.46,4.314,-4.508,-0.5
204.15,-7.195,-381.65,3.974,-4.285,-0.801
195.85,20.61,-424.88,3.71,-4.545,-1.063
183.17,51.28,-466.52,3.374,-4.788,-1.289
167.07,84.634,-505.12,2.991,-4.905,-1.481
150.12,120.61,-539.76,2.607,-4.989,-1.654
136.77,158.6,-570.61,2.323,-5.017,-1.819
130.67,198.05,-598.23,2.063,-5.012,-1.889
133.96,237.13,-622.68,1.786,-4.941,-1.875
145.98,274.02,-644.33,1.527,-4.817,-1.83
166.71,307.62,-663.96,1.31,-4.686,-1.753
201.52,336.89,-682.26,1.103,-4.56,-1.665
246.4,363.05,-698.29,0.867,-4.457,-1.589
300.92,386.46,-710.61,0.62,-4.341,-1.562
363.72,413.42,-719.33,0.329,-4.23,-1.496
419.15,429.69,-717.26,0.029,-4.173,-1.406
468.35,443.9,-704.63,-0.242,-4.118,-1.3
533.35,466.4,-681.4,-0.521,-4.038,-1.217
597.44,478.35,-641.65,-0.802,-4.039,-1.168
647.62,475.18,-584.02,-1.073,-4.115,-1.132
675.98,444.15,-520.06,-1.359,-4.308,-1.108
679.76,398.66,-487.93,-1.718,-4.482,-1.002
636.59,380,-442.19,-2.125,-4.731,-0.987
574.63,391.71,-377.19,-2.653,-4.82,-0.849
532.44,313.9,-334.57,-3.492,-5.206,-0.512
453.84,177.19,-313.11,-4.989,-5.716,-0.402
359.21,72.744,-283.54,-7.294,-5.837,-0.545
240.85,-10.427,-235.12,-9.062,-5.291,-1.086
52.805,-71.098,-154.69,-9.957,-4.333,-2.192
-117.81,-125.06,-106.65,-9.343,-2.5,-3.208
-274.82,-163.96,-53.415,-8.211,-0.449,-4.094
-408.9,-191.1,-12.622,-7.138,0.934,-4.838
-519.76,-224.94,18.72,-5.582,2.51,-4.313
-615.49,-240.85,45.671,-5.32,3.441,-3.543
-663.54,-213.72,72.317,-5.525,3.6,-3.232
-656.59,-175.67,100.67,-5.595,4.039,-2.944
-631.4,-148.6,124.69,-4.959,4.257,-2.69
-578.66,-125.79,145.67,-4.153,4.519,-2.106
-495.73,-104.02,163.72,-3.849,4.527,-1.68
-406.04,-86.524,182.07,-3.651,3.847,-1.242
-307.01,-71.646,200.49,-3.223,3.709,-0.735
-208.72,-58.963,216.71,-3.02,3.601,-0.354
-122.19,-50.244,234.76,-2.972,2.6,0.101
-52.683,-45.793,255.91,-2.594,2.009,0.701
-2.256,-43.659,278.9,-2.176,1.762,1.272
29.085,-45.732,300.49,-2.007,1.459,1.669
44.207,-58.78,317.62,-1.913,1.374,1.902
43.963,-69.451,331.04,-1.86,1.29,2.035
26.22,-65.976,340.85,-1.808,1.183,2.063
-4.939,-77.439,349.63,-1.797,1.03,2.073
-46.28,-102.81,356.77,-1.779,0.873,2.082
-94.39,-125.85,360.73,-1.739,0.775,2.113
-143.54,-147.07,362.26,-1.681,0.753,2.127
-192.62,-176.04,362.01,-1.563,0.716,2.129
-240.43,-204.57,359.21,-1.235,0.572,2.161
-282.62,-231.83,352.01,-1.251,0.423,2.103
-320.67,-260.18,339.57,-1.369,0.217,1.987
-352.56,-288.05,323.23,-1.359,-0.052,1.843
-375.92,-313.42,303.78,-1.286,-0.331,1.643
-391.34,-338.66,280.06,-1.299,-0.667,1.395
-401.04,-361.04,252.5,-1.25,-1.009,1.195
-407.13,-378.42,223.17,-1.161,-1.346,0.983
-408.54,-392.5,194.21,-1.135,-1.71,0.745
-405.92,-404.45,165.85,-1.121,-2.032,0.501
-402.38,-415.31,139.15,-1.054,-2.291,0.278
-401.04,-424.08,114.45,-0.998,-2.515,0.042
-400.31,-430.61,91.037,-0.917,-2.675,-0.147
-394.94,-435.55,70.183,-0.823,-2.743,-0.307
-387.5,-436.95,51.159,-0.727,-2.709,-0.471
-378.78,-435.06,34.695,-0.627,-2.624,-0.631
-370.98,-430.12,19.939,-0.533,-2.493,-0.765
-364.57,-423.23,6.951,-0.46,-2.359,-0.808
-355.18,-413.35,-4.634,-0.335,-2.235,-0.856
-342.01,-401.16,-14.878,-0.219,-2.025,-0.941
-326.04,-387.93,-23.293,-0.152,-1.847,-1.015
-306.16,-372.87,-28.659,-0.149,-1.718,-1.119
-284.02,-357.01,-29.512,-0.154,-1.615,-1.21
-262.26,-341.1,-28.354,-0.14,-1.528,-1.268
-235.79,-324.69,-25.122,-0.103,-1.382,-1.297
-206.16,-308.17,-20.549,-0.033,-1.224,-1.324
-176.65,-290.92,-15.976,0.046,-1.15,-1.346
-148.84,-273.11,-9.939,0.112,-1.162,-1.367
-123.54,-254.39,-2.866,0.156,-1.197,-1.369
-101.89,-234.69,4.695,0.194,-1.233,-1.315
-84.512,-215.37,12.195,0.27,-1.159,-1.247
-71.402,-195.49,19.024,0.407,-1.025,-1.17
-60.244,-175,25.976,0.563,-0.949,-1.088
-51.524,-156.4,32.927,0.7,-0.879,-1.017
-45.61,-136.71,39.39,0.828,-0.82,-0.946
-40.183,-112.74,44.756,0.938,-0.745,-0.905
-37.622,-83.537,48.232,1.045,-0.666,-0.853
-35.305,-54.817,51.037,1.192,-0.6,-0.814
-31.89,-30.366,53.232,1.377,-0.528,-0.792
-29.39,-6.646,52.561,1.557,-0.433,-0.753
-23.841,14.207,51.22,1.756,-0.372,-0.714
-16.646,31.159,49.695,1.984,-0.312,-0.657
-8.72,44.878,48.049,2.21,-0.259,-0.56
0.061,55.854,47.134,2.422,-0.203,-0.466
10.183,64.085,46.646,2.569,-0.138,-0.374
21.341,68.963,45.793,2.744,-0.108,-0.252
32.073,70.915,44.085,2.85,-0.093,-0.142
43.476,70.122,41.768,2.871,-0.112,-0.054
55.244,67.134,38.537,2.832,-0.175,0.017
67.073,63.049,34.451,2.76,-0.285,0.086
77.561,57.988,29.817,2.659,-0.363,0.159
85.854,52.012,25.183,2.543,-0.441,0.215
92.073,45.549,20.427,2.408,-0.519,0.274
94.817,38.598,15.732,2.269,-0.567,0.344
94.39,31.22,11.341,2.134,-0.607,0.388
91.402,23.72,7.134,1.988,-0.654,0.41
85.366,16.951,3.171,1.828,-0.717,0.428
76.829,10.976,-0.427,1.684,-0.765,0.456
65.854,5.427,-4.024,1.561,-0.779,0.467
52.744,1.28,-7.927,1.458,-0.786,0.475
39.024,-1.89,-11.585,1.372,-0.781,0.482
25.061,-3.78,-14.878,1.288,-0.762,0.459
9.756,-4.39,-18.415,1.203,-0.745,0.43
-4.512,-3.72,-22.012,1.127,-0.735,0.402
-17.195,-1.646,-25.366,1.076,-0.71,0.375
-29.207,1.341,-28.415,1.033,-0.694,0.364
-41.159,4.878,-31.341,0.987,-0.677,0.34
-50.61,9.39,-33.902,0.951,-0.674,0.296
-58.537,14.634,-36.585,0.923,-0.66,0.277
-63.841,20.366,-38.598,0.885,-0.628,0.241
-68.171,26.463,-40.366,0.865,-0.622,0.205
-71.768,33.354,-41.951,0.852,-0.62,0.179
-73.049,41.037,-43.171,0.832,-0.641,0.151
-73.232,49.146,-44.39,0.8,-0.633,0.123
-72.866,57.561,-45.915,0.778,-0.632,0.094
-71.098,66.402,-47.5,0.763,-0.62,0.058
-69.756,75.488,-49.329,0.755,-0.615,0.028
-67.317,84.573,-51.28,0.732,-0.615,-0.008
-64.756,93.78,-53.232,0.71,-0.614,-0.026
-62.561,102.99,-55.244,0.712,-0.608,-0.058
-60.61,112.13,-56.951,0.702,-0.605,-0.065
-59.024,121.28,-57.988,0.686,-0.581,-0.061
-58.354,130.43,-58.963,0.691,-0.581,-0.055
-57.988,139.09,-59.756,0.688,-0.552,-0.054
-58.171,147.62,-60.122,0.685,-0.534,-0.063
-59.939,156.16,-60.732,0.675,-0.523,-0.069
-61.89,164.45,-60.915,0.66,-0.51,-0.074
-65.061,172.38,-61.28,0.649,-0.492,-0.079
-68.902,180.24,-61.402,0.641,-0.485,-0.08
-72.927,188.05,-61.646,0.634,-0.461,-0.078
-77.317,195.79,-62.012,0.629,-0.439,-0.08
-81.829,203.11,-62.683,0.629,-0.437,-0.08
-86.341,209.94,-63.78,0.628,-0.418,-0.075
-91.037,216.16,-64.939,0.634,-0.412,-0.063
-96.524,221.77,-67.134,0.637,-0.396,-0.05
-101.46,226.46,-67.317,0.635,-0.387,-0.036
-101.34,233.84,-66.524,0.637,-0.384,-0.018
-106.28,239.27,-66.28,0.648,-0.376,-0.004
-111.22,243.17,-64.878,0.654,-0.369,0.009
-114.88,248.17,-62.744,0.648,-0.366,0.021
-118.78,252.99,-60.061,0.667,-0.37,0.025
-123.9,257.19,-57.317,0.637,-0.383,0.05
-129.09,261.71,-54.207,0.604,-0.39,0.041
-133.48,266.34,-50.732,0.628,-0.463,0.003
-138.11,270.12,-47.195,0.591,-0.452,0.06
-142.26,273.66,-43.476,0.596,-0.479,0.054
-146.04,276.71,-39.634,0.591,-0.503,0.063
-149.33,279.21,-35.732,0.583,-0.523,0.097
-151.59,280.79,-31.585,0.589,-0.552,0.111
-153.23,281.65,-27.622,0.591,-0.583,0.138
-152.56,267.62,-26.098,0.582,-0.613,0.156
-154.57,277.87,-21.402,0.569,-0.657,0.172
-155.61,283.6,-16.524,0.552,-0.706,0.187
-155.37,280.12,-13.78,0.532,-0.761,0.207
-155.31,279.02,-11.159,0.51,-0.813,0.224
-155.79,277.99,-8.659,0.493,-0.867,0.237
-156.28,276.83,-6.463,0.453,-0.918,0.24
-156.4,275.61,-4.878,0.479,-0.961,0.288
-156.46,274.15,-4.329,0.485,-0.974,0.264
-155.06,272.68,-4.573,0.43,-1.026,0.254
-152.38,270.18,-5.549,0.422,-1.059,0.276
