Frame,Time,RightHand_Accel_X,RightHand_Accel_Y,RightHand_Accel_Z,LeftHand_Accel_X,LeftHand_Accel_Y,LeftHand_Accel_Z,Label
1.0,0.016667,-10.009093248340806,-6.155148267252668,-4.327955166211728,-6.372901430174682,4.711212729063115,-5.67258832269726,0
2.0,0.033334,-8.869057104123991,-4.672873176105975,-3.412256822167574,-8.19249863783809,2.7493496945212765,-3.4684195152212665,0
3.0,0.050001,-8.131827042636925,-2.463515159276274,-2.646466724296011,-10.440334007906191,0.0646144051374771,-1.453682198017359,0
4.0,0.066668,-7.847313289955137,-0.0760973952479265,-2.2537482763068604,-12.850537466686594,-2.834004917091341,-0.6890205149307085,0
5.0,0.083335,-7.423306746109837,1.7398578019095206,-2.0699456309452198,-14.801058883949052,-5.251185868632995,-1.6088788391342912,0
6.0,0.100002,-6.176763127321493,2.528727687412012,-1.7057850834028283,-15.074638550823696,-6.5399308717081,-3.4495654330805974,0
7.0,0.116669,-3.955949904289676,2.36611795312343,-0.8540403693060689,-12.573690573306608,-6.282562430687677,-4.558215116603309,0
8.0,0.133336,-1.2390603930083877,1.728474047815948,0.5148843606433107,-7.63484613683742,-4.385943097751643,-3.7334866621051823,0
9.0,0.150003,1.4127068594035428,1.1927302875667634,2.12946916267144,-2.4393735949106587,-1.29786105274048,-1.3719049843696605,0
10.0,0.16667,3.909441585973645,1.103755066876961,3.531208160345814,0.3916397282076937,1.854506052895554,0.9426291975935714,0
11.0,0.183337,6.420270369458202,1.370836013440304,4.272721279965433,-0.1522960356222302,3.875286013319388,1.9684350653741556,0
12.0,0.200004,8.631741469747691,1.6424201911845635,4.102465677600983,-2.8643343193551827,4.595845512146281,1.7047559120536504,0
13.0,0.216671,9.642324769708706,1.7315342691220392,3.090252322467898,-5.576360528563984,4.979018838803106,0.9286687201362068,0
14.0,0.233338,8.890102477077589,1.7441203420619211,1.6808206043404166,-6.74420502766475,5.813072710613657,0.3017800428177828,0
15.0,0.250005,6.923421041983632,1.7934445280499511,0.544358254570092,-6.069629512951794,6.632617195624517,0.082396957231187,0
16.0,0.266672,4.890776702071095,1.85064231061609,0.1832498102727202,-4.225549414779415,6.219283845337968,0.3520469730032259,0
17.0,0.283339,3.415760267998362,1.945210687190704,0.5774068652431601,-2.1172995111815904,3.994308079590163,0.979045365530424,0
18.0,0.300006,2.37039852170245,2.178834254040652,1.1539599153407056,-0.0233533989993,0.7742935139184886,1.2378446887615704,0
19.0,0.316673,1.695089051239558,2.3145342109831093,1.1113397556828395,2.517146522825864,-1.80263078411754,0.0685074593369221,0
20.0,0.33334,1.8910292985553887,1.6551839827038444,-0.0269889406710246,5.540251149585329,-2.63756482010755,-2.669943033866784,0
21.0,0.350007,3.3649590951096444,-0.2271149181883307,-1.9786268460447984,7.712767016862774,-2.037193662188137,-5.505317895177691,0
22.0,0.366674,5.536990314520512,-2.687331436450127,-3.9019863521393647,7.53055785888967,-1.2097651041635389,-6.61736083452245,0
23.0,0.383341,6.990390626946231,-4.326877381467749,-5.188796814094536,5.482503165484995,-0.9223176181649902,-5.685790405998146,0
24.0,0.400008,6.597070645630237,-4.233389486600496,-5.937176272375334,4.002335525572867,-0.7694026951812365,-3.915125256517928,0
25.0,0.416675,4.453620304554049,-2.735663978214097,-6.497394431273136,4.894998139984196,0.1885682646930884,-2.449468323599785,0
26.0,0.433342,1.7696193375585347,-0.934409888236341,-6.821102406590631,7.477972666549999,2.187358949375074,-1.4196771878193806,0
27.0,0.450009,-0.1093040495101884,0.3051994732176498,-6.590421041613805,9.61508189714003,4.297222742205191,-0.4343855454123195,0
28.0,0.466676,-0.63348269554281,0.8217365281675466,-5.810434567778811,10.026585891459645,5.163885085396986,0.6601997038278339,0
29.0,0.483343,-0.1944150143342586,0.854847263484986,-4.912541756204883,9.154611320610842,4.157866197215457,1.6618823962554634,0
30.0,0.5000100000000001,0.4308703745178766,0.6111645621214722,-4.341531016815051,8.242571653911051,1.9373601500125488,2.2718059383668394,0
31.0,0.516677,0.7094903591088109,0.1930667360195741,-4.287680166640533,8.173962195515692,-0.0007959207557232,2.300482423776677,0
32.0,0.533344,0.5730391120873948,-0.2992391701304966,-4.721139724661367,8.972841871459732,-0.4712803874332743,1.7815884375053437,0
33.0,0.550011,0.1622108745323014,-0.7766162694245835,-5.41535565600859,9.882662654250217,0.510673769706761,0.9911295107394852,0
34.0,0.566678,-0.5578903045723467,-1.1502745282776612,-5.894481158042876,9.955984252562445,1.941721421150362,0.2969729688065816,0
35.0,0.583345,-1.7756763193535567,-1.1947929554169183,-5.537077596162932,8.847740031316404,2.8551769484040097,-0.0930212023935109,0
36.0,0.600012,-3.346067679427144,-0.6289169263931855,-3.956466596815916,7.023957454101381,3.034225950572245,-0.2729029381570728,0
37.0,0.6166790000000001,-4.585438681656231,0.4001466325084695,-1.424182955366258,5.201489403583096,2.814055042589808,-0.5270544331613395,0
38.0,0.6333460000000001,-4.883872148435415,1.058851142787614,1.1111304059017582,3.777212441246586,2.490199382261517,-1.0554762377698357,0
39.0,0.6500130000000001,-4.432805036159583,0.4691712300716033,2.5640183200472526,2.7831968460275256,2.1206125160218026,-1.8114651006389515,0
40.0,0.66668,-4.064708815838312,-1.2916103628653135,2.3828945227723177,2.124407488839869,1.7367933696150972,-2.593551692917475,0
41.0,0.683347,-4.407396336721966,-3.1094293423738173,0.829695444400228,1.7001494473565133,1.4177648624132928,-3.197305716967981,0
42.0,0.700014,-5.395439936882064,-3.865478540835428,-1.1984716388994778,1.3697238863708117,1.1292819509202188,-3.455893973440584,0
43.0,0.716681,-6.54051872179911,-3.3809718054739166,-2.605271096026524,0.9544942533702442,0.7524707525145533,-3.316843556207368,0
44.0,0.7333480000000001,-7.420945941603817,-2.3436972833112577,-2.6716651633114763,0.3681600901552629,0.341466607710297,-2.9931013729291047,0
45.0,0.7500150000000001,-7.942580287836607,-1.5405189919812172,-1.6007178911386355,-0.2532718479863906,0.1460314895057609,-2.8610026931491,0
46.0,0.7666820000000001,-8.419460430530458,-1.210934706881138,-0.5718038686435605,-0.6004472435217479,0.3100115342167566,-3.0510543965615584,0
47.0,0.7833490000000001,-9.252328679160122,-0.9710758287513328,-0.888217520638616,-0.4232525291895795,0.7129793378926434,-3.292325837317144,0
48.0,0.8000160000000001,-9.966046160987432,-0.3246727707108301,-2.6203727703319046,0.2096075745611014,1.1437272110485508,-3.336005271703661,0
49.0,0.816683,-8.775144683823555,0.6332543972897504,-4.124213823221295,0.8135346612288585,1.446567811119308,-3.3632584840569977,0
50.0,0.83335,-4.256303301124047,1.0339691312848365,-3.406845579079453,0.7046764350380865,1.4530777281001237,-3.692226959122919,0
51.0,0.850017,2.168550122410748,-0.0702165088742119,-0.2461032715074195,-0.5189056393913766,0.9843310819537724,-4.159584373949837,0
52.0,0.866684,6.572462059581779,-2.675900103479509,3.3551487730921874,-2.6075679033637256,0.0665829618673806,-4.130895638397534,0
53.0,0.8833510000000001,6.286022741997579,-5.488297691864994,5.109693621741341,-4.780101079410054,-0.9756202856374216,-3.222323499088078,0
54.0,0.9000180000000001,2.66423213049056,-6.783893751697187,4.504853537743983,-6.245112679988752,-1.7810222126861144,-1.8103287237018335,0
55.0,0.916685,-0.780976454388298,-5.777894572159051,2.601539866919299,-6.6801986415678165,-2.237790703391438,-0.7174014603778105,0
56.0,0.933352,-2.2644053193407383,-3.1624348008421035,0.4055238112096166,-6.336349630829608,-2.415532162116925,-0.4725637334459884,0
57.0,0.950019,-2.494761393419795,-0.3683414679637584,-1.6860002613552645,-5.709290823416566,-2.328924946944225,-0.8811500312672946,0
58.0,0.966686,-2.23157756804166,1.5711729048321514,-3.169129989918795,-5.00834264647712,-1.9317429335126768,-1.236059654960965,0
59.0,0.983353,-1.002732998616424,2.5325017983317943,-3.349350741108039,-3.979932878297715,-1.2649125561180166,-1.0019985211180589,0
60.0,1.00002,1.4417624657786865,3.008650908698649,-2.238631006375873,-2.439291591670894,-0.4325138516560859,-0.4181152756172561,0
61.0,1.016687,4.00986292808248,3.465964928693846,-0.7511175578171432,-0.910252600200984,0.4902049647237917,-0.4051389638125633,0
62.0,1.033354,5.529632680296055,3.8858761321724486,0.3494195069570593,-0.3686472948395272,1.3271353883033183,-1.7028171718869165,0
63.0,1.050021,6.286579850217681,3.863869667756026,1.2133181842066172,-1.165050077181768,1.6727795599083126,-3.946721749495983,0
64.0,1.066688,7.418716089865176,3.2129521962448937,2.357922019091629,-2.3915772907718744,1.1779530419795723,-5.662305616217236,0
65.0,1.083355,9.158553637525316,2.421557823010784,3.7529107170051903,-2.574885752847048,0.0352997126515889,-5.44849211800741,0
66.0,1.100022,10.428141460371576,2.321396131388852,4.822002690907503,-1.12125451203118,-0.9842836055849185,-3.3303884149012086,0
67.0,1.116689,10.178024748384818,3.2506086895251927,5.222062960675827,0.9738297629006236,-1.1144022610616076,-0.7987046758709456,0
68.0,1.133356,8.618912199509715,4.716633348634328,5.250791038928391,2.022828810483865,-0.2417654646832114,0.5790900831819519,0
69.0,1.150023,6.947146898414484,5.945789547954427,5.391818426596109,1.279134878751217,1.02156278384246,0.3846231622818226,0
70.0,1.16669,6.1433073281868005,6.557337657411948,5.765133698206133,-0.4015571925679524,1.95975963020653,-0.8050249596912341,0
71.0,1.183357,6.29545187198115,6.530471079431552,6.282233486791121,-1.3620470604917116,2.50715473289514,-2.315107064602369,0
72.0,1.200024,6.986291134733593,5.711994113336447,7.115557464030241,-0.4337168132939668,3.250990188578164,-3.794993306721639,0
73.0,1.2166910000000002,7.9532879315632,3.852677837436564,8.569277461425104,2.2756813974803176,4.499152744444384,-5.053202660121709,0
74.0,1.2333580000000002,9.057174321030248,1.411552696214391,10.456243207828564,5.505511989439343,5.630930077978485,-5.9989166966940655,0
75.0,1.2500250000000002,9.761803121750525,-0.0197989971971441,12.013365497685212,7.832212836312625,5.946740464361542,-6.905379483674294,0
76.0,1.2666920000000002,9.37175049614773,1.3472779742288996,12.799581313366524,8.76745759320364,6.106764338667325,-8.417793244933192,0
77.0,1.283359,8.481901323224701,6.1694528227245,13.804999449823365,8.967024642456797,8.139038980821757,-10.925525435952668,0
78.0,1.300026,10.104641075201853,14.03531287167252,17.512051567988017,9.60751644493162,14.054297383688676,-14.062130821107289,0
79.0,1.316693,18.47596319958149,24.867415053837213,26.34186355608515,11.86401454220736,25.038395649179108,-17.390235194059763,0
80.0,1.33336,35.7706067739054,39.83605040487146,40.74182521059089,16.885683927216824,41.77386203777424,-21.80347571034701,0
81.0,1.350027,59.91812553891775,60.6899425295364,59.31961918625269,25.956985038981536,64.49038541261662,-29.73574457921578,0
82.0,1.366694,86.48365414895679,88.12528301718186,81.08546782227157,40.60376654745191,92.44039278629758,-43.13717144711119,0
83.0,1.383361,112.93052384550424,120.5309805612778,106.3679995395375,62.397864537266805,124.18463194380126,-60.56490901490359,0
84.0,1.400028,139.83092933544594,154.1381887406862,134.43457787084338,91.97698003709532,158.53044093440334,-76.1637698918762,0
85.0,1.416695,167.0338866880785,184.49713049347517,161.0526897411741,127.82391419568675,194.0776128095628,-82.6803917187266,0
86.0,1.433362,190.33840421265637,208.13179052186305,180.1148388227862,166.7751287851335,227.6360598721581,-77.63802337039081,0
87.0,1.450029,204.5500375683226,223.5920514175789,188.46266254065264,206.37762790752743,254.55698979666948,-67.46728261019746,0
88.0,1.4666960000000002,209.34176229782992,232.03570354161243,188.91375711065197,245.428453993702,271.6720562973001,-63.936772355704136,0
89.0,1.4833630000000002,208.8274102272725,236.922132096796,187.7223144793085,280.5556744525853,279.6782185139244,-74.5557463760795,0
90.0,1.5000300000000002,204.51702820748253,241.9799081940128,188.33284817682727,303.3852803213608,282.5235108241368,-96.4259088505845,0
91.0,1.5166970000000002,191.8851398602206,248.65353611827857,188.0115586381527,303.91044648160005,284.695262639649,-119.70544229667053,0
92.0,1.5333640000000002,165.6714800160109,255.60813867808295,181.1543548015588,277.6013879197362,288.5514279808982,-135.90350719413593,0
93.0,1.5500310000000002,126.22401341723986,260.6213457592319,165.20880944259991,228.14844974121556,293.1338077049453,-142.4711395471069,0
94.0,1.566698,79.02422273183726,262.84317079057723,142.83803958694375,163.27541182273973,295.15476677973567,-141.37701053562245,0
95.0,1.583365,29.99825659435547,263.5545870194826,119.3208840848228,89.71872476365853,291.5752331518746,-135.3733017741111,0
96.0,1.600032,-17.139746889037554,264.6451427189608,98.73736680306055,12.941010105560938,281.5247896612563,-126.18251109771074,0
97.0,1.616699,-60.79513780178349,265.87656639380094,81.92327314177163,-60.61632419756992,265.7617255929219,-115.7535399861902,0
98.0,1.633366,-100.9650554238143,263.6697387495246,66.93886251397929,-123.93343280827622,244.66832710291288,-107.75421897648218,0
99.0,1.650033,-138.11086267897318,252.78310554654507,51.53096514754709,-172.63511102120145,217.30954877754544,-105.85087203178088,0
100.0,1.6667,-171.0051677974911,229.25508513597555,35.628284294692385,-206.77182212980088,182.3668190006765,-109.9426410583732,0
101.0,1.683367,-196.331572915936,192.28358783457315,20.977466438979008,-229.0274384191412,139.4972668642828,-114.91761863469804,0
102.0,1.700034,-211.82405900788245,144.34785289634456,8.048565601953543,-241.84239802932973,89.8771243271433,-113.27128798583786,0
103.0,1.716701,-219.2017495561528,90.26135543649772,-5.363824147872733,-246.5152010060459,36.18501727085011,-98.74740388284783,0
104.0,1.733368,-222.39248434061903,35.81332602689721,-21.634634820065862,-244.0860851608898,-17.56551903776396,-69.04638919144018,0
105.0,1.7500350000000002,-222.60500711044904,-13.78441645978029,-40.96837939803128,-235.81316367931964,-66.56585084380026,-27.33385138596152,0
106.0,1.7667020000000002,-215.5571907059552,-55.22678715702632,-62.80262464604933,-222.3081665041242,-106.3241281446359,19.16711648739265,0
107.0,1.7833690000000002,-193.9027978388083,-87.42577074750781,-87.98521857976249,-202.4461521078628,-134.15579504750886,64.22747109734689,0
108.0,1.8000360000000002,-154.55972936892957,-110.5100332971384,-117.29612297722258,-173.82503605988944,-150.18903429659974,106.35017781765184,0
109.0,1.816703,-106.09728991132415,-124.57361681210443,-147.80533680651706,-135.59696194836542,-156.84964357198777,145.85244952609474,0
110.0,1.83337,-66.18897146815863,-129.73528349007387,-172.94859741397872,-91.99090041154228,-157.27980338394866,179.1961242192245,0
111.0,1.850037,-46.03647054922861,-127.31756180729316,-188.12262011770883,-52.35263191271669,-154.49316782136796,199.8728205548027,0
112.0,1.866704,-38.05981869317826,-120.1564034804758,-195.38406450935747,-25.02080674427969,-151.79345390463095,206.4453910945516,0
113.0,1.883371,-24.55338269971262,-111.67865890370692,-200.9070561560942,-9.158754979290226,-152.61444624033106,207.1498304080045,0
114.0,1.900038,2.802048547236316,-105.67486905068492,-208.94635731236733,6.118493282066735,-158.47532350648714,213.75054446389584,0
115.0,1.916705,37.695339039016645,-106.58277499165636,-220.2418105665944,32.118005168842906,-167.1525109473436,231.36300535579213,0
116.0,1.933372,70.80612757465347,-117.45041001692144,-234.300122831416,70.27601076257764,-174.11562456712244,255.7369382455244,0
117.0,1.950039,99.2663131937134,-136.1687117408121,-249.827925418247,112.34917451275167,-176.24535874130777,279.0431978061939,0
118.0,1.966706,124.94760108038784,-155.16304831077397,-264.0027589416851,148.8402806518749,-173.38370842555918,296.0032600712467,0
119.0,1.983373,149.71828984195668,-166.54010684790822,-274.5888489924667,175.1826392863387,-166.08212396920294,305.6379276948479,0
120.0,2.0000400000000003,174.13537268160297,-167.3875676041019,-282.73651309068725,191.4077736009368,-153.1098648343941,310.5592436690071,0
121.0,2.016707,197.0922233893416,-159.66806704443962,-292.1343147737729,199.0299190307806,-132.28962703516237,315.5004128160829,0
122.0,2.033374,214.59771216221404,-146.3646043162901,-305.8550549207222,199.29766333894395,-103.6557236434526,324.4871035392432,0
123.0,2.050041,220.76556354745856,-129.2653884323452,-324.23039603975053,193.34627340463132,-71.08419365030697,338.0692160181894,0
124.0,2.066708,212.35769732752252,-109.58284260831635,-344.08804854179755,182.67658246351107,-40.376750280781245,353.9197000280837,0
125.0,2.083375,192.3679581315824,-88.56204241073621,-359.9528648511296,168.9921316801616,-15.701664588500146,370.424885766271,0
126.0,2.100042,167.9790174099801,-67.04272526758282,-368.7036565760628,153.79249563865994,2.101791970417232,388.7708173042668,0
127.0,2.116709,145.16242424802428,-45.60563975598621,-374.2722404354563,138.2827319654583,13.942585525028024,411.3762750416393,0
128.0,2.133376,126.07605080147768,-25.553794924312243,-385.7610698770328,123.06634386754808,19.72223783182527,439.34694592415,0
129.0,2.150043,110.466749792026,-8.926675619277361,-409.4829137258481,106.61215486027868,17.766071720322245,471.6542399383747,0
130.0,2.16671,97.0029342994428,2.8580472789375357,-443.7241336767262,83.53346840042755,6.730145512082578,505.8941500967316,0
131.0,2.183377,83.08337472425724,9.837965308764916,-482.1394594825492,46.41754592247819,-13.404256030799282,540.0485363015072,0
132.0,2.200044,65.73230528634076,12.7082365339255,-522.1691167707925,-7.914723554563748,-42.64853076888794,575.1658559022302,0
133.0,2.216711,43.799962205977735,11.437316651419245,-570.4653358245628,-74.06831693380683,-81.21354142095302,617.623184492303,0
134.0,2.233378,18.06813738942102,4.061769312549746,-640.2325004272898,-141.52166877631709,-127.01473404144556,678.3766967475301,0
135.0,2.250045,-12.23010476564853,-14.524372702102657,-740.6965707646339,-202.27884669453263,-175.00932377353186,766.4410236375471,0
136.0,2.266712,-53.25572003431533,-52.25131222576263,-862.0765134256096,-255.51491814032477,-221.59740206491784,874.8472609216451,0
137.0,2.283379,-115.69068794974898,-115.33521717207586,-959.0710202234452,-307.0618527041039,-269.0720087093798,960.812686347964,0
138.0,2.300046,-208.0092602367957,-200.28839059375576,-937.9071914456904,-362.9531437116664,-322.6399347019587,928.5142032999772,0
139.0,2.316713,-329.1199076631024,-287.4709335513246,-664.465637909914,-414.6914971031828,-379.7890258544506,634.8696026091014,0
140.0,2.33338,-464.3634317274168,-342.89266510787206,-26.0001235165912,-424.4936027591243,-420.98413438864895,-47.2859038723002,0
141.0,2.350047,-582.8979887480314,-334.7920821783887,946.2359052650316,-336.6687362953307,-415.0751009871001,-1097.6220238426445,0
142.0,2.366714,-639.334433673034,-260.5963188836795,1982.5230449745247,-128.93816939893907,-343.54719886852683,-2237.9556037237226,0
143.0,2.383381,-590.8768565557209,-158.09913310932893,2662.9869761632226,137.39034026032758,-223.10556148779904,-3011.810472047163,0
144.0,2.400048,-428.1618639442749,-78.87071625371686,2701.783528929749,338.21333098472275,-97.32429272223617,-3084.006467956531,0
145.0,2.4167150000000004,-193.3874714120335,-48.09638256339101,2176.8316957268826,380.4080686855375,-4.075333673209414,-2503.310305886636,0
146.0,2.4333820000000004,37.468494196151326,-56.9027593625939,1449.9821896651663,274.8160490041565,40.99901911393127,-1642.9490919073685,0
147.0,2.4500490000000004,197.71154267539976,-86.68162222160706,863.998383651068,112.01652956870592,34.928708490157106,-889.6956416773737,0
148.0,2.4667160000000004,262.8578378212278,-125.5808371627324,537.0263219342769,-20.97208920571377,-16.415239074271362,-416.5124852862842,0
149.0,2.4833830000000003,249.3760798180005,-165.250977147848,400.8874952137433,-92.66851477139568,-88.16892678411848,-199.2650236939785,0
150.0,2.5000500000000003,188.92430450773105,-198.6609118140579,347.86977710322515,-117.96675336324762,-141.61675723814136,-144.3063251488402,0
151.0,2.5167170000000003,106.89979088856684,-225.21778445274208,316.9621386086241,-124.68393492624271,-151.67811544579664,-167.97212488030289,0
152.0,2.5333840000000003,19.76436449460746,-250.89484863959007,291.40990843845395,-132.0010886726731,-126.48225243288232,-211.40804918107287,0
153.0,2.5500510000000003,-59.1379239546763,-281.31701773340814,266.281897691568,-145.59564717358396,-98.5636228861666,-237.74863828894547,0
154.0,2.5667180000000003,-119.00813506067811,-316.6475830837855,231.2566232169589,-161.22310834322724,-99.33251743550464,-231.29658584932636,0
155.0,2.5833850000000003,-155.7206803104416,-351.7598940548926,174.84162779920842,-171.7133583825397,-138.77614472394353,-194.63310365148288,0
156.0,2.6000520000000003,-172.56247561289433,-379.6150777808677,95.72141711135684,-173.57723139841988,-202.3336796901885,-141.0956259823769,0
157.0,2.616719,-175.74022661745823,-396.0516367804627,6.460893219824444,-168.84892131630824,-263.8863827343592,-85.60814719023061,0
158.0,2.633386,-169.86503827621436,-402.9436471352863,-74.4488404092253,-162.0093680886013,-303.637974397612,-37.51466889219434,0
159.0,2.650053,-157.37657752801087,-406.4844021541784,-135.0869324555826,-157.02776897974786,-317.5913859651346,3.192601870084303,0
160.0,2.66672,-140.44917118621308,-412.6309020375817,-176.81473261161315,-157.19813010960257,-314.05483570437207,44.97434550670636,0
161.0,2.683387,-122.2526928502616,-424.7955374883928,-210.9310536653508,-164.61584113950116,-304.00731628964814,97.64274704423296,0
162.0,2.700054,-107.4304447174348,-443.9991581091522,-249.07917172957525,-177.6830769008252,-294.8481591808687,162.95769175206206,0
163.0,2.716721,-102.4462587103987,-468.3274960966856,-294.55302981838787,-190.5256387252361,-289.8990849705375,232.26887905289647,0
164.0,2.733388,-112.91885093774653,-492.7187735266463,-340.55088226386954,-196.4860673939233,-289.90836888396285,294.6179234233643,0
165.0,2.750055,-136.64323931795985,-511.4214070359628,-376.4645444439943,-191.80187621860404,-294.5660412986236,346.1004526340163,0
166.0,2.766722,-160.9174288262623,-520.3047656315921,-396.3199138921256,-176.20432823999772,-304.66886395583987,389.7808398711789,0
167.0,2.783389,-173.09170666457655,-516.7112290241105,-402.3779347846711,-152.30212678578638,-323.1260051420794,428.313718799108,0
168.0,2.800056,-174.5618705824972,-499.9904928929522,-403.4765330848125,-125.92612848696808,-352.1621215789537,460.2303280579313,0
169.0,2.816723,-178.78479082395475,-472.6296167829612,-411.2010835394924,-106.26123314703244,-388.8541690083082,483.48066560399786,0
170.0,2.83339,-195.10188686861568,-436.33990457195193,-434.1690302802367,-103.73910659848244,-423.9098452202474,499.3752341341944,0
171.0,2.850057,-220.6034306953084,-384.3340783379358,-472.0894631842612,-125.707841148305,-444.6843660114415,511.4894039108658,0
172.0,2.866724,-247.8865798965199,-299.8208608183396,-515.9882318626608,-172.28775625053922,-438.5619490447796,521.3671997210033,0
173.0,2.883391,-272.96511328031454,-165.31001401605562,-555.9438563649529,-235.2044524093555,-393.4653866256781,525.2345164681793,0
174.0,2.900058,-292.50914444479406,24.13557386120316,-587.1431004043336,-300.1775139162317,-297.77540692433195,514.8109661014901,0
175.0,2.916725,-298.77912226087045,253.46694353958569,-607.3946913621324,-351.5163385219133,-144.5802072180176,483.1023277685976,0
176.0,2.9333920000000004,-282.0601587866101,490.8636371813558,-611.9291072352197,-377.3415706702304,60.472576110096185,431.50812553188,0
177.0,2.9500590000000004,-237.0602635579415,699.6504826622102,-593.5098089006099,-373.2014453350442,294.781773328258,372.0235272889033,0
178.0,2.9667260000000004,-164.79100082711193,851.4804861295039,-545.8754209877583,-341.66032630354675,522.702679614059,320.99922963513194,0
179.0,2.9833930000000004,-70.31998223490666,933.506186284133,-465.2229162351581,-288.2908113095375,706.4354330254673,286.00030713780507,0
180.0,3.0000600000000004,36.90274771916565,948.0300837197832,-351.48667330746827,-217.5792361695099,819.2220714515122,255.03369222748572,0
181.0,3.0167270000000004,141.52649382369978,907.756642054575,-211.8997255179097,-131.970282453511,854.2520952591212,202.5149117584809,0
182.0,3.0333940000000004,228.66601253958555,830.0880691078864,-61.6408606983977,-34.13921637168359,824.1850874247566,112.46539878524732,0
183.0,3.0500610000000004,295.27476526497804,732.2769337071315,82.47834661895993,70.83958705231805,753.2031543731175,-4.189626894665572,0
184.0,3.0667280000000003,350.0070015796347,627.8793776002342,208.81785961300443,176.4678886210636,667.1756712717123,-117.52294806008614,0
185.0,3.0833950000000003,399.0788972705191,524.8443969774656,311.3241826768534,277.68356874422057,584.7099792397496,-201.0147796377736,0
186.0,3.1000620000000003,438.1712126889695,426.3015875013806,387.8965302217726,371.9653662925703,511.51745804614063,-245.4029051942508,0
187.0,3.1167290000000003,461.4605739103576,334.04486421695583,442.4966885891805,457.53423845736097,442.24657876029977,-257.368594224429,0
188.0,3.1333960000000003,471.6555340865717,251.61932172464776,485.21240005056166,530.9887351541797,369.2563536697749,-251.35593143174628,0
189.0,3.1500630000000003,475.33084105712567,183.77097755911237,523.5800429590738,587.2382288018254,290.8839620650993,-241.60452075713204,0
190.0,3.1667300000000003,473.18477661109193,133.51232852430664,553.2388442554785,621.9716645038764,212.86428603786368,-236.2968755557652,0
191.0,3.1833970000000003,461.0691306374546,100.72917326184856,560.2649339111863,634.1087852799175,143.9313456835639,-235.13495441070316,0
192.0,3.200064,438.1436116058616,83.38774783233585,532.8912330380724,626.024942676496,90.82743446591232,-231.61817900581264,0
193.0,3.216731,408.69064930179405,78.92639868245953,470.1988899344296,602.2668259991918,55.98467738241972,-218.47771118351045,0
194.0,3.233398,376.5918928108249,83.86600572201333,381.9328914721594,568.3591821473469,37.767741753533286,-192.53258388398584,0
195.0,3.250065,342.34010859871955,92.83369176818644,283.18202388067704,529.1622811164146,32.18390742949329,-156.21580999261784,0
196.0,3.266732,306.0233490079985,99.78898866301914,188.8872936371652,486.6411898423726,35.113841042047696,-115.5566900353499,0
197.0,3.283399,269.8873237156393,101.48072752171451,109.89599411988878,439.9005609604591,43.58411303493489,-76.4692951403274,0
198.0,3.300066,236.63023722779505,99.30648979548812,50.74984003320054,388.68665105877847,55.20425867146762,-41.87929117277709,0
199.0,3.316733,207.4868695809306,96.81938070897658,9.985864257165524,336.1537468436032,67.16226343553019,-11.027656531072642,0
200.0,3.3334,183.11250431859176,95.30058840495208,-16.947504868229053,287.013876839925,76.4929134380209,19.29238073927093,0
201.0,3.350067,163.60316191279196,91.96544685478082,-34.988934198605904,243.5615391150066,81.10375483147246,51.98157613391356,0
202.0,3.366734,145.61918054629257,82.29012667076093,-49.27467515203817,204.51008523534964,80.3904191563818,86.49756756287084,0
203.0,3.383401,122.22528568180132,64.16705121887674,-64.58989728051225,167.09577378769114,75.59923482057465,118.13781262754696,0
204.0,3.400068,88.81951467369446,40.34821032842467,-81.76569575488095,129.06770931017542,69.76018413712414,141.04116288748958,0
205.0,3.416735,48.209961085871065,17.109547397973206,-95.4561206732932,89.07737648649022,65.99108118653719,151.89126560925672,0
206.0,3.433402,7.900452636961377,0.4181303501768525,-98.19235601968111,47.12687517141224,64.86243604580466,150.46505962319412,0
207.0,3.450069,-26.5895911925339,-6.9644930103790905,-86.74167520771275,5.66133761672655,63.99265164157752,137.32933898878343,0
208.0,3.466736,-54.617219459715216,-5.633742291095978,-63.434036275517386,-30.692449881756254,61.16777121593163,112.3611673407896,0
209.0,3.4834030000000005,-78.3288076926626,1.9762414196940887,-32.36360514899085,-57.640445066739446,57.61792166488067,76.05242179968218,0
210.0,3.5000700000000005,-99.2906842131054,13.157429105100087,3.869326642095584,-73.94288412451826,57.33538703385008,31.50870769403833,0
211.0,3.5167370000000004,-116.75681536146814,25.897020844315417,43.827415984840215,-82.2618037689334,63.05166950419671,-15.8076095263033,0
212.0,3.5334040000000004,-129.07501565964196,38.81202607951949,84.85149759878689,-88.00370357743464,73.28905495382617,-60.38068892582736,0
213.0,3.5500710000000004,-137.72497734067863,49.85607626139159,121.51230540935356,-96.88423325595014,82.95797912975894,-98.453264478382,0
214.0,3.5667380000000004,-149.59078583506633,55.24283541068825,146.91587054753472,-112.35117547463264,85.9030047444214,-128.27832411731816,0
215.0,3.5834050000000004,-172.8380298872464,50.83911278140853,156.37261186714386,-134.3677900477891,77.29968374115839,-149.7017193626403,0
216.0,3.6000720000000004,-208.33048772309652,35.522570733009665,150.35171681812346,-159.99167237886323,55.52114667308611,-163.6314343579385,0
217.0,3.616739,-245.4142143463281,12.406600722950534,134.17595440810703,-184.9710333088822,22.909975353455238,-171.25461783115026,0
218.0,3.633406,-269.10545948429467,-14.28555517752402,114.57094293647958,-205.6746554163282,-15.5713818833427,-173.22037265097077,0
219.0,3.650073,-273.25647814715,-42.80233540201487,95.15573842191051,-220.5681858796179,-54.9090735037787,-169.14789459227356,0
220.0,3.66674,-265.1158830178375,-73.21049658020725,74.22330091497771,-230.37578388643004,-91.42056236760374,-157.63754557849933,0
221.0,3.683407,-256.4195285969008,-104.03496225117853,47.24813396121401,-237.36885782988185,-122.26659597688771,-137.12245680016375,0
222.0,3.700074,-253.0160350693848,-131.15359967788586,11.855926712867957,-244.60374609390587,-144.76073776692266,-107.33244809159572,0
223.0,3.716741,-254.6372033114764,-150.39147736331424,-30.112341168801887,-254.44778675980425,-157.00153134721145,-70.0787938719804,0
224.0,3.733408,-260.9226418356525,-160.95061223973116,-74.66197757175225,-266.2751828331992,-159.29705651859084,-28.73240590506154,0
225.0,3.750075,-272.47575731822195,-166.10238465020484,-117.60460740401396,-275.9279395472109,-154.47721385309146,12.696195050003958,0
226.0,3.766742,-285.4748170285976,-169.95340258856342,-154.37957082809993,-278.69848209725967,-146.40903410141124,50.352739338145454,0
227.0,3.783409,-289.88778714999506,-173.15097307503527,-180.97380673430644,-273.11520623794524,-138.34729149821632,81.59375106615308,0
228.0,3.800076,-277.43608414687577,-172.43942093684132,-197.28411734246495,-261.6153216902906,-132.3683361577748,105.65199804508768,0
229.0,3.816743,-250.5525349904367,-164.98432015755077,-208.1868220559428,-248.05710461860215,-129.09229192820536,122.8687196684353,0
230.0,3.83341,-219.80943537199283,-152.35379562682144,-219.08879482617223,-235.0783327383761,-127.443611486635,133.58692930836926,0
231.0,3.850077,-192.8549110520489,-139.48815530946635,-230.85399261350224,-223.02003689397856,-125.52814532345714,138.33406272006775,0
232.0,3.866744,-169.37917878393324,-130.27643731650153,-239.96775741528157,-210.17160936516984,-122.31044895126048,138.33443504744727,0
233.0,3.883411,-145.77865904132398,-124.61175313471034,-242.19299745202497,-194.334113877654,-118.31246134976448,134.73129960052518,0
234.0,3.900078,-119.85636698555442,-119.10210485991924,-234.95786566118431,-175.2432022611839,-114.8694189129276,127.47806428404976,0
235.0,3.916745,-90.75699905935188,-109.87777653557318,-217.84723674784797,-155.2454012291822,-112.88888357655892,115.79577619053278,0
236.0,3.933412,-59.059209194754175,-94.51387115255103,-192.6739418227833,-136.5102861639348,-111.5594790446738,99.7875759385893,0
237.0,3.950079,-29.16672886637016,-71.5089657993046,-163.39794525599484,-117.72947920095056,-107.33676206315012,81.16417167930985,0
238.0,3.966746,-8.52429819891836,-39.27849295236388,-135.4537688524028,-94.9696273398046,-94.63801711658522,62.28433658556072,0
239.0,3.983413,-0.7475846752753537,2.1246636465697097,-113.75295860365893,-66.5203263830774,-69.34656225001433,44.75713807083574,0
240.0,4.0000800000000005,0.2494193719612454,47.57096907802274,-99.92380714121876,-35.97617816485787,-33.18359499217095,29.07094300487322,0
241.0,4.0167470000000005,6.151714772114298,86.84270233570813,-91.87483153731252,-9.548242058247812,5.583709616492748,15.140554673504129,0
242.0,4.0334140000000005,22.863658582568693,110.45372843279898,-86.68245355057702,8.89005046938211,37.39980718410806,2.7523195232564754,0
243.0,4.0500810000000005,45.05702758273923,116.66906065322084,-82.80815665011414,19.14644583445992,58.44520931008058,-8.20363136082004,0
244.0,4.0667480000000005,62.88381796369536,112.55167195376444,-79.19425881647516,22.62461647492171,72.21558324581669,-17.314677360187282,0
245.0,4.0834150000000005,71.76272158662258,107.7070379257415,-74.16236427087475,21.168229231153944,84.45903911663129,-23.81328161153212,0
246.0,4.100082,74.36958899676489,106.65550253297052,-66.46485948595125,17.718090325830218,97.77936130884234,-28.00365762794103,0
247.0,4.116749,75.26333183889109,106.27759248983388,-56.701548774835,16.197052145048584,110.8171034733222,-32.10576137445467,0
248.0,4.133416,76.06008836360647,99.8612444414974,-46.32608465503844,19.85244112030359,120.33624997522764,-38.373109239710125,0
249.0,4.150083,76.99064965104702,83.97411129647783,-33.707487825775864,29.90048781162881,122.95299851736726,-46.38574068671382,0
250.0,4.16675,82.26688778762485,61.52618031304692,-11.46639569396013,45.98635239996389,116.2439847254654,-53.68273696818927,0
251.0,4.183417,99.77110050868312,37.9363411195484,28.69759246770905,67.87827322602033,99.87463117436668,-59.552079883549936,0
252.0,4.200084,132.40420476038094,15.59698860277952,86.22734166573572,96.11045330399402,75.89082553405714,-66.71518156491764,0
253.0,4.216751,172.21176337324027,-6.550824830658841,148.75774335673017,130.2235303199256,47.53261065172166,-77.91146395283066,0
254.0,4.233418,206.2647034257316,-29.404736278858472,200.60757576269245,166.72658295018536,17.77274763890099,-91.22668802088434,0
255.0,4.250085,227.4522574410612,-51.74885297167282,233.21184884177345,199.98462960015905,-11.072703919005669,-100.01114715947608,0
256.0,4.266752,238.2744262363296,-71.05625716830437,247.6426864103452,225.54907014855183,-36.842553982604194,-97.94192479029684,0
257.0,4.283419,245.7430275448602,-84.35443512142297,249.8453466927552,242.4043623150495,-57.10849188072214,-83.92288841963651,0
258.0,4.300086,254.6082704049569,-88.79975426423007,244.6960496176905,252.22740272574816,-69.48083264709156,-61.96814202335544,0
259.0,4.316753,265.2974746537589,-83.2109091487248,233.18333703934215,256.9948063805271,-72.62479324608074,-36.97792868255658,0
260.0,4.33342,276.1845961840256,-69.48897403240392,213.95834131487533,257.43453669432495,-67.34404261040373,-11.229984249714825,0
261.0,4.350087,285.74666477648896,-51.95870768804632,187.19220003221125,253.4492878397349,-56.92220150897693,15.45644521985604,0
262.0,4.366754,292.6164365997617,-35.15422434988808,156.25716309191674,245.3825563840453,-46.08900708451303,43.17479923364338,0
263.0,4.383421,295.3408301389968,-21.777659073951,125.34553567937084,234.3522430734323,-38.39478958754079,70.16075370006189,0
264.0,4.400088,293.0479592386953,-11.30617572729944,96.36517421454444,221.50584703913304,-33.476251659127534,93.50899927224188,0
265.0,4.416755,285.8876912927444,0.1561020546665457,68.90586718197518,207.50218776689147,-27.606239059965944,111.38144248986868,0
266.0,4.433422,274.4610249910012,16.976958293389973,42.50415902637801,192.7247567277214,-18.90534879416296,124.3140873606459,0
267.0,4.450089,259.148245577881,38.6775943217637,17.806098262538235,177.3833252452841,-12.674785127378422,134.21636875648238,0
268.0,4.466756,240.2873173479619,57.46593452892334,-4.365014573874531,161.25888296994384,-19.94673787489661,142.24526818025487,0
269.0,4.483423,218.87709083548648,62.834548351166376,-23.866281390908792,144.09811828609008,-48.537959682214286,148.34477865346653,0
270.0,4.50009,197.07357392623263,49.824605010282745,-40.40504913404245,126.90177156473862,-94.24795741842637,153.10992590148317,0
271.0,4.516757,178.12414633919673,23.118630348265988,-52.43956206860224,112.51577796894418,-140.45217920889846,158.94266421831998,0
272.0,4.533424,165.34103924409152,-6.333284518093244,-58.02352127108767,104.29258540454576,-166.8546296930615,168.23240668811542,0
273.0,4.550091,159.9613696418335,-28.46232690283205,-57.2458630294803,103.87046092806618,-160.98643427818524,181.0414681480813,0
274.0,4.566758,159.3613478238383,-39.32341983743631,-53.81981589410808,109.63761222034844,-124.79690523704652,195.7288580084644,0
275.0,4.583425,157.88924565465334,-41.23791453573647,-54.19577719176939,116.31205117168643,-72.3767449020024,211.48488783380503,0
276.0,4.600092,150.13940524737626,-38.342153800232765,-64.50091097188901,116.00754240149467,-20.802709612672533,229.0399414120897,0
277.0,4.616759,134.12203291291684,-31.15132540743964,-86.70627216571756,101.17749418979786,19.274793794745115,248.30363454193045,0
278.0,4.633426,112.36893860205387,-14.724942912402366,-116.38610274712276,68.67082545528999,47.352717627535824,265.3109589886404,0
279.0,4.650093,89.85787117532871,17.32915324069335,-144.90844232630343,22.956095529484507,70.00094342475113,272.048565081794,0
280.0,4.66676,68.90282735518237,65.66720476392425,-165.72187811541875,-24.524491297591844,93.92800915074068,260.82767086494783,0
281.0,4.683427,45.7425683008544,121.2576758724503,-178.78173217783947,-62.03126820446069,120.09560405782892,229.999094771582,0
282.0,4.700094,14.450778004832184,169.12558627503694,-187.86852350954905,-85.99550669413118,143.4859915037283,185.0501611103521,0
283.0,4.716761,-25.676930768933204,196.98240754885356,-194.50808164771615,-102.10390455002218,158.1470205137935,134.32447932702112,0
284.0,4.733428,-69.01039377744775,201.1453628419617,-196.17058755825548,-117.45543031868162,161.6429365344565,85.1178709346672,0
285.0,4.750095,-109.29152824775022,185.7577850113994,-189.3107945687335,-133.50990536805236,155.32918563577135,43.21101744071071,0
286.0,4.766762,-144.07447801185194,158.1902945493354,-172.28911150184388,-147.14141223600222,142.9109126242697,12.493232406904088,0
287.0,4.783429,-174.36196348876592,125.29475786728452,-146.0622387691156,-156.16413018963505,129.25251731569062,-7.388535516761578,0
288.0,4.800096,-202.06163895594477,92.09444691245584,-113.5409980450437,-162.00214909471552,118.05363811599588,-21.890945069387573,0
289.0,4.816763000000001,-227.62006069080812,61.82602287592322,-78.16530033046791,-167.16930056662122,109.2056834016508,-37.916789551100734,0
290.0,4.833430000000001,-249.13859225323492,35.94865214284673,-42.51760464814622,-171.47393919389265,99.38605837406324,-58.54521201659482,0
291.0,4.850097000000001,-263.8711881080825,13.723724462453594,-8.10707625102623,-172.04309123545698,85.77101243082458,-81.78896290027902,0
292.0,4.866764000000001,-270.6024792686658,-7.744990015856453,24.190104377806847,-166.8163423974155,68.44585791549173,-104.5150019208978,0
293.0,4.883431000000001,-270.2758491230842,-31.966966819161826,54.29541811203893,-156.47155769090244,49.256636425783455,-126.3989345434281,0
294.0,4.900098000000001,-264.9794852800828,-60.466989536862165,83.36199388905298,-142.65763839694895,29.63867701002731,-149.21746163147708,0
295.0,4.916765000000001,-256.8805366338261,-91.14098484084624,113.22784205090426,-125.76221680027903,10.445358040284232,-173.58427165477443,0
296.0,4.933432000000001,-247.21976505305733,-119.54205453537348,144.7935578491202,-105.389409478688,-6.97524678622344,-198.3109374695204,0
297.0,4.950099000000001,-236.01168980151544,-142.37939212198765,176.75204390920322,-82.71082463411473,-21.3443717754728,-222.58389517211648,0
298.0,4.966766000000001,-224.03472527449267,-159.29531053506196,206.17877127416693,-61.54210878935718,-33.59152812152455,-246.69272820535463,0
299.0,4.983433000000001,-214.6727944924404,-170.88359528509122,230.42523095199277,-46.43387691022448,-47.17060094911884,-270.06019778613984,0
300.0,5.000100000000001,-211.0655498048953,-176.48526454872768,248.06059187055115,-39.51009533653814,-65.35471999351277,-290.05015868778617,0
301.0,5.016767000000001,-211.5344033773065,-175.07825466324596,258.3111874190211,-39.44832905936826,-88.55070825587168,-303.8488185231262,0
302.0,5.033434000000001,-211.06133645300025,-166.90241937736354,260.64458188010803,-43.40612719402668,-114.18219873624255,-311.05036788251607,0
303.0,5.050101000000001,-207.5771246001853,-152.80807023488217,254.95266770938505,-49.15803446751183,-138.11190144856488,-313.5585005988738,0
304.0,5.066768000000001,-203.59920796959284,-132.87803010758245,241.3342344808585,-55.43109663650296,-155.68517340336493,-313.06404270910826,0
305.0,5.083435000000001,-201.1825252742936,-106.89186788702848,219.9540179184889,-61.65256402638755,-162.53793281492935,-309.2517853666537,0
306.0,5.100102000000001,-198.4665428273419,-76.21184711011757,191.98967416245037,-68.30265724726377,-156.10836436441514,-300.5528905254251,0
307.0,5.116769000000001,-192.7317060649416,-44.93714158699235,160.15669717033222,-76.62896034860805,-137.08006272070963,-286.1775086027281,0
308.0,5.1334360000000006,-185.15932385569232,-18.61728278728319,127.11976601109576,-86.90918867696938,-108.95903555846944,-267.0837450622848,0
309.0,5.1501030000000005,-180.5849780512112,-0.7484174013518157,94.13297502759184,-97.25980572458482,-75.78064456580138,-245.09685128540357,0
310.0,5.1667700000000005,-181.4233197843216,9.982522710134091,62.72232237293538,-104.99563293109338,-40.40998880465728,-221.6450290805982,0
311.0,5.1834370000000005,-182.18796297309476,18.53483901485736,36.34789330314359,-109.18922090376378,-5.374686916259391,-197.79911814180943,0
312.0,5.2001040000000005,-173.1098859632675,29.026639473172988,17.450893919800134,-111.39892572330916,25.303991991611383,-174.99555657142037,0
313.0,5.2167710000000005,-151.0896336242588,41.13275178550979,3.3104688160342466,-113.90994578132512,46.39881339715045,-154.3269845645294,0
314.0,5.2334380000000005,-124.01283313104548,50.77531452292314,-11.84200017565115,-117.69851391441732,54.15739580600292,-134.4364988679505,0
315.0,5.2501050000000005,-102.1866853093457,54.15465282536549,-30.29799443246397,-121.81913496806814,48.824008966453874,-111.13057427450924,0
316.0,5.2667720000000005,-88.72033758983675,51.125858224647104,-49.09059251120888,-123.86043425309391,35.43641702305844,-80.74333068336385,0
317.0,5.283439,-79.75972050107397,45.326647507472856,-64.48174435204496,-121.06864143576794,22.92330105751897,-44.395477462612746,0
318.0,5.300106,-70.11365875786663,41.53380302699627,-75.54990133491776,-111.67633139697324,20.69014122230579,-7.888263110844552,0
319.0,5.316773,-55.9332497048547,42.10508339205298,-83.32999530022065,-94.5349062407286,32.808412922008266,23.745766292524493,0
320.0,5.33344,-34.45224132217372,45.195138759194165,-88.67860949057635,-67.17140029318854,54.6930241722899,51.32496444669262,0
321.0,5.350107,-4.815453300421246,46.9753186586869,-91.65355897588177,-26.98746505385964,77.06812153628013,80.07982559155333,0
322.0,5.366774,30.04438510391496,45.62170604897135,-91.98916805089604,23.19639685431013,93.20597819919442,113.10222241346258,0
323.0,5.383441,63.89100592809178,41.83818145598558,-89.70161241899771,73.26125607588622,100.97823680443692,147.3560329976794,0
324.0,5.400108,91.05773783262772,35.82474223225168,-85.44039692389221,112.46957731153437,99.54007730807962,176.3053784871045,0
325.0,5.416775,110.38758863282436,26.59306287181748,-80.17359368138804,136.8015492417866,88.19222390970788,194.98978776835315,0
326.0,5.433442,125.42180529071132,15.57177654941545,-74.33925874630602,148.5942055621348,69.52610454461558,202.2488948705986,0
327.0,5.450109,140.9090794743614,8.127947887037504,-67.626086228559,151.2636313993142,49.866877161338856,200.5263453123168,0
328.0,5.466776,158.8884999951909,8.492050682905834,-59.99195587832757,145.9390542509538,33.22293431383508,195.47173848244643,0
329.0,5.483443,177.28838975666076,14.340273738757364,-52.49506305966258,132.20055569877977,16.399990757633034,193.84018261319412,0
330.0,5.50011,191.84681236299025,19.36991849911413,-46.34247852491551,111.16592510659584,-6.541185640652493,198.78375825206143,0
331.0,5.516777,199.75016150952973,20.785278510952505,-41.24409780862032,87.60205033982015,-35.46341515704385,207.38210943452788,0
332.0,5.533444,201.8996335302741,21.46303793878472,-35.43808989105733,68.41405384915961,-62.49068298568692,214.23599066211625,0
333.0,5.550111,202.02954735018747,24.76493766250757,-27.38038084972323,58.96044430638753,-78.88905255742675,216.09084301846943,0
334.0,5.566778,204.00100660204916,30.01247561141406,-16.829544164062835,61.21464881694014,-81.26460197409492,211.42280558808076,0
335.0,5.583445,209.49444730847972,33.9341918650872,-4.281195205333235,74.44330110678021,-71.25188105608474,198.3152233850817,0
336.0,5.600112,217.13836202804532,34.54850616484101,9.761295521699626,95.8191090483786,-52.17958249712909,176.27254302927992,0
337.0,5.616779,223.5139402850456,32.44831440865367,24.41160151653944,120.4051183801272,-27.79388410102713,149.0563377633713,0
338.0,5.633446,225.6236772503819,29.469444014022635,37.94428597524087,142.20252114258938,-2.695834387377868,122.9083084211168,0
339.0,5.650113,222.74416890486836,27.17523221814745,48.45525153469424,156.39812247042747,18.5901054717398,101.97803656636978,0
340.0,5.66678,215.60123925119285,26.108386901878003,54.603522730160016,161.12239547152416,33.89684843182847,86.33936126062615,0
341.0,5.683447,203.93882817781773,25.873262032459085,55.36305922088918,157.5719176280497,44.22142724527662,73.39241213776646,0
342.0,5.700114,186.35449013605043,26.121156834016347,50.176164692879695,148.7025813081507,52.09484753791814,60.08846147479031,0
343.0,5.716781,163.3025642191678,27.296680705788795,40.18080755147686,137.69190369841056,59.397917710847686,44.37806921130268,0
344.0,5.733448,138.79968915080283,29.692529549274468,28.304492184922825,127.2427046641277,66.26315081244029,25.636124954732708,0
345.0,5.750115,117.75662422938188,31.994745919826883,17.4270119789226,119.17212888439173,71.2084854241518,4.603722047183396,0
346.0,5.766782,101.99942317263628,31.90175098706655,8.84023101236473,113.1883171480322,72.27243419485949,-16.603433415008112,0
347.0,5.783449,89.47960863820983,28.48069617107975,2.2099424873313023,106.15042215376052,68.55268772380462,-35.12057041783332,0
348.0,5.800116,77.05708422718443,23.39344078055543,-3.736073693243693,94.26152773558408,60.94132508172385,-49.034127366302606,0
349.0,5.816783,63.46428480904049,19.676555017765278,-10.306690785907774,76.76323854321777,51.46115516217549,-58.512685590469424,0
350.0,5.83345,49.47167982083632,19.197576222489,-18.011527600423417,56.33625891021019,41.86992619861212,-64.993560138258,0
351.0,5.850117,36.19008364562486,20.726000434751622,-26.360873397630563,35.335040830960395,32.64605721872326,-69.58955724311885,0
352.0,5.866784000000001,24.26697217680829,20.54339216865145,-34.29326927714733,13.040466137093915,23.22566788047872,-72.33866589524216,0
353.0,5.883451000000001,13.933524148173472,15.755164854056126,-40.802600735098224,-12.20452907705533,13.459980585874144,-72.70535776604775,0
354.0,5.900118000000001,4.457316809789637,6.987298074486218,-45.69446833292306,-38.90938048689012,4.619169371615588,-71.544959460837,0
355.0,5.916785000000001,-6.083481967764491,-2.80020472849566,-50.0495772873189,-61.86927504405647,-1.6919521539902562,-73.25930762326003,0
356.0,5.933452000000001,-19.40309773784612,-11.514516517936237,-55.50992670341428,-76.0622243517289,-5.51981843098083,-84.19677179112426,0
357.0,5.950119000000001,-35.17056575398752,-18.952572123222808,-62.70186061705636,-80.94246071014754,-8.869354649887802,-106.29129359880696,0
358.0,5.966786000000001,-50.557736401380254,-25.53467732684912,-70.47449671345636,-81.29457870117317,-14.047569358305315,-132.77938639209037,0
359.0,5.983453000000001,-61.67450223587336,-31.53347445437969,-76.81404973989675,-84.3160356929989,-21.82775929338088,-152.80989072081866,0
360.0,6.000120000000001,-66.21110067179912,-37.2361930211304,-80.41924716506071,-94.92305423859182,-30.842453555488365,-160.69441171653568,0
361.0,6.016787000000001,-65.1530926168914,-42.57305291990223,-81.5137383512345,-112.20019365533724,-38.58021607877342,-159.3499250175002,0
362.0,6.033454000000001,-61.48086433469408,-46.437609763750935,-81.34743201532017,-129.96382214760027,-43.22795707514199,-155.42742990856206,0
363.0,6.050121000000001,-57.3757780059898,-47.17010868253059,-80.86647759984666,-141.42622654082612,-44.79398620146802,-153.0484427360546,0
364.0,6.066788000000001,-53.6786217864212,-43.97785530130525,-79.97769265329502,-143.384850300857,-44.92990068046621,-151.86324813325868,0
365.0,6.083455000000001,-51.67206689745648,-37.530708083177984,-78.26741771408808,-136.18479297157188,-46.19341050322601,-148.7511664092852,0
366.0,6.100122000000001,-53.15903537420164,-29.362068571468757,-75.84744673279076,-121.8337830425206,-51.02946069462983,-140.3094517563598,0
367.0,6.116789000000001,-57.52948993384501,-21.44830495229823,-72.91096120270078,-103.9483413718098,-60.268440911451975,-125.34120431433108,0
368.0,6.133456000000001,-60.35464476920016,-16.164356377596356,-69.05491614658419,-88.04086907421008,-72.0926895627553,-107.03284501887134,0
369.0,6.150123000000001,-56.76997528716583,-15.244752753870165,-63.67915203672878,-79.45625257974368,-82.9957350862135,-91.97323455481668,0
370.0,6.166790000000001,-45.92098427362123,-17.98058487389479,-56.68987338228382,-80.46673489421512,-90.3221135460126,-84.6749825410941,0
371.0,6.183457000000001,-31.45034398726177,-21.14156383980233,-48.715491003919816,-88.93619596964132,-93.78890197303984,-83.40639135087216,0
372.0,6.200124000000001,-18.32962264439279,-21.71106728616936,-41.28188035676559,-98.98026154348548,-94.53508660508125,-83.16493709594275,0
373.0,6.216791000000001,-9.43000916834804,-19.53332296577148,-36.59674235420231,-104.23378466352472,-93.39298491550252,-80.88538417081759,0
374.0,6.233458000000001,-4.113219710269498,-16.143704858406746,-36.06293533197488,-102.68975348851843,-90.2002594450256,-75.19309403424104,0
375.0,6.250125000000001,0.2261555078006902,-10.918979501398754,-38.87516972023865,-97.9477261523258,-83.56051648982213,-64.17807579498714,0
376.0,6.266792000000001,4.896161232334637,0.1254644399425935,-42.8522785852516,-94.42104028632252,-70.62776222017303,-47.91436188111772,0
377.0,6.283459000000001,8.768993303898789,20.675394277543027,-46.47392944649576,-92.3856526694335,-48.39058777373248,-31.404965424919684,0
378.0,6.300126000000001,10.791321403176074,49.58226694218563,-49.334744268488656,-88.94386118916674,-16.709952354614906,-20.686045832993297,0
379.0,6.3167930000000005,12.345785689770334,80.31336008032942,-51.07576552768719,-82.04953380300165,19.66105231001157,-16.388218961375816,0
380.0,6.3334600000000005,16.180684460898316,104.44932546025171,-50.92563612703195,-71.52387348286223,52.49985452741582,-13.869652793190475,0
381.0,6.3501270000000005,23.91425715499307,115.5676583827073,-47.98641094421428,-57.45725223546015,73.94304838416093,-9.141731900617486,0
382.0,6.3667940000000005,35.32211748910024,111.155121361812,-41.11720284001112,-39.92408847198995,79.98238146127875,-2.5138087870048,0
383.0,6.3834610000000005,49.12774884112393,93.1137357051622,-29.17663069371817,-19.98960771694201,72.21064280031274,3.22476418654083,0
384.0,6.4001280000000005,63.63954759896775,67.37475543956153,-12.679182270041498,0.4272236103363056,57.31908916393861,6.443193237830042,0
385.0,6.4167950000000005,77.35282681972123,41.68501929507795,5.125273691093135,19.753629994494467,43.78846996931517,8.201483275658884,0
386.0,6.4334620000000005,89.66780461120774,21.87808353896253,20.18506164610269,37.31806245012811,37.11181734436133,10.825972757273036,0
387.0,6.450129,100.62416127243353,9.387650705091405,30.57116072836936,53.04207267991865,37.17833911400106,15.05091029579394,0
388.0,6.466796,109.93162831512524,2.0168376982637595,36.51793553673889,67.16553314618292,39.75721278504538,18.71562542826059,0
389.0,6.483463,116.94358692776323,-3.313832064571597,38.47509824155448,80.00935463404049,40.09144314100176,19.160649129350773,0
390.0,6.50013,121.12153173829734,-8.53555981812397,36.90285140405575,91.1282951418475,35.58923485442141,16.997971427580357,0
391.0,6.516797,121.63701870279544,-13.97919348822794,33.259912461286405,98.62783682022788,26.564760299530533,16.13072432162717,0
392.0,6.533464,117.3726555209968,-18.581386678531658,29.204823523714925,100.293039852562,15.589281117602932,19.511272837504936,0
393.0,6.550131,108.45914593168352,-20.472386965056653,25.17434687865344,95.87546596773863,6.13953703553685,26.146116226808957,0
394.0,6.566798,97.14549555265492,-18.30721236324488,21.019034109193264,87.838836766735,0.992681852695704,32.81121968947882,0
395.0,6.583465,86.17962554101406,-12.42173567156015,17.1254946981928,79.5029287323345,1.0049785515917469,37.62502363421322,0
396.0,6.600132,76.66028689810516,-4.527268976894491,13.636139527896772,72.29076864845902,4.939854186696626,41.34000206145592,0
397.0,6.616799,67.97309554349806,3.395733953128043,9.472979502390858,64.76808629274068,10.29259002240693,45.55066821819151,0
398.0,6.633466,59.37283120773175,9.641182467482436,3.42801602870888,54.82139444872588,14.412262007395608,50.19204504870822,0
399.0,6.650133,51.07683862616065,13.07699034869358,-4.150364220903569,42.74880335691057,15.458743732943734,53.352140193045656,0
400.0,6.6668,43.8994710975201,13.92396858245085,-11.589464107154882,31.18588391549573,13.036939039589011,53.496859487116254,0
401.0,6.683467,37.835098800784166,14.02038824506591,-17.54697933381691,21.74211964582935,8.107313480020835,51.081552254423386,0
402.0,6.700134,31.05788199384886,15.425474182876377,-21.73961463796934,13.085051098578369,2.0261816763637994,47.81617889370179,0
403.0,6.716801,21.184059696166525,18.55784543176528,-24.25980099610741,3.1748910834907105,-4.408512276839495,45.11954601965566,0
404.0,6.733468,8.049456782194524,22.013686957679543,-25.085532640472625,-7.767928878696567,-10.911702595977232,43.57674682234688,0
405.0,6.750135,-5.773093243082472,23.93029887171729,-24.44033829775507,-17.73195221361317,-17.126794748220906,43.246379858035816,0
406.0,6.766802,-18.18531096162642,22.86435141333064,-23.00604623167431,-25.573947200862516,-22.750145408959632,43.87027444066902,0
407.0,6.783469,-30.27395333888178,17.69891143096074,-21.61784565132504,-31.81981052362063,-27.987805470186167,44.81839130665038,0
408.0,6.800136,-44.034435547965415,8.242604393529124,-20.895142258760323,-37.287649476770426,-32.796707008895815,45.30671224983238,0
409.0,6.816803,-57.642568394679785,-3.249751066216919,-20.605588031479016,-42.46471799224443,-35.637502331869456,44.99013447434577,0
410.0,6.83347,-65.61894838820942,-12.496741373094345,-19.048220447338405,-48.06584818924131,-34.37773801322221,44.1647654368248,0
411.0,6.850137,-65.34853356911104,-16.86087748639148,-14.030289064036708,-54.70982787781706,-28.930867417535413,43.342828998473294,0
412.0,6.866804,-61.42101857844172,-18.165059347649443,-5.219941260221471,-62.13820508914027,-21.85682539318711,43.110074632975525,0
413.0,6.883471,-61.12587127060607,-20.51715001945746,5.083392120109451,-69.78158726273838,-15.962478743558393,44.35120849631178,0
414.0,6.900138,-67.01748715092981,-25.748003148787717,14.095007692126623,-77.52480117678611,-12.193941103414751,47.67622298475567,0
415.0,6.916805,-75.93432574610834,-32.046340325910705,21.09186674710032,-85.11485447501992,-9.560554352540612,52.38025678128675,0
416.0,6.933472,-83.94246556619821,-36.32090584217524,27.46831107315238,-91.66613011083996,-5.7751625269987015,56.94440263992226,0
417.0,6.950139000000001,-90.15306967103594,-36.62353668011262,34.539380952831465,-96.51959921076715,1.6857096795158188,60.8757766906654,0
418.0,6.966806000000001,-96.12914813845497,-33.00035297105542,41.837190737729934,-99.76638858004824,13.65896424879622,64.97032681205539,0
419.0,6.983473000000001,-102.90670573524132,-27.671769505427736,47.938947207781496,-101.3012567027933,28.12393773032744,69.34973073332237,0
420.0,7.000140000000001,-109.0189885757857,-24.42791112319405,52.67228810649259,-100.47514404795793,41.29871180116214,72.49042889885891,0
421.0,7.016807000000001,-111.53841489722195,-26.39062007999924,57.58657196712785,-97.34061426406971,49.80642899372865,72.9663700461987,0
422.0,7.033474000000001,-108.9864297382299,-33.48561144267309,63.97733646294198,-92.74432749641583,52.035824581446974,71.23288441663198,0
423.0,7.050141000000001,-102.54945221065404,-42.453009468305325,71.33782855348747,-86.33711684712897,48.156529739839584,68.99579955463106,0
424.0,7.066808000000001,-94.23122637472288,-49.88135057448746,78.36123084840906,-76.27404325973224,39.28683294991497,67.47485769824081,0
425.0,7.083475000000001,-84.78911007354864,-55.1114017499412,84.79114223521209,-62.34000247204378,27.08156367262879,66.77795017840712,0
426.0,7.100142000000001,-74.27728473760007,-59.57425318179111,91.2559116449862,-48.138924697557215,14.442818381052083,66.39633580709925,0
427.0,7.116809000000001,-63.9149965389674,-63.28087739996943,97.33703255763888,-38.534567092764206,5.718275485735308,65.75320387696443,0
428.0,7.133476000000001,-56.00755798450996,-63.24425997178501,101.09503223504558,-35.01391885938127,4.56830625362393,64.5018349862858,0
429.0,7.150143000000001,-51.44771711092518,-56.64440676082407,101.2674311728196,-34.36988626869003,11.013388593958204,62.68508529395133,0
430.0,7.166810000000001,-47.79204272712519,-44.97048674290473,98.93051840283027,-32.181605741954726,20.961920895638293,60.75329801102463,0
431.0,7.183477000000001,-40.80971730395808,-33.33681857680835,96.08727800028647,-26.98437108785479,29.052997857172333,59.495311480671305,0
432.0,7.200144000000001,-28.8136198516422,-25.3724239851446,93.62897455286422,-20.28462366000221,32.343637574308474,59.77494149274701,0
433.0,7.216811000000001,-15.328531784120296,-20.149914920159247,91.63610038872235,-13.2734213139931,31.57868500434782,61.8920601924188,0
434.0,7.233478000000001,-6.340806724992281,-14.790038119704588,90.4701748278666,-5.3359646966637495,28.912877305610092,65.02777612386323,0
435.0,7.250145000000001,-4.341040436081148,-8.751189541175151,90.185707325955,4.24561698395501,24.7225821532775,67.73122529129142,0
436.0,7.266812000000001,-5.85828328258078,-4.248507185550234,89.56461322142724,14.96843573319391,17.600931246207413,69.3945969641307,0
437.0,7.283479000000001,-5.354646287929123,-2.890665469445982,87.03073107468964,25.84449968508947,7.549667579550716,70.93858680482118,0
438.0,7.300146000000001,-0.6221498789206383,-3.016580888800846,82.22654973464185,36.087796964334615,-2.17397935426428,73.55326865251806,0
439.0,7.316813000000001,6.292353976605904,-0.848103053752518,75.55500570291721,44.838353019688284,-7.147666911037844,77.18276483710426,0
440.0,7.333480000000001,12.494544831701,5.726866933383365,66.56799888853914,51.293469424147446,-5.36175024666246,80.92558426782517,0
441.0,7.350147000000001,17.163464293126996,14.78231910212707,54.518170749427455,55.57971157052753,1.2197787774462,84.49520578220762,0
442.0,7.366814000000001,20.92551941872628,21.984978060405176,40.68430476741976,59.088979112317695,8.166897844950418,88.19598023389288,0
443.0,7.383481000000001,23.564462017905985,24.344921716537986,28.38528335321117,63.49969984204415,11.831773266269511,91.40306909830736,0
444.0,7.400148000000001,23.670544123489208,22.178567662987785,19.793898302286983,69.2727565209258,11.747999290098722,92.1876793374688,0
445.0,7.416815000000001,20.553661163299203,18.12390167607952,13.74600071509838,75.09472877148136,10.127778982934366,89.10252352656723,0
446.0,7.433482000000001,15.303794644961448,15.124757859036684,7.548661430016425,78.9268111851549,9.056255327057173,82.89561145510444,0
447.0,7.450149000000001,9.230149286050867,14.92670711066554,0.2980276244307047,79.8756830247711,8.295042617973525,75.98236056518176,0
448.0,7.466816000000001,2.011649522405098,17.10139977029312,-6.64783835966554,79.13156986501346,5.800634266310066,70.35260824355258,0
449.0,7.483483,-7.635019352817997,19.046300935464156,-12.127489062402088,78.86235327225413,0.1002229977424109,66.15557169251971,0
450.0,7.50015,-19.890401831521928,17.9565480296028,-16.409281115267525,80.19924084560859,-8.03724518388088,61.948210499314726,0
451.0,7.516817,-33.450905499306835,13.577590811393126,-19.432098760273053,82.660149567031,-16.087549912835733,55.72079722171729,0
452.0,7.533484,-47.05866052659733,8.502758143341946,-19.61443473125196,85.50595391000229,-21.53674859752297,45.79615623662093,0
453.0,7.550151,-60.487162370568846,5.2164840281627685,-15.816073380341823,89.00872490759575,-23.102510338874307,31.74222827222176,0
454.0,7.566818,-73.75919158609335,3.3349467194544125,-9.294060209030103,94.01655348287213,-20.765849071632196,15.104352659224698,0
455.0,7.583485,-86.00209393765716,0.4344269727771053,-2.2920106898190893,100.59099895591363,-15.293581980782925,-1.2041808678215653,0
456.0,7.600152,-95.70394040908288,-4.700249691599389,4.648773773299596,107.4047156858148,-7.724657461188793,-14.864286520729394,0
457.0,7.616819,-102.17307933020484,-10.511902193120273,12.956721203113345,112.48334940253405,1.1771134772484513,-25.368891724288524,0
458.0,7.633486,-106.39944530404335,-14.458960284263458,23.971403922239144,114.49604959024995,11.006751774909734,-33.12555106687606,0
459.0,7.650153,-110.15443151496086,-15.629562079639856,37.18506572881302,113.2133103231491,21.030683595570743,-38.1297934609056,0
460.0,7.66682,-114.20159823453352,-15.230183537755924,50.4470102551549,108.721423526363,29.795257995125336,-40.40682109417697,0
461.0,7.683487,-117.60344340077911,-15.07931599399924,61.806458756817776,100.8097533766304,36.00908458561468,-41.1736600021966,0
462.0,7.700154,-118.77914240061236,-16.217784676146675,71.15945224045893,89.69192304695875,39.6495621633364,-42.22966585744762,0
463.0,7.716821,-116.79133957128356,-18.899686308079943,79.9850598843883,76.85541302295536,41.62973496190376,-44.27134235082335,0
464.0,7.733488,-111.49863657428372,-23.422404574845903,89.55610559189849,64.43521833671934,42.34943355481299,-46.8125891750062,0
465.0,7.750155,-103.06568570037324,-30.34291096716559,99.65434480735352,53.82881453301073,40.989846870317706,-49.5090456671503,0
466.0,7.766822,-92.01933611000264,-39.59818472642041,108.8384826361738,45.15514536600087,36.525417901883,-52.59552795039306,0
467.0,7.783489,-79.95054571141269,-49.74164060494614,115.51331470376084,37.61010642550287,29.492868795339547,-56.22799227035117,0
468.0,7.800156,-69.49588428964535,-58.27263022000236,118.79691782511064,30.040559542721887,22.528061322599747,-60.09031738215177,0
469.0,7.816823,-62.643547360299394,-62.53190355553361,118.7938457575206,21.62185152566698,18.64980847655694,-63.4676934684542,0
470.0,7.83349,-58.9665045226381,-60.5189836067693,116.3278799264386,12.351465100084454,18.89285812176627,-65.36099947619272,0
471.0,7.850157,-56.26687510167972,-51.67563591828524,112.33081397975486,2.7390752532207308,22.00191266104678,-64.96550067830903,0
472.0,7.866824,-52.98268460618041,-37.40807373555678,107.0116395976924,-7.044219374799116,26.14303688859343,-62.544854656353685,0
473.0,7.883491,-49.30788535531761,-20.780422256099,99.48134478577074,-17.550001325101054,30.040523828088578,-59.5722044409596,0
474.0,7.900158,-46.08604842647912,-5.448863334265231,88.86770622442911,-29.54693467091007,32.65713880545694,-57.39635038929276,0
475.0,7.916825,-43.19605684702245,5.542989554418669,76.04129590136618,-43.10001710167849,32.756610564124735,-55.60385846859414,0
476.0,7.933492,-39.122507078805256,10.53760815450195,63.29972312593936,-57.241340294343615,29.05314110091788,-52.15987654415707,0
477.0,7.950159,-32.246871334391685,9.402283801408142,51.73123632589088,-70.97974585917368,20.870844228575734,-45.6067354425936,0
478.0,7.966826,-22.773421139162974,3.5238357715699853,39.63224187124611,-84.64795562469436,9.219269960967482,-36.80706208193368,0
479.0,7.983493,-12.901641104728135,-4.013126479698856,24.327488218268314,-99.36199195749596,-2.803296284281326,-27.92296001482127,0
480.0,8.000160000000001,-4.423370745920621,-9.179242767645,5.1538332981993245,-114.7890072697574,-11.629765145785358,-19.96825257836013,0
481.0,8.016827000000001,3.615934847672956,-9.495884086648866,-15.984364589688486,-128.59857816197854,-15.946465411208507,-12.273412894555914,0
482.0,8.033494000000001,13.973983357178504,-6.090506143616954,-36.60965400109842,-138.8016141177959,-17.762928925352078,-4.358823444886074,0
483.0,8.050161000000001,27.70349207003862,-2.4924335782338787,-55.562825260665065,-145.5683548036484,-20.647514417071772,2.6722596891522823,0
484.0,8.066828000000001,42.38216669862894,-1.2136902085232246,-73.21071906573924,-150.1282361005252,-26.87485378564501,6.97882798094658,0
485.0,8.083495000000001,54.40035973796678,-1.787998751420528,-90.48038606999816,-152.87138364639142,-36.0335602781897,7.636527177538458,0
486.0,8.100162000000001,62.41341534074145,-1.7897584541357818,-107.75571681729024,-153.18833558729068,-45.9903508206251,5.25521863619247,0
487.0,8.116829000000001,67.85653073135626,0.8550008543665908,-124.3994684541285,-150.66058716174214,-54.74724240489519,1.3858698995883307,0
488.0,8.133496000000001,72.58232960462163,6.635620514919949,-139.2562687403098,-146.00264440994283,-61.09778205089897,-2.606995439790143,0
489.0,8.150163000000001,76.94199407755234,14.93737007326138,-151.72358307792246,-140.85566761251724,-64.13213980329968,-6.534737505625154,0
490.0,8.166830000000001,80.11991277625455,24.78526373585903,-162.32601379249212,-136.3610971434846,-63.29203409943817,-11.423412589428208,0
491.0,8.183497000000001,81.4738751943149,34.670821833652134,-172.0232187020739,-131.6805938130524,-59.10578028294469,-18.311876612360603,0
492.0,8.200164000000001,81.10933510427648,42.44598794435652,-180.94642663555976,-124.42389842802297,-53.10454575296386,-27.010602777223017,0
493.0,8.216831,79.66323291437209,46.420526934493154,-188.3563513708682,-113.07365563262336,-46.794022840996064,-36.29083778002492,0
494.0,8.233498,78.14496300411824,46.591592744587054,-194.09702662108575,-98.73244197582056,-41.10445642503305,-45.11825737694653,0
495.0,8.250165,77.50183938128544,44.36533364612028,-199.16710274551608,-84.10035857306424,-36.5864419827898,-53.111865350137926,0
496.0,8.266832,77.49154283639056,41.093876014642575,-203.97528948910264,-70.92888217827168,-33.28417337262199,-59.68068268128878,0
497.0,8.283499,76.47742475058378,37.17711176617211,-206.80111425396743,-58.73376841824228,-30.297201281914624,-63.57732919424807,0
498.0,8.300166,73.31852938448493,32.65616794380679,-205.3259850550997,-45.84431107212632,-26.17068443261917,-64.0629095256337,0
499.0,8.316833,69.09945124445122,28.252771224806004,-199.59594047212897,-31.42552725869745,-20.039606321873546,-61.9910927937092,0
500.0,8.3335,66.12763390967032,25.101597319871107,-192.42292414381373,-16.185148799511726,-12.179656476521194,-58.93013532546676,0
501.0,8.350167,65.43455267465235,23.363062321244183,-186.5614694804548,-1.1208100707866375,-3.633131237277225,-55.588652503599846,0
502.0,8.366834,65.94445629590106,21.980046933632167,-181.99696971098973,13.60635522578319,4.223512368468203,-51.8747193973239,0
503.0,8.383501,65.97041381826809,20.350532342529,-176.37915326598394,27.98974675239841,10.01215434805668,-48.23288566093743,0
504.0,8.400168,64.81605331394887,19.48263454947296,-167.87864416432726,41.39233517202706,13.092518171723462,-46.10954380615155,0
505.0,8.416835,62.71045010676898,20.79033152095516,-157.0445244276009,53.598664556288,14.33077317828182,-46.84491708203719,0
506.0,8.433502,59.687168138595936,24.37648854279304,-145.73974611684406,65.74850852916367,15.750437548345696,-50.29152188366879,0
507.0,8.450169,55.10564783123208,29.16676504092808,-134.83406525912358,78.72333768103819,18.786230923010983,-54.71866638978511,0
508.0,8.466836,48.52910030789057,34.21990144314934,-123.45252074055756,91.14847173842917,22.629294973726815,-58.23221923949801,0
509.0,8.483503,40.95394777244396,39.36097452154992,-110.36483247708104,100.21644829509424,24.597050674002457,-60.29255047527696,0
510.0,8.50017,34.599315750483086,44.84957085516136,-95.73215103075,103.9688499327168,22.545421797204927,-61.658846091384135,0
511.0,8.516837,30.820360231715657,50.715797738610405,-81.22310732225509,102.02452022318612,17.022150972815208,-62.81343222301335,0
512.0,8.533504,28.37086171296724,56.17755803848227,-68.28345778762612,95.13039908908698,10.857616194894003,-62.85069452001163,0
513.0,8.550171,24.51363222499987,59.4825049179636,-56.59034759961277,85.19170389145334,6.394869552513718,-60.3973527917682,0
514.0,8.566838,17.921520993897794,58.46706413733,-44.786372919685135,75.04431905338575,3.2187888232831097,-55.51778973614638,0
515.0,8.583505,9.845163648292443,51.92129577651805,-32.50940083057722,66.78052946216233,-0.8440355122413115,-50.136815631145616,0
516.0,8.600172,2.547801927550627,41.11932237452363,-20.870983077905983,60.0941961727556,-6.304775008450232,-46.36901168255966,0
517.0,8.616839,-2.677224471475736,29.69732203256716,-11.212592103463626,52.97247552722506,-10.40234606851596,-44.80555704787034,0
518.0,8.633506,-6.167891751167477,21.050654666389637,-4.345256899842441,44.3196727485235,-9.53517354905802,-44.63712883278734,0
519.0,8.650173,-9.336889198588796,15.87832210620634,-0.5498176107939632,35.684714714910044,-2.3782723721110317,-45.00086955367487,0
520.0,8.66684,-13.203999284156364,12.894790192685823,0.8655057524015526,30.38559827290411,10.58603000895888,-45.69756025029989,0
521.0,8.683507,-17.079106755150384,11.255897187095918,1.7365717376479253,31.065619115960537,29.81488231584853,-46.699926079067865,0
522.0,8.700174,-19.43495030669077,11.096736830799436,3.838829050570949,37.526605528071705,56.96054139407496,-47.38484028992292,0
523.0,8.716841,-20.5451436315901,12.482240850818664,7.594652043436985,45.93875301087482,91.80655548959618,-46.3003311732614,0
524.0,8.733508,-23.27498952530945,15.649272828681484,12.165962603605111,50.25052596581177,129.85910416299072,-41.60652522100382,0
525.0,8.750175,-30.435422838109112,21.82440750229164,16.232435607488952,45.72624892599143,163.22936719016616,-32.22549091369471,0
526.0,8.766842,-41.67491676289221,31.628822227545484,18.429113602952963,32.12672389803464,183.3839243394605,-19.31114030283795,0
527.0,8.783509,-53.18933650700701,42.26742113214274,17.66832053988346,13.49473358077345,183.5662129072175,-6.690221138169761,0
528.0,8.800176,-60.1837410156228,47.87545052428524,13.567463665575914,-5.161197386182248,160.43954575439705,0.923777529447741,0
529.0,8.816843,-59.93081229648013,43.773218212600526,6.48790328005242,-20.97965276773147,115.26313664390608,1.0100792905087443,0
530.0,8.83351,-53.37752917902618,30.459446853431984,-2.9657359284233458,-33.92476964408669,54.13458358704602,-5.206575854890039,0
531.0,8.850177,-44.21360724954082,13.28684154910307,-14.090352238649416,-45.54625662209308,-13.634719422447525,-14.194236140373928,0
532.0,8.866844,-36.17958939556278,-1.9317401507751155,-25.13650636968311,-57.26025967114987,-78.74909449332087,-22.7227345760682,0
533.0,8.883511,-31.01986487434237,-13.099643556544429,-32.68510808585668,-69.1212661683737,-134.82959588326955,-28.9502595318911,0
534.0,8.900178,-28.583487647153447,-21.69036891156658,-33.77026076029127,-79.8165273465832,-179.23851390695484,-31.771729009226124,0
535.0,8.916845,-28.22170917388653,-29.03711297565844,-29.355561010382655,-88.12168853601273,-212.05102189745264,-30.241076030707305,0
536.0,8.933512,-29.812398073972524,-34.093935496046385,-24.002114997986872,-94.5240722808048,-234.7630290657581,-23.751684803498947,0
537.0,8.950179,-33.61369182151195,-35.41862663792509,-21.11730081821502,-100.96747843667758,-249.6467127324124,-12.127646428178718,0
538.0,8.966846,-39.30253659617987,-33.981743574776246,-19.97628083220676,-108.7323306296106,-259.1824429892004,4.404460822923016,0
539.0,8.983513,-45.32673754798736,-32.3386038674299,-17.70491654350152,-117.14477458930608,-264.9336059069905,24.72283095339948,0
540.0,9.00018,-49.530176545273136,-31.274828656498315,-12.18100440506473,-124.9208509661274,-266.5967943756272,46.61967158419244,0
541.0,9.016847,-50.68490754903922,-28.90045054922704,-2.627100011571232,-132.18903687380438,-262.454012976303,68.18201533635289,0
542.0,9.033514,-49.282451878324494,-23.70673573670358,10.48166949217694,-140.02888638742448,-251.1307300975156,89.57110710113417,0
543.0,9.050181,-46.56222060636952,-17.376168019886872,24.90217018843511,-147.97382691524504,-233.11019357159225,112.61231613600845,0
544.0,9.066848,-42.93722986438212,-13.36071674106314,37.1254045975382,-153.44624154165774,-210.55087869505687,138.26137203205252,0
545.0,9.083515,-37.79263583333949,-13.115194260782085,44.75601956105123,-154.61500686930196,-185.58997900613517,164.93970981639933,0
546.0,9.100182,-30.842382744091424,-15.03584976059102,48.22726341097588,-152.70610655669546,-158.89683745233563,189.20851967329511,0
547.0,9.116849,-23.20810190163975,-17.026730349484453,49.33889760505667,-150.27802753651105,-129.86213467286407,207.28904562848376,0
548.0,9.133516,-16.670941472387547,-18.454923431718093,48.84148490551168,-147.92792567902848,-97.78696918284692,216.64259955901943,0
549.0,9.150183,-11.68970606349492,-19.048668300938505,47.14959486831157,-143.55350434600243,-62.51675708374003,217.99492934607667,0
550.0,9.16685,-6.461350980043699,-17.71685928098531,46.90060028384772,-134.12389795314257,-24.50476009220945,215.66897652266587,0
551.0,9.183517,1.3058558647129963,-14.013236810868868,52.2322323415951,-117.69409861919766,14.45488765266242,213.77256645000236,0
552.0,9.200184,11.455918976859907,-9.714202662781528,64.59574009349555,-94.64032162028576,50.41682466613758,211.75265875094328,0
553.0,9.216851,21.098406997500355,-7.236131732525315,80.50502804211231,-67.47318598387659,78.76330464595185,205.35731270516783,0
554.0,9.233518,27.725698849641024,-6.834928448116365,94.0935434418692,-38.92907294289089,97.6068027058485,191.78744758899188,0
555.0,9.250185,31.75293442623498,-6.620089958083403,101.52929514832437,-10.110480575892218,109.13661577982184,172.072548687045,0
556.0,9.266852,35.44312127079586,-4.937781809856132,102.98431169468932,19.297209969670888,117.130452032678,148.7628653488299,0
557.0,9.283519,40.178989689393525,-1.3772698676370705,101.04655236351726,49.46540690210786,124.0199608407062,123.573729536231,0
558.0,9.300186,45.382666393122776,4.362292935039644,98.0192684529463,79.73118055820407,130.54205675112095,97.59681692307984,0
559.0,9.316853,49.24914779066707,12.784554488289588,94.9493758718651,109.13561686004547,136.44868693687806,71.7503506128044,0
560.0,9.33352,49.81033405954359,22.824873618059865,92.32763474548985,136.72221364245905,140.34249877915036,45.92312026073312,0
561.0,9.350187,46.22206468021936,30.809017650274026,90.26672102283804,161.16223207512854,139.81480487705812,18.86524994422035,0
562.0,9.366854,40.27715156827503,32.56344029780384,87.58488129323811,180.8563150274844,132.90588344679284,-10.135669329006298,0
563.0,9.383521,36.22379166939519,26.744417539763084,81.63816701062345,194.95951016335584,119.46433994765586,-40.35749781925119,0
564.0,9.400188,37.63553175636957,15.707946085166611,70.04383523363417,204.29129234172055,101.10576934023123,-70.79555511281526,0
565.0,9.416855,44.29692194890946,3.389737784107126,52.90456542254695,211.0971517173485,80.26492544352736,-100.85679900400623,0
566.0,9.433522,53.04811720103498,-6.991358074148906,33.247892718592,217.71174185026908,59.40923824433713,-129.4711540002098,0
567.0,9.450189,61.0606699551724,-13.441569024532296,15.467632070430946,225.05244605199795,40.76260808490062,-154.9034271965092,0
568.0,9.466856,66.77454265237765,-14.979363706747566,3.823885800633452,231.9543595174381,26.074072872411435,-176.00174544930195,0
569.0,9.483523,68.79193274082283,-12.0481067539568,0.9469773618392692,235.82121902294128,16.071908810670404,-192.67340147866983,0
570.0,9.50019,66.94867919014479,-6.527275911082781,4.192547749277333,234.3809393605917,10.18719000703675,-204.91076876790456,0
571.0,9.516857,64.33709057294371,-0.2540169768427612,3.601739380367152,227.48058972072764,7.14675402542464,-212.18163294282127,0
572.0,9.533524,64.83583682186416,6.256455096120797,-11.157062323753149,217.30937086279877,5.902327180118244,-213.88880973553117,0
573.0,9.550191,67.70796433722137,12.88723296830337,-39.3726034675468,206.66054448207848,6.124122206747648,-209.80108923017048,0
574.0,9.566858,67.04257313694242,18.196436903024104,-68.37874456932087,197.12008569156544,8.210604458933997,-200.06570122420823,0
575.0,9.583525,57.315533200517415,19.7964640198492,-85.77222840049498,188.811646862609,12.984670553219573,-185.4277201586029,0
576.0,9.600192,38.20225736254089,16.519694036050204,-89.42540705404758,180.8281170807182,21.054481018835485,-167.52617722766308,0
577.0,9.616859000000002,14.373869922265117,9.37284077498698,-84.64893643285039,171.56988372077436,31.936803991778877,-148.42148881434116,0
578.0,9.633526000000002,-7.563647570420034,0.2960782805605902,-76.15655318788933,159.89337933894006,43.53713273575252,-129.41885468563996,0
579.0,9.650193000000002,-22.07259710315025,-9.302120468947004,-66.14754833209834,146.41869470174717,52.99596469247476,-110.42701188591133,0
580.0,9.666860000000002,-26.81782356676888,-18.66426449566381,-57.41787222095815,132.71566091670385,58.86108005493401,-90.7523236635759,0
581.0,9.683527000000002,-23.49613506452784,-27.13382527775708,-53.8598217572747,119.09459932873344,62.2424750408494,-70.5131847084155,0
582.0,9.700194000000002,-17.010050595617503,-34.29001909571831,-57.344486165808014,104.3595825913756,64.87325932873742,-50.860177345766914,0
583.0,9.716861000000002,-13.207777389191456,-40.61325236953644,-65.84933991511836,87.88195463314938,66.11977406752096,-32.73796739246555,0
584.0,9.733528000000002,-15.721603382038865,-47.05155440692026,-74.85075934451882,70.76322400805468,63.170687170266106,-16.00265810001904,0
585.0,9.750195,-23.55774298721277,-53.047345282523445,-79.81446551408435,54.57798920514491,54.602136745810654,0.0168596117457575,0
586.0,9.766862,-31.88391576186144,-55.34467903849618,-77.64025980067086,39.86289867190652,42.96798232191772,15.674579738750772,0
587.0,9.783529,-36.13043254322223,-49.80358851409671,-66.92713900428845,26.298759920686905,33.54524457140017,31.13693638433407,0
588.0,9.800196,-35.98786280095458,-34.97421365336611,-48.32911764154476,13.607353599353964,30.71732384674803,46.92594475124106,0
589.0,9.816863,-35.55962835965507,-13.76935024595112,-24.982086967961784,1.5327659803108866,35.26587059871461,63.75609898339726,0
590.0,9.83353,-39.43577770715545,8.669380961475847,-0.7926222887926717,-10.718394053382788,44.73275776207137,81.70539155867685,0
591.0,9.850197,-48.36404831906705,28.582391272096576,23.078883044185268,-24.287117060829623,56.04707950871881,99.66503831767515,0
592.0,9.866864,-58.55583017116538,44.5779183628066,48.75471122494334,-39.6796536150629,67.06553405352032,115.84664889523694,0
593.0,9.883531,-64.97367860187936,55.544898643234944,77.06537241425801,-56.083460933314726,75.43157685787644,128.9088133492205,0
594.0,9.900198,-65.3085496425392,59.46745804754784,103.33605981225634,-71.89390536119758,77.48951397966924,138.14877776803058,0
595.0,9.916865,-61.36577449449676,55.183824712758216,120.02897612119988,-86.11333373484032,70.04371327416749,142.55787999661203,0
596.0,9.933532,-56.992482547575605,44.01083290619073,124.56664506360416,-99.06618134752183,53.15072774285727,140.7278278663673,0
597.0,9.950199,-54.284519872724765,28.73848040328772,123.36167868379512,-111.51877604370732,30.247498033271192,132.35806712599356,0
598.0,9.966866,-51.56876171890539,11.868838109605454,126.58241881172285,-123.34526240915622,5.525903267577571,119.28991991158742,0
599.0,9.983533,-45.31972915590114,-5.048396832856279,139.19898806924903,-133.3981315575789,-18.199344924732703,104.58302548008248,0
600.0,10.0002,-33.99322997922004,-21.728373841081744,157.99107496029035,-140.54503964187242,-39.26764312997771,90.70498541455696,0
601.0,10.016867,-19.75877153674768,-39.083026859283805,176.14356823683676,-144.56311331385805,-56.07608678571235,78.3965083330542,0
602.0,10.033534,-6.625410266650708,-57.45409347670238,189.0510439173176,-145.9547912358392,-67.1766654646414,66.9184028027017,0
603.0,10.050201,2.98841641611958,-74.54466617067432,196.418037944914,-144.95782110331902,-72.28828253354511,55.48935800212813,0
604.0,10.066868,10.20505181467665,-86.53664910740076,200.811906419478,-141.13851540266663,-72.29847837860254,44.42899882930267,0
605.0,10.083535,18.559351655635677,-91.85693221179002,205.01381640388163,-134.20394880039254,-67.82074883546206,34.67404997702981,0
606.0,10.100202,30.46903903699656,-92.7201144770038,210.47088599121585,-124.52477579403975,-58.421640957398495,26.717310850995062,0
607.0,10.116869,44.45181125415742,-92.587233577157,217.61618182829216,-112.36615831417814,-43.90003997833799,20.690425694611765,0
608.0,10.133536,56.31157338801543,-93.19776986071288,226.5063669856154,-97.5646511217382,-25.5094234917089,16.839270812547163,0
609.0,10.150203,63.22192034100303,-94.20257039656364,236.359453633088,-80.71865420139903,-4.661561241757101,14.686049640172405,0
610.0,10.16687,65.96594606086359,-94.43576719000536,244.987532355385,-63.647453193302965,18.959018334831253,11.830721574730148,0
611.0,10.183537,66.92317376222894,-93.37894776401824,249.54285590798415,-47.6622991069412,45.97702027079295,4.937510417066728,0
612.0,10.200204,66.41394840849443,-92.51081560284882,248.15213909976,-32.124801306804066,73.74327036263648,-7.316223185530069,0
613.0,10.216871,61.6383578783708,-95.19705850879592,240.9886923191717,-15.63034026800156,96.13412945444672,-22.814117091287603,0
614.0,10.233538,49.747866303444255,-103.65598474672916,230.1573878006296,1.7622528419145014,108.08021468612938,-38.15731124220575,0
615.0,10.250205,32.03653506162763,-115.354296400224,218.8283722222533,18.162796670349664,109.25544523312236,-51.86784440125536,0
616.0,10.266872,13.964340091440253,-124.06000526768852,209.6645952760981,31.504279734743,102.37727927261484,-65.02656283071877,0
617.0,10.283539,-0.1742609377325001,-126.36620220519887,202.6940533987216,40.77416785036954,88.91666213073793,-79.4502623279091,0
618.0,10.300206,-11.753338431845494,-126.44198427222452,195.0749890288497,45.594827881434384,67.89000223159431,-95.90565513148454,0
619.0,10.316873,-25.26293404419782,-131.69503226929362,184.5799050281313,45.92350523790863,38.73168772865205,-113.59309637144104,0
620.0,10.33354,-42.057117923969166,-142.9570496589116,172.57717140908693,43.127575327881246,4.41932946127587,-130.7350630354449,0
621.0,10.350207,-59.125334538956665,-150.74173052548656,161.0895108637637,40.3583903200049,-28.30411904544573,-145.61205700632587,0
622.0,10.366874,-73.69954336791855,-141.78581091993243,147.88040378510672,40.40028562927312,-50.78558547820072,-156.8502544656723,0
623.0,10.383541,-86.01225073490664,-108.10712103718971,128.15251403700873,43.34621766388765,-54.57896218095115,-162.5381660416935,0
624.0,10.400208,-96.80433915302083,-51.61841120171856,100.9306062401383,47.23774517292741,-35.28452392297558,-159.80690351001414,0
625.0,10.416875,-104.77445761278226,14.975066614762277,70.47947220965763,50.43063010504699,1.0804792229392746,-146.4918525808652,0
626.0,10.433542,-108.01492989540978,71.85476724007543,41.45299078509723,52.372742300897066,36.52003714770308,-123.66155796509958,0
627.0,10.450209,-106.53096251113848,103.5316600350489,15.10233062924437,52.843456349027576,52.0871855239408,-96.07870743661616,0
628.0,10.466876,-102.17853877703784,110.27857158230066,-9.904097061297328,51.71550008284828,43.11630083867207,-69.73603818532649,0
629.0,10.483543,-96.76572231567336,106.06972854962504,-35.168888692393786,49.02136066381773,21.386151981520243,-48.83724308663813,0
630.0,10.50021,-90.73992526040809,105.28943324907765,-61.90361510429615,44.54094480355234,2.7312736626177685,-34.661514479463655,0
631.0,10.516877,-83.55313102289361,113.42541151021332,-91.51228842247866,38.11573770806548,-4.952255651550359,-26.07314299657905,0
632.0,10.533544,-75.22398305912697,127.91104644524653,-125.12555164292218,30.92196660135893,-3.465635282483704,-20.321646529413243,0
633.0,10.550211,-67.0257259217729,143.03369056311675,-161.59384257804484,25.583017018311416,0.9831626031978816,-14.156693302703014,0
634.0,10.566878,-59.79299714777806,153.52048128797395,-196.8924140628156,24.30266648222473,3.3308831300502706,-5.671175304198012,0
635.0,10.583545,-52.00487423103642,156.28723789328092,-226.61463566782368,26.85731100931112,2.036707953172069,4.380483205286051,0
636.0,10.600212,-40.95878277578311,150.7622622194027,-248.64954346775016,30.480838921837712,-1.8618557629887345,13.498242735280863,0
637.0,10.616879,-25.94465854304784,138.03269545087426,-263.788141728274,32.04684428947749,-6.929350045949175,19.971556405174063,0
638.0,10.633546,-9.12985788818622,119.68375970126333,-275.3603292278905,30.7724282773139,-12.349608270548998,24.40129765451277,0
639.0,10.650213,6.911623232158036,97.25481667924704,-287.7120704989518,28.597245513966676,-17.508863678294183,28.75149591500433,0
640.0,10.66688,21.73384046392759,72.59083954298791,-302.4339731266808,27.67603268882665,-21.28912126699368,34.30390386501738,0
641.0,10.683547,36.7171683179985,48.414429288715695,-315.90558610073094,27.98524920974124,-22.02685689739473,40.55044934095406,0
642.0,10.700214,52.75908046451138,28.03321668603904,-322.8567359247055,27.711936119491742,-18.61503365192082,45.23454491898053,0
643.0,10.716881,69.045689322346,14.049523788054282,-322.41434568475955,25.33490521376424,-12.01293945083814,45.15065587279315,0
644.0,10.733548,84.21464741691574,6.972775367183644,-318.35566941590264,20.804910321559944,-5.402140752391162,38.03754543913017,0
645.0,10.750215,97.8150483371183,4.472864578327161,-313.5217172467551,15.149575977794868,-2.527932059098232,24.51762066022801,0
646.0,10.766882,109.7111402750768,1.8084679820968856,-306.5821344031818,9.405079686913885,-5.767347981202491,7.650933640220353,0
647.0,10.783549,118.475688120669,-5.857148606107294,-294.95467411622354,3.8280948528399295,-15.126350625699516,-9.427531512761515,0
648.0,10.800216,121.7232738084398,-19.92808696996285,-278.68976416597496,-1.84994106837372,-28.17059418292723,-24.44466977541537,0
649.0,10.816883,118.48653803493164,-36.597502553945375,-260.02088793485524,-7.356170338786552,-40.83311918461334,-35.02438946002378,0
650.0,10.83355,110.17367114863632,-49.0272321571375,-240.6109170703101,-11.708265859432258,-48.71865175213942,-38.66254608689036,0
651.0,10.850217,98.59626618613407,-51.704059952634175,-221.08228649626528,-14.666267690473145,-48.03157159049374,-34.30263306686983,0
652.0,10.866884,84.70880431256816,-43.05637406561027,-202.3459825748965,-17.67690651416072,-36.229908562128266,-23.282116247713624,0
653.0,10.883551,70.68393375792277,-24.94994380884515,-185.4303271009341,-22.288578326409365,-13.350897082937928,-8.292854184118017,0
654.0,10.900218,61.061498745822064,-1.114288788016763,-170.18022933523562,-27.7184766310601,16.49653294394604,8.767132791527096,0
655.0,10.916885,58.78309568037758,23.79979528510327,-155.419491260251,-31.170597436368503,45.76239159158349,27.66562943561359,0
656.0,10.933552,61.07231393575547,45.266251608298674,-140.3130748053936,-31.09601506214497,67.08025027757708,47.89222530266658,0
657.0,10.950219,62.018086447358215,60.49149721906129,-124.83518587175143,-29.28179279246683,77.08023329374872,66.3113649372256,0
658.0,10.966886,58.63318053977287,69.14660811392876,-109.06746521122696,-28.99399964341873,76.97860105195117,78.32692708145262,0
659.0,10.983553,52.358173695952296,72.57631730043994,-92.85395369687645,-31.513682340394816,70.292026947543,81.6311124542625,0
660.0,11.00022,45.66531080670721,72.8982249352024,-76.45889263291684,-34.999396752747494,60.657023605324,77.662899917395,0
661.0,11.016887,39.39692940900052,72.74218940129997,-60.59478293256876,-36.33196112815239,50.89014338493175,69.33342688115421,0
662.0,11.033554,32.9674727221637,74.54572780551132,-44.8673994768688,-33.56413065216786,42.19436130336023,58.451577018510605,0
663.0,11.050221,25.58479126206807,79.04368206802557,-27.138912916510925,-26.97224957708645,33.636066952444416,45.45880693170408,0
664.0,11.066888,17.29179358370495,84.42995687410148,-5.654127743173246,-18.559640766024017,23.29966487343207,30.4668370066028,0
665.0,11.083555,9.176895055248108,87.35101676282943,18.617139625133483,-10.59491315584609,10.373306120123967,13.628066977680946,0
666.0,11.100222,2.061394314033591,85.1809336640451,42.1705042698966,-3.998106010850768,-4.294947345736429,-5.3396952318748,0
667.0,11.116889,-4.746656959924809,77.98556176891704,60.89979120537727,1.9038199390532893,-19.268549377472585,-27.068423863755868,0
668.0,11.133556,-12.220109416170295,68.53897591556328,71.90733768437248,7.668564578787333,-33.157953255259315,-51.276323899501904,0
669.0,11.150223,-19.511269987147838,60.18502984364338,74.61638874802073,12.354409539770684,-44.52133665889344,-75.72848132781449,0
670.0,11.16689,-24.866172032177825,54.763913370857445,70.87348660881028,14.635672178055229,-52.29594452363267,-96.9344732696584,0
671.0,11.183557,-28.594675951737635,52.60970328736961,63.711433178821935,14.66784267322685,-56.39597652318608,-112.08439799669291,0
672.0,11.200224,-33.005633079442575,53.1834245902997,55.79581811014967,13.856922944189405,-57.352383684417646,-120.42979889109338,0
673.0,11.216891,-38.845029397028206,54.472326808305496,49.23049860851648,13.258041574456538,-55.78092201120367,-122.96260670822856,0
674.0,11.233558,-43.76613146080276,52.91199241036697,46.44231908864517,13.114640479520984,-52.72259064247165,-120.90810133992552,0
675.0,11.250225,-45.416267566356815,45.57419450296506,49.77137664292414,13.5548788683301,-49.8616833257857,-114.90335736159123,0
676.0,11.266892,-44.67531477697252,32.31886742591324,59.059331036625785,14.688596385299654,-48.56383689877384,-105.97720334961168,0
677.0,11.283559,-44.55345158392523,15.344313635000516,70.4064077209907,15.999691743625457,-48.775393185252,-96.62771755293664,0
678.0,11.300226,-46.51107444494896,-2.7805417687548224,78.78843988512426,16.58947635203915,-49.37417878317197,-89.62965332033438,0
679.0,11.316893,-48.97123814914601,-20.504940169970745,82.01081450806724,16.398617399006394,-49.73854200302361,-85.72303067379916,0
680.0,11.33356,-49.40948049304026,-37.6654298880655,81.65598126826421,16.310458348311858,-50.58192606714766,-83.41720854072716,0
681.0,11.350227,-47.15036593170386,-54.774527644927296,80.68614293364148,16.485226399744683,-52.76144697725053,-81.03570446697105,0
682.0,11.366894,-43.81351636046779,-71.59075229067761,80.5707372515987,15.64064695470394,-55.493287650889286,-78.18404368179665,0
683.0,11.383561,-41.42440192464805,-86.8139376961372,80.25015686198414,12.785642200309503,-56.47344330996559,-75.36407015939977,0
684.0,11.400228,-40.51066926955178,-99.68120051456302,77.46536220567599,8.569584009337166,-53.86656595798751,-72.89377948576268,0
685.0,11.416895,-39.806718248709096,-110.85353150469416,71.08114349288869,3.953041609746799,-47.74338990819403,-70.37933201712978,0
686.0,11.433562,-37.50786262900363,-120.29361361119166,62.007341447492536,-1.3267138242011387,-39.72942810666905,-67.01528452718773,0
687.0,11.450229,-33.27842007185187,-124.59315546993678,52.063496887144666,-7.794032483378501,-31.58585652490499,-62.33994932827108,0
688.0,11.466896,-29.218937288763883,-117.82001494178677,42.6076345115708,-14.904303703096282,-23.09267428575667,-56.95412896739969,0
689.0,11.483563,-27.989204503957737,-95.48291099483788,34.20314865398188,-22.05469205851739,-10.182115533578653,-52.54450080419391,0
690.0,11.50023,-29.891653179624285,-57.85585728662919,26.534708839462787,-29.59607783227856,13.009386901823763,-50.27617357642664,0
691.0,11.516897,-32.85525341769632,-10.754325794255132,18.0469921866739,-37.06216038285211,47.05518356174935,-48.20502526939179,0
692.0,11.533564,-34.73253430807462,36.03997063904751,6.408410751965942,-42.002660499394594,82.99587530231315,-41.100347932411,0
693.0,11.550231,-33.87339553874151,72.52495128257316,-9.767565443482656,-43.21278379882274,108.85724735939075,-24.599190991064983,0
694.0,11.566898,-28.09036932499128,93.100266049484,-29.886565274430204,-43.942098589675965,120.25090216888182,0.0571414581330307,0
695.0,11.583565,-15.25484600243756,99.00478378411724,-52.48793343399997,-49.05990117876496,121.4853382384586,26.0030705933043,0
696.0,11.600232,4.658499946606323,96.86205214783917,-76.75879484668604,-59.45014027061708,117.53363770333424,45.38522773744056,0
697.0,11.616899,28.740492601409983,94.68434624466528,-102.38000097889878,-70.86015226724234,109.17569660273044,54.00417731290531,0
698.0,11.633566,52.31202503759656,97.86904000327245,-128.4672735045192,-77.38509826757397,95.90399770311204,52.63171783700303,0
699.0,11.650233,70.93562685747628,107.38716544769152,-152.96012772821544,-75.229959171807,80.11972172829444,45.30155733813864,0
700.0,11.6669,82.0237250400981,121.30413754513648,-172.4759817350839,-64.7638293613951,67.58895277599582,36.680622942295976,0
701.0,11.683567,85.53989378996292,137.7046674603847,-182.98478608202475,-50.27134335286107,64.58008449199693,30.205313950127003,0
702.0,11.700234,83.6804417432056,153.96404650567274,-181.80333070037332,-37.18868739413561,72.44895104072717,27.11432620782312,0
703.0,11.716901,79.19640156411121,161.77921940707063,-169.67114878787962,-28.99814239772821,82.30105537209926,26.209737195018576,0
704.0,11.733568000000002,72.96865611576264,147.8026421792777,-150.87967137785378,-26.04983662130935,78.09147879929039,25.446229092506183,0
705.0,11.750235000000002,63.55043079183864,107.02181908809388,-130.861345682901,-25.79471011543807,51.81046132932926,25.094900180018644,0
706.0,11.766902000000002,49.96002464932554,54.965249612247,-112.9072266072178,-23.907078203545893,15.85023637759138,28.46843931779516,0
707.0,11.783569000000002,34.07464709937993,18.298802264043232,-96.85870349143212,-17.10792516639042,-6.411612772165917,37.91236769371832,0
708.0,11.800236000000002,19.008491874200384,11.102727110318163,-80.6039181394419,-6.275389138965164,-3.763302293223816,50.91900171594891,0
709.0,11.816903000000002,6.065557514661578,24.98375660826722,-62.328843276198185,3.485950494853574,14.1237807255744,61.9604278117246,0
710.0,11.833570000000002,-5.1564725690601705,41.03212473450535,-41.73882664126516,6.232693330303787,30.18041276615885,67.58015160043324,0
711.0,11.850237000000002,-14.587692295351731,45.52087573241285,-19.822654457127005,-1.0470807445471486,35.51028674471161,68.3827495430808,0
712.0,11.866904000000002,-21.82176068484265,35.587660100796576,2.6357592393530926,-16.976630784703108,31.47150976388597,67.08806194452123,0
713.0,11.883571000000002,-28.29339277502058,16.831179796554387,25.91762501264936,-36.78926834516092,22.835792130093893,66.49652998817527,0
714.0,11.900238000000002,-36.91865988935119,-2.1004786796218617,49.81198908910786,-54.377358430479816,12.13365469049945,68.91606562630596,0
715.0,11.916905000000002,-48.32328376925157,-15.374594116193473,72.11927689247875,-64.38583435390888,-1.3622470282521792,75.61600197663398,0
716.0,11.933572000000002,-58.757611968124166,-23.223071124897047,90.57555142931928,-64.02891203083635,-19.53260657733277,86.11198877143525,0
717.0,11.950239000000002,-63.42534606840968,-30.11705765210416,105.51838020296276,-54.03121612409723,-42.70415428832671,98.4941784618958,0
718.0,11.966906000000002,-61.69308858402782,-39.486867370563886,118.7462567397604,-37.96959628713032,-68.55812602662628,110.4751592118885,0
719.0,11.983573000000002,-57.7179210461377,-49.621355315572174,130.73840510411267,-20.101212879259155,-93.06064985594551,119.94091359183868,0
720.0,12.000240000000002,-55.703040411825015,-54.005586615417286,140.99446009029927,-3.0563396874784434,-111.36451217827836,125.26788160002675,0
721.0,12.016907000000002,-55.80758263782016,-45.07826462221786,150.101200741757,12.717403042177564,-117.17889392180524,126.05082715215352,0
722.0,12.033574000000002,-55.43236432700499,-18.598966331615333,159.3949397774624,27.367343551971302,-103.61997316277107,123.31192418560288,0
723.0,12.050241000000002,-52.81955499565216,21.23592164855235,168.85317790720157,39.97966508982118,-70.4955018942693,118.29452225382946,0
724.0,12.066908000000002,-47.40659608721613,56.71045710369293,176.53925750569618,49.22600990279771,-34.15051820974549,111.12162635346952,0
725.0,12.083575000000002,-37.8867879741332,61.227047533513726,180.11646063470846,55.62486697673924,-23.88573440343964,101.09044059728268,0
726.0,12.100242,-22.95726896532676,20.969247892614447,178.43148809436,62.02835919214482,-57.152237771348965,88.22535459888533,0
727.0,12.116909,-4.854530002403629,-44.61023768999768,171.73845969375725,70.87961171092081,-116.3576671009401,74.25544575167966,0
728.0,12.133576,9.703419753420388,-93.02865391660644,160.99859468685344,81.29932394852486,-159.36499016176322,62.00106642847926,0
729.0,12.150243,14.539032128148618,-94.18582459552724,147.50730896625902,89.57279183356057,-156.45497686264673,53.70875577410616,0
730.0,12.16691,10.954525928827415,-50.99953282165899,132.64499987651607,92.32917416057164,-111.52879394568788,49.706672957280645,0
731.0,12.183577,8.255762019724898,13.295322485810392,116.65992588920304,88.98393323857925,-48.69373111082324,48.40327602151529,0
732.0,12.200244,15.362688147411223,78.43953599173535,97.83658694592386,81.55885860863923,11.943517512894244,47.30422601452169,0
733.0,12.216911,32.40423689939547,136.47289410485934,74.37840609474918,72.49819414450158,63.68487744978121,43.827319750229854,0
734.0,12.233578,52.25672785547427,187.5997178986129,47.17838852884188,62.51708775743055,108.27492580849706,35.6735764010552,0
735.0,12.250245,68.979034061209,234.0255244537605,19.648901346484887,50.52947797970836,148.9343824444941,21.62009422399254,0
736.0,12.266912,82.00026544639674,276.6779149299844,-4.712251981942583,35.61841768201775,187.1931225558673,2.5567659030011574,0
737.0,12.283579,93.03792188132768,313.6261829886227,-23.465222665674617,18.825953755428184,221.87816093579383,-18.607951519447933,0
738.0,12.300246,102.17832045417684,339.439320794535,-34.40559748198976,3.2406611613030725,248.20861106165265,-38.29775334718502,0
739.0,12.316913,107.50976058873412,346.1671762639147,-34.75983073105166,-7.22256369681883,257.7750555060978,-53.571558428916745,0
740.0,12.33358,106.96616900113034,326.16871315092993,-22.099331405895647,-9.643597772547697,241.46290530401507,-62.94456752787208,0
741.0,12.350247,99.85938200958084,278.06789751055385,3.114591835811244,-3.9689125481804832,197.19145883970344,-66.82345420831163,0
742.0,12.366914,86.57330704933653,215.8435390461985,36.18767384363591,6.207799453196469,140.18960778404104,-66.43605428431408,0
743.0,12.383581,66.70565211328878,169.61894677968968,70.72140206257694,15.232433105519064,102.44188444175973,-61.29778389535433,0
744.0,12.400248,38.81307282438958,163.5186946429546,102.5294815655716,19.081901315752106,108.33194676753553,-48.80238417765135,0
745.0,12.416915,3.537210085998073,185.7778407232273,130.371116221623,18.30963223620089,144.67979800497093,-27.9043238833198,0
746.0,12.433582,-33.90919464753475,191.76863958747316,153.9778652745827,17.19173142223654,165.993937515968,-2.2655921321400405,0
747.0,12.450249,-66.28029896222489,144.9773635894296,172.8866066078897,19.94518091145738,137.1896812706616,22.09349024269077,0
748.0,12.466916,-89.32732075836705,48.07668154549815,186.58340296225444,27.88662126121252,63.66538928290943,41.82794859774633,0
749.0,12.483583,-103.29794960689634,-68.49206157723188,194.4501812985193,39.371537152112055,-23.07240144950777,57.5922545036656,0
750.0,12.50025,-109.87495489015124,-176.79433165530986,195.40450625725887,51.291825728798685,-97.54900299562188,71.00285497661079,0
751.0,12.516917,-109.1957778712642,-265.4288968614707,188.0040797460503,60.78203148277201,-153.04979193244182,81.98790586035433,0
752.0,12.533584,-100.67718741923554,-334.2578267413911,171.19939412134767,66.53355099817917,-193.51316426052028,89.21801823501332,0
753.0,12.550251,-86.16775489141648,-385.71273028873065,145.423994591018,68.9356770155743,-223.63688616368952,91.72201886274604,0
754.0,12.566918,-70.92967397771956,-421.293002845387,113.4000425788264,68.79334181364943,-246.0434097341859,89.33248722790012,0
755.0,12.583585,-60.33386694953811,-441.2731131375082,79.6024505158255,65.78457434993258,-261.53754936407495,82.17611379445559,0
756.0,12.600252,-55.315523359194415,-444.15140759608096,47.92657559016262,58.30305934486103,-268.5269060583232,70.37828590940289,0
757.0,12.616919,-51.73222379053162,-427.2040955071489,19.23073588577055,45.31717588957687,-263.4624274391856,54.18078064968663,0
758.0,12.633586,-44.79358634824173,-391.1453256732842,-8.441788383593774,28.616312666222008,-245.00619665114624,34.34645021894727,0
759.0,12.650253,-33.58002115439612,-344.5877058856652,-36.58122033315081,12.167545980460092,-218.35964711155725,12.804941759929306,0
760.0,12.66692,-20.471559391761037,-299.81983848400023,-63.40053774748172,-1.7715278275497743,-192.8247116891248,-7.448044595491302,0
761.0,12.683587,-7.625281640650787,-262.41658557719006,-85.11065764640225,-14.916639352517835,-173.563822683561,-23.97418666944301,0
762.0,12.700254,3.580771638816879,-228.01425775470085,-100.06985752472656,-30.119756618003898,-157.52444631502644,-36.32976581251661,0
763.0,12.716921,10.640245637316928,-190.5083204741742,-110.61466178543483,-47.09128491470867,-138.5810444027157,-45.28828385394068,0
764.0,12.733588,11.20069645159376,-150.1771664936869,-119.87379703103612,-62.115755148023936,-114.65897787993453,-51.04928398978478,0
765.0,12.750255,7.227712728713521,-112.26089950632132,-127.44854827173214,-71.56569003563216,-88.66079841455493,-52.90722709098361,0
766.0,12.766922,4.949128103247523,-80.5953403127525,-129.71230394001466,-74.81719629582523,-64.64716578133039,-50.38029553209718,0
767.0,12.783589,8.792735178421088,-55.06550645015473,-124.41585534956808,-73.99466781943177,-44.970253097293536,-44.17640451733225,0
768.0,12.800256,17.080462839123285,-33.68143297114581,-113.67199664027196,-71.963961574158,-29.91006430992538,-36.26208053780806,0
769.0,12.816923,25.16115755974393,-14.732904523992588,-102.06865823700204,-70.94748566910714,-18.40006941526279,-29.19472196375598,0
770.0,12.83359,31.189145481672377,2.5935391215977357,-92.87911700975002,-72.10307185254935,-9.340748647860908,-24.96299198500757,0
771.0,12.850257,36.86986752525464,17.785285132733712,-86.42429397717501,-75.27902985298988,-2.831164046106156,-23.89845638806751,0
772.0,12.866924,43.400900479677375,28.857830448427077,-81.06539695160544,-78.8152181956803,0.3093281011976367,-24.5560961032764,0
773.0,12.883591,49.033040869760015,33.53091624785044,-74.89289128781988,-79.89096131280174,0.3297202501716787,-24.84422267741538,0
774.0,12.900258,50.91526544144936,30.958151337441777,-66.84821934196945,-75.94724379144495,-1.0014478724121898,-23.5601374022445,0
775.0,12.916925,47.77511981064341,22.39636416023711,-57.39613970351071,-66.7585125099402,-2.1551837782017667,-21.08788187555149,0
776.0,12.933592,40.52955182259206,10.601864016296728,-48.66104367105747,-55.18529727625105,-3.4968152737474694,-18.688187943561573,0
777.0,12.950259,31.39460379466143,-1.1715501355019124,-43.22326277919807,-45.22550949023865,-6.633771805955406,-17.040977203492623,0
778.0,12.966926,22.648226446452973,-9.98073022373894,-42.102591189181794,-38.90248691216093,-12.256955911726012,-15.651411625543878,0
779.0,12.983593,15.489343431421933,-13.958826896798788,-44.236777356930176,-34.906413606394494,-19.05590423335008,-13.974347769686725,0
780.0,13.00026,9.501638294626026,-13.174594669493224,-48.19561832226249,-30.12444260169689,-24.757422112163752,-12.744742425806695,0
781.0,13.016927,3.024109091486689,-9.686759255913314,-53.549542569156856,-22.48782726885186,-27.81263131114381,-13.422086434251623,0
782.0,13.033594,-5.789653747345193,-6.017585219244829,-59.79835437540942,-12.461194015816613,-27.910030435647208,-16.342021588326393,0
783.0,13.050261,-17.37558912293317,-3.3054911941598624,-64.81467923600997,-2.1626682320580453,-25.15359515282615,-20.07524523357059,0
784.0,13.066928,-29.39318188185608,-0.9464649519923678,-65.58030327303912,6.332969991272306,-19.2306139859746,-22.64829517133106,0
785.0,13.083595,-37.6237065960338,2.413940196528977,-60.41226904769387,11.888323843919126,-9.812312839444251,-22.950574256500097,0
786.0,13.100262,-39.66133954703968,7.671683990404526,-50.10821046916401,14.39232754023837,2.2680941764273053,-21.16399990431757,0
787.0,13.116929,-37.8076949353575,14.340333388737925,-37.19535390431171,14.359016083917169,14.873773894578214,-18.406149946805645,0
788.0,13.133596,-37.11684967212077,20.438757134942627,-24.029545472213503,12.183428680264733,25.901081976646445,-15.827155132091915,0
789.0,13.150263,-40.30745061383994,23.679037349363107,-11.057888164053864,7.891106101494488,34.41667721854421,-13.5530710541711,0
790.0,13.16693,-45.49785201412311,22.922473989769493,3.1646134199599616,1.8819524210229384,40.67621722865707,-10.655384549003866,0
791.0,13.183597,-48.89606057110827,18.470123817479337,19.91690666476487,-4.455930530356594,45.75996342494462,-6.64272574243647,0
792.0,13.200264,-48.61422284927063,11.557328877823826,38.24166537983933,-9.396269080185435,51.01501769862307,-2.7079533512384533,0
793.0,13.216931,-45.37786537423797,3.891540780720389,55.30835623665692,-12.12291728451086,56.966043078922645,-0.6877560462635242,0
794.0,13.233598,-40.06199289160542,-3.0629001110993404,69.11899729977361,-13.13314414311994,62.56530747820321,-0.8166053025066345,0
795.0,13.250265,-31.833698221716723,-8.805819078263674,80.32322873802309,-13.38056338486022,65.83869080232787,-1.442264421610628,0
796.0,13.266932,-19.86908449057187,-13.356743166787558,90.43863372215075,-13.083389473359244,65.30732432098995,-1.3120863526412718,0
797.0,13.283599,-6.3297726941511465,-16.19792749133697,98.82822285817876,-11.443004363235035,60.86889169617106,-1.4010161454542178,0
798.0,13.300266,4.19950234166887,-16.55084849036357,103.17812763809836,-7.505783062882335,53.72164906883158,-3.839348638025257,0
799.0,13.316933,8.745681237229462,-14.760680436853878,102.86263428731152,-1.206222058225624,45.63493278225028,-9.350159675981878,0
800.0,13.3336,8.18140555930634,-12.614464505729178,99.89172889223644,6.387014396990702,38.06552853739389,-16.323524658348123,0
801.0,13.350267,5.132909789797362,-12.07540720991432,96.25370136983705,13.76224275201039,31.61314798797425,-22.252916640469515,0
802.0,13.366934,1.1827315500275482,-13.9356559910384,92.05453603972074,20.01631717489519,25.985336832019428,-25.53194252682507,0
803.0,13.383601,-3.1636226327549117,-17.478499100714156,86.76925379223633,25.28866794037529,20.43253372444588,-26.03154337407207,0
804.0,13.400268,-7.244559020138419,-21.10282722879222,80.82237212091539,29.92349187751288,14.581338729646486,-24.67632428467438,0
805.0,13.416935,-10.273790003049772,-23.33729875370427,74.8347759992873,33.16944780730765,9.157883674725726,-22.65792049725852,0
806.0,13.433602,-11.888973379603978,-23.47211723189882,67.82934958275953,33.343859469254404,5.769538679642882,-20.690921121116148,0
807.0,13.450269,-11.78603610003164,-21.47900187732889,57.2129049137515,30.068621354342703,5.595724098555497,-18.743090552715493,0
808.0,13.466936,-9.30797981789662,-17.656712385479764,40.87937000989713,26.11996629943007,8.077217574914096,-16.28997024000978,0
809.0,13.483603,-4.024380714064275,-12.235117533227571,19.306344921319347,25.526388831895563,11.141789442070005,-12.77210356459937,0
810.0,13.50027,3.4529279609598147,-4.972034271752175,-3.996918180884532,28.758777640009185,13.202073255627433,-8.128354517440645,0
811.0,13.516937,11.501309732043373,4.40970332301946,-23.78880433512908,30.995658601263592,15.024025354592297,-3.1530037157785418,0
812.0,13.533604,18.44850849194452,15.015729353016448,-35.60541237107284,26.910292631070952,19.34896397727336,0.936049570316848,0
813.0,13.550271,23.537374344029253,25.023992992642235,-37.95232246385176,16.61633988769745,28.56079886160669,3.5819893018579,0
814.0,13.566938,26.636354577379468,33.56762563521835,-32.16749189066628,5.407873362439316,42.60044035207847,5.386465520560194,0
815.0,13.583605,27.25144068897751,40.93276838766934,-20.57823425210824,-1.6239034905145973,58.66538075827977,7.328675655725931,0
816.0,13.600272,25.137542639778637,46.47516422314794,-5.737161457684388,-3.2010379448987507,72.56587966427159,9.567140084047054,0
817.0,13.616939,21.90584242668274,47.96882132862406,9.259092750746316,-1.0212936314297534,80.65936765180993,11.087538044554304,0
818.0,13.633606,20.003773245364503,43.4919989930892,21.70726474988085,2.6162640264487806,81.2311651944978,10.455025835327506,0
819.0,13.650273,19.75173601923454,32.844069305556175,30.577347352850385,6.133760364475659,74.75636485858988,6.9260692704902125,0
820.0,13.66694,19.710676575099345,17.499025536551933,35.41995577886127,8.95831977074718,63.20947808380363,1.028399083480771,0
821.0,13.683607,20.838488700761022,0.977565966489153,34.480146014849105,11.36730110723284,49.01843593828516,-5.780664864008157,0
822.0,13.700274,27.705361345051955,-11.163620881277067,25.602753210774274,14.026260417735422,34.25788704090918,-12.082662332079684,0
823.0,13.716941,42.09934464471145,-15.305143120545724,8.732812305830343,17.439094903636896,20.38583443039152,-17.33124239303759,0
824.0,13.733608,54.12509982306391,-16.45266316139054,-14.152377158016128,21.69286249648868,8.411350133156132,-21.768915040929087,0
825.0,13.750275,43.28152799817081,-28.36357917034125,-41.57602134304801,26.433360416038887,-0.96843601722015,-25.327043973937727,0
826.0,13.766942,-3.1005026611053594,-60.28101085452142,-73.15484544610173,30.733635111954307,-7.621373816894583,-26.718675644122754,0
827.0,13.783609,-67.42099685174429,-100.28140183306512,-106.23415165671528,33.15161502387676,-12.307819526676395,-24.285854554072863,0
828.0,13.800276,-104.73703634706456,-117.09901622158594,-132.2841535294753,32.613887405550095,-16.201917827486838,-18.08994113180748,0
829.0,13.816943,-80.3375003149692,-86.63617715140907,-139.16973974654965,29.552891188429776,-19.530504404953103,-10.62083753405669,0
830.0,13.83361,-6.296157927858909,-17.773043772082683,-120.57801210946242,25.746407172427663,-21.24511208513429,-4.915482193596139,0
831.0,13.850277,67.06140377809778,53.12453050100715,-83.84473730255891,22.71663533096225,-21.083746069578048,-2.123930593623664,0
832.0,13.866944,96.75853020602648,93.7231554390864,-45.18656179043943,20.44540177812501,-21.326110062092333,-0.9737900674592412,0
833.0,13.883611000000002,77.96745818891692,97.4197215467858,-15.822200938994197,17.586555476489117,-25.010457401985956,0.8822435018298833,0
834.0,13.900278000000002,33.97287916933003,76.83402341444263,4.562101742990643,12.59285981090098,-32.79330477741819,5.200140504645811,0
835.0,13.916945000000002,-10.23556573333001,46.43543292634881,20.620798916048848,4.893073308778222,-42.81578839308257,12.308211827281482,0
836.0,13.933612000000002,-41.406719800408894,14.959531934977134,32.57023876199604,-4.520785609913669,-53.01386915031443,21.426150499030665,0
837.0,13.950279000000002,-56.95417218525184,-12.92395863134646,36.81931598345445,-13.955633826313711,-62.19722598724277,31.611748450089777,0
838.0,13.966946000000002,-59.97936170762559,-34.59981354196954,31.5340402339113,-22.85631752225366,-69.35200948358332,42.15175100906323,0
839.0,13.983613000000002,-54.84453520483728,-48.87960186561193,18.277425368837115,-32.0642994507007,-73.38035475057445,51.98438006104942,0
840.0,14.000280000000002,-44.27757136604319,-55.30138984499087,-0.1649693573435162,-41.66592050403668,-73.95443241776917,59.271948521731424,0
841.0,14.016947000000002,-29.377639906851407,-54.36644205284232,-20.97189054142391,-49.61509335868798,-72.00625292025254,62.098674499846354,0
842.0,14.033614000000002,-11.396046011386003,-48.47899107126494,-40.94230719746106,-53.45849671572577,-68.74123640907908,59.53535824739439,0
843.0,14.050281000000002,7.292769333207301,-40.97131591459096,-56.904289188013685,-52.86419284928199,-64.02537530460161,51.67143698356877,0
844.0,14.066948000000002,23.46562498274382,-33.243779914288886,-66.96837228374733,-50.04141193768332,-55.92639665105487,38.725935502115306,0
845.0,14.083615000000002,34.14809176653772,-23.21701385517791,-71.2667787941782,-48.3768464486831,-41.82771578856643,20.78614163146052,0
846.0,14.100282000000002,38.85669740593852,-6.637625133901804,-71.61020151107208,-50.66088526305191,-19.954517766789245,-1.128559440720056,0
847.0,14.116949000000002,41.4867926833429,20.050600514468496,-69.78649865629384,-57.32275209295363,9.472451798613235,-23.950426086607397,0
848.0,14.133616000000002,49.03456857328663,57.35881847211168,-65.29794309502121,-65.57899070516609,43.47404991414524,-42.96054827110007,0
849.0,14.150283000000002,66.96223776840482,102.2580284246425,-55.31703106029637,-70.88681857908409,76.55234036184677,-53.64890121508432,0
850.0,14.166950000000002,93.05027320495988,147.9082302861143,-37.992996887849145,-70.13129156702342,102.52235986652911,-53.70018351089288,0
851.0,14.183617000000002,113.0965122641316,181.7045729119889,-15.996132144727785,-63.6614663440065,116.75275432123806,-43.90976755460351,0
852.0,14.200284000000002,105.4024504761587,186.5087447803449,3.470622682731321,-54.1222575303282,117.08275795030198,-27.64007259595594,0
853.0,14.216951000000002,57.214611553369686,151.40511980476066,12.732080647665228,-43.55507744694864,103.53401841486604,-9.234498746455158,0
854.0,14.233618000000002,-19.276641819536383,84.73032343475978,8.988551032366093,-32.037030006882695,78.02392431513489,7.659692219194255,0
855.0,14.250285000000002,-90.67353777115642,12.581846466619904,-3.443313004570145,-18.819279267216015,44.19595400002255,21.039205819266947,0
856.0,14.266952000000002,-126.80678533783345,-39.8688584176221,-16.391602196394164,-3.963542344323781,6.570833775428183,30.502235347237352,0
857.0,14.283619000000002,-123.460091822804,-66.48905526459532,-23.915802810156787,11.320382373471524,-30.939822279633887,36.45974137172897,0
858.0,14.300286000000002,-101.78575395383608,-80.48402250604688,-25.942513147972672,25.30502714497256,-65.93071085985744,39.39287891471261,0
859.0,14.316953000000002,-85.40471333050235,-97.5624104276494,-26.348127388491484,36.36355279677952,-97.02363265346114,39.905756544664925,0
860.0,14.333620000000002,-77.31000149743979,-118.10653690208171,-27.04192959939081,43.60903336302664,-122.85264259879862,39.05801635410847,0
861.0,14.350287000000002,-60.3628666214238,-126.51354142259125,-24.46757467851887,47.656275429058006,-141.78522634487473,37.78956466396391,0
862.0,14.366954000000002,-22.136699528613267,-110.29158088434356,-14.085901127868354,50.444878448029485,-152.29022468344235,35.712046270466786,0
863.0,14.383621000000002,24.831215541809687,-77.55990862429846,1.9200582804164767,53.41259739516286,-153.1175497216387,30.87489766396857,0
864.0,14.400288000000002,53.982763064298254,-49.80598721475748,14.933705127597872,55.60164030826216,-143.43734332313522,21.01272156058149,0
865.0,14.416955000000002,53.340650988395424,-38.14790968921599,18.622789667446835,54.09541927671381,-123.5240973443162,5.078690737865081,0
866.0,14.433622000000002,35.40413562156907,-33.60651707013976,14.148806894540686,46.71058785074355,-95.33111963372184,-16.03415473710257,0
867.0,14.450289,20.293254648628363,-20.88634896151764,6.320617862460174,34.09010996279945,-61.78246534491954,-39.61948847884341,0
868.0,14.466956,17.229482868625674,5.06565794174659,-1.834738000852024,18.9209300780047,-25.24516033820477,-61.69383631371026,0
869.0,14.483623,22.4787697379907,37.27183473156379,-9.480876540394217,3.3786702209755712,12.973540703800234,-77.7671165985103,0
870.0,14.50029,28.068787835939347,65.33573413989666,-15.670301417283463,-12.008026874158755,51.52352704084405,-84.12098231163705,0
871.0,14.516957,29.34008021200493,82.57238997274646,-18.69116440916904,-26.908077736888604,87.93965384992404,-79.42715414884682,0
872.0,14.533624,26.72195652761384,87.53267279805654,-17.278286534084465,-39.51900074341968,118.97250957112512,-65.42928527565996,0
873.0,14.550291,23.03330323355038,82.20057681902824,-11.663551193197538,-47.03565900418797,141.5348593359705,-45.896471120565096,0
874.0,14.566958,20.05926298469207,69.46165931999056,-3.4437852983475388,-47.48127231615663,153.0786320076221,-25.044701601490203,0
875.0,14.583625,17.844575864203932,51.47533095431628,5.512302475232915,-40.77747264020597,151.76028063171518,-6.811164163684712,0
876.0,14.600292,16.160719903336386,29.50101881701305,14.27673143784568,-28.539515267891595,137.13394765126773,5.536445711598064,0
877.0,14.616959,14.822459708166347,4.267580530306865,23.116875121391583,-13.395625247208368,110.97454590665976,10.30324335509718,0
878.0,14.633626,12.541267662751997,-23.64492432573889,32.361061023931406,1.931809795937078,77.35809121446749,7.995811611312899,0
879.0,14.650293,7.506286084606989,-52.42020721368411,41.18305880011612,15.893009764438858,41.72505914943001,0.8720443758360223,0
880.0,14.66696,0.0580380459090105,-77.34423769263311,48.26909715689868,28.680952829766778,9.34457499684277,-7.934305702618286,0
881.0,14.683627,-6.609050112819617,-92.3944986115959,53.803672899746886,40.996842260787936,-16.077195702568186,-15.328664884046203,0
882.0,14.700294,-9.452172395624618,-95.09701288169776,59.77561655208248,52.26705822816044,-32.99805192897347,-19.66569525288758,0
883.0,14.716961,-8.461902816127653,-88.65498052391932,67.6785587016428,60.71307329424509,-41.70716027605568,-21.927834523261573,0
884.0,14.733628,-5.787630481005959,-78.02951347132296,76.34916232145845,65.19880658385726,-43.53444744570301,-25.040874382173048,0
885.0,14.750295,-2.8529319610507984,-65.11635133108692,82.36973712756648,66.20840028314514,-40.23638233599191,-31.53263342336102,0
886.0,14.766962,0.7361847248911156,-48.59700277845417,82.30603944857347,64.77762557947187,-33.59789244688443,-41.74837678666216,0
887.0,14.783629,6.386970887705703,-26.579132494767997,74.67694731599977,61.38980025579812,-24.69943857814637,-54.01846235906031,0
888.0,14.800296,16.123651134089226,1.7528186411672095,60.6897980919792,56.40926373635415,-13.149396721782216,-65.8239451536168,0
889.0,14.816963,32.36395633814604,34.87829447505371,43.9522963888427,50.699308557135886,2.0474834776310016,-74.44652749366284,0
890.0,14.83363,56.24219169342257,68.12859992776943,29.32404470091032,45.09966106920155,19.819921926097614,-77.17160400539822,0
891.0,14.850297,85.54471128451651,96.15411562965936,20.771033643196365,39.86642922725639,35.89685635865964,-71.80193670846262,0
892.0,14.866964,113.48949496409512,115.82080380627268,18.8057688580991,35.08541524759308,45.75533004134066,-57.18485348133102,0
893.0,14.883631,127.183683281153,122.64870248066936,19.277903150184937,31.081913713937148,48.50795307330222,-33.41889070980107,0
894.0,14.900298,108.55427577047745,105.4547102246936,15.12393668188471,28.10262247695198,46.70581012272781,-2.427976033940968,0
895.0,14.916965,44.60016973061151,52.78008079441842,0.7989476957792103,25.9413474695719,42.6471137604431,31.33184289150597,0
896.0,14.933632,-56.61195497428828,-30.91754940078348,-23.246525858813257,23.85550337970972,36.14125828784139,61.80500345640127,0
897.0,14.950299,-160.38960626245947,-118.97062326960796,-49.499697733878655,20.75252238549917,25.462143510402832,84.04656705721614,0
898.0,14.966966,-219.6745531576695,-175.4831337868762,-66.72214523212543,16.102844566432722,9.095407392128571,96.0711298440465,0
899.0,14.983633,-201.84740287894184,-176.4974259120272,-65.23684102014957,10.926809662527967,-12.915097044881277,98.09850919509282,0
900.0,15.0003,-112.5194377497011,-125.2452086769377,-41.68137556453766,7.009029386007818,-37.61509219845112,90.90961861027554,0
901.0,15.016967,2.017544006271791,-52.4474122108925,-2.1206651076944727,4.867921620943461,-59.37882659969858,75.69389393732723,0
902.0,15.033634,84.05513242147049,2.8734127912828704,39.2028244442799,3.3932953166408963,-73.09805011409333,54.91091536510185,0
903.0,15.050301,105.57706475880244,20.53864585648721,67.73169693944843,1.5565151238148802,-77.330993634349,32.192447162185275,0
904.0,15.066968,81.73731812221264,9.319652395698643,77.79926438637109,-0.4346833227956749,-74.04861538455305,11.161042526367686,0
905.0,15.083635,46.53202160019599,-8.002504465981174,74.06860916463299,-1.637110401429996,-66.2234863119358,-5.58014887550418,0
906.0,15.100302,22.345043302312558,-15.095301305928686,64.7146794615536,-1.2160419035658787,-56.05549070691585,-16.9583604448681,0
