Frame,Time,RightHand_Accel_X,RightHand_Accel_Y,RightHand_Accel_Z,LeftHand_Accel_X,LeftHand_Accel_Y,LeftHand_Accel_Z,Label
1.0,0.016667,-140.7288279439641,114.397951023815,52.538521199541606,13.89059923128599,125.44992052651136,-51.1667629083382,0
2.0,0.033334,-127.2570660645772,117.77139883803784,61.55003255013531,-48.24246663268226,168.5531010497494,-68.66364106847621,0
3.0,0.050001,-105.2473895245708,116.31471748660007,68.00519638371502,-136.9393135329871,220.71210784621567,-85.14214242532611,0
4.0,0.066668,-79.00207555651161,108.71630955053914,65.51628640893172,-238.09832982312065,274.16751499494706,-91.34119383708524,0
5.0,0.083335,-55.63957954083876,96.40569174136354,49.47126792869341,-330.1833956332488,320.8357639782482,-81.4025600642183,0
6.0,0.100002,-40.66472250409818,80.61874942486423,20.02120777261196,-392.9165225653995,349.9721348843527,-56.49662970133366,0
7.0,0.116669,-35.79864870453336,60.51499909350883,-16.586001997699373,-417.056521940378,350.9632237939617,-23.440677701425493,0
8.0,0.133336,-39.95787459233286,34.47335696804456,-50.249130365541305,-406.6982089489262,319.1349179716588,10.116305835917832,0
9.0,0.150003,-51.20166011020199,3.0911497123324043,-71.88493035463064,-371.2596066245383,257.68622717662885,38.83846853982879,0
10.0,0.16667,-67.82417105572328,-29.111953279805043,-77.52122082049868,-316.2834227669144,174.96760923872938,59.661122269601066,0
11.0,0.183337,-87.76632133938827,-54.05909986358972,-69.62500493496206,-244.12625156744892,82.62590352217086,71.39893725024955,0
12.0,0.200004,-106.9051292639819,-61.97980277566007,-55.83491254490943,-161.71052864197517,-4.190706660333797,74.6554116028494,0
13.0,0.216671,-118.9571755292044,-45.439215210020166,-45.24374752693832,-82.25420304297914,-69.93285451668177,70.02395614674339,0
14.0,0.233338,-118.449169772123,-4.616545994734417,-43.65121659430132,-17.01664061430932,-105.83196108267124,56.38753751095221,0
15.0,0.250005,-103.5723913986739,51.18996717732171,-51.395569026918906,32.047709677691564,-113.23028469381627,33.25518777279859,0
16.0,0.266672,-75.79999727815877,108.72827427031824,-64.59528370444976,68.80899504897002,-98.78252596294196,4.54226199432297,0
17.0,0.283339,-38.119343279471366,157.4668790267704,-76.72346779723935,93.55932912892618,-68.35196941330861,-22.99014201829508,0
18.0,0.300006,5.480265083120742,191.10074097823457,-80.11446576779765,100.33180949943272,-26.691492549064986,-45.73228732809628,0
19.0,0.316673,49.897176034288805,204.61159533139408,-69.75574740272695,84.32382142194547,19.38509156541899,-65.05524584384241,0
20.0,0.33334,89.4103324651496,192.5520482170985,-47.37362007296938,50.12354399710354,60.31104681077287,-82.28532565781616,0
21.0,0.350007,119.274119537799,151.7781668985075,-20.93485432850142,11.480191858232825,87.08314974084593,-94.32205526242235,0
22.0,0.366674,138.60685460977172,86.44438917711874,0.4318604166272468,-16.620568272757446,95.73734987915827,-95.9647012905634,0
23.0,0.383341,152.02979573578267,9.275284064840564,11.411527656650694,-26.21604410386664,89.24102865498803,-85.94840581044241,0
24.0,0.400008,166.58491765325252,-64.36006236318767,11.803767582615452,-19.24013815350272,75.19913688068854,-70.22633036559454,0
25.0,0.416675,186.0812390334968,-124.82625190222392,4.095354601828953,-4.107980670452065,61.47529077305339,-59.60209392778723,0
26.0,0.433342,208.84814677029573,-171.09496873030068,-9.710234597094884,11.317702078808676,53.074944814696224,-63.23849714109226,0
27.0,0.450009,230.1616515334216,-206.84868903802865,-28.551804641353087,25.78568894938001,51.257565951749534,-82.37577684773514,0
28.0,0.466676,245.52163020476263,-235.2379516742721,-50.38506303427789,45.39174682873567,54.05252022440024,-109.06355962965068,0
29.0,0.483343,252.16970602543628,-256.8439825494282,-71.46036515638151,77.9393392038409,57.76152967622357,-131.22842626397147,0
30.0,0.5000100000000001,248.9978357647544,-270.93470156325657,-88.07798120101167,125.04011575412676,58.79900212899206,-140.23509920125576,0
31.0,0.516677,235.93402871671316,-277.17945559889074,-98.47699321902228,178.9132457900218,54.692323656167645,-135.21921248920628,0
32.0,0.533344,214.0354726304523,-275.51131069937105,-102.9791778751509,227.23531494979773,44.30156975144446,-121.42419915071524,0
33.0,0.550011,186.0431768548262,-265.21293482359954,-102.71893907603676,261.6633450277203,27.910047160411025,-104.88462144259486,0
34.0,0.566678,155.51087589265052,-245.60613468895764,-97.87420889155746,282.1586379589226,6.498050125695249,-88.40886225220859,0
35.0,0.583345,124.62863398998834,-217.32184048346195,-86.75574886815492,294.0958824111907,-19.90692166946256,-71.42915387740378,0
36.0,0.600012,93.73777361323376,-181.45056545798425,-67.97374478518314,302.4350114856853,-52.337494536103705,-52.322166742574574,0
37.0,0.6166790000000001,63.503514263876205,-138.26050632988435,-45.49601683464293,309.01335218153054,-90.30631440890362,-30.92449688984276,0
38.0,0.6333460000000001,36.54008060255508,-89.4084136090498,-30.880386064274767,314.0415061244146,-129.9016000250998,-10.070627683739923,0
39.0,0.6500130000000001,15.87670092357001,-41.46008266691715,-36.67563707683129,317.630554413392,-165.39311879885358,5.1465345469478985,0
40.0,0.66668,2.076851184538865,-4.047315655589989,-64.73029591380029,318.7943183175746,-191.99864521796485,11.139725391411234,0
41.0,0.683347,-7.42133922527939,17.428040493103104,-102.0483494797062,314.87750495196576,-206.6542849574625,9.603444679705326,0
42.0,0.700014,-16.176808087217445,26.48096673243764,-130.167596019676,304.0347179135661,-207.78961453776407,6.35413139220404,0
43.0,0.716681,-26.67571563034229,32.253666172332814,-138.176406755048,287.64028298266913,-196.0990539490301,5.512336290515069,0
44.0,0.7333480000000001,-40.27009204665019,41.35203885751452,-126.68923685602228,268.79027536207786,-175.35417175679186,5.401558522740347,0
45.0,0.7500150000000001,-57.30043708196863,51.78779499904222,-103.42236591974412,248.8068121947922,-151.63138936613635,0.3830354199332557,0
46.0,0.7666820000000001,-75.3194218246375,54.61474019368002,-78.76617271515836,226.2954075952705,-130.7340410582592,-13.809492655083044,0
47.0,0.7833490000000001,-88.18939653453867,43.34960957772973,-62.66962776705876,199.3377764818128,-114.18138209364416,-36.05197635600143,0
48.0,0.8000160000000001,-90.12923172849358,22.96739243238749,-59.8009728548584,167.78925209929054,-96.22657559348931,-59.92129933079565,0
49.0,0.816683,-81.48052598996519,8.579080701368166,-66.88260235030009,133.84999389365424,-66.5455340813208,-77.75010164516644,0
50.0,0.83335,-68.66203708483015,14.225693220452616,-77.32113215276084,101.45457703527164,-18.86965081516766,-85.6248042271545,0
51.0,0.850017,-58.47467801994219,42.62030760338773,-87.88769672192957,75.05058378883489,41.80395801432802,-85.43982810627742,0
52.0,0.866684,-54.23709813508667,84.36354341579363,-99.14275920841058,57.57711515189221,100.66950011777884,-82.99869495721033,0
53.0,0.8833510000000001,-56.62587887441281,125.0104371331818,-111.38247895618127,48.333622911968455,142.18510420513874,-84.22494775929093,0
54.0,0.9000180000000001,-65.14925831828268,152.87045221380026,-123.02369836950056,42.70298135905461,158.99107017941202,-91.57056102922306,0
55.0,0.916685,-77.87984773214808,162.88373961345178,-131.73517498928405,34.68841834947425,154.10693755413962,-102.19556923762502,0
56.0,0.933352,-91.77698422220294,156.57096671147937,-134.54157702677747,20.35186393128009,136.40734274468247,-109.75430619852152,0
57.0,0.950019,-104.68985432407231,139.58357385993455,-127.83095305770976,-0.6990183602679325,113.84827224658864,-109.71364371569835,0
58.0,0.966686,-116.05542330481666,118.0331969895733,-110.41781790349832,-25.94920301575645,88.7523084896169,-103.8399398281452,0
59.0,0.983353,-124.59923639089016,95.7704741538875,-87.32345374402274,-51.10984903061491,58.33229558178832,-98.50533007084896,0
60.0,1.00002,-126.61898165742171,74.78378080517376,-68.62892865622376,-72.0594792156925,20.884468870944808,-97.80407518442672,0
61.0,1.016687,-118.55325913318684,57.23707364135562,-62.87936314873575,-88.40304640525959,-18.091839864470348,-99.75671445600923,0
62.0,1.033354,-101.16679333564132,45.59753288138099,-70.80765621588085,-105.50254811779352,-47.27438289308076,-100.58279850627568,0
63.0,1.050021,-79.45449766827315,40.81071391456313,-84.63840341791617,-130.4702032398145,-57.8976421450451,-100.44136888787976,0
64.0,1.066688,-57.6968515057032,41.27336211066635,-93.2025247538876,-164.31627330082455,-51.06950046341655,-101.9911440113926,0
65.0,1.083355,-35.59315509228384,43.36288556033881,-88.91921643208636,-199.65936530717173,-37.21661568246331,-104.59933727512292,0
66.0,1.100022,-9.858503897416574,42.941269092963246,-71.4573357759463,-228.7500419445332,-27.60158074457837,-103.4087115135748,0
67.0,1.116689,21.55062757672799,37.85579335302185,-46.04257302609236,-252.17131337503807,-25.62408661335353,-94.58096470051164,0
68.0,1.133356,57.8978778688308,29.683972377100435,-19.13492839100474,-275.6049059999165,-26.93985292549307,-79.18295027174491,0
69.0,1.150023,97.01552861524264,22.111410018699768,5.336503025939317,-299.5983397856573,-26.501225438237807,-61.14715890305362,0
70.0,1.16669,136.17554118236885,17.559423746008417,27.756359927835945,-318.3325147606736,-22.04132040040728,-43.73042426693752,0
71.0,1.183357,172.56013575368578,16.29260139405107,51.17334701413552,-327.9427778101043,-11.49268474745934,-29.09666874996149,0
72.0,1.200024,205.67404340529797,17.77114240683767,76.93408299376847,-329.85607839090994,8.211309225514334,-18.52153978895856,0
73.0,1.2166910000000002,239.44552518729904,20.137807679715436,102.29309412186632,-324.6396996440677,37.76967927494862,-10.475507974946089,0
74.0,1.2333580000000002,279.30383828641834,18.147118824448064,122.73875970931368,-307.13563915634177,73.11695275336214,0.5337374092530043,0
75.0,1.2500250000000002,325.79258454850657,4.761901969078535,135.5469631024735,-270.3998166421185,107.96098855018062,21.683196069533103,0
76.0,1.2666920000000002,371.8969046706201,-23.24295365228856,140.45860571079322,-213.38880603971,137.33056074965572,57.95110577279726,0
77.0,1.283359,406.94130092185856,-62.42614518792165,138.65347566968848,-144.5228023110781,157.24411319827504,108.8688037598802,0
78.0,1.300026,422.2007851274664,-105.86094422846448,132.98845438795556,-79.4537913283809,162.63010726574566,166.5452896040276,0
79.0,1.316693,413.3571113103738,-147.11842497520726,128.2885412820714,-35.106827681597736,149.01751188611624,216.68124510758167,0
80.0,1.33336,381.1085484435588,-180.32114484916292,128.3434205412479,-21.713022891723558,117.65256048524049,244.4555970179552,0
81.0,1.350027,332.8020516668394,-199.33491091968256,131.09277188514284,-36.25114438019636,77.5771199609235,242.5224726282025,0
82.0,1.366694,282.2748892672985,-200.3867135438773,128.47795055600244,-63.40358249822637,41.29139864445334,214.1629040669818,0
83.0,1.383361,243.4060994695196,-185.6737068975549,113.70818461283156,-85.39236977079996,17.825058356250175,169.02898771632644,0
84.0,1.400028,221.30627595481909,-162.79986183649996,89.01380092025346,-92.26082007840456,8.479645912764624,117.20262250725986,0
85.0,1.416695,210.60475155021012,-139.42315193092924,64.57745269116073,-83.7115606122498,7.377051495601724,66.84245495259756,0
86.0,1.433362,202.2283098203405,-117.3993202195802,49.74590217185771,-63.954473307422106,6.361150064176758,23.7701053584297,0
87.0,1.450029,190.41655048198737,-92.1807178429192,46.972944558933605,-37.29394979488131,1.068086467616459,-9.720255516657408,0
88.0,1.4666960000000002,174.4481156060576,-59.88857572932841,53.62522195787905,-7.808819651991841,-7.113552214899159,-35.317127339784584,0
89.0,1.4833630000000002,157.17333561631062,-25.74272742217517,66.1993309458039,20.005557575821918,-15.085110697577717,-56.54086987500823,0
90.0,1.5000300000000002,142.99109359079955,-2.83300912485678,81.75128343669783,42.41289388531602,-22.916099654443016,-75.73308786210912,0
91.0,1.5166970000000002,135.264532685992,-0.2669549874943051,98.06980123593696,57.63383018454141,-33.37534968504968,-92.89176241092171,0
92.0,1.5333640000000002,133.92566236742013,-13.812920822994895,114.4087453428176,65.11558398737304,-47.08365530303695,-106.54136998224016,0
93.0,1.5500310000000002,135.21001530188104,-29.76636264150376,131.2031735580495,64.86800965524704,-59.80768039843981,-115.19933966174744,0
94.0,1.566698,134.03690366369509,-36.752204857682486,148.40486471478152,58.71581519909077,-65.50802847632488,-118.61941381821973,0
95.0,1.583365,127.365391307671,-32.32511803790359,164.47230754701968,51.00271282178687,-61.56152564547328,-118.44522086680132,0
96.0,1.600032,116.05125355942592,-19.80167454919187,177.1707553905373,46.32349562113747,-50.25275604058753,-117.38316821109407,0
97.0,1.616699,104.05111966042764,-2.350265451205777,185.81797042438168,46.622675172083945,-36.0284335412876,-116.99078622799992,0
98.0,1.633366,95.77480481497123,18.211619468107138,193.08168021453997,51.04099249430978,-22.8864019794307,-116.44211601361408,0
99.0,1.650033,92.75141384615416,38.714971287601365,202.98584561952916,57.95275501351305,-13.913244438272365,-114.02402138896235,0
100.0,1.6667,90.91182127826296,53.68696529873543,215.0064596788345,66.65281556350607,-11.16976881704743,-109.46255615101516,0
101.0,1.683367,81.03619494633463,58.68165510282273,221.0008310583345,77.61363578100409,-14.881972204601729,-103.90896967254793,0
102.0,1.700034,53.672237296202056,54.79320964344748,211.4196960463165,91.16526304019024,-22.88083174923577,-97.97778550079995,0
103.0,1.716701,5.259016003175267,49.61276720070565,185.8656864701629,105.19624167818657,-31.1252132438722,-91.12422531046695,0
104.0,1.733368,-59.3397493862048,53.19725749250297,154.90216826269292,114.51087710730415,-35.441323184231486,-82.9892333657524,0
105.0,1.7500350000000002,-129.141886532044,71.74132891972354,129.30321907028363,113.7987343541721,-33.92709990681747,-74.08072731867415,0
106.0,1.7667020000000002,-192.13263778243768,103.0244610132567,109.36201749227578,101.42931104465498,-28.40526968296009,-65.16169742172508,0
107.0,1.7833690000000002,-240.09297668379932,136.6258267515093,87.08865715530118,79.75673525310486,-23.48416326259153,-57.297814135658136,0
108.0,1.8000360000000002,-270.3551748235126,159.3968599903953,57.092864990276325,52.385021811897175,-23.709800279562337,-52.38333408966825,0
109.0,1.816703,-284.16035779604056,162.81916422724836,22.107789629024943,22.26577394458487,-30.977854647513627,-52.16205369115529,0
110.0,1.83337,-284.4087214543008,146.7398897088109,-11.16595885117614,-8.174312740119415,-43.99410238713842,-56.54135529491076,0
111.0,1.850037,-274.768499947396,117.56083762594164,-37.9773913135724,-36.93007982059531,-59.40002315868142,-63.97132296499227,0
112.0,1.866704,-259.1950911112683,83.92016181982184,-56.94904241376189,-63.1208296720136,-73.09889419081964,-73.70237942883092,0
113.0,1.883371,-241.207517887072,52.85490977903829,-68.80138534176443,-86.70172042677167,-81.7223616901088,-86.67913457519525,0
114.0,1.900038,-224.01882679149224,27.457116702843827,-75.70343433838596,-106.63625971081136,-84.37802742837678,-103.71905756708864,0
115.0,1.916705,-211.17234745869524,6.860631311248652,-81.15607222638693,-120.09585704050475,-82.91113659745425,-123.4698132851186,0
116.0,1.933372,-205.5966175170467,-11.270064969786276,-88.73969244657322,-124.29859291687926,-79.79658584361438,-142.6997641967671,0
117.0,1.950039,-207.5850025184493,-27.46646500887368,-99.57494675316214,-118.77350826349064,-75.90284794981383,-158.03956447246486,0
118.0,1.966706,-214.65875263050867,-39.11902066526983,-110.95107293336255,-105.50754775914108,-70.43130529152943,-167.0091842374733,0
119.0,1.983373,-223.5425312326803,-42.46836546975015,-118.71804488168738,-87.50542534256978,-62.46783534914686,-168.647744385071,0
120.0,2.0000400000000003,-231.62586652759933,-35.85759482193006,-121.46759843144514,-67.50746927695212,-51.71347769889008,-164.68875056356984,0
121.0,2.016707,-237.2964958065692,-20.24311178905522,-120.92710393429668,-47.23432185707974,-37.018565858850366,-159.40498096391707,0
122.0,2.033374,-240.59835746782815,2.8887206125893314,-117.7303099307293,-26.769279812671517,-14.936786363163424,-156.55367292899183,0
123.0,2.050041,-243.79426714420643,31.26066511591505,-108.91376570948177,-4.5439445726863,17.74666596972827,-156.3115911969528,0
124.0,2.066708,-250.15821013969756,59.07200139408677,-91.45150953457464,21.23171600300091,58.61453657286223,-155.970358598499,0
125.0,2.083375,-261.41524379852365,78.3335116556406,-67.78924099193318,50.5513454008703,98.1772465538612,-153.34132744049566,0
126.0,2.100042,-275.88699361310853,85.18059968460656,-46.80794202499514,81.23672562385302,125.47949692941194,-148.56900184387527,0
127.0,2.116709,-288.442649382537,82.81954626298139,-39.04539757190984,110.50401929197528,135.08498273540573,-142.73342940716594,0
128.0,2.133376,-291.8056717370922,76.28574104641267,-51.0950064785974,136.17438879443486,128.6759593386978,-135.660602561674,0
129.0,2.150043,-278.35420481910535,65.64153855908091,-84.1283690408433,156.50781170057667,111.60322892504308,-125.57032975041638,0
130.0,2.16671,-241.9945406810969,46.85237985116308,-134.84292954688067,170.45873288757502,89.52587006772812,-110.6272220922273,0
131.0,2.183377,-180.19416689461008,19.86147633379474,-194.14307692328052,179.07062993234834,67.84621287198085,-90.77271899581044,0
132.0,2.200044,-96.34395953807108,-6.672218641043553,-246.7455436020233,185.7574052057589,51.84394991018807,-68.28940062770342,0
133.0,2.216711,-1.5104236260194115,-21.79093471948606,-279.0761176837904,194.08524684407237,44.80849201327019,-46.470995240032,0
134.0,2.233378,87.22991619261074,-22.78645654701705,-290.1049033742399,205.06696615314817,45.58807832242355,-27.47675860181052,0
135.0,2.250045,153.4833480764272,-16.08790580545309,-290.2871202453553,216.60016550407855,48.97049264973799,-11.458300145011377,0
136.0,2.266712,189.0317802733766,-8.505071552769493,-288.5096982859984,225.28265747385504,48.61121092828424,2.660955713707857,0
137.0,2.283379,195.61702436170583,-1.4811804792488186,-283.79245100990283,228.7509368812769,39.62128833493045,16.253380292037303,0
138.0,2.300046,181.2221489010624,6.808293835076252,-269.98168201788025,226.7634131618464,20.044558012283723,30.620973360752032,0
139.0,2.316713,155.95564943391147,17.58421085669246,-243.8591939734644,220.9257967011348,-8.202388062299809,46.85365979019312,0
140.0,2.33338,128.6828413008821,29.69046932026816,-207.1125607767437,213.8581560460162,-39.39650454197424,65.76703731100281,0
141.0,2.350047,103.63647560218688,39.69708373128309,-163.98493589025747,208.1042248822318,-65.55926254622992,87.6152633903785,0
142.0,2.366714,80.17052027072005,44.46564008067472,-118.89965469867089,205.09713760484348,-78.93462613122291,111.59530953631308,0
143.0,2.383381,57.13320210008109,44.36240844560919,-73.37150327794066,204.9888554274092,-74.67591348961821,136.3471661615682,0
144.0,2.400048,36.41685555700019,42.304271440911165,-22.76970182131057,207.47268841198223,-53.124461379620485,161.56836844528442,0
145.0,2.4167150000000004,21.31378313792196,38.8477509665693,41.2589424288736,212.5258491592465,-20.43741212010022,188.420890572941,0
146.0,2.4333820000000004,13.390938917014898,30.148776225455443,120.87436422475136,219.8998348857908,13.58657747306946,217.58801910456603,0
147.0,2.4500490000000004,12.856369878258285,12.615992052818823,203.6123741570164,227.4319067530712,39.588110929987984,247.4615811883453,0
148.0,2.4667160000000004,20.489320599552087,-11.351590347704429,265.85019801243976,230.1314527850648,51.75462833767752,274.8716220336942,0
149.0,2.4833830000000003,36.49144638422699,-34.60624911701224,286.9935042020246,222.117360252942,48.26719300927921,297.08018303120014,0
150.0,2.5000500000000003,57.56022307318016,-52.323717213940405,262.8968960723896,200.5245712203529,30.250122604401867,312.607700182052,0
151.0,2.5167170000000003,77.67376279328613,-65.40114907107865,208.5169771001117,168.03260098734768,0.6716895293112985,321.0262204317231,0
152.0,2.5333840000000003,92.79981542350168,-76.05187939688551,148.75692465934057,131.71886069282965,-36.46029811518901,322.95374937538884,0
153.0,2.5500510000000003,103.6219063416785,-82.53816010355561,104.61612421964443,98.8883170457041,-76.06154857691435,319.94221106295913,0
154.0,2.5667180000000003,113.4151861685217,-80.20229272713573,84.51999127597982,72.86399335533412,-111.340458265511,313.7002058100458,0
155.0,2.5833850000000003,124.72841915675596,-66.8537722922764,86.10282467063166,51.88765196552998,-134.67474531940297,305.37331604309065,0
156.0,2.6000520000000003,138.09574421982208,-45.95354477844344,103.87997674046524,31.885741662772297,-140.6719830190185,295.4814920187703,0
157.0,2.616719,151.5393327456356,-24.648481653178333,132.92192146574365,10.629462880951497,-128.53088357768746,283.94189027235154,0
158.0,2.633386,160.15509174948144,-9.072008161557978,166.3573632913831,-10.398137929506158,-101.45346989036425,269.8634016681533,0
159.0,2.650053,157.90103181635624,-1.7436951233427536,194.7818481056493,-27.93783835858492,-65.37259864017712,251.913310811227,0
160.0,2.66672,141.4223300123033,-3.6778527465577646,211.19608473880984,-40.56856373000503,-29.45729825871877,229.3171446350269,0
161.0,2.683387,112.19192350182176,-17.4367822626115,214.45809073553735,-50.24944791526276,-5.273285616020077,202.2462975571482,0
162.0,2.700054,75.27070042783902,-44.88300235679939,207.31742339605236,-60.07265502990575,-0.8020637500833239,171.7942302537419,0
163.0,2.716721,36.90671624335255,-81.63251771696699,194.35770103901223,-70.52070321556539,-14.042030576320752,141.10284177974714,0
164.0,2.733388,2.9271701722124384,-117.37483136015877,182.4473890194284,-78.5228299561977,-34.35072367622983,116.00487259107253,0
165.0,2.750055,-22.62914904979924,-143.48646411010506,179.25699955872523,-81.30812801920507,-49.67751049198678,100.85622061625492,0
166.0,2.766722,-39.031779129282285,-158.39734202617134,188.79236412023172,-81.61932133022033,-51.15906600648529,91.3278508450145,0
167.0,2.783389,-48.837853151516434,-164.95238550192934,208.78093845990736,-87.2564872404544,-34.27252290397993,74.64322304890575,0
168.0,2.800056,-55.40721447618102,-164.92009196588367,231.95454572546672,-102.9637850152194,-1.3709424073645995,42.25950411166269,0
169.0,2.816723,-60.15178704770048,-156.99868003166338,248.6550723659587,-123.57018826958308,36.61426199421448,1.678961498836963,0
170.0,2.83339,-62.09071182475476,-138.61502960009582,249.14182978120417,-138.14615216361975,65.52086391358955,-29.427639854129183,0
171.0,2.850057,-59.60716859300011,-108.82118761660344,226.3350480143637,-140.6205781521287,77.6041075982871,-41.04726801016322,0
172.0,2.866724,-52.20046152455376,-70.0532819590127,179.33187144264065,-133.64832399963132,75.58185097756666,-38.58477155465527,0
173.0,2.883391,-40.11412669961928,-27.242092708391517,115.92341922631198,-123.1059263376828,67.75334284888488,-33.643259932790244,0
174.0,2.900058,-22.26041000283549,15.378753912303148,50.727160502128655,-112.13628358631247,60.92800325249082,-32.55365129367108,0
175.0,2.916725,4.184852219447018,56.470337615406606,-2.198249139247487,-100.22853558196287,57.97117832661139,-35.11096453488746,0
176.0,2.9333920000000004,40.708704896041056,95.69403066578737,-37.12051484192184,-85.2526231897046,59.19344786423049,-39.65097151177028,0
177.0,2.9500590000000004,84.36290417765562,129.74042472528822,-57.83695917779429,-65.72644622174488,63.064528131538594,-45.28932193486399,0
178.0,2.9667260000000004,128.7181090811911,151.824210830316,-72.38051370136228,-42.17114896584499,65.73521566423948,-50.2379903362592,0
179.0,2.9833930000000004,167.45903779660085,156.16941050601957,-87.30009851199391,-16.564539133801215,62.49057949328712,-51.266585103052336,0
180.0,3.0000600000000004,196.6653719537732,142.5276246295095,-105.47931107999352,9.491451015890933,51.31512471609739,-46.25752282137903,0
181.0,3.0167270000000004,214.83679271287463,115.2787486594774,-127.10281035596144,35.60245444838989,34.48280330084239,-36.48065992243959,0
182.0,3.0333940000000004,221.7141695707542,78.35166276735464,-151.37032905868674,61.76914467973816,16.031341184752613,-25.44269086135659,0
183.0,3.0500610000000004,217.22730051429437,33.5995480066766,-176.5216348143977,87.5335126351183,-1.260288589166369,-15.876019974765455,0
184.0,3.0667280000000003,202.6373550318919,-13.936623013785669,-198.44159582563,112.15972542570287,-15.545938964824249,-8.628103186801152,0
185.0,3.0833950000000003,183.07781077936693,-52.38447107838077,-211.04602827836703,135.23580778736127,-23.882718811082672,-3.8372955083289977,0
186.0,3.1000620000000003,165.84244797133323,-69.83274752411137,-209.74250068690475,156.83056382008976,-21.962083872824486,-1.4865080931418206,0
187.0,3.1167290000000003,153.3193896743619,-64.49103284120703,-194.84339268348495,177.34631659751997,-5.966037673270943,-0.5234155579015025,0
188.0,3.1333960000000003,140.21395283205064,-44.71219712879373,-171.7905864113368,197.47364068921172,24.44134826112941,1.123355828194219,0
189.0,3.1500630000000003,121.3999928356952,-20.32527010037329,-148.79911752222793,217.82735938585785,63.3462484414668,4.8546088316493625,0
190.0,3.1667300000000003,100.60313527880383,2.4740771870992484,-134.0712909079826,237.9161591823573,99.37427236159289,10.239681124666248,0
191.0,3.1833970000000003,87.46661923100066,19.5390486760314,-133.06878579776625,255.4571022429464,121.37929530098428,15.830225729623866,0
192.0,3.200064,86.94109838595992,27.63960795159725,-145.6457758881077,267.2131250011819,124.40555664236894,20.52344079767448,0
193.0,3.216731,95.45348533667388,27.19816220352852,-165.0139590154119,270.80557167478366,110.77192538505058,23.64160441990717,0
194.0,3.233398,108.09053671670928,24.07816310924704,-181.2839862896833,265.96935081357657,86.72891562599206,24.258599203622676,0
195.0,3.250065,125.34274744875252,25.680327732263518,-188.0457138218165,254.5934424323235,58.33266922920005,21.350346575242718,0
196.0,3.266732,149.0949903875707,34.488148414895726,-185.65371130440644,239.9305209365169,29.21010267102688,14.62914184981069,0
197.0,3.283399,173.8909684870584,47.05415726441663,-177.30242279750854,225.56285679621635,1.141984599307175,4.774390859070226,0
198.0,3.300066,187.06464811794785,59.86574455473647,-162.7762797707005,214.38498184054876,-23.8165325378168,-7.157061444595295,0
199.0,3.316733,179.3206220001086,73.43655013587241,-138.52969241801802,207.4971830923199,-42.50351399784246,-20.262394571479117,0
200.0,3.3334,153.1318721708861,88.57359816259901,-104.18822368068057,203.3212075195377,-52.34510255702942,-33.80411115618017,0
201.0,3.350067,118.91216702253487,101.38268041917377,-66.15601859886596,198.08342167337128,-53.56976656328558,-47.07233086054362,0
202.0,3.366734,84.10345773896873,105.48809542338336,-33.46671109709812,187.96331655054664,-49.01589397953605,-59.481670396299805,0
203.0,3.383401,47.873657790342,98.53267680260566,-11.516405092069132,171.15839561716388,-41.17825836016577,-70.7015806369762,0
204.0,3.400068,5.619118312028629,84.37896278430206,0.2101886274411732,148.07953832104735,-29.60162303820228,-80.16182161192935,0
205.0,3.416735,-43.45191332463987,69.25356711932166,6.719926641177674,120.06870947028288,-11.904169169416324,-85.89424135467007,0
206.0,3.433402,-93.46292194065911,56.79761557454002,14.608050733637516,88.26800642276986,12.456325921080635,-84.20021615201506,0
207.0,3.450069,-136.04575927013855,45.88824609657982,28.804024501809806,53.36494409731011,39.97169110760692,-71.51069224594407,0
208.0,3.466736,-167.24829117492817,31.68487328096484,50.94916877927598,15.89976012282496,64.75903095072162,-47.241821074416805,0
209.0,3.4834030000000005,-189.4844729218285,9.089833068793228,80.29193281743346,-23.236990660927965,82.00354736579155,-14.87918810788626,0
210.0,3.5000700000000005,-206.25990492987,-23.35230802021302,114.40503982505052,-62.34950756569455,89.84213649502738,19.664894247933272,0
211.0,3.5167370000000004,-216.68004659727487,-62.040810331193136,148.48568174595636,-98.8388014642332,88.86421034831781,50.6600925672603,0
212.0,3.5334040000000004,-216.52854081955357,-100.1219744388253,176.39380198504634,-129.8421534367974,80.82908269791173,74.14781555657476,0
213.0,3.5500710000000004,-203.49441117406548,-130.57221622690938,193.80875730625,-153.47158581777956,67.88372002970544,88.45820229981648,0
214.0,3.5667380000000004,-180.03505782035307,-148.94828206670746,199.09690726539927,-169.62548221797908,51.79441116431143,94.5305515885616,0
215.0,3.5834050000000004,-152.01690723244732,-154.61017300021734,191.66655144224703,-179.52130333451208,32.88336010244064,95.51777805058391,0
216.0,3.6000720000000004,-125.64831005159157,-149.0090488574334,172.49985851219097,-184.4020254089799,10.177862549103772,94.56203334569328,0
217.0,3.616739,-105.10362179296628,-132.5485957763076,146.44675263487258,-184.7811860539476,-16.464229168864197,92.2178601287086,0
218.0,3.633406,-91.76817816258152,-104.69830043003104,120.8265286116514,-181.0115174753018,-44.83298288016038,86.69289686607834,0
219.0,3.650073,-85.10453277434948,-68.14418544606002,100.46812184254286,-174.26515040195196,-72.00875086514009,76.90477223522997,0
220.0,3.66674,-84.1671119922208,-30.97965836877752,85.45490830802665,-166.43985710827317,-96.97399314621302,64.62146920129014,0
221.0,3.683407,-88.19780765609175,-2.839397420709876,73.86346179133344,-159.09246300934373,-120.106785083519,53.30690072713779,0
222.0,3.700074,-95.63767000170638,10.749985805979776,65.15741262181702,-152.8053400330653,-140.32508386938787,45.36809708035109,0
223.0,3.716741,-102.9300194064792,9.978607673276516,60.50613623137266,-147.5812272887885,-154.56858152118784,40.807650801635255,0
224.0,3.733408,-105.44520500816566,-1.226118941334259,61.135378814890416,-143.55926760475293,-160.7361236244309,38.29133656943982,0
225.0,3.750075,-100.9046315646073,-17.390865305401235,67.23082953318111,-141.36452186654768,-159.80915025376183,37.00640756124521,0
226.0,3.766742,-92.19448273723388,-33.23205027959911,77.44836883618461,-141.9223919955758,-154.00453712873008,36.77270380183499,0
227.0,3.783409,-85.87487846042626,-45.383691030510185,88.40038432908963,-145.64059865151472,-143.55765525981397,36.35728168016988,0
228.0,3.800076,-87.0570000466297,-52.90598978514527,95.86069390894276,-151.46540640058424,-126.44781945484876,33.1602062272306,0
229.0,3.816743,-95.5353938681188,-55.66966424471958,98.5386200707064,-157.12048477724596,-100.8978316760472,25.63350974692496,0
230.0,3.83341,-106.3455073647024,-52.61000028605541,100.00994536450364,-160.7947027225183,-67.50203317301018,15.011713875171427,0
231.0,3.850077,-113.1890688542241,-42.63783684127372,104.55304635870856,-162.45250873039143,-30.222998729293582,3.489440264442876,0
232.0,3.866744,-112.05163131886094,-27.315136081089317,111.07506181252008,-162.9789471907993,3.3708882470798147,-8.639157696646823,0
233.0,3.883411,-103.53355890225214,-11.199668375892417,113.07298134927107,-161.95244666934434,24.536562280223457,-22.707784851756813,0
234.0,3.900078,-92.24914884636884,1.2885744190890218,104.68818608885287,-156.7842487970275,28.629508543440306,-38.47278492318269,0
235.0,3.916745,-82.91760151936353,8.497955576181107,85.37934787648845,-144.54963159575647,18.161407645299583,-52.28552534734107,0
236.0,3.933412,-76.25072869269914,10.977090440898053,58.92090137360488,-124.43310568371064,-0.0250624934111702,-59.426330967418096,0
237.0,3.950079,-68.42070106977076,10.095526217765642,29.87251092361836,-97.92246394143932,-19.63044531943173,-58.2761491467517,0
238.0,3.966746,-54.534463291104124,7.865527801690266,1.880564291154231,-67.00392270455689,-36.431859544924905,-51.75404090109374,0
239.0,3.983413,-33.101427342011974,6.330829835041035,-22.562280510547684,-33.01844242466031,-47.46634345671782,-44.82089133127454,0
240.0,4.0000800000000005,-7.404427185162963,6.079023701353107,-42.98758418675616,2.734296747483381,-51.54854732212834,-41.15982192864684,0
241.0,4.0167470000000005,17.968256247349714,6.447911271102016,-60.975699747218826,38.156045696571525,-50.11381792879298,-41.88051649222507,0
242.0,4.0334140000000005,41.7136502832386,7.611138015424486,-77.87820443946487,70.6629477744188,-45.61614238056483,-46.08685510606978,0
243.0,4.0500810000000005,65.55199659663214,11.004491401624447,-93.37426845655828,98.32899173314836,-39.31871934065112,-52.11612080077231,0
244.0,4.0667480000000005,89.60062882193007,17.432628906364176,-106.9180018339546,120.81082793301955,-31.66930224268172,-58.74778028836101,0
245.0,4.0834150000000005,110.49712942310876,26.488679121318405,-118.940272957511,139.1962478893995,-24.080328637167177,-65.71515866016357,0
246.0,4.100082,124.9089715148814,37.73816290381947,-129.95637083315594,154.91357853923145,-19.11406360981768,-73.38717269080014,0
247.0,4.116749,132.99264684176077,50.21414871468794,-139.9628224238075,169.30139504895345,-18.65996380624901,-82.5023617880046,0
248.0,4.133416,137.70050402156613,60.84861792613015,-148.95025115642784,184.5230045330288,-21.781930156422888,-94.27930682361148,0
249.0,4.150083,142.26415564854423,66.18029239393502,-156.6618908997498,203.72252263884477,-24.31478187714616,-109.89736349202568,0
250.0,4.16675,148.71650446291017,66.2027765351282,-161.99622615039817,229.1014354332276,-21.423451640293585,-129.22902864450344,0
251.0,4.183417,156.90842870307026,64.52422037369054,-164.06829947016016,260.3237559175306,-11.190172226341115,-150.49139625188525,0
252.0,4.200084,163.83197254600395,64.79463728943247,-163.80312571330202,295.4407426659858,5.163800742653822,-171.45086982990094,0
253.0,4.216751,165.20244936440366,69.21008893248819,-163.17762649950126,332.8057073462085,27.178792978511343,-190.39494032579907,0
254.0,4.233418,159.24503947720137,80.35192708180294,-162.7279289507181,371.6607735433444,57.49894783745839,-205.6342892159361,0
255.0,4.250085,148.6449498512786,101.21768080244244,-161.31845597762702,411.2367752703244,98.20538353431292,-214.9159281170103,0
256.0,4.266752,137.87304122827862,131.3288112474679,-159.24350736307645,449.32415561291305,145.2661199237848,-216.2200847179382,0
257.0,4.283419,129.26815697960063,163.68120346258604,-159.89138820199935,481.32481526394895,187.9770588416938,-208.9932021877824,0
258.0,4.300086,122.60790551820934,186.34617469527691,-166.1320601951774,500.7763036374752,213.67053457011147,-194.18291117456613,0
259.0,4.316753,117.17562823343826,187.18665471987197,-175.16600718800535,501.477779021105,213.5980607631936,-173.35761753122972,0
260.0,4.33342,113.17011639427224,159.7102580860089,-178.30716495169713,480.165119363284,187.79655966232676,-148.23417972469738,0
261.0,4.350087,112.7714083381182,108.32655514241549,-166.27095575989932,438.5280832611135,146.85804219714728,-120.699892263259,0
262.0,4.366754,120.5101887906688,48.20779640208183,-135.17430927309044,383.6753258460852,107.1261209320416,-92.52332352110427,0
263.0,4.383421,139.6306085705473,-2.982165562451719,-89.41812423636146,326.19888210983214,80.71639880018145,-64.91064267974409,0
264.0,4.400088,166.0953952617298,-35.12162120771221,-40.37368322724649,275.9515038365003,68.8988577521294,-38.65869645759618,0
265.0,4.416755,188.2251994830713,-47.90448741883238,-0.9628308452578552,237.5949158699876,65.28384884876215,-14.519148015270968,0
266.0,4.433422,194.0783409866856,-45.01041478700756,21.23944393795446,208.733245820652,64.56565800707425,7.353164429523634,0
267.0,4.450089,178.60175505280162,-28.873319630185826,27.10729566974007,182.1238113507575,66.71426408954026,28.58893092201096,0
268.0,4.466756,144.32662410880656,-1.48109886662928,23.167636243055583,150.81641353146404,73.23098666917635,52.38458814872674,0
269.0,4.483423,97.60860337730016,32.779229328499696,16.93843011372673,112.46897551251088,82.36628396381653,80.96618005440776,0
270.0,4.50009,44.901055836264334,67.96830534180552,14.305571753293034,69.67791547659716,90.32397648214535,113.22984356998936,0
271.0,4.516757,-8.516078876107201,99.98276758472365,17.973315603823515,27.19204341744125,96.16816289875756,145.6213200284247,0
272.0,4.533424,-58.12814181884163,127.38764992379066,26.181660376174264,-11.386974254188416,103.01830113824036,175.4040505241062,0
273.0,4.550091,-101.25054231763318,148.75688998664685,34.51085983506875,-46.34929211612139,113.81617208612788,202.6355189477512,0
274.0,4.566758,-139.38923498575906,160.24046613334153,40.85800354951107,-82.4952383847019,127.13434956303114,229.08276604995316,0
275.0,4.583425,-176.6745494964266,156.248724186811,47.435166706571145,-125.20537048941002,137.32301349033892,255.25508494967423,0
276.0,4.600092,-213.56369196811195,132.6172927174211,56.63887386322536,-174.37938463799438,137.717773867308,278.0233180162396,0
277.0,4.616759,-243.75920969920196,89.45392970071799,67.17672691371213,-223.5438937143316,123.79539674220833,291.5991546211464,0
278.0,4.633426,-259.25330430557386,31.470934434106383,76.27580884472519,-265.9754144525416,94.94622046249836,292.0738264321719,0
279.0,4.650093,-257.6960765655242,-33.67533625072808,83.75092305483646,-300.40872866044907,54.87015512237197,281.1249621981417,0
280.0,4.66676,-244.59992115677323,-97.11343212093055,91.55878003695116,-330.25324471046525,10.509726710749067,264.77107684323084,0
281.0,4.683427,-229.5016496907349,-150.48037994433128,100.29143552594591,-359.09408567914033,-30.79088083780122,248.82264418740948,0
282.0,4.700094,-219.68708467812456,-188.3407420611369,107.97235459418016,-387.835398760309,-64.92718874281952,235.93653074549167,0
283.0,4.716761,-216.1015908764552,-209.73783594629805,112.2884361241002,-414.5680788198333,-92.36878110747054,226.12818787093067,0
284.0,4.733428,-214.62563959735095,-217.43174493402944,113.01048548368114,-435.9840742638102,-115.56404358084824,218.2099433763564,0
285.0,4.750095,-211.17729474764732,-216.3016879485735,111.9763085438058,-449.8203568241852,-135.7122310702596,209.7661533781929,0
286.0,4.766762,-205.41749015305277,-211.9780499761588,111.26634271104992,-456.8218906177081,-152.6676907191946,197.0332260416544,0
287.0,4.783429,-199.9947319146438,-208.7467935098093,111.78346489291172,-459.9458420235894,-166.83367587379766,177.2908995105414,0
288.0,4.800096,-197.2781764832941,-207.6955221998811,113.19339402834196,-461.6436842373312,-179.97678169198866,152.26003210215714,0
289.0,4.816763000000001,-197.2887100433317,-207.53924540378483,114.4889760626165,-462.36959392280914,-194.47561640657352,127.82753715804564,0
290.0,4.833430000000001,-198.34069181620396,-206.99394826581116,114.56983623084588,-460.84160674596575,-212.0623641459196,109.63596312010506,0
291.0,4.850097000000001,-199.09362836280167,-205.2423813387263,112.8095427389747,-454.6091945400431,-232.6431755419465,99.39832153189492,0
292.0,4.866764000000001,-199.6006588095562,-200.4615197392725,109.13629447747508,-441.5122190986942,-253.63578194695992,94.75421833918874,0
293.0,4.883431000000001,-200.1682852373452,-189.35271666897043,103.39238780348848,-422.5610709933935,-270.4218454984757,90.83699102359115,0
294.0,4.900098000000001,-199.5541826452333,-168.65371440628556,95.08557042791642,-403.2582842963104,-278.1286579869939,82.00174768158405,0
295.0,4.916765000000001,-194.9076923615202,-137.02833121729344,84.4392132273191,-390.3927337272319,-274.13405156569127,64.38204093431295,0
296.0,4.933432000000001,-183.4323220317681,-95.9764751870916,73.5047944638138,-386.085442359217,-259.7883893095577,38.867554125597565,0
297.0,4.950099000000001,-163.97382192816025,-49.74444145686947,65.39341948357215,-384.55987187106905,-239.82961856509723,11.685394826070892,0
298.0,4.966766000000001,-137.66802896243527,-4.616305496140025,61.71999145010872,-375.83770036537794,-219.4842223906672,-9.520585237119688,0
299.0,4.983433000000001,-107.59206071042784,32.655662640665305,60.558989748198414,-354.4036454813158,-201.12803241672444,-21.744436302721795,0
300.0,5.000100000000001,-77.34197402968132,57.56392560688995,57.1590153595768,-324.57369938111464,-182.97841193663885,-28.72795525391708,0
301.0,5.016767000000001,-49.10605136088301,70.21596497434757,47.198606958976725,-296.31615196458205,-160.98005682467647,-36.301896079713046,0
302.0,5.033434000000001,-22.38362721221474,74.89199861338025,29.81180200456085,-275.9924046073006,-132.5210524894116,-46.32176464773298,0
303.0,5.050101000000001,5.855612173372901,76.81421910713927,8.1139593340739,-262.2408928642475,-98.6586437957393,-56.23321690253551,0
304.0,5.066768000000001,39.284562296483976,79.1144345766858,-12.25188888366828,-249.7605676054509,-62.48774017958206,-63.32562281030766,0
305.0,5.083435000000001,79.2551133845798,82.20577183502081,-25.31438244978616,-234.57436475992108,-25.50715417799585,-67.13895030311019,0
306.0,5.100102000000001,122.97810985497804,84.7729997257967,-27.57355570811645,-215.54396909262675,13.403427440142604,-67.98167491934014,0
307.0,5.116769000000001,164.99452273107073,84.5819759134375,-19.95787071259232,-193.084867995777,55.03158002725234,-65.51690969344143,0
308.0,5.1334360000000006,201.1895934429387,78.92334842379506,-6.193524907663967,-167.56281623312336,96.81150047463636,-59.67444401158328,0
309.0,5.1501030000000005,231.52190650104117,65.96124644939636,11.091630455382408,-138.12547333904268,133.5529532101023,-51.66723761508051,0
310.0,5.1667700000000005,258.67943407180815,46.68061357817385,31.203350757249037,-102.64162031971613,160.96569745689453,-43.43851755362121,0
311.0,5.1834370000000005,284.7099231498685,24.941650891604848,52.61827849305706,-59.40816330988477,178.32003092925794,-36.69646759516194,0
312.0,5.2001040000000005,309.62891158773334,5.387043746401304,72.17089811753615,-9.057281126974072,188.47646946491705,-32.407054801667044,0
313.0,5.2167710000000005,332.5577104476738,-7.6243639758037745,87.69446179444097,45.888388522126746,196.4811417876972,-30.02557371856265,0
314.0,5.2334380000000005,352.96278362914904,-9.020680348347945,99.17248774943188,103.29848005976925,208.2454208745912,-26.458143852324422,0
315.0,5.2501050000000005,370.61912999761023,6.441926727076538,106.47586668137984,162.1330493344302,228.63588051720245,-16.504245248821768,0
316.0,5.2667720000000005,384.84418487486846,39.49048857352183,107.97729945196762,220.43108913951608,257.5138027892202,3.840708731439965,0
317.0,5.283439,393.91731743525673,81.40024944420838,102.660802647065,273.8598235475389,285.9039043196031,32.919815349444974,0
318.0,5.300106,395.2301621463548,115.87986344922012,92.46828638891724,317.70387985118504,297.9088698715678,62.01603043517177,0
319.0,5.316773,386.0319387143978,128.47549232478346,81.33666193519369,350.29567915894324,279.69753988509456,79.40671979692485,0
320.0,5.33344,364.3347202157104,115.50548027921188,72.37267838441016,373.5821267105606,228.68838280021484,77.4027417966401,0
321.0,5.350107,330.3977377149396,85.38548341732786,66.85447391457281,390.4582064328845,155.4790311269628,57.42092753220415,0
322.0,5.366774,288.6064342800478,53.08179374181098,65.09764882960849,402.89783170592943,78.27934642043675,29.737978599519632,0
323.0,5.383441,246.91602069641937,32.33111636514288,66.11218715613998,412.7849328716686,14.332327617288351,7.780616370934134,0
324.0,5.400108,212.0374931108768,29.542068360943503,66.26417932146634,422.48501302564864,-27.25812800031109,0.3633731833772327,0
325.0,5.416775,184.190852654368,42.687424915628014,60.68580596814502,432.8858835107539,-47.32586541849858,7.587727026117193,0
326.0,5.433442,157.1462152064195,65.71840106245551,47.30148533588596,441.3541233705973,-52.12200491637319,23.366317011862925,0
327.0,5.450109,123.66170154513333,93.45477176867658,28.58767292186944,442.8452851789601,-47.49940206289841,41.21272554778654,0
328.0,5.466776,80.94992761772369,121.58416703756065,9.101374565971254,433.3450477177973,-37.06741654469901,57.92195147432096,0
329.0,5.483443,31.87693632860417,143.92954727382815,-7.728382462104788,412.2856094365456,-23.427419519331995,73.61815803669523,0
330.0,5.50011,-17.71801723083128,153.47957222067507,-20.24070002759584,382.4308476359771,-9.014991039730727,89.8307401297844,0
331.0,5.516777,-62.47854060502347,147.37629665948643,-27.315554312065373,348.1214231370285,4.275050419685479,107.24027085415648,0
332.0,5.533444,-99.4997483431076,128.9348286258849,-27.8860652685322,313.0520121236452,15.70206063138276,124.3691358433864,0
333.0,5.550111,-128.65997522111894,103.44449088322672,-22.167983833348732,278.66670802161286,25.60925732519129,138.4336948907577,0
334.0,5.566778,-151.9921268966828,73.32316198579261,-12.81690819421715,244.2507013641478,34.5009018052687,147.6931685134936,0
335.0,5.583445,-172.49417292906372,38.6281424390735,-3.865060321994712,208.44830692044968,42.400878265900765,152.54627646828982,0
336.0,5.600112,-192.86570896422975,1.1140366266432822,1.8917619257084397,170.575379600495,49.39435312466957,154.4335362181369,0
337.0,5.616779,-214.72070291450436,-34.32918830016745,4.359413032838289,131.01032186747938,56.20131011825063,154.47051294191968,0
338.0,5.633446,-238.203707555198,-63.04341352668203,5.19705259461459,91.20597652846256,63.42628662895611,152.85211029350225,0
339.0,5.650113,-261.77582004090704,-84.7060263574807,5.714787163399024,52.928377463901526,70.49837746433161,148.8217307966706,0
340.0,5.66678,-282.6054387777544,-103.10068142694924,5.717388871067177,16.27581256855631,76.00937405507719,141.7246492709668,0
341.0,5.683447,-297.9472797014764,-121.78518622242872,4.272319790144951,-21.05969407386341,78.98153552831951,132.07054323588034,0
342.0,5.700114,-306.7739663747549,-140.7437713097655,1.27444612357618,-60.72434667091213,79.43431559907808,119.9186419951022,0
343.0,5.716781,-310.3679574700568,-157.28962304395628,-2.293594119730397,-99.90880536651385,77.93943137903563,102.32219317167248,0
344.0,5.733448,-311.24405099719223,-169.43130288179665,-5.63797367088338,-132.6421175924678,74.64990753774612,75.10082893952298,0
345.0,5.750115,-310.9101121979049,-178.28696793892675,-8.809424653460571,-155.71313807573995,68.18350176144563,38.27415757708222,0
346.0,5.766782,-308.3795275982672,-187.5552119988124,-11.668848758628334,-172.01889501387416,55.81782117771921,-1.9260089830282965,0
347.0,5.783449,-301.63877709806945,-200.1838333832413,-13.363522831519736,-187.17375962485752,36.15812221797768,-37.62009407584024,0
348.0,5.800116,-291.07814166553914,-215.12792594921444,-14.094987358362332,-203.9063031469389,11.801112690520537,-65.39958752977911,0
349.0,5.816783,-280.46816953712846,-227.64748969064064,-16.64120738499313,-220.82168841961936,-11.836927863092049,-87.54998085631752,0
350.0,5.83345,-273.6799454740058,-232.8076298371149,-24.49612457650501,-235.4441225309581,-30.926597639118818,-108.1026985646993,0
351.0,5.850117,-271.05432700228937,-228.37797035374277,-38.59409667702592,-246.5579631369903,-46.2912403838389,-128.96708851694223,0
352.0,5.866784000000001,-269.5159457613763,-214.83550187756535,-56.893327576540486,-253.72269727331349,-62.27638563569239,-149.70410198489878,0
353.0,5.883451000000001,-265.77250610328963,-193.656182316132,-76.8483958619029,-256.1662205553537,-82.65878477835821,-169.3236267532992,0
354.0,5.900118000000001,-259.2637582890546,-165.93382569637578,-97.29470413236776,-253.0880444823341,-107.04470216537402,-187.18593193613583,0
355.0,5.916785000000001,-252.2618994555069,-132.3180041335732,-118.03189199761172,-244.76142804296728,-130.9778321194472,-202.772655673274,0
356.0,5.933452000000001,-246.7491212435492,-94.25356176773096,-138.4825976870206,-232.82240941527917,-149.9738404246271,-215.5753380249901,0
357.0,5.950119000000001,-241.28768393752352,-55.13415810281486,-157.30285817452352,-219.42511619030012,-163.30847318504036,-225.1211152696233,0
358.0,5.966786000000001,-232.2581600682222,-19.46228350719264,-173.1350524343634,-206.15838076880212,-173.20295179848856,-230.5760667611283,0
359.0,5.983453000000001,-218.2732106685376,9.59321706169488,-185.31572371638327,-193.57730271683053,-180.73653240370675,-230.66893991368585,0
360.0,6.000120000000001,-201.4055853410865,31.636159628681984,-193.7959568723396,-181.6893091891461,-183.91562445284904,-224.78128609527232,0
361.0,6.016787000000001,-183.56448985563355,48.26407371667612,-198.68809454631565,-170.86705491489136,-180.05985253540848,-213.9870987498271,0
362.0,6.033454000000001,-163.83640261010652,61.56452542867624,-200.0260592924134,-161.98373105810174,-168.9463906655622,-200.3802528778732,0
363.0,6.050121000000001,-140.36899120854483,73.46382196986141,-197.8780746884985,-155.52538283651876,-152.8144494687638,-185.50233617196912,0
364.0,6.066788000000001,-113.01208195092563,85.549651308031,-192.60352498145528,-150.94124060146123,-133.91944281672235,-169.79926714632202,0
365.0,6.083455000000001,-82.85850660815913,98.43927300864397,-184.80276684052745,-147.03040483565962,-113.08515899161188,-153.10356534221782,0
366.0,6.100122000000001,-50.67059414886788,111.10309334032932,-174.99527633417736,-142.5765210594864,-90.54006016585228,-135.0128955683577,0
367.0,6.116789000000001,-17.477910981092023,121.04983125315266,-163.77000456514253,-136.45711792311408,-67.14836536578993,-115.1186470002154,0
368.0,6.133456000000001,13.928455717527806,125.43451164053184,-152.35095227043544,-127.65306256675127,-44.33520049272197,-93.59209059694162,0
369.0,6.150123000000001,40.087770989262914,122.83781162457235,-142.21973998989608,-115.53539143125867,-23.200078810375125,-71.68750773288507,0
370.0,6.166790000000001,60.25263822769878,114.95957401063872,-133.36609177287684,-99.81602258052077,-4.057319851198854,-51.191878786841954,0
371.0,6.183457000000001,77.90902004896617,106.17276571005372,-123.16150603126076,-79.93263258472814,13.148867712739392,-33.030504014790786,0
372.0,6.200124000000001,98.03270149972724,100.2138297340526,-107.94236561467356,-54.97769652120356,27.96461365675737,-16.586907682883645,0
373.0,6.216791000000001,122.65646322917196,97.20253648878924,-86.2167936611289,-24.8446174523583,38.96746173401327,-0.6770647671205219,0
374.0,6.233458000000001,149.3379069072824,94.33454352449738,-60.10438291023036,8.71504591541869,44.431638226264354,14.83329803856953,0
375.0,6.250125000000001,173.93370859033732,88.97240322761884,-33.456248712851924,42.52344883019732,43.69862816487172,28.51319897502541,0
376.0,6.266792000000001,194.37556044397428,80.60311263374126,-8.876106991504837,73.58586102477358,37.94865651771663,38.65559005151831,0
377.0,6.283459000000001,211.49988965862445,70.71615213046314,13.183311794665702,101.23439826238452,29.843458161297733,45.490336659635446,0
378.0,6.300126000000001,227.18994651073044,61.80892882573214,33.30583638979165,128.7501191143822,22.60290866588262,51.99507381641419,0
379.0,6.3167930000000005,242.9231741078648,55.96519366465352,52.38783827360656,161.50565981464132,18.756647949261687,61.566404714934464,0
380.0,6.3334600000000005,259.5062714045404,53.28625061054767,71.40020726914068,201.0131860213004,18.68365534338009,74.58518918902438,0
381.0,6.3501270000000005,276.5537877220834,51.73005247475747,90.16371069655878,241.3655129404564,20.25895896030836,88.25177649383795,0
382.0,6.3667940000000005,291.913384017856,48.88778411612266,106.64875232965792,273.98355972460706,20.61123037402869,100.14544985621144,0
383.0,6.3834610000000005,302.5580739001041,43.59880378782987,119.05366305563544,295.37275118195896,18.356588503062586,110.62959057366577,0
384.0,6.4001280000000005,306.73247977373194,35.78340749744339,128.2740543993545,308.20949036640684,13.895886786365606,121.16298633041762,0
385.0,6.4167950000000005,305.4506781509324,25.697708689616707,136.96609875066918,315.9810739653831,7.902671624109095,131.6790512514392,0
386.0,6.4334620000000005,301.8873226434372,14.095174007832949,146.50556438383816,319.1856817286363,0.3404211480839745,140.5036620715324,0
387.0,6.450129,298.9821695898688,2.5850663428379588,155.9565604038468,316.5636343443284,-8.566409430694904,146.08202089014412,0
388.0,6.466796,297.165191261598,-6.943492809356997,163.61025368101429,307.96192937807155,-17.017147121198256,148.44133377875977,0
389.0,6.483463,294.0413600560726,-13.21706517922652,168.37620499001554,295.24396764715704,-22.491825024171483,149.25031538129923,0
390.0,6.50013,286.5576337684128,-15.73863687154715,169.8307653190209,281.1378323194266,-24.098558704914943,150.13252873675964,0
391.0,6.516797,274.4021527865776,-14.682518998821545,168.0602563425271,267.62438451465766,-23.505814248151097,150.8876136293219,0
392.0,6.533464,261.2309412398925,-11.23375918248933,163.73090964658843,254.9952840984133,-23.653859859514665,150.1634873329102,0
393.0,6.550131,251.2274108536681,-7.313985296330452,157.67535059438356,242.0615094943961,-26.48290849699216,147.6834091602612,0
394.0,6.566798,244.47285935927167,-3.697180403843045,150.31785078895706,227.3299515044423,-30.681480494275974,144.5588834862508,0
395.0,6.583465,237.24142405971727,1.7311051764250034,141.8093972877531,210.08141842079573,-30.925410282072036,141.5383115784808,0
396.0,6.600132,226.7046864804593,13.0573438573645,132.26579469930311,190.3363807178979,-20.487546416333696,138.32946790815413,0
397.0,6.616799,213.5555210682688,33.047979865100146,121.24923911218472,167.9768471395911,3.741906636481581,134.64166491699524,0
398.0,6.633466,199.95876633888216,60.02553920610448,107.5616116662289,142.29243194741994,37.92196137302052,130.3434607803445,0
399.0,6.650133,186.8505371203509,87.0810632460633,90.73115908914042,112.81354148884404,72.5664644987315,124.02278531693358,0
400.0,6.6668,173.96626927154418,104.34362501152484,73.01129216955673,80.50428989902632,97.46787372584669,112.76991744780544,0
401.0,6.683467,161.00323147428014,103.56967517827032,59.17021458597411,47.28647548333981,106.66825747511476,94.65717527545708,0
402.0,6.700134,147.42256205648033,83.02344096702348,53.518290474700265,13.94955944637925,100.83012815157036,70.90827524406214,0
403.0,6.716801,131.97282281944376,49.84554764634903,56.88005329241296,-20.758661147825908,86.74414203037765,44.5615052535391,0
404.0,6.733468,114.16123404205126,17.552785087567088,66.2373885825517,-58.30100429851517,74.42739448857692,17.37316528678609,0
405.0,6.750135,96.1324578847598,-0.9651342754608194,76.75825500885037,-97.888413500299,72.24670958552151,-10.63628644682243,0
406.0,6.766802,81.39482095621685,-0.4836243909827669,84.04749929045445,-136.1861847357737,82.19790934568879,-38.64126446769721,0
407.0,6.783469,70.95277861550537,15.025840014389072,85.20889939506539,-169.3709657899918,98.897659344191,-64.00376846857846,0
408.0,6.800136,61.552667937860335,37.13549896722111,78.71473287515448,-195.4713866260312,113.35041512443658,-84.96618403029441,0
409.0,6.816803,48.4032910729814,58.84246809334945,63.8633361911739,-214.7180984881688,118.17055674844111,-102.95607646832616,0
410.0,6.83347,29.363603982344145,76.59394123207743,40.83984715963624,-227.642124901879,110.22413595972762,-120.71950047554272,0
411.0,6.850137,6.1187138979549545,88.78299312729334,11.48870136936861,-233.38924594684312,89.90418865338481,-138.78920774004905,0
412.0,6.866804,-18.481983574081813,94.28002387015596,-20.549360528758253,-230.47302918567487,58.94474285555242,-154.7407528453735,0
413.0,6.883471,-43.31604065354453,92.56527687530136,-51.00771359920384,-218.89903471434152,18.963665786464706,-165.4977726558812,0
414.0,6.900138,-68.68975510361611,83.88370095361458,-76.37169965357532,-201.0053978917392,-28.169512233203328,-169.90409602949862,0
415.0,6.916805,-94.0579347013102,68.1744896126826,-94.90834015837969,-180.343329267284,-78.95769773019977,-169.54652937884657,0
416.0,6.933472,-117.37432305172554,44.58420403161611,-107.39081893421232,-160.07345629812068,-127.93675367682408,-167.56092809760102,0
417.0,6.950139000000001,-136.48886427172366,13.890900376076145,-116.0959102045788,-142.22842126995994,-169.0752352537492,-166.4248700269646,0
418.0,6.966806000000001,-150.12475067988248,-18.38549713344292,-122.0603577191788,-128.08738840579838,-197.38827673736188,-166.4272131184905,0
419.0,6.983473000000001,-158.12324993650046,-43.517674763682194,-124.39310270749348,-119.001836654018,-209.52450568540544,-165.98718492026563,0
420.0,7.000140000000001,-162.25290239384762,-55.829802040331145,-123.0405533715538,-116.51709825308096,-204.05904817082927,-163.3981695549886,0
421.0,7.016807000000001,-166.2737945567867,-56.901959765898255,-120.44519558888156,-121.4258101712246,-182.28054429808043,-158.36661945044216,0
422.0,7.033474000000001,-173.65963490492524,-53.29748359387336,-119.33691649816956,-132.91289886914046,-148.55158615619337,-152.16661780966606,0
423.0,7.050141000000001,-185.11901957083396,-51.14747719040287,-120.12524488003118,-148.9748370578472,-109.06588602153698,-146.70241303187652,0
424.0,7.066808000000001,-198.52445641721283,-53.2237024280405,-120.9750367117828,-167.5991128013158,-69.54353716182816,-143.28236589151777,0
425.0,7.083475000000001,-210.48273866373893,-59.97337239332701,-119.20565626771436,-187.26089915377707,-33.64332573390968,-141.45594727031582,0
426.0,7.100142000000001,-217.72790356355736,-71.7682217218472,-112.19182150790502,-206.3699334209851,-3.110078143888593,-138.69579297602144,0
427.0,7.116809000000001,-218.2018928257144,-89.17018961838421,-98.194680134154,-222.78215694802677,21.018586377247416,-132.19136920089986,0
428.0,7.133476000000001,-212.0187263971584,-111.02888153323032,-77.57271240836468,-234.3300817520588,37.50030522313521,-121.89996887379004,0
429.0,7.150143000000001,-201.39053577110505,-133.46116470204186,-53.18004369629843,-239.58247453510015,45.106680430400274,-111.19077125630388,0
430.0,7.166810000000001,-189.051215740353,-151.78214302798546,-29.05144463920828,-237.5326636182561,44.04344347159676,-103.31022737929877,0
431.0,7.183477000000001,-176.5834903133616,-163.09455597036825,-8.465659602130327,-227.0532999553913,37.435342999066734,-97.45039389961111,0
432.0,7.200144000000001,-164.2453139171398,-166.40246571538987,7.0103043945631285,-207.9541412102364,30.7807903733196,-89.31718498305605,0
433.0,7.216811000000001,-151.89973059840997,-161.30181376503214,17.37771341932956,-182.59978472944567,28.949445219180312,-75.32803873631059,0
434.0,7.233478000000001,-139.64761468465093,-148.16706676288752,23.807491369843262,-155.22870892151133,33.43414076783035,-55.20042238299947,0
435.0,7.250145000000001,-127.7398204801344,-129.35265684930994,28.19724404309457,-129.35514045226745,42.357199996961846,-30.8875445393617,0
436.0,7.266812000000001,-116.12589028912204,-108.72896606682194,32.43678283537547,-106.40172720725278,52.28191822695084,-4.75028169401031,0
437.0,7.283479000000001,-104.07808341292952,-89.41111543923084,37.75676981767919,-86.27061551462035,59.84620739875588,20.795648927365704,0
438.0,7.300146000000001,-90.23838621345116,-72.12320927589752,44.777598140576266,-68.00521796058693,63.16463980191732,43.29776599452919,0
439.0,7.316813000000001,-73.0828418623753,-55.68400361553708,53.98035742142065,-50.19743876994731,62.912981755455576,61.08460328556323,0
440.0,7.333480000000001,-51.681022925377725,-38.5946876255241,65.63581474478026,-32.06711793719457,61.58922808928525,73.98008615034678,0
441.0,7.350147000000001,-26.613155039757107,-19.9566987374906,79.04088738366963,-14.409738584979788,61.110648585723794,83.18438466488374,0
442.0,7.366814000000001,-0.3210541081692613,0.3315018213732801,92.20099465239896,1.0255904287925897,61.32500096005164,90.61948927068217,0
443.0,7.383481000000001,23.9643927856573,21.03054951427371,102.79701629328191,12.91231131174684,60.65887568569589,97.8218725332674,0
444.0,7.400148000000001,44.28905507150509,39.15813665954608,109.65669910354296,20.867401323346844,57.60818803235804,105.05179068599202,0
445.0,7.416815000000001,61.24325546794881,51.10494301205521,113.26130393733698,25.48144742402414,51.702745166132416,112.00549842089364,0
446.0,7.433482000000001,77.16063349517566,54.59005293097261,114.9415047840526,28.57358443096657,43.523325211961485,119.29093719222035,0
447.0,7.450149000000001,94.06518399618862,49.64307443778623,115.7875162840543,32.63662394871988,33.99047427947875,128.02755849814724,0
448.0,7.466816000000001,112.34544825719364,38.60779927032357,116.15419412227148,39.20398357206159,23.879392846253477,137.79890668196583,0
449.0,7.483483,131.01699079323814,25.663532812289365,115.65957795877036,48.17688673127464,14.068513994474074,146.26869031075114,0
450.0,7.50015,148.76345394926335,14.914869018791236,113.53461502219967,58.83312092877206,5.5091515107531945,151.58423241769464,0
451.0,7.516817,164.7761589977415,7.643977136428197,109.47408196814496,70.59255055753148,-1.5727194323190024,154.49642058137673,0
452.0,7.533484,179.0533641949441,1.9855333539529136,104.38875627123484,82.75475898123388,-7.779145574153557,157.28465873331243,0
453.0,7.550151,192.0190052162471,-4.140341289667845,99.98958929077894,94.53413999128291,-13.21708818755322,160.87252059855334,0
454.0,7.566818,203.71584274006807,-10.3784406074503,97.44861288724792,105.64916750395324,-16.61079519315742,163.93219000357,0
455.0,7.583485,213.5121986800808,-14.370363089087077,96.6451690889926,116.2412340987388,-16.44678578738492,164.92535482493702,0
456.0,7.600152,220.7904187246432,-13.79836465138683,96.59725321721032,126.09017671004293,-12.472931734790423,164.04217240160455,0
457.0,7.616819,225.76521489752804,-7.148861472373969,96.12577801355876,134.4114580985788,-4.929947956400599,162.5994734177607,0
458.0,7.633486,229.27069806081903,6.878960873145678,93.99656572495095,140.46670217066722,7.23936834431826,161.25373911708562,0
459.0,7.650153,231.4107910159589,28.86856577775072,88.94941032181642,143.98236971491568,25.311004810673804,159.51578351075926,0
460.0,7.66682,230.4472832550107,56.45760330653774,80.03625312192729,145.03485427990935,47.11733144486717,156.6024008015543,0
461.0,7.683487,223.6372877071984,83.37303573106416,66.89254495305872,143.936664300901,66.16768389348931,151.90566125082677,0
462.0,7.700154,209.5390944115341,102.14587383448294,49.73185037014482,141.24315853423684,75.95374791131087,144.41667154775726,0
463.0,7.716821,188.9576931543692,108.6419794597348,29.588206980763445,137.76973255409524,74.69439906319757,132.15227317666913,0
464.0,7.733488,163.46527140185285,104.5410427435666,8.778068643517855,135.0773804693829,65.28973346148524,112.74314620485632,0
465.0,7.750155,134.03749025306016,95.79823563302588,-9.653778694594145,136.16011105613927,51.59466644532134,85.13617376042066,0
466.0,7.766822,101.65458588002824,88.48962006442491,-23.90966048524642,144.4910178827742,35.91836992094877,51.15159349629478,0
467.0,7.783489,68.01341894330196,85.8108100473195,-34.91553136147642,160.82940491765896,19.82729564453367,15.382095718575991,0
468.0,7.800156,34.35182837333407,88.42426408168927,-45.36042071483387,180.7360774199552,5.950609813747064,-16.68663349923986,0
469.0,7.816823,0.0212594979927289,95.95095823111367,-57.15113184591641,196.07636172742343,-2.060278121984421,-40.64328647505101,0
470.0,7.83349,-36.45530573420443,106.7110137314492,-69.8639153175092,199.68017797288977,-1.5420032504785923,-54.00241383840723,0
471.0,7.850157,-74.57914245585177,116.80171005300028,-81.41120236510147,189.1288492348115,7.417489202083705,-56.64824144458326,0
472.0,7.866824,-110.78631756009042,121.02815867377376,-89.82518251398096,166.89307114144523,22.123386473652797,-51.31301540746711,0
473.0,7.883491,-140.5429570816966,115.03854802117549,-94.35392682464423,137.59116727959727,38.378457672381614,-42.9739167620834,0
474.0,7.900158,-161.37146189356082,96.57621633528476,-95.26364955692102,105.13012485063638,51.15598127337191,-36.77406605189776,0
475.0,7.916825,-173.83854536666723,65.95508922588905,-93.15414418682704,71.71994314595361,55.870348753115685,-35.97647641858492,0
476.0,7.933492,-180.0510280366091,26.506699460756657,-88.6528213312497,38.73656066710164,50.98560447319461,-41.24589861116164,0
477.0,7.950159,-181.72516252542937,-16.052664317810475,-82.60857063565207,7.861404822470418,39.29458521217008,-51.049384427738815,0
478.0,7.966826,-179.94440096348922,-55.93284057464212,-76.48118447858056,-19.032754675781693,25.700809238975065,-62.59217499968053,0
479.0,7.983493,-176.38337654614122,-89.3265524022336,-72.31355759310946,-41.02994035242875,13.728098618029142,-73.01043371732345,0
480.0,8.000160000000001,-173.73363820398416,-114.5409618673584,-71.74365697612443,-58.74361406387708,4.077195405815393,-80.44377995982131,0
481.0,8.016827000000001,-174.23491565297456,-131.26665028926325,-74.72803351557123,-73.57227495819721,-4.422598407718684,-84.57934666969717,0
482.0,8.033494000000001,-178.16728522025645,-140.4255654327573,-79.57854737012528,-86.70222993931509,-13.166502977913474,-86.5085935357636,0
483.0,8.050161000000001,-184.3894242452949,-144.00215033586002,-84.61971163960243,-98.97648035543578,-22.692218771822283,-87.93403007491148,0
484.0,8.066828000000001,-192.1028627711684,-143.9420258163417,-89.67636348754478,-111.12156104132862,-32.44410596316812,-90.18861644089438,0
485.0,8.083495000000001,-201.3762188277679,-141.02765007438785,-95.77779096282916,-123.46681493390446,-41.37221797386415,-93.86028182206783,0
486.0,8.100162000000001,-211.86436249751367,-135.13047006434047,-103.70002638284429,-135.5543775772109,-49.0743472627838,-99.19208119463606,0
487.0,8.116829000000001,-221.6814195330179,-126.40855578531448,-113.02240092223263,-146.19272691423026,-56.44586610937111,-106.485178850395,0
488.0,8.133496000000001,-228.127863473945,-115.88490600301128,-122.22176340932567,-153.75869459887457,-65.00151990766027,-115.90801151935464,0
489.0,8.150163000000001,-229.5209002120452,-105.0957678791357,-129.27566377821816,-156.7846648654454,-75.56724270573645,-127.15635367835633,0
490.0,8.166830000000001,-226.02435898917724,-95.73279294224535,-132.4924788831005,-154.93534305456416,-87.73547490223478,-139.52715319503997,0
491.0,8.183497000000001,-218.8866410778772,-89.45881748196763,-131.47343049192776,-149.57847428670271,-100.31134492653752,-152.12588450398275,0
492.0,8.200164000000001,-209.6122538212501,-87.19623316217428,-127.67831708313848,-143.324454806518,-111.81051626957546,-163.78290098570474,0
493.0,8.216831,-200.09449331548436,-87.71506022048972,-124.02446153867632,-138.99208435417046,-120.11358834156675,-173.00697274546843,0
494.0,8.233498,-192.5743338126634,-86.3521637151702,-123.54413569649977,-138.38063398119868,-121.46064964986476,-178.6311364730317,0
495.0,8.250165,-188.2401023178323,-75.69693542642707,-127.6995015295206,-141.10098108778254,-110.8623978620052,-180.79497524674616,0
496.0,8.266832,-185.7446132954053,-49.99533685088571,-135.20775061929464,-144.5570954390407,-86.02579100269314,-180.6820336312948,0
497.0,8.283499,-181.7758464056587,-11.285430550914729,-142.2211929438951,-145.7258418946834,-52.34252659525482,-178.64436515325636,0
498.0,8.300166,-173.138562890838,29.27736086005937,-144.17473529642265,-143.41101429181288,-22.288384450174227,-173.21812337404413,0
499.0,8.316833,-157.93929649851697,58.42487470658587,-138.26261393246503,-138.8442241769701,-7.19043824527637,-163.0513905077302,0
500.0,8.3335,-135.75812025967923,70.025931295725,-124.60157675031462,-133.9126316590196,-9.119649072261309,-149.36642955431677,0
501.0,8.350167,-108.43583789144904,67.37067502470315,-105.42265294823432,-128.78922360360195,-21.29426571255624,-135.05306828541114,0
502.0,8.366834,-80.34788505983835,57.58138483770044,-83.67476052164146,-121.7353275429034,-34.764883896543964,-121.20469524227552,0
503.0,8.383501,-55.861897456568826,45.71564925013922,-62.21252299682328,-111.30041733370216,-42.92982262744927,-105.93487102636426,0
504.0,8.400168,-36.02061958874936,34.190712150384634,-43.15918687574201,-98.0034333711168,-41.63960303352592,-87.11481121687014,0
505.0,8.416835,-18.591456122686395,24.984356240117044,-27.25620944073409,-83.50117913615476,-29.26236290045292,-65.19170880104248,0
506.0,8.433502,-1.2222250714857226,19.71917719423497,-14.047865744818566,-68.70925990127459,-8.09006480412258,-42.67107246179809,0
507.0,8.450169,16.234238656092842,18.19338230119781,-2.824324908455515,-53.26504555055985,16.253568831232503,-21.644842610009977,0
508.0,8.466836,32.31698323464457,18.784360403060568,6.884741058515586,-36.50878843810388,38.19352502783259,-2.6457092231844546,0
509.0,8.483503,46.00747963634314,20.30306741489428,15.469624028796831,-18.331084866400243,54.7784354969435,14.433575778959629,0
510.0,8.50017,57.8015880045466,22.505108389795524,23.234620169356795,1.1145677053200296,65.25285281126821,29.141105949753214,0
511.0,8.516837,68.99120027619318,25.26936255466873,30.08215260317048,22.07421863280711,69.4846792446097,40.41743973444311,0
512.0,8.533504,80.14594142421188,28.32044531204086,35.40423364615666,44.9494945192561,67.66668496095419,47.44779637158331,0
513.0,8.550171,90.26516592083318,31.652094646283683,38.423637956687145,69.12204532904315,61.06709953915176,50.41459912830625,0
514.0,8.566838,97.42815451801393,35.52549552698802,38.80258492677154,92.2511825206512,52.09162095614175,50.54733566680174,0
515.0,8.583505,100.5855839474972,39.95760867776722,37.13689123625452,111.16712588541492,43.31122730954387,49.58479945399658,0
516.0,8.600172,100.91011109874496,44.6503652051607,34.976033572632566,123.7670259449327,36.65911437396929,49.08690792309922,0
517.0,8.616839,101.13123412548124,49.45214064891604,34.13699067420396,130.23821505201806,33.22146121843069,49.903576416280806,0
518.0,8.633506,103.36604230507064,54.27961594173526,35.46433568385278,132.54195968902312,32.91118517942781,51.99380152674564,0
519.0,8.650173,107.77344489206138,58.32240125998084,38.13017135655952,132.72335716935194,34.112572764775315,54.71223195823354,0
520.0,8.66684,113.14561034246525,59.76941648936951,40.602455220663536,131.68591816781512,34.255266054974065,57.338025754834845,0
521.0,8.683507,118.09649035528528,56.78739171560089,42.30216506207341,129.28684035304582,31.319303979813217,59.41513461939727,0
522.0,8.700174,121.57846605509611,49.09524596365168,43.75378284745828,125.12050965659112,25.11626795918895,60.800798215741565,0
523.0,8.716841,123.11810939139988,38.72925359471637,45.181132302291616,119.18796563220528,17.41478855458142,61.63302777182528,0
524.0,8.733508,122.90837217041437,28.905877116303508,45.6533856926897,112.13066399677894,10.939044856772078,62.32538352471754,0
525.0,8.750175,121.05877646567208,21.73560073578297,43.86814877186451,104.72721976709636,7.955400693261945,63.45973739172457,0
526.0,8.766842,116.61672999892778,17.144248205995808,39.46098440650554,96.99181659765586,9.028201799849068,65.34890671287086,0
527.0,8.783509,108.06771473335348,13.963022421565633,33.27276768107285,88.15144696851101,12.30750403225374,67.43511991736258,0
528.0,8.800176,95.22442930766964,11.480153885512228,26.39523912788139,77.70031039970645,14.337973204578464,68.43915502224075,0
529.0,8.816843,80.19426484840369,9.772389753926156,19.27660936235161,65.95603967272694,12.716347652027077,67.54548437433522,0
530.0,8.83351,65.94217186545168,9.173447866045787,11.94765212556324,53.51574053345024,8.108651176487333,65.08282869015783,0
531.0,8.850177,53.95615085109768,9.853243310903498,4.835232113217786,40.89075924989032,3.062847120664593,61.75209062854925,0
532.0,8.866844,43.58252176690648,11.630275182824196,-1.078434126807001,28.698296620753705,-0.6961917337924719,57.9787699357354,0
533.0,8.883511,33.243441072309466,13.93439791097114,-5.001266066752832,17.351806022538533,-3.0688418117091336,54.333333951127294,0
534.0,8.900178,21.69627424299425,16.07518116879309,-7.112549634214756,6.408472070371469,-4.628366212470134,51.38807054138477,0
535.0,8.916845,8.553349021037011,17.455978950971883,-8.433251925920976,-5.113527049431876,-6.17092847494864,48.65428835322528,0
536.0,8.933512,-5.409221460222907,17.320617332129515,-9.71598580967884,-17.62538183800408,-8.680813781248247,44.873414798924045,0
537.0,8.950179,-18.33119237146784,14.728015644648906,-10.48956183205383,-30.545383288575454,-12.485908147268365,39.89177112744609,0
538.0,8.966846,-28.288320456229183,9.3637149388627,-9.518060146715932,-43.004909614427895,-16.53145097780134,35.195328703327924,0
539.0,8.983513,-34.73039563790441,2.1860877938991865,-6.26986213434881,-54.76152408739998,-19.315191329693285,32.066832502610026,0
540.0,9.00018,-39.041502156856055,-5.123780941817229,-1.5264622993525792,-66.24062689036117,-20.613453997962772,29.952574741683662,0
541.0,9.016847,-43.50164514907596,-11.266752262128543,3.6076712197351855,-77.45952086549357,-21.82953865401373,27.160345902096147,0
542.0,9.033514,-49.52963099037975,-15.900323993150227,8.789009834601897,-87.12781362552931,-24.50963527251656,22.8697187235722,0
543.0,9.050181,-56.93976071651818,-19.468817553509528,14.178082090605752,-93.52995437047808,-28.649124965520578,17.98349825483715,0
544.0,9.066848,-64.60922154293075,-22.59252089596911,19.438447213235133,-96.45970397671786,-32.5180609092614,13.766970849139469,0
545.0,9.083515,-71.41011321233579,-25.526236768589754,23.51004083717535,-97.71152800608554,-34.170726359463025,9.942357998321206,0
546.0,9.100182,-76.70020949946037,-28.187878715140947,25.55373800679172,-99.45438089876706,-33.21563766295853,4.938454482782921,0
547.0,9.116849,-80.48529186292447,-30.54783042605497,25.923401213382437,-102.42596687039006,-31.226835904063176,-1.6773373867901231,0
548.0,9.133516,-83.18003711691912,-32.663298658343926,25.92062733374258,-105.64492282810758,-30.45149812380872,-7.941658715069185,0
549.0,9.150183,-85.11345773020511,-34.322837324308374,26.54695559519796,-107.42040287896158,-31.98548124939533,-11.59366137591084,0
550.0,9.16685,-86.42248951783027,-34.98166924010808,27.63121283839867,-106.54883122604976,-34.97577666381611,-13.01338900830893,0
551.0,9.183517,-87.3222448428156,-34.15982018709481,28.145724006358577,-102.94376753011306,-37.394144680302205,-15.006204558838936,0
552.0,9.200184,-88.0250043612182,-31.76108167929633,27.181703928935374,-97.50869455095668,-37.62603071719727,-19.45288305167303,0
553.0,9.216851,-88.11050983447305,-28.134986066382677,24.621976056405263,-91.43416437962466,-35.590238690103725,-24.91548504420524,0
554.0,9.233518,-86.13209559421168,-24.18937223113113,21.141090632082083,-85.45111525474749,-32.45207243933153,-28.118051826734764,0
555.0,9.250185,-80.44848670327609,-21.306023764196148,17.753847795944605,-79.65584891903796,-29.22355631423659,-27.46717268034802,0
556.0,9.266852,-71.00597923805016,-20.50226273610848,15.21988030220512,-73.90982170195096,-25.906586307110768,-24.429426800787816,0
557.0,9.283519,-60.04011930301321,-21.41273540757153,13.608641128805084,-68.11264720151954,-22.193354437373173,-21.399566480523987,0
558.0,9.300186,-50.35045148768503,-22.380531194470898,12.337609317513373,-61.97167586317454,-18.308596063797445,-18.956167564051707,0
559.0,9.316853,-43.00852116652004,-21.66763638630997,10.603120301886689,-54.8794842451688,-14.43675025325382,-15.806113184355386,0
560.0,9.33352,-37.169651664510354,-18.52998388409126,7.838450407431026,-46.52858256919109,-10.001650452533523,-11.06025446081904,0
561.0,9.350187,-31.475752921216525,-13.455240019391567,4.140548827552145,-37.669155397060095,-4.552467183676494,-5.623914451496004,0
562.0,9.366854,-24.864060367725045,-7.787918818403231,0.4819568441078623,-29.740970112573272,1.110112689689017,-1.0092211434317806,0
563.0,9.383521,-16.72815331412767,-2.9994388439078694,-1.9602001615919613,-23.32021302598549,5.76510954559356,2.4746203046904918,0
564.0,9.400188,-7.345112925399212,0.2087097220426768,-3.035427255199444,-17.153446814065816,9.537132692086836,5.490092359184143,0
565.0,9.416855,2.152553430060478,2.430730884625495,-3.743482128998064,-9.317376793531778,14.00323067236955,7.952099184563485,0
566.0,9.433522,10.802766193513149,5.080268857216953,-4.97175206768524,0.6507956049641759,20.385440805579524,8.68295111252602,0
567.0,9.450189,18.557266113418237,9.094143707039423,-6.731231595459548,11.355675046726336,27.781964974261356,7.069702831509567,0
568.0,9.466856,25.950948319274865,14.014582765486637,-8.676935412087662,21.28864118609154,33.20435368386147,4.137761333439015,0
569.0,9.483523,33.36095692171173,18.377233370067504,-10.553484752183682,30.13726757851753,33.68942024084331,1.4810138549175091,0
570.0,9.50019,40.35909314164174,20.924217044254306,-11.961404610871124,38.05968534641961,28.881967543425063,-0.2434430806929239,0
571.0,9.516857,45.65670622398579,21.464369846206697,-12.400802650656043,44.67313743041765,21.625589123328385,-1.3865318183198982,0
572.0,9.533524,48.35703383298744,20.82695793757228,-11.810134228414585,49.656298124111046,15.805762878327728,-2.388842534511929,0
573.0,9.550191,49.49393733856286,20.10329053615873,-10.6801576642966,53.878698047124985,13.505843660372143,-3.2049344716914665,0
574.0,9.566858,51.49097974518784,19.740375693016368,-9.522256746730646,58.96354347373405,14.143359945703136,-3.4855861475387986,0
575.0,9.583525,55.64066850133155,19.29153699717306,-8.413890032037687,65.51074482032891,15.938694467261602,-3.035711126705412,0
576.0,9.600192,60.713834509124055,18.13383955020842,-7.070950342686768,72.22967198770968,17.61838736232421,-2.053638237472473,0
577.0,9.616859000000002,64.36052749319136,16.313590944554488,-5.283682141242425,77.17016988637474,18.62532534492257,-1.140435814256728,0
578.0,9.633526000000002,65.28209388233637,14.538250437299062,-3.2329651099900127,79.50329230340014,18.56371272394926,-1.1166796137811372,0
579.0,9.650193000000002,63.70558719169452,13.46999084161028,-1.2831113567281671,79.66063278443801,17.367991345816957,-2.478056746694632,0
580.0,9.666860000000002,60.40187095333447,13.191612239429832,0.4578714165972634,78.13804029471986,15.830888842901112,-4.808933420168981,0
581.0,9.683527000000002,56.027316381120585,13.29955526748972,2.0587746584321427,75.04349654223995,15.126435995937705,-6.947900183308942,0
582.0,9.700194000000002,51.36418798536077,13.36712272284896,3.2390612288610408,70.78352401994343,15.530325733017284,-7.941750591349795,0
583.0,9.716861000000002,47.519990398600186,13.250986593595815,3.4154252801435603,66.28939699741039,16.05353967021613,-7.778759702608713,0
584.0,9.733528000000002,45.23804162621944,13.008879860828692,2.5095658391405973,62.2026791256356,15.658049789506322,-7.163579126716421,0
585.0,9.750195,43.726690856310086,12.685176457109415,1.2633410697235887,58.3095066558169,14.438293017779216,-6.72251124310987,0
586.0,9.766862,40.60100648597178,12.247105768225255,0.4600056679720439,54.06194147418448,13.097553906203164,-6.518268377352461,0
587.0,9.783529,33.95030459790722,11.568016879378945,0.2569214953422005,49.29832377065411,11.643454490108924,-6.18920434625719,0
588.0,9.800196,24.73204196612453,10.395350067640976,0.5435136847169759,44.14630186977794,9.53656264021197,-5.307908818339808,0
589.0,9.816863,16.261608657995108,8.516958103406763,1.4186312623054418,38.63561181364803,7.078837890601829,-3.6885862290510647,0
590.0,9.83353,10.887698851094624,6.0016360702604,2.882212876255152,32.9308384856583,5.452172749514488,-1.7112749054123635,0
591.0,9.850197,7.8832722543457745,3.112914677805235,4.404653422288174,27.562242090455648,4.9594994807974375,-0.2770238413747206,0
592.0,9.866864,4.967071086295171,0.0958186640255584,5.240154983628232,22.69780678300649,4.289839772491517,0.0410022356801464,0
593.0,9.883531,1.0649243622953528,-2.666843721101653,5.14139328371619,17.52024034199991,2.112410004597671,-0.2573694781383741,0
594.0,9.900198,-3.155844852614608,-4.452425436719569,4.562896127394879,11.238951970973355,-1.4155385899053576,-0.2451832745264829,0
595.0,9.916865,-6.9890414712349775,-4.623283940437259,4.105830784890474,4.47550294576765,-5.095448725813367,0.2579867218288331,0
596.0,9.933532,-10.85309482022802,-3.3379969432878456,3.8687442276837976,-1.3832681267560891,-7.733692631198117,0.94888730749689,0
597.0,9.950199,-15.39345332925972,-1.608215679584999,3.4334950242067706,-6.084011134706124,-8.435462379259178,2.172621228724529,0
598.0,9.966866,-20.12809661740381,-0.6603137605907643,2.481132796364286,-10.576061384815038,-6.960894039307138,4.5586277950664265,0
599.0,9.983533,-23.75770638169385,-1.3655067449193343,1.3790499412023025,-15.02967612732424,-4.445933717747222,7.458642189301416,0
600.0,10.0002,-25.58444895928277,-4.017428460784802,1.0171889571329342,-18.10230998306791,-3.0678069642309334,8.985558356424496,0
601.0,10.016867,-26.10460077079707,-8.155856162969314,1.8444074373580248,-18.97594927259441,-4.43129886236968,8.0480514804978,0
602.0,10.033534,-26.58126863412556,-12.54802603602514,3.136129908312495,-19.26185487690713,-8.38224392953156,5.580250101114413,0
603.0,10.050201,-28.336174626876694,-15.821723142332033,3.596914720896621,-21.665125014790195,-13.14567662381183,3.464405455295944,0
604.0,10.066868,-31.68398147535398,-17.46119266112688,2.8046101492892443,-26.735080908804168,-16.3221358237727,2.802767865860225,0
605.0,10.083535,-35.13203663973894,-18.015809150589103,1.7247516361509,-31.82950867551871,-16.270304012896815,3.3452356451319045,0
606.0,10.100202,-36.35911974767221,-18.118964724762552,1.5939164334388285,-33.744155933590136,-13.100766872767554,3.926488173801957,0
607.0,10.116869,-34.418459463646634,-17.56554670504186,2.55060776212592,-31.963580417818893,-8.368718165577679,3.187399385510619,0
608.0,10.133536,-30.57010192999832,-15.768103234756762,3.626649887466144,-28.96550479829824,-3.923688693107749,0.5067371992334219,0
609.0,10.150203,-26.857997849661537,-12.93486711314284,3.919877418839131,-27.57590811406441,-1.0875230069895596,-3.310731602064686,0
610.0,10.16687,-24.30858077382843,-10.188271882805491,3.4356550652002307,-28.40861629555668,-0.331097233096271,-6.672755146203152,0
611.0,10.183537,-22.58197660219957,-8.441359962966313,2.78562038125993,-29.845950298365345,-1.2091186050312888,-8.823910955836016,0
612.0,10.200204,-20.912775796597217,-7.6354053460915665,2.396984355655958,-29.96887672646261,-2.759000879607256,-10.3858509306171,0
613.0,10.216871,-18.975750705497557,-7.185479199772898,2.199825123593322,-28.02579877318634,-4.170803866894989,-12.05832663156292,0
614.0,10.233538,-16.823919847084667,-6.700783934648676,1.937996116371956,-24.31331137674966,-5.035900151879396,-13.429962364159923,0
615.0,10.250205,-14.302556215736736,-5.983357829494863,1.5600781035696645,-19.43042581932272,-5.131276563436655,-13.637862410038188,0
616.0,10.266872,-10.922311717915168,-4.627678542933737,1.224752372350936,-14.003073973661524,-4.284837855686666,-12.841181204545103,0
617.0,10.283539,-6.504483119022797,-2.143106250633262,0.9799921610851188,-8.83102561742202,-2.500948927999644,-12.321709022285416,0
618.0,10.300206,-1.7844216408476274,1.3416365553481149,0.61200073046039,-4.875334184443242,-0.1078664410659844,-12.937754881222236,0
619.0,10.316873,1.971036434281323,4.756756914378242,-0.0211519288510791,-2.7704017937792096,2.296149354405932,-13.894467119629002,0
620.0,10.33354,4.097314971070986,6.764356877285605,-0.6223396839189559,-2.1415944540021594,4.180604122293931,-13.517039778414013,0
621.0,10.350207,5.183172494092725,6.814640257604006,-0.723342290273602,-1.533753686357111,5.50414756296931,-11.227172181710923,0
622.0,10.366874,6.547233130141237,5.522359722637381,-0.3015754528812893,0.6076358350287565,6.663452131005561,-8.27465943478981,0
623.0,10.383541,9.150160810031515,4.023884321533393,0.1986867361779506,4.665396034813733,7.805578874689952,-6.309906750083339,0
624.0,10.400208,12.90585368698449,2.982784613134023,0.4836625758999348,9.55783397790048,8.35543787022294,-5.656027319726351,0
625.0,10.416875,16.775691036492248,2.231084635811314,0.6941114452334364,13.710187631211747,7.5451814377549775,-5.25453213405451,0
626.0,10.433542,19.530278595662462,1.4138007863469093,0.953334399269169,16.288864654698266,5.447409232798272,-3.963593229142444,0
627.0,10.450209,20.62753650248231,0.9542124065160836,0.922041915213236,17.540418874662095,3.3877049513517417,-1.6228646108920124,0
628.0,10.466876,20.380284497026448,2.023658661548314,0.0575433949953736,18.10569949957505,3.168568804632198,0.9683721694018452,0
629.0,10.483543,19.316127747142414,5.049473805323866,-1.657489991716902,18.27239372689952,5.499819928212244,2.87195942857385,0
630.0,10.50021,17.75072347929122,8.437351685503106,-3.3412847919335493,18.081954766207826,9.05378474831697,3.807339757231413,0
631.0,10.516877,16.214435669498904,9.611957847720594,-3.813993087784511,17.973282217934774,11.432938333997193,4.272607058513888,0
632.0,10.533544,15.764482351519147,7.564123072227378,-2.8270115284031254,18.764638281636003,11.213336639190477,5.034910698018588,0
633.0,10.550211,17.076021322456405,3.7818072742506943,-1.5973171124590593,20.605427213457197,8.815654390637892,6.594873317390078,0
634.0,10.566878,19.24615775586705,0.5152797268025702,-1.7444928218822988,22.203668141019783,5.676002800215289,9.02284500602043,0
635.0,10.583545,20.231714042206136,-1.2488716536349,-3.590089440734832,21.72449354805765,3.1952064400313533,11.959601618590955,0
636.0,10.600212,18.677571079742577,-1.8869505129817328,-5.834149520715528,18.59724263081768,2.177861672110999,14.586763268191431,0
637.0,10.616879,14.840388813232668,-1.9541912254973208,-7.11039692949255,14.040162832734891,2.345613920872472,15.899256395062269,0
638.0,10.633546,9.780621579124158,-1.5757341640030391,-7.530248189508306,9.84979047917406,2.365298030932218,15.417440205450076,0
639.0,10.650213,4.440389131811346,-0.8064195614433447,-8.323314766815068,7.216535582425008,1.0696895600341814,13.65946499428974,0
640.0,10.66688,-0.345546476387099,0.0321515487411195,-10.177657129509049,6.522391895516128,-1.2696994032001911,11.74498693028996,0
641.0,10.683547,-3.792390017553452,0.5763308951677564,-12.435018866853252,7.24152211269704,-3.282527430851156,10.48469648762751,0
642.0,10.700214,-5.631497429478836,0.722938014563845,-13.916956213053748,7.704532350228385,-3.948639877592052,9.83865852034088,0
643.0,10.716881,-6.336359017520286,0.5324572435759126,-14.046239356803923,5.867533173846034,-3.3116963984429915,9.166841155686894,0
644.0,10.733548,-6.685636684007415,-0.035684740773067,-12.927458198587724,1.0589429252477691,-2.0135565278854104,7.923049811542574,0
645.0,10.750215,-7.19166181251113,-1.0816418941673334,-10.734796201772944,-5.244842198604848,-0.6820113418370046,6.165297254123015,0
646.0,10.766882,-7.8864912510808,-2.4416134384778845,-7.581712579969857,-10.675792013717146,0.274222563861172,4.547708078698822,0
647.0,10.783549,-8.58073916395927,-3.620171987460756,-4.005577067484997,-13.8457284506112,0.7408935070912044,3.817324598656764,0
648.0,10.800216,-9.356994782517472,-4.228323902021147,-1.005469874023089,-15.023182786372704,0.8969993222016059,4.078985018477491,0
649.0,10.816883,-10.67024055006424,-4.412095563086181,0.8398811713120857,-15.45578072511632,0.9628570418932776,4.3697447184495175,0
650.0,10.83355,-12.792499039134947,-4.675334709087124,2.0636675641011086,-16.226872436782568,0.9176148368811444,3.1423108322430098,0
651.0,10.850217,-15.278058848376762,-5.269475739144426,3.6633697049214806,-17.463323143542198,0.5086730448987187,-0.414318234577566,0
652.0,10.866884,-17.209932674939456,-5.874583759329829,5.822456390858006,-18.438938625471096,-0.5064447295966226,-5.366200825626617,0
653.0,10.883551,-18.04100633713924,-5.92888965680303,7.71585036224566,-18.52719908510277,-2.0959845603009617,-9.579437213736128,0
654.0,10.900218,-18.127312542706456,-5.200136244521772,8.625548374905504,-18.0738530760843,-3.8436108175806,-11.48352906734164,0
655.0,10.916885,-18.361130288510942,-3.956871436626201,8.848688804026713,-18.185365777460813,-5.170504758460503,-11.228463282521796,0
656.0,10.933552,-19.28307536549716,-2.615324131372881,9.351094245867811,-19.60692299207784,-5.742836593312502,-10.123880566389548,0
657.0,10.950219,-20.6121986282682,-1.348576237898588,10.770912625210912,-21.937124228148267,-5.585424545155599,-9.266392663942254,0
658.0,10.966886,-21.566805580358206,-0.1178161831915459,12.897839598404548,-23.96005997804352,-4.82679835519922,-8.927913224168385,0
659.0,10.983553,-21.43873018136878,0.9928653604659808,14.942160152088764,-24.577785784930768,-3.5708173360917064,-8.978320299454175,0
660.0,11.00022,-19.92983007742763,1.6411413433450868,16.13706259570406,-23.450186619626333,-2.0940775869074835,-9.337251793585144,0
661.0,11.016887,-17.354394716884585,1.5245654420958472,16.18208628288742,-21.12442675970493,-0.9296286337601628,-9.837404332001023,0
662.0,11.033554,-14.704882605413848,0.7873903698122325,15.311222674008114,-18.854783327033367,-0.5478251299724689,-10.003106567977124,0
663.0,11.050221,-13.236333881865727,0.0466380997682704,14.013112721556606,-18.04627397119326,-0.9673498137221388,-9.311824287888236,0
664.0,11.066888,-13.661120755776093,-0.0633489053660254,12.670803347752052,-19.22094939036597,-1.6967323588303604,-7.655656345361278,0
665.0,11.083555,-15.598721965579504,0.6009017502021585,11.40070812217656,-21.139721392105947,-2.006838603228665,-5.417485812670858,0
666.0,11.100222,-17.75220545411726,1.670388395735583,10.099876173440345,-21.30919904371747,-1.3963361764379116,-3.16798401676362,0
667.0,11.116889,-18.742268230096165,2.702059336194126,8.577377207519561,-18.13032926488522,-0.1054818072954044,-1.39616411622545,0
668.0,11.133556,-17.994023470331843,3.474625227026756,6.708674222038399,-12.753991170739187,0.785391010884338,-0.3444925476084078,0
669.0,11.150223,-15.874749092943844,3.851913252762056,4.515642848648307,-8.281221000684344,0.1244493073081618,0.2178578623055955,0
670.0,11.16689,-13.040941355717589,3.6012229489515946,2.084964922402847,-6.85577289602565,-2.1883899997775265,1.0237270648671437,0
671.0,11.183557,-9.905817306838731,2.4761709293326013,-0.5125848500934399,-7.837880377349169,-4.995245211021117,2.7170307151371684,0
672.0,11.200224,-6.696774240975842,0.425448468673975,-3.0744498318761257,-8.764072857762558,-6.977661651170823,5.03353617363348,0
673.0,11.216891,-3.6000304211156635,-2.190712427524866,-5.083459054176367,-7.576864035280847,-7.773252222423829,6.842616400066925,0
674.0,11.233558,-0.7994391390113647,-4.4578077090019885,-5.9839202557374005,-4.028992876207026,-7.694905030574628,7.332726306329179,0
675.0,11.250225,1.2849633205443434,-5.176230177797914,-5.884516475513658,0.3715396469726488,-6.537300452522928,7.012174779348131,0
676.0,11.266892,1.9682221307651488,-3.7039271163380327,-5.795386901300803,3.580242628013094,-3.477370584221846,7.128735916018422,0
677.0,11.283559,1.0745333400590105,-0.7964774878387262,-6.737712784617168,4.605432789914046,1.2357058427866905,8.116511806729855,0
678.0,11.300226,-0.3369714709873717,1.5378389672677435,-8.560014215801877,4.2755475099826645,5.060733152023288,9.013614298887424,0
679.0,11.316893,-0.677821101751181,1.5042260372135283,-10.011704325413918,4.508704857334249,4.98203304426459,8.563768877579308,0
680.0,11.33356,0.568054760385171,-0.837172641812266,-10.150788900063612,6.573305024985615,1.0028875529429666,6.739693696981044,0
681.0,11.350227,2.4801833448389146,-3.5963328352743424,-9.324706172277455,9.753517177370224,-3.179407468154169,5.019368821044127,0
682.0,11.366894,4.151663173539178,-4.922665891039355,-8.526195953500727,11.859100791368409,-3.791945851560335,5.037641337927106,0
683.0,11.383561,5.838217340424845,-4.568920903664257,-8.232629641648685,11.40738992623733,-0.7506112617454791,6.891629485596307,0
684.0,11.400228,8.117081065793275,-3.4531900125006985,-8.327992585801036,9.266532447201604,2.717233500834618,8.762117227811578,0
685.0,11.416895,10.479796187260646,-2.2709830644902578,-8.706547154179583,7.906881974152855,3.5324323300908507,8.280528272607098,0
686.0,11.433562,11.696989440572736,-1.1250601905156217,-9.228920246580628,9.062995920392485,1.1600649575351345,4.541041576124386,0
687.0,11.450229,11.538409186706232,-0.073259539505066,-9.260218567127378,12.286394548178638,-2.7213036857518995,-1.0197096494990356,0
688.0,11.466896,11.3560860022982,0.8969095151662327,-7.993420363280763,15.716412005063257,-5.6647196399846,-5.853577449316847,0
689.0,11.483563,12.606019892160331,2.4447459933653537,-5.453009816639853,17.911889501771384,-5.562902062356054,-8.481637585248624,0
690.0,11.50023,15.096365986739666,5.496734157136409,-2.756039461570324,18.658587004707364,-1.65720806580308,-9.309917711510195,0
691.0,11.516897,17.11084032779316,9.778817293235168,-1.0362347375285252,18.3238868655562,4.539683902688857,-9.488506413484316,0
692.0,11.533564,17.27161419754247,13.21087535575098,-0.315893866748598,17.169006882969946,9.711736124834646,-9.529479744212155,0
693.0,11.550231,15.869904019410663,13.44936601060054,0.2403106889004702,15.501139829054653,11.124358406471876,-9.159758047978729,0
694.0,11.566898,14.223544669536892,10.148544606032818,1.1794471354019846,13.92692206220546,8.878893738288754,-8.055951364789784,0
695.0,11.583565,13.242770745345048,5.414744917571334,2.3037674134430013,12.994236860550366,5.550116218878376,-6.359500770023041,0
696.0,11.600232,12.945449817181728,1.938317546020388,3.221353178141566,12.72483578085512,3.662989304962575,-4.53119099712699,0
697.0,11.616899,12.865239562593148,0.8676480084094045,3.8520353292919127,12.70979471546963,3.856976216786742,-2.9232014508399327,0
698.0,11.633566,12.428906653798318,1.4824825855111987,4.301880827160424,12.555001848473186,5.259055902342005,-1.6340842885891989,0
699.0,11.650233,11.19322076233916,2.4281107411538745,4.5682332213174215,12.08172883187606,6.822540319241717,-0.7598182362855034,0
700.0,11.6669,9.123017787208946,2.800845389677513,4.528391389355862,11.17114002519654,7.913352058388156,-0.5897011648337745,0
701.0,11.683567,6.579625436177706,2.2542420594016948,4.099625181741438,9.632264585771054,8.0653346379644,-1.3392888968928696,0
702.0,11.700234,3.915539809441386,0.7448682449161184,3.337071795637299,7.354899364193533,6.875152278632253,-2.737979444849856,0
703.0,11.716901,1.2292330410147092,-1.4271696426205605,2.404007830584045,4.538300536510695,4.409364153732488,-4.163698873158957,0
704.0,11.733568000000002,-1.4219249231024822,-3.530377705234286,1.448202023817187,1.6794521987859503,1.4913315621114585,-5.253479214971552,0
705.0,11.750235000000002,-3.799575083863013,-4.773501295022587,0.519759233383541,-0.6439152141616012,-0.7853989426496681,-6.091544413466507,0
706.0,11.766902000000002,-5.654809929745447,-4.96264021843222,-0.3362529408872533,-1.9902353164745687,-1.98441346747871,-6.676251569039788,0
707.0,11.783569000000002,-7.006510793916688,-4.693032046941765,-0.9396188266113246,-2.236924425928483,-2.605839369700301,-6.594166667454329,0
708.0,11.800236000000002,-8.06997856770704,-4.721842537263255,-1.0492087671840362,-1.6891413744798405,-3.2714160196911357,-5.598347870678589,0
709.0,11.816903000000002,-8.92245027228426,-5.171686137552877,-0.6079928389237019,-0.929392536716045,-3.825151380606807,-4.271774204726394,0
710.0,11.833570000000002,-9.380254660483324,-5.497987786017296,0.1568499229126007,-0.453372376647871,-3.5603941744348218,-3.597138205440373,0
711.0,11.850237000000002,-9.276329181475573,-5.201283193815738,0.9019928820183676,-0.4376981585893193,-2.2286652230872974,-3.813202997967611,0
712.0,11.866904000000002,-8.812036248024576,-4.337370209623416,1.406564909188294,-0.764512398837934,-0.4109434524942531,-4.14574543666884,0
713.0,11.883571000000002,-8.513759631271155,-3.2779396386472026,1.67013492076814,-1.128103917810355,1.1390146784560926,-3.898660553573338,0
714.0,11.900238000000002,-8.663053844505717,-2.267260404730429,1.860598510503764,-1.230305778345802,2.1013079600472007,-3.3407680561916067,0
715.0,11.916905000000002,-8.697264141527235,-1.4260032150033328,2.192174719830183,-1.1476937346570968,2.456026434145812,-2.9830718152769338,0
716.0,11.933572000000002,-7.423876447114765,-0.9192173892342022,2.765913880954624,-1.4918486360940195,2.266755375067583,-2.368470544423824,0
717.0,11.950239000000002,-4.203298960648212,-0.7488238084270209,3.432526563967275,-2.87933613975744,1.9024870409623973,-0.4693147533874459,0
718.0,11.966906000000002,0.0904633892938625,-0.5206676828799197,3.8302810538001615,-5.092088634866012,1.9647379311733209,2.730497305966503,0
719.0,11.983573000000002,3.641641216772504,0.2010380538332605,3.655433042848921,-6.983742980770547,2.44984130961574,5.9220257361550495,0
720.0,12.000240000000002,5.309228038480565,1.3737662998902378,2.9702656907855207,-7.4043924981922515,2.3581359246568074,7.93063670692686,0
721.0,12.016907000000002,5.506744452125432,2.597486522522344,2.2796102891445083,-6.138764521294276,0.8169977394423267,8.784770289851775,0
722.0,12.033574000000002,5.6213029055325725,3.5855783534484527,2.257794606317189,-3.916967305533976,-1.6020541007904603,9.134156675127,0
723.0,12.050241000000002,6.811384990655179,4.173592016949387,3.228116359853066,-1.7245673586775616,-3.359147555897043,9.277083683747527,0
724.0,12.066908000000002,9.180987095400331,4.077061527137744,4.774465565461961,-0.214304002327957,-3.657870529002939,9.134801864050807,0
725.0,12.083575000000002,11.798708024517882,3.137492009534554,5.932872690140087,0.4524576498140209,-3.07253245830755,8.751060542537015,0
726.0,12.100242,13.505092627092692,1.7757869886658382,5.896286520753575,0.5260121781581246,-2.503332892846646,8.376098990327487,0
727.0,12.116909,13.797447993617489,0.7846000410545099,4.576165800972461,0.4873138034634887,-2.165391408341085,8.185027458882765,0
728.0,12.133576,12.986143153484573,0.6146569536783549,2.5447412783457324,0.7531065422441172,-1.7948166704503925,8.183983626354772,0
729.0,12.150243,11.64246565434378,1.0867276326127602,0.5234911432891993,1.4330129240492009,-1.3259532943161902,8.306623620697561,0
730.0,12.16691,10.052057286853032,1.717882096659256,-1.1426845722007002,2.39050434412382,-1.010021148373056,8.354752557578404,0
731.0,12.183577,8.215960844943815,2.0939562714411544,-2.636365091251002,3.4924041070821508,-1.0945040655120315,7.89030410456976,0
732.0,12.200244,6.288569935711272,2.0238626902622645,-4.263642171131211,4.634617030558452,-1.6509016467804778,6.504256573905135,0
733.0,12.216911,4.819020929933176,1.5914640992037148,-5.888416165248018,5.512726760473385,-2.5972514600864907,4.330159530428256,0
734.0,12.233578,4.366558936774318,1.0805375516387177,-6.921321081733327,5.661722052156207,-3.662775588196428,2.056445128670002,0
735.0,12.250245,4.9376473148736935,0.7148524425593942,-6.896169392485472,4.970034608770775,-4.366955939357954,0.216336560559633,0
736.0,12.266912,5.965175293383194,0.4363093845086653,-5.904389377062406,3.98188723372437,-4.238533940261334,-1.3547705206919698,0
737.0,12.283579,6.741217192868046,0.0250536177765472,-4.500464705871638,3.397152798890428,-3.11527379840521,-3.095965793969921,0
738.0,12.300246,6.749320549746573,-0.5116252577301699,-3.3639941309791306,3.348739450110513,-1.1793055198530151,-4.880288960796767,0
739.0,12.316913,5.835150528648758,-0.7993876395231461,-2.9553031534180736,3.4011676568892293,1.196015477373842,-5.905938125107388,0
740.0,12.33358,4.346999530341245,-0.5476209028490282,-3.227329696805418,3.1779103878238306,3.482728300307982,-5.516736787721461,0
741.0,12.350247,2.9612659008141207,-0.1338691649324717,-3.660049789592661,2.790841340065176,4.987319776334488,-4.02487721776901,0
742.0,12.366914,2.0971153260855737,-0.4626447072727631,-3.7319151176683034,2.712068900528179,5.110007625214699,-2.578523905339287,0
743.0,12.383581,1.5527585082829063,-1.9789883065908296,-3.333566037332837,3.323203215887148,3.859470625173966,-2.142801754882568,0
744.0,12.400248,0.834148613493555,-3.8516538071635575,-2.648933399879124,4.434555698536188,2.13308284694181,-2.70197741303205,0
745.0,12.416915,-0.2985131883268898,-4.422317487677548,-1.8350605679848504,5.11009733044382,1.2856861152446424,-3.551342333123573,0
746.0,12.433582,-1.7360345213059594,-2.7421800632378392,-1.0624260896841733,4.143117466975966,2.1529877405179345,-4.189695210123761,0
747.0,12.450249,-3.3143224997684158,0.3483291307049576,-0.6907845362714751,1.032365736752644,4.3456770380347765,-4.698664101288099,0
748.0,12.466916,-4.958846293054256,2.894473352217938,-1.0101905708384058,-3.316871299622106,6.460196909625186,-5.343650045970589,0
749.0,12.483583,-6.496027146928341,3.5808209250997884,-1.7822254044986647,-6.921703194312027,6.9792999114394725,-6.05375437106607,0
750.0,12.50025,-7.538923374071514,2.5957959608193333,-2.3221029587242765,-7.975446961247062,5.125023474709828,-6.398790553548343,0
751.0,12.516917,-7.750505780366669,0.8949073966743354,-2.1127422547725843,-6.0496576036176775,1.2593037163566714,-6.042036751049137,0
752.0,12.533584,-7.155125271350643,-0.8468767068805579,-1.2070392388015492,-2.371190970135861,-3.1919911046917653,-5.100504586528825,0
753.0,12.550251,-6.101035110565405,-2.3518700391011462,-0.057296669281425,0.9273826504327578,-6.397480234438378,-3.92779089899164,0
754.0,12.566918,-5.006095868635372,-3.3075661314986693,0.8832131202780005,2.1052874122801954,-7.250120261748595,-2.575515216078206,0
755.0,12.583585,-4.187122066165143,-3.35812428990318,1.3804928012507702,0.860897045155921,-6.102779681817083,-0.7124372570729716,0
756.0,12.600252,-3.796483726510485,-2.504113196960693,1.416351545437455,-1.6865439033481984,-4.276218940917721,1.7608510601391794,0
757.0,12.616919,-3.7946168309706456,-1.2040454959573446,1.1333752418280325,-4.095463759334255,-2.838884197690553,4.180409393615992,0
758.0,12.633586,-4.004630685737568,-0.0236583462767527,0.832524042663048,-5.660685594841192,-2.0155049937502305,5.499434715568723,0
759.0,12.650253,-4.257359171752263,0.6812310179112384,0.915991652223952,-6.436048836372142,-1.6235349380624833,5.297760227390011,0
760.0,12.66692,-4.487856937303695,0.8195005883044625,1.624799887854224,-6.610860715356054,-1.5962692967883063,4.2742062460962655,0
761.0,12.683587,-4.692768885912635,0.5550693627585724,2.750017756027623,-6.2323261669144046,-1.8884770168543028,3.578849323812695,0
762.0,12.700254,-4.865398037260476,0.2216945638547972,3.725470082774706,-5.393847172352061,-2.254640394474559,3.688236983703897,0
763.0,12.716921,-5.0464845842996295,0.0007097762336829,4.092167282679036,-4.310707623037561,-2.504311664515913,4.096616949640252,0
764.0,12.733588,-5.3684940834989,-0.3217953395405842,3.841786687488917,-3.1567798593831293,-2.800006482434408,4.088384359315075,0
765.0,12.750255,-5.867345085638648,-1.0529646771389969,3.3546390598993328,-2.069369990562385,-3.3002500135836605,3.5564817219977183,0
766.0,12.766922,-6.2369240337252085,-2.0618432149152897,3.090162727256221,-1.3697326813507522,-3.589529328388853,2.958874174313212,0
767.0,12.783589,-6.011969095480107,-2.807162253868383,3.2666278608905155,-1.5029177686377966,-2.951137023684896,2.685878391614495,0
768.0,12.800256,-5.124221509864301,-2.926309613687147,3.722940962354846,-2.5091338433898995,-1.3197974381058202,2.645940846382127,0
769.0,12.816923,-4.081813290429514,-2.56286269684208,4.093801853109586,-3.6779342499255536,0.4451493323588015,2.433589320405641,0
770.0,12.83359,-3.4590246896808083,-2.0742322931339285,4.144215262153453,-4.071027034141014,1.4054032650777275,1.8751672078039496,0
771.0,12.850257,-3.3835478124486658,-1.644848818172375,3.915311251788504,-3.476673196934009,1.3727586710331174,1.4020930300359329,0
772.0,12.866924,-3.6369304707852814,-1.2558767629365373,3.5749030350855824,-2.6433575396205238,0.8544209725837715,1.7444871738835803,0
773.0,12.883591,-4.0587738354895935,-0.8587706995117071,3.209585780424696,-2.502133862181506,0.5043373266566336,3.156230149061683,0
774.0,12.900258,-4.689867797898725,-0.499144878317768,2.8020673512051726,-3.3010636446655184,0.6279300436746906,5.078285444061824,0
775.0,12.916925,-5.598865070252577,-0.3280485455505917,2.374226713574968,-4.512736257751408,0.9062841917159784,6.653512389602204,0
776.0,12.933592,-6.6040241568087374,-0.4528685811512177,2.0766756655110883,-5.388962481979707,0.6321275874486452,7.360199505318601,0
777.0,12.950259,-7.082306630227808,-0.7313597939200964,2.0689354554524586,-5.465540007250386,-0.5375907143483811,6.998653526408652,0
778.0,12.966926,-6.18884892298181,-0.8034594270453137,2.2823439723430594,-4.636962218399852,-2.1406846416594165,5.400639226182463,0
779.0,12.983593,-3.6104944020485927,-0.3872150283726744,2.3342677085998176,-3.047735957748963,-3.366832931938884,2.602370088493947,0
780.0,13.00026,-0.1314746016324305,0.4768046536774266,1.7783334160446351,-1.1332251451026667,-3.815595083479231,-0.7342290491870176,0
781.0,13.016927,2.8621383830338893,1.465759539941678,0.5471150042686175,0.3668621893944814,-3.703294042176136,-3.399190770520573,0
782.0,13.033594,4.473514472325087,2.2830827897645225,-0.8559078837337342,0.7941010517299641,-3.432107365225925,-4.348642218366947,0
783.0,13.050261,4.716564596185686,2.9373014196267766,-1.703770330883357,0.1362601330306933,-3.049141092375191,-3.4904591380629832,0
784.0,13.066928,4.107230551120654,3.592163526767452,-1.6361790367779423,-0.9558456240847372,-2.229579835474845,-1.768816260168533,0
785.0,13.083595,3.2342750995685114,4.151261209118391,-0.9111075444404954,-1.8761333294545437,-0.8800959390734595,-0.2746085662602089,0
786.0,13.100262,2.578308805463916,4.237650256007504,-0.1571565539874864,-2.668475058717609,0.4447156244044529,0.773602757060309,0
787.0,13.116929,2.359519469770132,3.633855958310184,0.0335199716346739,-3.777794128145333,1.0374565560551428,2.002561897203585,0
788.0,13.133596,2.498855522512,2.5236137865448947,-0.6188376800346804,-5.323334145206722,0.8718275906036077,3.858393903517024,0
789.0,13.150263,2.748884077840207,1.2552278440324964,-1.9502190850830945,-6.815817042256152,0.6250160246809515,5.848456520555732,0
790.0,13.16693,2.776451656370937,0.0200648706205758,-3.401662910116548,-7.567299253932345,0.8596351061386213,6.952102979277734,0
791.0,13.183597,2.2465583713018047,-1.1811826536043002,-4.343762305060708,-7.191276476125855,1.4628528653899793,6.654660485802643,0
792.0,13.200264,1.0756692957269274,-2.3070035507392177,-4.500903944449698,-5.652613925701601,1.9346898083322808,5.327574447265544,0
793.0,13.216931,-0.3962862003867252,-3.108997560350552,-4.1216797262999405,-3.1266968231650214,1.9343805348866,3.6004904748410023,0
794.0,13.233598,-1.592739366330264,-3.3250619810028548,-3.8024463128490855,-0.1701964469701904,1.4058838197286314,1.707382808091095,0
795.0,13.250265,-2.099241812591747,-3.0231605735111646,-4.123281680387912,2.1545792273220608,0.4102881526070928,-0.4057420113447629,0
796.0,13.266932,-1.981197395717448,-2.5902706121166217,-5.252221194141643,2.913263948642869,-0.9073117886850042,-2.650706573338221,0
797.0,13.283599,-1.798801537237169,-2.3672933246067007,-6.750960928606211,2.1343886054491703,-2.238260714142857,-4.675323071238118,0
798.0,13.300266,-2.2256667971918724,-2.4239639362121794,-7.85315415830452,0.5800893925341808,-3.212504210996972,-5.9938862546020255,0
799.0,13.316933,-3.5276566988490616,-2.626792498793804,-8.051254651929575,-1.2837826883029035,-3.613850942440515,-6.176996950105639,0
800.0,13.3336,-5.341023327451129,-2.727196496560633,-7.398264120626077,-3.577980908933004,-3.3233348078157654,-5.0915512064718165,0
801.0,13.350267,-6.894299100286043,-2.4240698473557654,-6.272303754331144,-6.1887371225354055,-2.105608919584164,-3.0678104206458574,0
802.0,13.366934,-7.515338170328067,-1.5544976041067124,-5.005223188973357,-8.084464965900159,0.1439123106743839,-0.8598422047978765,0
803.0,13.383601,-7.091707034779345,-0.2802774105506746,-3.770624896960051,-7.77085355945313,2.799549697842018,0.5494576896673764,0
804.0,13.400268,-6.023873853252422,0.9501214207092588,-2.639182440475909,-4.520883537049701,4.574442587789516,0.3122069714198301,0
805.0,13.416935,-4.691287064665903,1.5831153591774736,-1.598921952411414,0.7325479112720523,4.55122431155332,-1.6930335537474326,0
806.0,13.433602,-3.190965878353119,1.194027302875051,-0.6002456967553755,5.733490625298506,3.029629949250144,-4.503540428474231,0
807.0,13.450269,-1.6452467540577684,-0.1590916407623283,0.3351974899017918,8.406816178150644,1.1926862062487218,-6.634565502625904,0
808.0,13.466936,-0.3353851539147848,-1.7372198146799227,1.1252030953027743,8.236306556310694,0.0543309906526985,-7.245761482980189,0
809.0,13.483603,0.6438460172500874,-2.5319918346799053,1.7631005015970322,6.233429811979072,-0.167660534031632,-6.744359293834055,0
810.0,13.50027,1.4468126871231262,-2.022194293376593,2.3039908687130053,3.824331776552605,0.1686183978283667,-6.297332434642555,0
811.0,13.516937,2.0359067127311743,-0.5054984163060038,2.722585427709843,1.971248431782568,0.6782438235206173,-6.772755007683704,0
812.0,13.533604,2.089442624456564,1.2105832418382496,2.980004422984906,1.0514537927954004,1.1995301882903222,-8.005353270224841,0
813.0,13.550271,1.5219185431814963,2.3625898877794747,3.208378294280706,1.060023226239276,1.6937491573782082,-9.047446345361143,0
814.0,13.566938,0.7497220811100664,2.6540754546765526,3.5814578907034607,1.763647300957797,2.143118643794546,-9.12175262981914,0
815.0,13.583605,0.2547349102159101,2.3456959968345674,3.990886827021147,2.856404594285069,2.588902897383772,-8.142528860274854,0
816.0,13.600272,0.1571483536124428,1.9902666144411585,4.080857696975509,4.160059396325197,3.128752075190892,-6.380667737600383,0
817.0,13.616939,0.4458554650193362,2.0421200411194302,3.666873960259485,5.625022985213032,3.743157990082282,-4.133624703919822,0
818.0,13.633606,1.4125311505095866,2.578618211381697,2.9933041137398093,7.062741386515238,4.098934780617846,-1.9006494581691888,0
819.0,13.650273,3.4737464912821108,3.2233024855323125,2.5028396959408195,8.065190836185472,3.6276897672322086,-0.3841745438724615,0
820.0,13.66694,6.485898199985931,3.3783897961935114,2.3410985751029894,8.378499990381602,1.9932686206566008,0.0509056550862192,0
821.0,13.683607,9.4730357995419,2.739640526178655,2.118092681060074,8.20883068724984,-0.3893974125697396,-0.2362984252919964,0
822.0,13.700274,11.24757355874402,1.6465922725956088,1.270686304936064,7.937558420832304,-2.3568240753578005,-0.4432262773356337,0
823.0,13.716941,11.318946230700991,0.829692677210812,-0.305990585695476,7.589766923256031,-2.701333017519985,0.0771896586397111,0
824.0,13.733608,10.157741029841548,0.7486320517993124,-2.1026442964188874,6.784865640894233,-1.0998950705013355,1.3858311259308629,0
825.0,13.750275,8.670992344949218,1.1782560021222082,-3.4738640579553075,5.282773176829638,1.4997432387954894,2.912339441754873,0
826.0,13.766942,7.537423129572579,1.474331071580104,-4.144791919029983,3.433732922233524,3.4940033353108184,3.885832879624319,0
827.0,13.783609,6.95169355865446,1.2884574506871769,-4.269329720762991,1.896926774978766,3.862761164724557,3.9855804387847034,0
828.0,13.800276,6.780000050222908,0.9686116543892456,-4.155810873467307,0.9612553067235514,2.89997435737658,3.537760846197405,0
829.0,13.816943,6.824637667401775,1.133174323800516,-4.011224336140708,0.3472479799843562,1.669774066131306,2.970753504289846,0
830.0,13.83361,6.939935623737297,1.8962461612455723,-3.8927273939168696,-0.3530275748951612,0.8024084826213068,2.2197175921359187,0
831.0,13.850277,6.991574650862473,2.70698858808543,-3.768884729794796,-1.2516863699248333,-0.0135464090914556,0.933538782037141,0
832.0,13.866944,6.859586458053229,2.965863336956859,-3.488223489081622,-2.151510763071067,-1.3284015931542963,-0.7330668798526743,0
833.0,13.883611000000002,6.567685907338266,2.5889149502479545,-2.7247968901868096,-2.7633248717405,-2.9380452159211763,-1.8898016807808424,0
834.0,13.900278000000002,6.319612725030428,1.892846825770231,-1.183058443268922,-2.9272432770614145,-3.884052515658344,-1.7606046704092402,0
835.0,13.916945000000002,6.2848981262952455,1.1462431972958842,1.019076480332259,-2.7159925049595346,-3.503405170355143,-0.5918748934720779,0
836.0,13.933612000000002,6.358950908550636,0.4359181608567758,3.3021078620304527,-2.3240964479798563,-2.194596171331579,0.6150839349050854,0
837.0,13.950279000000002,6.1889895211681125,-0.1291474588294511,5.099152834102323,-1.863469367399556,-0.9197319592362472,1.1970998883588304,0
838.0,13.966946000000002,5.452359436143752,-0.3371584603542248,6.320296095675476,-1.3305490502216946,-0.1589691133249245,1.340239488543035,0
839.0,13.983613000000002,4.1623567121084415,-0.0734220624630626,7.241891330534705,-0.7183747819689058,0.3555235181636041,1.5318653485342602,0
840.0,14.000280000000002,2.753756402907473,0.4810630167050017,8.002453855491208,-0.0109677553664509,1.0009326613393847,1.8298256030051183,0
841.0,14.016947000000002,1.838391964144072,0.9006126771346783,8.380081585692352,0.933796274036255,1.7230658269078307,1.8203349423250132,0
842.0,14.033614000000002,1.8495078687237403,0.8339246784938382,8.138782176933002,2.3430599236498697,2.241688704910241,1.1738859219597149,0
843.0,14.050281000000002,2.850480550004574,0.3650495994752951,7.484460225205463,4.281178050097633,2.549367523704438,0.1069169939472987,0
844.0,14.066948000000002,4.437938632517555,-0.0138559023830945,6.962463406360075,6.453226919977807,2.9168984396286417,-0.7399632430075516,0
845.0,14.083615000000002,5.704404161401531,0.071692931796246,6.799633709593544,8.276273656478043,3.4117652969483654,-0.9009093940637656,0
846.0,14.100282000000002,5.631567651592118,0.4436614407278875,6.513134370181241,9.207653364056432,3.6898775042019114,-0.573922355580986,0
847.0,14.116949000000002,3.954284517162773,0.6187441818944366,5.381443234466447,9.121398648592844,3.4431353870011394,-0.424412104299918,0
848.0,14.133616000000002,1.621040322856124,0.4507204176077163,3.225247199390757,8.407070140857078,2.885252924349177,-0.8015306814500958,0
849.0,14.150283000000002,0.1100507257994305,0.3515157034508809,0.5349011886255499,7.629718192290239,2.5057965044631447,-1.2611966332351563,0
850.0,14.166950000000002,0.2251339344387948,0.7979880118397051,-2.030312699363982,7.063632101919872,2.373893714017952,-1.087287152054398,0
851.0,14.183617000000002,1.6297789837057652,1.6765456633474496,-3.9798310962297982,6.60157048636845,2.0117502427249643,-0.221141795727495,0
852.0,14.200284000000002,3.3836555929166066,2.2509942198750017,-4.96062387036893,6.063064636360698,1.0838996090264117,0.6602976410135126,0
853.0,14.216951000000002,4.6865507732933525,1.9100515849374384,-4.811456644157273,5.440784942061829,-0.047341211304572,1.0532401091080912,0
854.0,14.233618000000002,5.168397243115717,0.8994841401811975,-3.810536947522988,4.834041793603328,-0.6816255799145872,1.2067257778724017,0
855.0,14.250285000000002,4.766548484783664,0.1187184164502491,-2.7031721979141463,4.312595535671525,-0.5593431651400755,1.5113887349620103,0
856.0,14.266952000000002,3.5682804084406263,0.1538305676996287,-2.253042622944352,3.9368983961369888,-0.0859299894899852,1.695696485708381,0
857.0,14.283619000000002,1.80611596430772,0.7163391865241622,-2.616836920107145,3.7352474525720702,0.1102118399532383,1.2658875832211067,0
858.0,14.300286000000002,-0.145904676599186,1.1384136991306022,-3.161757261039297,3.4359573485290555,-0.3656679498649308,0.6851618291262201,0
859.0,14.316953000000002,-1.922472820414531,1.1882829050551214,-3.0317138632721474,2.347404168365891,-1.6098989363876548,1.2987177582544822,0
860.0,14.333620000000002,-3.324441547163694,1.170707977157257,-1.9430736623454443,-0.0631539766916866,-3.531177976116508,3.639037451276841,0
861.0,14.350287000000002,-4.307341860520396,1.3925240076494294,-0.2990185433192946,-3.299697482576245,-5.789615720264842,6.373539787614943,0
862.0,14.366954000000002,-4.892891178393057,1.8333605389161896,1.45314838517026,-5.893395531883825,-7.687721444085373,7.5726058849199,0
863.0,14.383621000000002,-5.214649817040439,2.2692223572114028,3.2359184588206347,-6.649742135724746,-8.468126721408186,6.759911230049577,0
864.0,14.400288000000002,-5.641064977159777,2.4105553421353427,4.968136816089217,-5.720302534916309,-7.922781695711253,5.194623758098413,0
865.0,14.416955000000002,-6.61806030618805,1.934578666504415,6.1981844462443485,-4.305674402317636,-6.549927322335481,4.340114832532107,0
866.0,14.433622000000002,-8.197106179013492,0.6980948043447176,6.507123028198966,-3.4861432100020378,-5.0309159489973565,4.528953214439534,0
867.0,14.450289,-9.84985868452518,-0.9816499112646224,6.047145850684084,-3.4362619287464558,-3.7759432305714418,4.983396018470069,0
868.0,14.466956,-10.920382273772024,-2.4365062588178925,5.328695716688086,-3.551520242132784,-2.982215521745836,4.681185766314735,0
869.0,14.483623,-11.161945467369534,-3.137946303280386,4.6238626580291005,-3.155531990693837,-2.7044646561145784,3.1719331123761614,0
870.0,14.50029,-10.712993134469688,-3.0609937404172616,3.825211837173425,-2.155621406261384,-2.6325978517993667,0.85504057233089,0
871.0,14.516957,-9.67249185048755,-2.61555593991855,2.771233159553847,-1.1350144365885952,-2.0987484326495656,-1.347250218572112,0
872.0,14.533624,-7.938381082539484,-2.29982816053182,1.523731766892505,-0.7986945617790966,-0.6171187551755274,-2.605763191047087,0
873.0,14.550291,-5.563023618832444,-2.387040146341876,0.3581014038086592,-1.2383634159834878,1.6558927439800366,-2.701032162098152,0
874.0,14.566958,-3.0823817317060933,-2.823019272376412,-0.4538144398215758,-1.7555787897916777,4.082503768240261,-2.2101368658908003,0
875.0,14.583625,-1.2424885139395725,-3.3010940468190784,-0.9033361406282916,-1.5413888236941895,5.947481439703786,-2.1296555549626914,0
876.0,14.600292,-0.452147965959319,-3.417926379853292,-1.3249946283802063,-0.5208339153726032,6.641415505091674,-3.0267431572135584,0
877.0,14.616959,-0.6387489211300272,-2.9358683848989404,-2.1448671317432746,0.6282384313794348,5.878273448206661,-4.540473302017137,0
878.0,14.633626,-1.4163398543912062,-2.0788129204590584,-3.422053584178755,1.2306586232282497,4.089743818375375,-5.842920971017511,0
879.0,14.650293,-2.17070527575843,-1.4761920363324978,-4.610015403931605,1.1785902175523355,2.364951350785097,-6.430501095799769,0
880.0,14.66696,-2.277130907265429,-1.656464083639955,-4.954971476784534,0.8238885005907597,1.6072919117225355,-6.281483081242394,0
881.0,14.683627,-1.5966573073541808,-2.650054865301352,-4.28903123664353,0.5566626630982007,1.7710210540910407,-5.513008206803914,0
882.0,14.700294,-0.6446027196896598,-4.083560403683201,-3.3275273562498,0.4902959417222034,2.1171975957690687,-4.307457964399661,0
883.0,14.716961,-0.0840785370211503,-5.458808788529852,-3.067241049390273,0.421672413984145,2.0950743105356,-3.0973177607687465,0
884.0,14.733628,-0.1729091516847054,-6.265437226585467,-3.9447790647199192,0.0932313929867869,1.7417131621851514,-2.367261328243333,0
885.0,14.750295,-0.7490643997983644,-6.017168017231402,-5.551496113640436,-0.4888533954184888,1.344839547157641,-2.1294754005558785,0
886.0,14.766962,-1.4696275932792169,-4.496126716450245,-6.972246459878267,-1.0637024922249063,1.0289713774281397,-1.8739724036472607,0
887.0,14.783629,-1.8775630113667523,-2.1784131843309757,-7.364162166931752,-1.4480683562452457,0.7111589361544465,-1.1796151624753883,0
888.0,14.800296,-1.4915114909730165,-0.2575023315443916,-6.4623512714973845,-1.7682497895134135,0.2682664655260141,-0.1563691880733876,0
889.0,14.816963,-0.1877977190965233,0.1837292572350841,-4.7775934816529295,-2.328331660975864,-0.3236203741411189,0.8263333189340847,0
890.0,14.83363,1.5147208646670252,-0.8362929633941178,-3.2892691707731574,-3.3063376550786767,-0.9306955407241226,1.5913650443493998,0
891.0,14.850297,2.780491969646854,-2.2349867556340213,-2.748299762167191,-4.60440465530988,-1.3082314573016376,2.171053975131139,0
892.0,14.866964,3.1019384859530827,-2.9043348235585147,-3.1404605680045368,-5.957912255439143,-1.2506142254041956,2.608953377686305,0
893.0,14.883631,2.5416608242904912,-2.5583397410680737,-3.811647362148811,-7.165658310090447,-0.7400787578064556,2.933910781147425,0
894.0,14.900298,1.4796725432240758,-1.6717573595649056,-4.080162935776666,-8.215455545099786,0.0231380609822457,3.153973654647621,0
895.0,14.916965,0.3160432288805733,-0.844491165346795,-3.698550850696805,-9.19277733830532,0.7485998888492873,3.131763073577189,0
896.0,14.933632,-0.6929682977495526,-0.2711790767371526,-2.866148552510296,-10.121072241082285,1.2473793843300112,2.6427167788516908,0
897.0,14.950299,-1.5281514016214552,0.2491976063345021,-1.979172589245633,-10.955562465954465,1.4886895715877957,1.6861766030589695,0
898.0,14.966966,-2.294521199459518,0.8700974145105546,-1.308591663403904,-11.65626648954876,1.4692120989013904,0.5782989224872961,0
899.0,14.983633,-2.8930233894030963,1.4085561049075066,-0.7257243737709512,-12.108609687500987,1.082259641047288,-0.3858282811460789,0
900.0,15.0003,-2.963793229390265,1.5559724532854289,0.2275395015729245,-12.022887911574752,0.1365130546467956,-1.2344054146403272,0
901.0,15.016967,-2.3865166801625866,1.2371214355864455,1.8189379256292324,-11.16622815828052,-1.468536265090248,-2.1470284180079884,0
902.0,15.033634,-1.7018437386023837,0.6567486313864277,3.738492730768829,-9.766968100581776,-3.457072954764048,-3.048108088143138,0
903.0,15.050301,-1.72300218049234,0.0958058537205578,5.437778866516997,-8.491460084936453,-5.04258519950098,-3.5738327816431283,0
