Frame,Time,RightHand_Accel_X,RightHand_Accel_Y,RightHand_Accel_Z,LeftHand_Accel_X,LeftHand_Accel_Y,LeftHand_Accel_Z,Label
1.0,0.002778,11.704534809709926,-329.34325324742287,262.12950713751803,357.56190545545,149.29248013673987,192.7994988173294,0
7.0,0.019446,-297.8776334695293,28.791747584724085,-174.24806617044834,96.92520793973222,182.22409236617392,107.96355862168782,0
13.0,0.036114,-261.46500710263183,168.61966525332093,-209.69784466549208,-8.060232272228333,342.91665162114293,177.21686754617042,0
19.0,0.052782,-240.67930577876967,478.9881668288438,-39.70492692906443,-17.309783762801903,494.66113595702086,25.75719312302409,0
25.0,0.06945,-174.53883176191903,-118.48686712363634,-181.9163689767373,209.5125066646673,4.648005420988127,-201.7771790884631,0
31.0,0.086118,-137.01370440099944,323.5914490403844,-67.62681286505133,-43.94494560922932,275.9827816736359,-37.76979631079628,0
37.0,0.102786,53.3333280226237,-268.5787768457426,-31.142073063580256,147.57826056577574,-262.77463528002727,-96.12613230561348,0
43.0,0.119454,-73.10417182504628,706.6410696282061,42.82273697911259,80.724129920535,747.8004605831999,-32.79022719042068,0
49.0,0.136122,-70.27896256321452,-531.0458601352608,71.18999697214548,173.8870515670205,-506.307989864635,99.6668466715166,0
55.0,0.15279,-192.5968621819243,-243.5209233256388,73.5110539184666,23.0103463877092,25.08605175063365,-43.280563531320965,0
61.0,0.169458,-19.032139920613574,-420.60884154147794,115.5499692062392,44.860075616548286,-359.42959320720354,20.5843014356034,0
67.0,0.186126,-93.0735945379244,-994.7270602403084,260.14804302559867,126.71647006738786,-844.3784688986449,-0.4901325109203895,0
73.0,0.202794,-104.29497381245184,1561.038186380569,29.475009422905387,-226.51822513471623,1743.9689616690744,126.84929049719686,0
79.0,0.219462,-84.99297603471219,279.97572356105564,79.67020705888157,-8.237034901625805,507.58111104600926,188.4916686088278,0
85.0,0.23613,-130.89276424893208,490.60493494895366,129.5157868981175,-30.461774449066723,401.8538988570434,-7.448808393252179,0
91.0,0.252798,-97.77103194131186,475.3728757224248,148.8465147239042,-153.62286780797558,477.7627131031781,283.3171385948002,0
97.0,0.269466,-97.92051040279476,353.59525269106445,75.40176518896247,-125.5525057729588,90.58929635107908,174.25674332885325,0
103.0,0.286134,-81.0121422051825,232.58348960692305,125.052410371632,-254.92691070640984,182.58603761723148,33.63101886278119,0
109.0,0.302802,-159.90509511254717,331.3555273047821,77.8255836918132,-158.07595406667932,64.34549144590852,164.51742046756246,0
115.0,0.31947,-18.269455457382456,186.71441529949445,213.9628266525197,-349.48928101354176,0.7266819209333164,-19.48698547678434,0
121.0,0.336138,-6.326800872767584,325.3366135416743,132.30834966860317,245.1480080211543,-40.87644548474723,-689.5216879627576,0
127.0,0.352806,87.74838678467506,-207.20482138857125,276.7335124183056,-713.3356354354852,-117.37691487273452,655.247067379281,0
133.0,0.369474,121.04407905553543,287.715237154484,186.55704372766152,148.54835963783304,14.037168341445138,-443.7532081443458,0
139.0,0.386142,151.75434152478738,-391.95670815636464,154.02647057598475,-16.589161147385326,-511.6717976787408,-14.62718146973338,0
145.0,0.40281,174.3522034638192,-546.212929947214,228.70108417705563,-234.7700757190202,-635.1077010515664,248.92862924157163,0
151.0,0.419478,186.7940420271276,-391.38129879345513,167.05012239348582,-67.81606805896593,-448.0906975712746,-14.186471918054451,0
157.0,0.436146,220.19590998493567,-685.924343450286,225.84938476171035,-70.81650940519195,-667.1553355630833,0.6334652280086317,0
163.0,0.452814,208.16273405675577,-545.474069070996,196.04642535783464,-125.71574921605249,-555.1873518258333,-187.16283751305875,0
169.0,0.469482,296.36875317544013,-446.637009515716,115.5815477857916,-19.744542550787664,-567.6687903967145,-129.07760803538528,0
175.0,0.48615,202.1094815819025,-753.2470547504493,231.45450632748623,-164.05931183244385,-953.75483819683,-36.190466124148514,0
181.0,0.502818,342.99714376655675,-184.82573955526004,147.27651660604727,-278.2431596610137,-395.3572054943864,-417.22257982893245,0
187.0,0.519486,284.263454592888,-140.88246056478795,24.975259781742004,-400.2585096955392,-504.5337236489628,-103.8375106814104,0
193.0,0.536154,107.75397481212364,-131.1977683567407,162.78596452117574,-122.48233799070805,-269.3185530594999,-92.68110331712474,0
199.0,0.552822,112.05882374801512,193.2751167583414,-1.771220736148596,-138.48745460681369,-44.604530296828685,-144.34695497649943,0
205.0,0.56949,70.29946247773061,249.61778609726463,55.435195447459535,-88.36018549448258,-123.67330218233631,-305.4478462798624,0
211.0,0.5861580000000001,663.4804058741264,-182.92671901979264,-88.61097044434666,-69.73510498091284,-120.1782882127348,-302.8509663118304,0
217.0,0.602826,563.0922168073569,1778.8778795700534,-374.7733751447666,-185.22176956673792,-115.56850468337365,68.54950033177852,0
223.0,0.619494,-887.4132735713187,358.92830508788234,392.17055790755467,266.3867330766339,-191.47047984221413,-1202.9392705577689,0
229.0,0.636162,421.6888477901007,448.2269127163498,-259.49286377580256,-400.4484283807556,23.871919486660616,282.6715176482645,0
235.0,0.65283,964.0567173857178,1344.2333863511467,320.1281797738177,-171.24022381597587,47.776448844842456,-314.2792021190543,0
241.0,0.669498,115.22787429743092,434.8485170508032,-85.52318385972691,-32.76796054801362,17.2920030199935,-422.4589413192653,0
247.0,0.686166,115.64307272260255,786.1368704052738,411.3488669294425,80.74588566872315,338.3770013190849,-294.3092231089033,0
253.0,0.7028340000000001,197.6208716928824,-20.013391483691635,260.23289609269784,-258.4430990712996,10.113138993189082,-423.4070783047696,0
259.0,0.719502,78.29666486562054,630.2809834691285,-486.70070899611966,33.0872016345798,297.12893060828526,40.98466813460185,0
265.0,0.73617,226.83862130725748,585.6735211137532,441.73405525196415,-102.91447978654,653.8797544606248,-329.4228156596138,0
271.0,0.752838,-391.5961329746924,-745.0593891082665,-34.68881709824774,-25.600942164435143,-819.7814220247955,5.578327551108295,0
277.0,0.769506,347.28981955896967,709.4705179306155,-382.6797505183521,-362.6957060334302,948.2660711857772,36.484745719117605,0
283.0,0.786174,-678.4342657232555,377.3649320828191,-464.7874545510288,-74.89105694952649,461.07831248196953,48.18385179509441,0
289.0,0.8028420000000001,-84.41249365487542,140.3921996497249,-315.3027962369804,-205.39103537082696,337.84668508650776,95.43669450135732,0
295.0,0.8195100000000001,-745.5515326146385,-245.6025449925192,-197.9613840156225,-156.45310426095463,20.827509571458915,103.75364062369135,0
301.0,0.836178,-164.9844654924786,-460.9166843723576,-290.30639860890915,90.01816077752778,-17.099762263960265,2.97163175327138,0
307.0,0.852846,-128.54919288655532,476.8834881021716,-771.3498364103979,180.2308608789388,344.5259389239713,140.1551352211814,0
313.0,0.869514,-79.1637645718726,-240.9038553024635,-258.7992793958182,64.29915275239685,21.29588273662048,263.0594780469278,0
319.0,0.886182,-228.3369178201434,-235.64166008803875,-365.30228047049536,168.3202222451124,96.27159999438172,-31.04984678195379,0
325.0,0.90285,148.00597046990123,-659.2050522276,-374.32816190512295,193.9726696270606,-457.17224566664606,325.94813437972306,0
331.0,0.919518,28.79338306900312,-652.5937706398814,-185.30607852264168,205.0996855717769,-488.5954629201047,7.86401505057723,0
337.0,0.936186,-1.3976448984165728,-494.39920567245713,-296.7346764074391,464.4921805448061,-110.79980743683336,54.08568831505711,0
343.0,0.952854,-210.7247632435902,-638.6914294028586,-159.6632591196095,348.8346794449866,-435.81883862882006,218.43998676180905,0
349.0,0.969522,-122.67906941732736,-772.4786261714726,-253.0787610779581,525.5694456271274,-425.8408472148209,256.39807006508386,0
355.0,0.98619,-475.2095110631857,-1114.8563937756878,235.6853261873944,364.8397851989705,-356.9265862542727,301.1875079363136,0
361.0,1.002858,46.213665823084966,-193.48566076802345,-1043.6511358129733,431.9931213405642,-120.6406279781736,74.11267022400028,0
367.0,1.019526,-134.29298477629663,-617.322423713356,-449.3465479924985,606.2480153349338,-69.98621460876726,209.73973315728344,0
373.0,1.036194,-517.7477725570938,-254.00198582953047,-276.03213722216714,474.4767497849007,259.31427091626443,209.95076099384409,0
379.0,1.052862,-256.4298949881434,-1053.4331642709865,-91.17073260438544,567.2255282951594,541.6256154828394,367.7983585604011,0
385.0,1.06953,-385.8306325272267,-104.10377498652215,-83.10658101933322,258.54626012059555,624.9483275349576,-109.91074396908098,0
391.0,1.086198,-685.9884216297978,-406.19686110377614,-114.59917926236967,390.5214913669166,713.7746066805745,259.9670808960419,0
397.0,1.102866,-279.1920520764106,-17.873504207693117,143.87014918728957,273.05635152151945,620.6447209402742,-120.37875483179482,0
403.0,1.119534,532.4305814981998,-9.269054804603655,-588.3085485166785,184.8010564234912,468.79912317400624,-71.89607490590718,0
409.0,1.136202,-1109.267039396388,74.01496921280008,1008.73893403413,264.31691654718645,602.560156574412,-8.639183468819699,0
415.0,1.15287,402.9915955182141,-93.25850809900928,-669.1396813655994,82.24282459902435,359.0175227267433,-183.11639179822524,0
421.0,1.169538,-347.34966153154994,-110.42634100923772,417.515215925555,73.02059413603429,438.88850890388665,-126.4030714959624,0
427.0,1.186206,-129.30812264814614,148.9232349216404,248.7816389987657,199.0754147717476,337.8096357166013,302.74142124857593,0
433.0,1.202874,-107.01284332405083,-178.56746997686895,278.9043235629404,-10.434636630844537,391.8372680965647,38.483013496717774,0
439.0,1.219542,-110.43945099200792,-309.9144521363998,299.8897689050649,16.929424090723103,577.2049674219269,93.52526829299184,0
445.0,1.23621,-65.69182561312338,-14.869627292313185,227.6437824576296,-169.2714036098887,195.37965987588325,113.89068357676588,0
451.0,1.252878,-270.6188144173676,35.753183348694336,151.28695829553243,-344.1980057246968,221.36880863854327,68.91785338337445,0
457.0,1.269546,-183.01177669361684,-120.91525546850384,282.41921474685154,-318.4170702667145,136.8897576258136,-3.567564729729781,0
463.0,1.286214,-190.90607453733344,215.35940166272712,541.8069357506515,-371.6429699049899,206.092824863021,-85.6887207036106,0
469.0,1.302882,87.29132135399993,249.6310871286772,216.0961623012157,-326.99700065529464,155.00848594440447,13.177602705147294,0
475.0,1.31955,-191.83015199691323,323.10644095395736,446.6893587825368,-292.7537141028184,-51.11764302525995,125.6788920969796,0
481.0,1.336218,318.2060673433393,158.79503945951694,234.98787191404665,-387.0945685962217,-114.79127601707108,-145.81352242051997,0
487.0,1.352886,-151.15289105135184,-7.428196507197796,415.8820222752487,-195.01111091133288,-433.5076449073232,-78.96102017919276,0
493.0,1.369554,22.943222615772584,279.80687255800524,27.38854219431306,-180.7155348602909,-373.1979649138624,-49.179649568182384,0
499.0,1.386222,238.148633906153,-46.68104956208007,209.5065121976586,-136.4584287563288,-497.7712787242826,-64.70920512212298,0
505.0,1.40289,138.5221129104347,186.4120065055704,23.894183345913945,-183.00237263953915,-525.235760723039,-86.88064479032468,0
511.0,1.419558,419.0804337035668,280.7671698332249,-12.53915083156599,-111.80877616145403,-636.4061667070465,-21.433963862722745,0
517.0,1.436226,610.0967748140888,100.844016683497,95.95617631921908,-129.7289674700966,-734.4114327543904,-8.549887692587319,0
523.0,1.452894,176.38969953915262,666.1372843486565,-435.27337891076553,-110.509440562997,-669.236475649033,50.48872360433417,0
529.0,1.469562,721.735545734566,258.1406647949374,-40.90599408696994,-112.19056666251208,-653.719570236381,147.56699198423811,0
535.0,1.48623,423.5100957192831,711.9698308501681,276.3922276884902,-365.7784641540317,-696.4879705275414,-8.67564950647754,0
541.0,1.502898,868.9260945616303,515.3234737255916,288.3127042461461,-287.14271577159013,-448.84413734685313,19.744466880532656,0
547.0,1.519566,253.9433583561775,624.0612289798485,-5.075513843515637,-296.3473055207441,-606.5937537059893,145.71321311878555,0
553.0,1.536234,131.28036809924347,649.7964373666667,302.7170859145829,-313.88929366270355,-508.42781240633633,96.15861104858894,0
559.0,1.552902,37.83880634374796,303.47913347893893,350.4219628203557,-223.77831581334075,-422.4461229570731,108.45882593461246,0
565.0,1.56957,135.01672099034252,325.4059669603467,60.688288654674906,-182.70869771604163,-355.93590794349524,13.938464804073137,0
571.0,1.586238,234.7708942965312,258.4739617167582,215.04444891388212,-63.70841984555669,-432.3498317878175,-40.12155298747323,0
577.0,1.602906,561.2535838327823,357.9789906459022,-377.94099017451225,-68.81586356555434,-426.9518440539787,-106.17597141054613,0
583.0,1.619574,-191.45568309294663,574.2824408065276,-149.57679392834265,129.46284337023718,-400.2276975169815,-67.54790192347826,0
589.0,1.636242,-90.74070517038705,352.6358073653936,-379.97818400020856,-140.6102297948412,-729.9378285753837,-71.80152384715991,0
595.0,1.65291,326.2662738967199,904.2598834343584,-126.3687227392988,-2.760134483740813,-538.8088571567303,-34.584817153638774,0
601.0,1.669578,-191.76982408392743,246.9083407599379,-4.330788994887968,68.76096474470815,-613.2814419434065,-272.97008993097444,0
607.0,1.686246,149.69616060110326,916.515842340034,-888.4037677400487,44.61510471460938,-42.2338320838986,-489.75728240247656,0
613.0,1.702914,176.47247012276932,443.95479397836834,-134.35722807811982,47.17933014700101,36.43316406876725,-334.81991517970846,0
619.0,1.719582,-398.8458957447185,322.37824005583536,-556.1110856454156,52.14182501637525,101.93172512758582,-485.8794389451805,0
625.0,1.73625,662.9601008611195,209.78843462646492,-536.3949517457596,-16.44932243174594,232.1151832538264,-249.44180333073763,0
631.0,1.752918,-768.8473800337808,590.0286752911775,-403.9261702392055,-33.00322850327023,311.37875791345743,-531.0374043847053,0
637.0,1.769586,334.0984570589371,-30.277147684858896,-576.5170580170883,-266.85271658031604,250.1116065727075,-359.6792214717676,0
643.0,1.786254,-408.12336070777286,-113.45211012900435,-299.01685278297384,-224.1959845138973,451.5059135071507,-388.0560154731148,0
649.0,1.802922,-42.84967571669603,-43.31058195664381,-302.4224905177974,14.32333691340142,681.7361650386638,-578.7514605113697,0
655.0,1.81959,448.17821897700907,-109.55026733230582,-451.4475695166539,-13.010284392927574,622.673547571664,-404.0380866741391,0
661.0,1.836258,-1008.6768627858124,-206.1954945100408,28.90381326619955,-326.48038038100765,690.0678621872186,-501.96859603061296,0
667.0,1.852926,130.42731501381138,-493.0895150738484,-226.1204746568648,-73.9896957408314,532.6142716363323,-314.33637846371937,0
673.0,1.869594,-71.9145841526062,-387.5986619405815,-211.982303242016,29.878983418088268,304.6106132079981,1.425123512067243,0
679.0,1.886262,46.50885865420199,-694.1072826441283,-427.55417550909135,113.13105070169576,247.7891027141696,-112.98134434779702,0
685.0,1.90293,324.1283308130703,-728.7080868387117,-180.08144129152777,-75.84865801210647,218.0659368322968,42.9813438094745,0
691.0,1.919598,-272.68145175749487,-913.9238390501904,-252.55585971126612,-59.604893081868255,158.7695979304113,333.0456362590704,0
697.0,1.936266,94.30914152787751,-419.2713247410006,-72.6188984388322,-28.17908651845368,159.82277218201176,227.2986267189143,0
703.0,1.952934,-446.5162942940737,-1175.9175184829785,681.1583463408863,277.0171430874515,22.13882764646989,399.4107858248981,0
709.0,1.969602,69.36818117771926,-348.7928436758029,-615.8505094135119,10.085048675459298,-89.94199097197261,57.8578046364202,0
715.0,1.98627,-16.426979174810093,-927.8350774733932,102.43848671128052,432.1058913145756,101.2818001967306,309.9856554136544,0
721.0,2.002938,-141.17470653697106,-555.7277179550007,-451.6153560583707,216.2413509630053,46.08003374738352,112.95102741212789,0
727.0,2.019606,-266.7377158940619,-704.771636489317,160.53806192133555,360.7749245877761,166.41590167196944,266.1544808710139,0
733.0,2.036274,-627.7328924862412,-576.8679383269416,-157.46864998575472,527.7231955078357,217.1879264451237,459.7329653336036,0
739.0,2.0529420000000003,-159.9347961370773,-605.7460005636035,-25.82201011029496,320.5978657727737,485.6459075548232,112.4986904689918,0
745.0,2.06961,-172.96094028938035,-419.2756380908596,-82.5619910415801,35.02521599692721,280.4477044411415,166.0843190751845,0
751.0,2.086278,-326.7579113121605,-491.4613688036797,187.86714503318208,358.17318001713056,379.0459779449838,149.20286768750958,0
757.0,2.102946,-128.63119757923795,-351.0011730433338,119.73196879223572,255.07784913500964,281.8604162217147,176.0395060290052,0
763.0,2.119614,-219.36035086068708,-143.45931568014433,105.16064436508304,19.34003954936736,356.09967838933585,12.78183087834878,0
769.0,2.136282,-433.3076316682958,-360.8957912301194,478.9077419786596,254.6814817989596,325.6006535620558,181.08230145723329,0
775.0,2.15295,-172.15114023558817,-505.21789317340114,375.0588709715432,137.142763893585,279.6754078196444,25.118012663165107,0
781.0,2.1696180000000003,-520.1263779748689,-175.92191285270954,366.8265382150059,144.59120134251833,450.7138013177555,169.9520239974443,0
787.0,2.186286,-118.01772651813062,-58.23304011431304,227.32276895023432,-97.34224507261304,283.61703511270287,137.43500376764337,0
793.0,2.202954,2.57837268207723,159.5623188507344,316.4271043924644,-100.83528841312544,319.83631981705935,-26.715461388051683,0
799.0,2.219622,-127.5955223123326,265.77917431304246,388.5260032005961,-53.639591656131465,301.8829682696936,123.47471350848858,0
805.0,2.23629,-45.8104979399259,-96.41696375354776,188.7791196737084,-140.28117224913854,213.4544426373284,282.2754033389714,0
811.0,2.252958,-106.92802615291792,457.7240891829442,302.130893912047,536.5473994601525,874.6092716185794,693.2607655643253,0
817.0,2.269626,-79.5132830225588,319.3109607371392,414.3352228620385,233.46972547971856,867.0123592002949,444.05826277551336,0
823.0,2.2862940000000003,11.554092723035325,952.2791280725324,470.6774594800091,-3013.4298984588354,-2175.6343433237003,-1902.110434493288,0
829.0,2.302962,408.0694669150397,94.38786574093535,395.03324016099526,2927.692805892208,2833.291226901348,2444.413248293743,0
835.0,2.31963,349.3856856359962,854.0614268256891,192.69612706661889,-96.13070730537392,371.1812253735004,178.03365861535517,0
841.0,2.336298,-274.21375755859333,340.86362364045624,721.2509992815551,-81.18245759315728,112.41170167633936,90.80186449105378,0
847.0,2.352966,139.75655899271788,532.6857210251225,80.10137805768322,145.87374706023465,43.14428222249266,183.82762709098145,0
853.0,2.369634,810.855949137288,739.0246147273019,-120.3481281212804,-425.7582602234335,-116.75450046019662,-358.18114606213635,0
859.0,2.386302,-249.75632416068623,211.9061296621554,808.3516449434667,-217.22116263990333,-309.88680275546204,-186.9644748760549,0
865.0,2.4029700000000003,514.4286062626668,505.333980029228,-72.57187614149217,6.675826801520103,-257.98042955586016,-226.3192705221386,0
871.0,2.419638,-98.1488998340266,190.67749712971496,177.7533669115126,5.402700679881406,-188.1847046743912,-10.20482976071522,0
877.0,2.436306,-74.52958576623676,-114.78674291980876,344.91145704397206,-61.72200994462453,-299.0414737905597,-106.3308920448758,0
883.0,2.452974,796.9100996986592,309.1213994942159,-462.7364601455073,-132.90919038451355,-305.9741778628039,30.792555925947056,0
889.0,2.469642,393.0522780060933,-140.20221401399348,-90.00273385262196,76.71712547162133,-733.1375308955505,264.923207237562,0
895.0,2.48631,257.6491737952206,-42.82468794645806,-131.0661337438484,-92.91875737068972,-574.7395196037476,31.254800958812,0
901.0,2.502978,233.92847620595904,-86.18622566386395,-202.38146821172936,99.488137328119,-625.9674208816341,197.48240874670608,0
907.0,2.5196460000000003,-165.93728284008253,57.66370645243163,161.6794663130203,-92.10076048126288,-349.49996987230656,66.91816981773084,0
913.0,2.536314,362.3679456742227,-114.34806710473644,-369.98224674595616,128.79742483214096,-839.7534240229395,174.28943496616438,0
919.0,2.552982,153.98753270744388,201.59663107207572,-274.1286571619837,-151.06148543101602,-492.20097272502414,42.54590245514038,0
925.0,2.56965,188.77624360683296,129.665290332163,-317.9542176869692,-92.41436418268054,-491.1507439824907,2.121939487444905,0
931.0,2.586318,-18.36733456677081,469.2442357959956,-289.3175163188985,-71.85189077100587,-685.8486145576929,-64.59812177737382,0
937.0,2.602986,589.6269704320473,327.44043813705343,-433.3060959730125,-142.51345443316532,-316.8635179068161,43.85383051786456,0
943.0,2.619654,175.03678035077343,369.93574528821375,-308.0265503071042,28.38076717533137,-302.95973408142123,-215.38341591532043,0
949.0,2.6363220000000003,248.2042077811339,458.49369076629375,-287.1260875408602,21.76024902415658,-143.2767913771048,-236.7005089690628,0
955.0,2.65299,-188.1515868928937,332.93255485013736,-344.2688654658276,-320.3384009774791,-329.00486138698386,14.734787429234729,0
961.0,2.669658,-165.40341702750646,493.64162423124185,-62.64351615435028,93.58057116887512,-41.40447167712743,-120.8450869050526,0
967.0,2.686326,325.77443831416423,297.4009960820973,-351.30634464019766,-47.26131679966963,-65.92201790843774,39.70849090135144,0
973.0,2.702994,-364.931234891122,219.0268057781936,304.98426589381006,-53.608735372592,-76.89902416707118,-305.410984372032,0
979.0,2.719662,127.37181349025133,548.0913963429283,-524.640783719793,111.0677414733201,-133.45991873748568,-127.3449206000569,0
985.0,2.73633,-68.31944458808026,30.86826552049473,-472.02361865426366,-146.36222551539734,-445.8816267675893,-457.244309085281,0
991.0,2.7529980000000003,-470.6299584390147,-225.1853861006109,1088.5660833167476,-310.4151845144993,-63.27930538041811,-320.2519628077429,0
997.0,2.769666,-460.4067628191748,-65.7113708462714,89.45375497680033,84.29510621335635,140.94463145697114,-397.7141617892418,0
1003.0,2.786334,-101.58699158132649,463.2141241591755,-712.4840336038806,-415.98114843470375,-421.7985802532054,-639.1650125970466,0
1009.0,2.803002,-378.5959007647364,-105.64109409222353,-75.79606224241161,202.2251176265419,682.4847469941992,-375.2565277520143,0
1015.0,2.81967,-269.8745737615072,68.51740781630376,-146.48261227039083,-62.7838183336296,208.5445682403296,-349.6397227228197,0
1021.0,2.836338,-321.12772715954407,-2.297415300464173,-483.8353923409161,-368.94004501936513,328.7456669244985,-528.0901950901241,0
1027.0,2.853006,-98.67811550973276,-131.76238067373038,-251.8258928344356,-40.92988897727695,623.9449842804007,-424.7907222155383,0
1033.0,2.8696740000000003,-31.053154940062555,109.75442989771491,-317.33005840300507,-528.3913950954425,-273.9764320961644,-368.0082146896523,0
1039.0,2.886342,-268.7656392345665,-234.72982682229653,-364.246042617955,-77.71593431050482,356.7906798314557,-264.6774193581674,0
1045.0,2.90301,-186.32309367935272,37.87790388791859,-351.506701920125,-71.29933621802694,296.5518274986302,-61.38823840139696,0
1051.0,2.919678,-680.2084859562315,-364.8121847743112,276.15054645616453,157.56776515483193,238.8076168166236,171.76343262713817,0
1057.0,2.936346,312.80036932053576,-324.66280145628645,-231.72234414697164,134.78425584275277,172.58884007332688,-100.04324027054965,0
1063.0,2.953014,-177.67266052322125,-212.1325172022917,-305.3293341885023,-286.05595422104943,-480.7641232023178,373.220766997372,0
1069.0,2.969682,-217.84040965301176,-698.7786571202676,-37.25135970032164,178.83405299130226,116.39729978261826,-27.95975645314995,0
1075.0,2.9863500000000003,-190.0531899437251,-809.4985139953859,75.16971175546097,185.67416755891333,-127.1648131542458,343.6781821611005,0
1081.0,3.003018,-80.82167805914554,23.599220938831976,-786.5146460810707,244.9104746562647,-24.526125771121187,284.66869963748866,0
1087.0,3.019686,-306.2908767853175,-1338.7017565447554,168.4024656352897,188.4649755409082,-225.760334642828,265.34716614496847,0
1093.0,3.036354,-149.118949148354,-640.262471414539,22.56927266635394,189.118965322877,-31.711916222912667,259.2327446340399,0
1099.0,3.053022,-292.51980747356095,-476.63465365657714,-7.531640081081647,405.6140494875148,86.40197712843691,493.5076325917529,0
1105.0,3.06969,-131.19762503800314,-837.7400998236903,0.7687115194378435,392.8410264269247,58.00928909568908,309.8887952696683,0
1111.0,3.086358,-540.4457779426072,120.31762930331712,-301.39765304650655,460.8495849657359,138.8798126236249,343.1256960775305,0
1117.0,3.1030260000000003,322.5640715152857,-1295.614240953244,1075.114128505377,299.0813708495744,-149.85560498221628,269.7757199549295,0
1123.0,3.119694,-308.19556792516204,-421.93723084353,-97.19557777446514,431.6015945489492,474.7325878832761,69.62763139588347,0
1129.0,3.136362,-172.98805989648014,-583.5979070528379,210.1659378716039,465.47673310141545,145.17688544023824,90.85586103693804,0
1135.0,3.15303,-90.66639076385756,-415.063979281618,228.65966487478445,229.1519744094304,312.2382907047163,21.417210305686577,0
1141.0,3.169698,-46.07662043393622,-425.8799284798747,316.954586336676,293.5076436979146,384.0706406219685,-78.49390845117661,0
1147.0,3.186366,-84.0977821484829,-357.59811029012724,310.08159584395344,253.89227107482927,266.5987057512931,55.46368158502675,0
1153.0,3.203034,79.02847037507804,-226.5162504899264,282.2998807904047,172.10539554881842,348.9890057750089,88.10190828615963,0
1159.0,3.2197020000000003,118.3162055701484,-324.03780209393256,403.0160467548158,52.83420812125364,278.19486094412474,248.66812161848185,0
1165.0,3.23637,-350.83316671407886,-314.16838033231653,116.28112371307522,71.8299700070479,369.7556511989554,258.34132564547883,0
1171.0,3.253038,133.2584271925027,-112.65379952311235,397.32813424619417,102.42354419286517,534.4220237911704,251.56060171285336,0
1177.0,3.269706,-16.84452944815877,-35.53080495399891,387.07498304224856,309.5485736545123,447.8784452661167,460.2020322994855,0
1183.0,3.286374,-225.97690441709867,-145.2930106287256,419.2256858028401,-355.6799627072045,-106.3420422500977,63.07233259687702,0
1189.0,3.303042,-286.3998990291916,-217.49051429171325,537.2295331169614,-49.28139282114343,587.187094553336,247.01228617567884,0
1195.0,3.31971,-207.24164864865952,329.10298352402793,398.0782974237314,29.828823188103115,692.4571670592577,235.4141973921267,0
1201.0,3.3363780000000003,-117.76190970909283,342.186784519212,396.8319352899097,-31.252485465950727,-31.734029078347405,429.8365121101782,0
1207.0,3.353046,-83.00400754178649,399.61855601578696,209.64624783104696,-1756.1919587406082,-319.9147020214485,-857.1218995214704,0
1213.0,3.369714,-200.2553690262746,180.2666544827518,286.46173960387404,1599.7501448922865,566.7008197861115,760.2944643418691,0
1219.0,3.386382,-31.431222671567284,390.9777169066156,163.4707904962854,-279.9064319510504,-92.606909687491,224.7180341011708,0
1225.0,3.40305,100.56306964360871,377.4864458540408,-54.45612299823816,-73.9235680016557,-184.3464768888798,89.24198635531087,0
1231.0,3.419718,-29.16467031238023,156.18079412546513,248.87574977703275,-159.02115026044524,-163.57563416320716,77.52962373801432,0
1237.0,3.436386,286.53391637831726,109.75472434240989,-209.3894003115812,-146.56689604151447,-469.3578267875369,64.95757388333767,0
1243.0,3.4530540000000003,-4.702223093612922,-119.21572584645244,189.56434195916424,-38.96308001677424,-418.5077115772225,165.42217471811853,0
1249.0,3.469722,376.441968801025,-145.33759131588826,31.112733766650027,-259.323975113304,-870.0231096751206,70.48510833489632,0
1255.0,3.48639,197.76669163382127,-230.2581574107932,-107.09391896286228,-379.8596547553584,-626.7733203763607,162.07175844981,0
1261.0,3.503058,415.2306223221475,-276.4077481223581,-253.339761877591,54.71011552449762,-903.2959548543828,319.38587375223284,0
1267.0,3.519726,-66.0945470120536,-340.8909214716097,-56.26439686077458,-186.69862260410468,-1069.291899427758,276.144935436535,0
1273.0,3.536394,100.297760263064,-284.75292095277666,-167.9268589380228,51.835766816160174,-1091.4413479302743,265.2437550891647,0
1279.0,3.553062,118.68884006874168,-102.3957177178394,-243.1249266874998,-231.0980352190874,-1158.8682741797115,88.5885723592092,0
1285.0,3.5697300000000003,-121.38252960502928,-164.5016093049417,-143.68534672742848,-146.18573912121406,-966.7051415216396,151.0620720818003,0
1291.0,3.586398,-252.8009102818154,-55.10097037678325,-440.98804587243467,-126.17101802988672,-1027.5736172849292,55.27527442441316,0
1297.0,3.603066,13.160797044300908,46.52283627484821,-480.9268389297085,-317.5349821253124,-861.4684291811085,-20.236880075062736,0
1303.0,3.619734,-534.203202655541,139.40787530232546,-418.88427865136737,-389.5639860026661,-628.582979563991,-27.45540740850629,0
1309.0,3.636402,-340.6549409820235,444.3391069032332,-774.3874868725138,-195.0104362016061,-724.9323537236219,275.6723363369923,0
1315.0,3.65307,-297.63919309852963,189.5988683381321,-680.2980882655636,-222.3140827822736,-617.8177034453028,132.98991743486667,0
1321.0,3.669738,-86.77258332912433,908.7932219434026,-709.5345770133434,-437.22670175301664,-199.11163985546472,48.43158265660759,0
1327.0,3.686406,304.237409796387,812.2100267261176,-556.9982341982313,-583.7027068726785,-6.825994730397607,209.4560210204578,0
1333.0,3.703074,-410.8390016699236,614.5729732769712,-134.87850787162114,-681.3068686773252,89.14177598236193,89.6845414533332,0
1339.0,3.719742,-80.03396655157502,557.1622625458283,-56.49388044557955,-408.9844286825361,-39.98109045174431,446.5183855429585,0
1345.0,3.73641,110.87419287337666,336.92365714705954,-228.0516931948606,-485.5874921552536,252.2656539055768,299.64486026875466,0
1351.0,3.753078,-154.66740072436966,429.1259248455832,-73.09888366457315,-537.3832945990655,546.794797306189,244.69167822699703,0
1357.0,3.769746,-21.24378330253889,481.1396616571653,-154.7611601088501,-523.6984683464315,501.5442452275474,344.5428956902188,0
1363.0,3.786414,124.99849480338514,394.815818482921,-174.6080797429331,-317.55767324266856,601.7624612323262,318.81820418774333,0
1369.0,3.803082,7.861231928582868,443.3005914213116,-121.95568633824708,-423.9984568845081,664.6188961794337,374.907695784712,0
1375.0,3.81975,156.7978989376686,280.44499790588907,-212.8523518036276,-136.93456745338838,683.6608140037498,123.67994831934374,0
1381.0,3.836418,-212.67798975651547,330.5992198343064,122.81087109774354,14.53300486629474,807.9630423080644,175.03603704683138,0
1387.0,3.853086,590.2226839611086,170.1255054680992,50.13204464986935,224.5123286088829,760.526028870815,-127.49667963575062,0
1393.0,3.869754,174.90084857541885,-181.1338309233282,185.31445091117104,-328.5623867862323,522.009740804073,-47.66695345986248,0
1399.0,3.886422,-69.38054483957468,-26.51275407135593,249.52967705481188,205.80114401534385,626.1685419205426,-179.52372480135287,0
1405.0,3.90309,145.1501944527543,-101.4966202894888,451.6099565056045,274.41547106143213,757.7775134470639,-443.5401051035363,0
1411.0,3.919758,366.0925882119452,-164.02729778904865,1134.4160194586088,422.2434839240833,563.9704945680556,-443.18548461952696,0
1417.0,3.936426,650.2178097215201,-101.44173279361112,1221.761097156933,393.7882099842693,519.175639318246,-586.6388328567339,0
1423.0,3.953094,749.7919022977297,-44.274096563300986,862.8701431092061,468.8177673707867,480.72283143940257,-599.980833933437,0
1429.0,3.969762,189.7420670802192,14.63317551526712,493.9473565533284,461.1504822158686,151.11221397089946,-713.1537713981027,0
1435.0,3.98643,1.8645957028188285,-89.74617024242858,182.08702043679688,636.7568263499487,199.543991942222,-769.6723195603506,0
1441.0,4.0030980000000005,-145.1242462724294,-220.7583124585204,166.2947959654482,369.4311240075608,50.98297369322007,-104.02508243288106,0
1447.0,4.019766,-133.2807403079144,-171.98366413628094,-160.6678832628283,449.8626111652397,99.47537091051082,-851.3567241360245,0
1453.0,4.036434,-430.66472194220125,-7.075403186805886,92.90664525311296,382.5126020877433,-63.30071936871365,-771.8885173982247,0
1459.0,4.053102,-124.65691264081792,-104.40099104984428,12.058589429592338,221.1858302970138,9.38753034935327,-729.1258147128908,0
1465.0,4.06977,-306.14492833526594,-98.1704781597625,122.09159668443502,234.3318772023872,-120.95991400448042,-642.3558412992928,0
1471.0,4.086438,-146.4019957618612,-124.06207785949256,82.8078225525018,201.5193358571804,-208.069518560289,-514.1900363034636,0
1477.0,4.103106,90.4402954191297,-110.58530162127772,-13.897332206679833,275.37920788746953,-171.20482962231807,-528.2397060685205,0
1483.0,4.1197740000000005,-310.4942119956004,-88.59646851745616,237.3233034809153,186.03555771949576,-172.06793928598788,-485.8214689859677,0
1489.0,4.136442,-172.48847042185304,-245.9858921347983,-56.51555529375312,229.58192341439172,-130.67115806192226,-334.2235691381891,0
1495.0,4.15311,-100.20762064564784,-212.80434360502844,-33.1420671790766,85.2974894013636,-114.11795121614075,-334.3210586941811,0
1501.0,4.169778,110.67859666453184,-341.4653148438248,106.2030900850554,470.1216635695965,-59.30334951473992,-399.715540756652,0
1507.0,4.186446,-405.0516974813913,-238.04117831855308,201.33529756646777,232.5286858775952,-240.8716659833624,-213.6893074710772,0
1513.0,4.203114,-51.13116850518506,141.1633245634606,-28.115819211811584,194.16504185203465,316.65327677390763,-31.38986008929811,0
1519.0,4.219782,-108.9398865205717,93.8325267123948,-27.41413569774941,182.3410327669677,244.38122795366328,-91.76612302029191,0
1525.0,4.2364500000000005,-101.69324636135552,104.30405577917142,-122.3777636465776,134.78332154861394,321.95697569124286,-56.64247712220661,0
1531.0,4.253118,24.783202929054823,299.8700829271213,-156.06004920685115,150.40575556607428,396.7977077724699,-11.643336403920344,0
1537.0,4.269786,45.685738042054055,274.8136246574717,-184.9051631670913,-29.020448119807355,466.2638505793806,30.70174646801177,0
1543.0,4.286454,3.50599039363545,118.76022589880856,-103.89119247854882,46.54866852854124,182.8866308972793,145.96054133869077,0
1549.0,4.303122,325.7236048508275,259.1438700285157,-282.47030887258484,14.901335444582385,375.5469742587909,146.26421433639743,0
1555.0,4.31979,141.10664932139068,213.4329277067237,-252.83725606801167,-132.08501001791905,211.0582636973436,234.0240186408759,0
1561.0,4.336458,125.8959504929069,17.54938931400862,-155.3403754530892,-105.1398031428235,135.86239318641003,184.1249468564315,0
1567.0,4.3531260000000005,43.44085735538881,108.01962603317162,-310.724976567226,-84.65246737406142,133.98355398034315,331.4237411536209,0
1573.0,4.369794,132.06497385152005,21.874801255252976,-260.29781301801575,-175.6832885126938,-12.463320559229892,223.20990043260497,0
1579.0,4.386462,17.395543333786918,-170.06726288410783,-262.1535366201674,-145.57958916617542,10.235494005840929,312.3087870501444,0
1585.0,4.40313,63.41414924401242,142.49286816271243,-188.5982720848009,-201.07597276688685,40.515179124322,245.60443935374795,0
1591.0,4.419798,58.286003339361486,20.929594306849047,-202.1373983145357,-206.6481028885836,-54.04774318084198,286.16361059883667,0
1597.0,4.436466,64.9973224541641,5.049746162781212,-181.76120734004945,-175.49953926877075,-194.3096418232957,350.564781189268,0
1603.0,4.453134,-129.18362943975688,-13.49737469639738,-194.02173225651623,-271.0753389377448,-244.17746308009976,294.85308789635,0
1609.0,4.4698020000000005,251.2631721034325,16.990506236971832,-298.09453742361296,-248.4871611007266,-214.57520318346693,268.1269844008222,0
1615.0,4.48647,-365.7135702097292,-27.17999013321421,-8.164397641635205,-264.7451636738689,-358.530539949855,329.8788934297363,0
1621.0,4.503138,200.95331231559567,8.239930994391415,-97.62285141094394,-272.295126744656,-236.3390540859627,198.1233672903333,0
1627.0,4.519806,-139.99806782996671,10.128506172066569,-64.62774424727687,-166.4144022103808,-380.1639907206184,277.447486172019,0
1633.0,4.536474,-145.25268217015702,-11.20358769363426,-6.303099909132557,-202.8683380329295,-366.12152576576574,318.2562762154326,0
1639.0,4.553142,21.18732662189692,28.62872564982654,-6.320573703841887,-177.9148925340661,-347.4789640281372,192.8358403251296,0
1645.0,4.56981,-175.73855381603056,-5.990944771718533,45.45443740347814,-407.53129865320017,-266.7257143296604,166.5492068947919,0
1651.0,4.5864780000000005,-173.56082495182022,-50.49186281212509,41.26950744735285,-154.469373909904,-338.25619648473287,164.53131606635506,0
1657.0,4.603146,-115.9255196872244,111.69707714583429,58.4444349234019,-313.7451898112583,-245.25436973039905,203.3607468419517,0
1663.0,4.619814,-101.642544081097,-36.71123549930992,114.43628995116308,-229.02436173205325,-272.55586571329434,182.1601804067623,0
1669.0,4.636482,-160.33715431673772,11.9675068285731,133.27994861049154,-248.37270369042184,-303.52465217571444,156.51730906626534,0
1675.0,4.65315,-81.17407328893201,-76.71607020573802,202.5245847318205,-102.49727448734936,-59.73430410792772,96.5046948985866,0
1681.0,4.669818,-222.32147753150048,38.73419667153711,132.8218040779085,-367.5044245077478,-122.77244370486208,135.69923069017582,0
1687.0,4.686486,-96.04342034998646,-76.20441910042805,147.74287415131016,-160.2268930021026,-138.72951640479988,116.8006760918926,0
1693.0,4.7031540000000005,-90.05366357447686,-75.6468426838052,117.7677283949874,-202.2608733311524,3.938111929232463,150.99694430571543,0
1699.0,4.719822,-249.97875462287445,-105.15334986618215,91.9385054652212,-112.91350595712802,-45.52247576307117,100.95778853607824,0
1705.0,4.73649,-265.59348922689355,-80.28503969354107,201.69365784396444,-111.65550145240212,98.31486223432988,44.88717471084936,0
1711.0,4.753158,-222.5593479964325,-57.56562684346021,236.4851441194357,-183.5962169869604,158.05335009751002,50.20759991654283,0
1717.0,4.769826,-151.44621690663345,-113.0480891231794,288.7232643432093,-179.57045195124778,54.03395609933395,92.71190817549804,0
1723.0,4.786494,-94.42409545220784,-134.932397745321,183.91509065227064,-108.8769304468893,96.78004760553236,39.04832551997125,0
1729.0,4.803162,72.32574254617971,-72.57662846595096,310.01256923473085,-20.08454724004213,105.98330635033378,-20.68669799697629,0
1735.0,4.8198300000000005,209.0800223885556,130.36520638971103,235.87812023325665,-140.64054004060563,214.22276621870924,-22.77403599518801,0
1741.0,4.836498,202.5596552263707,11.909489399671646,276.8326211657144,5.386394242882417,92.8573557484527,27.618296299032703,0
1747.0,4.853166,244.3141773135989,18.20321320054081,240.28248429481823,48.66051043583827,173.72000462217005,13.533119803584782,0
1753.0,4.869834,26.91765055488834,30.977970883625872,256.1380164161459,283.4115900046003,111.52507380653282,-51.48522545678276,0
1759.0,4.886502,115.66907845440852,67.18358332715229,163.070363374475,-459.3556341657864,67.99436363545786,199.0235742768048,0
1765.0,4.90317,-234.97899929041256,-96.78106255454804,496.9346102588141,313.5055179188557,161.75888809493688,-162.5961337131935,0
1771.0,4.919838,229.5922423128487,-172.1591965198474,-154.77524070498518,145.7804985600912,112.44662473940733,-47.292131994449655,0
1777.0,4.9365060000000005,13.21617851159106,-132.12889852775385,142.78539755645022,81.24840790490077,59.24576516509209,-110.79775210290803,0
1783.0,4.953174,-97.73156682997104,-71.86326795717588,148.94204408610278,215.6002991537181,125.65712862296954,-221.79855622011672,0
1789.0,4.969842,-132.3630391150133,-214.9919878936001,159.5131512452904,146.21583315517947,-64.60042473270259,-91.85124179420475,0
1795.0,4.98651,75.31600242398923,-13.48783347885294,-25.48744671589773,-52.68319470635382,8.195941459152486,-111.38956672192494,0
1801.0,5.003178,-150.59281193943488,14.502064637780467,88.59178826533983,11.609733161585204,35.55400996739934,-168.4905712723488,0
1807.0,5.019846,-240.7849897030886,-27.429052202058404,8.841139589529483,256.3419511231085,59.9691807090518,-375.2658723850232,0
1813.0,5.036514,94.05304672284082,95.54267095185249,27.3709486131187,67.93937471994448,53.17366827005541,-102.57007862656216,0
1819.0,5.0531820000000005,-43.55857019560175,212.2762315322483,17.702785233235716,151.06039752729453,90.51079211612378,-254.19319106963107,0
1825.0,5.06985,-33.61334492389763,-344.1108143001634,-114.64430493050746,166.53124812646507,-256.9614818328225,-6.068513092349276,0
1831.0,5.086518,98.47864272764062,212.4882854028828,-24.011467848384576,119.44004342392437,149.51652687299637,-101.38088785376291,0
1837.0,5.103186,-78.50929678416215,61.85166980004479,-72.60053650927247,103.70527501102566,76.7332279617903,-127.75293522711652,0
1843.0,5.119854,129.00417950831138,177.35184058580418,-105.96500738784144,100.0913738940602,57.60318660972884,56.79250600175924,0
1849.0,5.136522,-10.112240786243646,23.145565045126222,-122.03683277622044,139.17369869213437,-5.46027595364635,-7.090447416152829,0
1855.0,5.15319,289.5162089566816,191.6855419229264,-183.6013757032187,75.8062307155486,118.44326805052128,-29.90305721806977,0
1861.0,5.1698580000000005,-15.951646246532988,36.45008616707577,-151.9719685305974,69.98980605495245,29.937480547066738,17.834808031528507,0
1867.0,5.186526,118.35918400824156,45.78481663081519,-160.2114390570181,23.983678492586645,32.203114141716185,35.93203337446499,0
1873.0,5.203194,194.97460990166405,-21.46663395488868,-253.47159339842432,116.2307967734301,57.06617555907208,39.43264613051896,0
1879.0,5.219862,125.8319077672644,102.89275790340706,-236.28081476123828,-69.39237399063349,122.10279502178686,-28.443531315021843,0
1885.0,5.23653,217.6915932786128,42.75641854380431,-160.4678605503846,-45.33681768868343,34.688597571487286,52.598292088058,0
1891.0,5.253198,201.33880446734665,29.880079476478723,-177.67483235265937,63.616951797311785,29.94656908287885,68.8792080234482,0
1897.0,5.269866,97.03426289362451,-8.582183270689189,-129.9580846463493,-15.3286882974017,18.55873754197294,86.76787499238735,0
1903.0,5.2865340000000005,193.4734125601272,-6.1034609942913365,-220.73758721453072,-10.286789085896697,-39.07435444624872,111.83496151310256,0
1909.0,5.303202,229.97859608503097,-34.76363413817462,-185.33611304292785,-101.63753213175372,118.87904317005273,0.5492737906173897,0
1915.0,5.31987,215.3336741917085,0.012120288872186,-134.04637861855554,64.16649778408741,-104.52112085939504,153.95932849363027,0
1921.0,5.336538,133.5969901059737,-42.38657892223138,-78.49921784877205,-23.810617148883388,91.41612505842323,59.319357983697245,0
1927.0,5.353206,273.54994682087147,-11.273158172840173,-293.8341135802651,-60.12003000292156,1.1289054679742936,52.911367794349744,0
1933.0,5.369874,165.57216510698538,28.50546410370988,-67.35693063028516,-87.3657363522393,26.177317123811456,-7.650198964015647,0
1939.0,5.386542,57.35311015549325,-45.94278714237284,-133.81372652627255,-190.65058603096773,6.089470541720655,15.935585098051234,0
1945.0,5.4032100000000005,320.38442586417256,-28.596803424409668,-140.71260005061197,28.988495126954213,96.17857273642008,-67.43136998377028,0
1951.0,5.419878,42.194525700382805,-26.35514832262019,-136.06209185016417,-198.67899495528343,-56.04491099272308,79.97545332300493,0
1957.0,5.436546,304.4642238966977,78.0857255045321,-86.90429963928024,-12.540480430241908,101.82218142215294,-31.55177190554666,0
1963.0,5.453214,-53.48695445045423,-152.01281971600133,-219.2150190291041,-225.01745620150905,-7.584647962257218,-84.26896873667899,0
1969.0,5.469882,-61.439249170915424,159.68505130030476,6.902714534710949,-66.86968692692625,73.55765744672813,-20.365369713147032,0
1975.0,5.48655,151.21925456360322,-98.5368412916554,0.1000390040831469,-292.5071837573504,28.72600842816869,21.42104043015141,0
1981.0,5.503218,-1.2529540813202793,67.7965061240342,-79.44933954417625,-84.30789558690493,27.21903492817829,-0.7095995659130061,0
1987.0,5.5198860000000005,44.62879434493033,123.7607797388736,-88.03184159686685,-104.0491881360024,102.88552775125504,58.178018738268136,0
1993.0,5.536554,-40.59075708047652,21.34604614839755,13.384455634857288,-167.5186267756281,-23.5841622219064,23.940322174709856,0
1999.0,5.553222,2.2545245471399227,40.90921218391641,23.9876209904846,-152.84083878026453,-17.048679730278366,36.01205164179566,0
2005.0,5.56989,-38.28377572517433,25.92769960331125,34.00859874783884,-247.414711159206,9.19412401840751,37.34112877032791,0
2011.0,5.586558,-32.74906591891542,35.632980542808795,-24.035103106232768,-175.07933373650212,-5.314356879615424,125.5396595141097,0
2017.0,5.603226,-0.3876283791237966,-22.14351657820213,66.82967786343167,-214.0496648302663,-108.90106700880156,47.22826124124156,0
2023.0,5.619894,-78.57049551543781,4.494107491059008,10.239288553307745,-215.2007330917147,-61.89815738715826,-13.333369543405652,0
2029.0,5.6365620000000005,-20.9636419287024,62.49945410252791,86.47819778367739,-209.6485646728545,66.83084387293061,77.89950908301972,0
2035.0,5.65323,-4.029120268598334,16.407491741523476,-39.31870821946437,-43.42819823787111,-318.7121115248052,-35.34178573531052,0
2041.0,5.669898,-78.97234797579772,-26.27925185978332,43.319617081860905,-150.30671801602938,-213.21463807237024,-2.689341023198395,0
2047.0,5.686566,-57.09204624949295,72.21104640227813,-46.29091019282319,-219.1911246963558,-3.6542020892493374,-44.69804757119022,0
2053.0,5.703234,-106.89209979555278,-128.90407401095194,105.84223529515968,-104.49494713605785,-304.8104121941236,24.83832045258004,0
2059.0,5.719902,-49.25340840628877,127.7112449211434,-64.3788466883983,-98.02168849226786,-127.60869686352406,89.59933037459639,0
2065.0,5.73657,-143.48921500486827,-93.00238312408143,-122.12347009993512,-18.196198256695816,-358.379319760909,-57.26555406841568,0
2071.0,5.7532380000000005,-105.11177332057552,260.7885431727853,234.42303559634257,-102.07497699440654,-27.79606068716421,-59.73520261745091,0
2077.0,5.769906,-17.4793909507177,-28.355188395380832,-145.01682964872072,-2.390992733501081,-284.6515738773931,223.5029958102082,0
2083.0,5.786574,-130.37310698149503,17.30308199523468,-64.48813683380827,2.0199209304932566,-240.06224166695617,57.57792738627423,0
2089.0,5.803242,-156.24449299245265,-19.325605845004468,-32.19777265165009,49.87418171770397,-160.2747790738184,107.03885587245708,0
2095.0,5.81991,-62.60931292063332,103.06686578957634,27.064761057501684,25.42443249065785,-65.80784973967047,57.15612671149108,0
2101.0,5.836578,-4.354262650101219,21.04393500200657,-185.04081839527709,39.52334908885766,-56.473688601231245,127.19963057842004,0
2107.0,5.853246,-41.60386401542046,17.21491567344779,-68.99314544943374,29.44445479092772,-88.44909193553295,118.69647364288544,0
2113.0,5.8699140000000005,-178.66000881223908,-41.99255303204435,-80.35801840082146,96.28985397323612,-23.32749545466312,87.16120041800994,0
2119.0,5.886582,-185.393694661391,6.951327179409637,-75.9408486819773,97.31062171510614,47.885366174019005,76.48382895108509,0
2125.0,5.90325,-111.22837967956188,-114.31130388309872,-79.94830474826922,186.54407355286529,-68.37197745642244,57.09704653267356,0
2131.0,5.919918,-102.28946364205436,56.80738273763776,-74.60010598763466,201.69157249118257,-74.74282313319155,171.972017741451,0
2137.0,5.936586,-165.58502145418606,-82.33442350573154,-114.42062615707069,119.99318828870727,70.47099470746481,-46.41511865417578,0
2143.0,5.953254,-201.19869329062465,-105.23192198720102,-169.83967614157987,147.99746116473537,42.265710084706136,-35.52766707923234,0
2149.0,5.969922,-57.07551502971654,22.79555037414537,-182.93671610819064,149.7475764513358,75.27120568867214,-86.20204318535113,0
2155.0,5.9865900000000005,28.46215787650993,-64.04979588361091,-117.885839196872,97.91275395196766,-37.22003896914581,-75.48846301730654,0
2161.0,6.003258,-120.81885926649048,58.4950547481292,-60.23283370093365,96.0646180181943,140.24323622442623,-69.43781336387889,0
2167.0,6.019926,-210.7539046599356,-184.588341806142,-203.9403303501912,119.61850153087332,23.85928036487337,-182.0537538055534,0
2173.0,6.036594,-200.145769264644,-33.37831362952903,-228.9937674636416,103.7140018119267,104.12591826020946,-144.59484567161525,0
2179.0,6.053262,-202.77614462641347,-17.528045669483593,-206.89196524649435,174.035636479775,205.4708221170983,-102.84739040084494,0
2185.0,6.06993,-59.17272587942645,-183.64476280037732,-177.40859515760164,84.88900198744138,-114.1322238947822,-14.887434318219974,0
2191.0,6.086598,-85.6922639220435,203.65203848352613,-142.69550881436174,2.182221814701151,261.3450249706452,-253.3761633157065,0
2197.0,6.1032660000000005,-413.53729229988926,-185.78236754065327,-114.12046870337132,50.58810950345216,42.60915020801586,-176.24234859019978,0
2203.0,6.119934,-118.01157139360284,155.00918459774633,-317.2342321170218,6.083948381866646,222.69088237894965,-334.186643545482,0
2209.0,6.136602,-57.78614984987214,188.44909521522607,-165.10129110478871,-87.34093046123026,307.9815721800299,-495.9746325552817,0
2215.0,6.15327,-558.8283329896489,-83.31190649981062,-315.5628810500776,80.75625483468679,48.33527401149722,251.5165044709526,0
2221.0,6.169938,251.85915159536955,141.3977370076721,-271.1583733098329,-159.38971358159543,289.8832316093734,-484.9640908371727,0
2227.0,6.186606,-423.4932408347187,-138.46708583287594,-241.8558863464707,-120.84157522071928,-0.3611180347623559,-164.91479000562603,0
2233.0,6.203274,112.6451039489546,-14.124030464902976,-281.4469005364384,50.72186241027761,96.52199342240252,-276.70684214465814,0
2239.0,6.2199420000000005,-33.40831256895092,-0.1289960204985885,-265.5566298198722,-175.0724514573406,-68.30048091832228,-88.68519700864688,0
2245.0,6.23661,-269.33923677739693,30.849154770354048,-281.53281481173013,-91.9956910842602,26.37580399009888,-154.85080164083058,0
2251.0,6.253278,-29.75637136377276,34.7521725603829,-209.1253747086646,-60.03333927199704,-22.37214977969868,-187.1957155978133,0
2257.0,6.269946,-31.44818056819475,14.887905300974731,-219.638327440291,-4.35178196358082,147.50426561715668,-164.16061612004432,0
2263.0,6.286614,-220.30347332902969,63.9978637098621,-141.40761786792513,19.736310881802872,-65.07885117894622,-116.92313522183971,0
2269.0,6.303282,11.162720844381674,118.30214115416751,-52.52424761631815,-59.63825304291217,121.22655196469086,-117.97313477124712,0
2275.0,6.31995,-56.70408605697939,295.59176333089744,-67.50800981086853,-87.686445986843,116.39870988978008,-77.49435433346594,0
2281.0,6.3366180000000005,-86.32999522453767,80.97887173256908,-246.7306473184619,82.34942729207451,43.96994736608119,-172.66163115832256,0
2287.0,6.353286,78.19082603306154,26.393219004264267,-139.65332205851496,-95.12118717040856,5.467263464172369,-40.07645833769862,0
2293.0,6.369954,149.20676193961793,89.37781121762566,121.48677013888918,79.64942655045913,-57.07054549492983,-103.03803984029486,0
2299.0,6.386622,437.4954707040624,131.16931404554305,35.91798307338645,-27.12062041879588,82.97488523374949,-76.36485187286772,0
2305.0,6.40329,556.9661020402191,-85.63911634084572,613.0184851903582,-36.3554921428922,-93.2714276242624,-22.68808182787884,0
2311.0,6.419958,150.92187531058354,139.59399698828742,-272.2367163977513,62.61803923665445,-8.871472716678944,-192.65620938070367,0
2317.0,6.436626,43.62298667683952,1.586742390194317,151.2062589620552,-43.60180652503769,39.614576009443496,0.6761045201197646,0
2323.0,6.4532940000000005,-32.554081867328904,156.9474709003349,86.65967082503869,-8.094656910311606,36.56142670908869,-71.542587216299,0
2329.0,6.469962,-185.9015371431815,99.6642612262918,19.13694518526708,95.4091400110782,8.855581796335104,-89.2013257807861,0
2335.0,6.48663,-128.25807650972155,87.52404226310121,-91.71700542143113,56.15964966182715,-84.71547559702474,39.78190776071797,0
2341.0,6.503298,104.73516907836309,26.32740331642764,333.1703026469404,29.606325709079005,95.48764396648878,29.469445921965573,0
2347.0,6.519966,-84.3235197608382,12.774439500496722,55.06647103002939,74.96161762626438,-55.817877544555685,42.35572792712914,0
2353.0,6.536634,53.17914122993847,-119.9637844519765,191.93837752045692,27.84151861478439,57.6558334261915,63.21855533897167,0
2359.0,6.553302,-219.6235141785587,-139.01819497608685,67.85382618425683,144.8164547618174,-69.15146325546425,93.40238918289788,0
2365.0,6.5699700000000005,252.81151647310617,-145.60124340852002,320.04841689616484,146.47751130681837,36.25651346214746,95.13878016128544,0
2371.0,6.586638,-129.61454881923976,-251.4804128681141,70.04107917942223,51.54149341500671,-72.58240440915867,181.4803565505188,0
2377.0,6.603306,-53.10324470533632,-200.91664160225287,184.16989044442784,191.32922947265607,-181.99308676787027,27.834724434527168,0
2383.0,6.619974,92.91542644865068,-180.0126233036802,167.20436588453282,134.47986643776676,-6.564376872393506,151.16792871381105,0
2389.0,6.636642,80.6791549668198,-330.8410120396244,248.46951677232008,93.0475531103717,-82.73226989797519,143.68093641662892,0
2395.0,6.65331,-64.82526178333637,-89.36707052159338,160.3332207743339,32.71547232166455,-24.67031541702121,108.90057960909564,0
2401.0,6.669978,121.65822045615998,-370.7306688647428,212.7628451412985,143.9507195889163,-70.67925236018684,112.12711544488538,0
2407.0,6.6866460000000005,19.942035836587813,-259.96912195764406,190.3215379560393,47.67414714493849,-136.5584197183614,73.16196549843207,0
2413.0,6.703314,-58.55109275225554,-240.6253233051289,110.27163054453688,77.29654461395909,-82.14186070461855,198.42185406225343,0
2419.0,6.719982,-12.373179854918163,-48.45987293035547,155.01451769536013,1.1272476243310336,34.057846565134454,128.52477462779893,0
2425.0,6.73665,159.24473142008915,-252.618373319332,214.27830983165128,244.25168586420943,-124.07593679591436,1.9251480056381285,0
2431.0,6.753318,-36.341927176478855,-104.6773053553604,196.6323840791945,63.9298075997714,-133.2079492138849,185.9816914997391,0
2437.0,6.769986,138.45785919397406,-102.13461358062624,179.48400072119185,136.6686674936252,62.14210914453764,51.88495712975071,0
2443.0,6.786654,65.72482155191109,-111.12445598540262,237.1239248292654,59.37238104765565,-207.71425458102456,3.988349489155041,0
2449.0,6.8033220000000005,-47.25772543622452,-143.08872549135907,19.082552428068897,40.000762127046045,-134.26875139805492,33.289810582372446,0
2455.0,6.81999,215.48772454427177,-60.46366017500252,271.0561386206266,178.4925180165081,-51.104672781905606,36.38721491398504,0
2461.0,6.836658,-49.64932447506657,14.00360853593088,182.6265053674761,4.123077110874235,77.94188292162119,-56.50902283795084,0
2467.0,6.853326,63.35890247000469,77.275297455304,17.218661703720826,45.76141419567606,55.59844717202313,-42.552245415603785,0
2473.0,6.869994,-29.76850565829953,-31.823391704732785,65.87295644844282,-5.8990264754184345,72.91431032654226,-55.47023197782594,0
2479.0,6.886662,-8.957756121520951,6.208457304971319,81.05423480020356,83.71242508137942,-33.521414861049394,-167.38972486239254,0
2485.0,6.90333,18.372584814741032,201.33181698648264,9.36240478583914,101.512896142463,296.0143097848054,-88.12965450269417,0
2491.0,6.9199980000000005,43.620416575632326,160.32214474144533,70.60740750937184,-57.26843433661237,428.43194894204055,-156.84491381118056,0
2497.0,6.936666,-12.005898946441246,164.77451796388578,117.74069147141822,-115.03006141283232,306.121264356906,-155.32487198374758,0
2503.0,6.953334,122.62464924679291,-40.92649635692955,-136.35277954400806,58.458740568943774,312.27338772705514,-46.124342796412094,0
2509.0,6.970002,59.34170164715584,132.63114137169327,43.356543328089685,2.192621361991637,292.41448192407336,-189.0204465421987,0
2515.0,6.98667,-43.79427623379146,176.07886749794378,-93.86503324111126,107.418805747563,316.4404892358281,-251.59089149725372,0
2521.0,7.003338,76.62883932855672,184.05069725639976,-56.3447431950664,75.28800952584899,230.10317524574623,-96.30952248601498,0
2527.0,7.020006,-209.0932495744497,275.42265003925456,-398.3257980112463,-67.132286727528,86.20336626063458,-272.60667834453454,0
2533.0,7.0366740000000005,-21.66203967416716,217.2569214283216,-260.4662687759844,138.39678666531512,34.57208667148219,142.80878027265732,0
2539.0,7.053342,-146.84639643171047,147.88522128747178,-260.89053525279445,-51.221184895143125,-215.184288750854,-293.1428570806244,0
2545.0,7.07001,-95.1484888774361,5.076710325723624,-181.09510225201052,-124.91523387175914,-72.42773749593975,-174.70894673468305,0
2551.0,7.086678,-255.85412337852847,-67.70104145944052,-219.99267951928408,-34.248991845834055,-227.0281845560316,-81.75559703729428,0
2557.0,7.103346,-10.990804506422243,92.44386201324308,-228.9913022200784,-107.67726283177775,-6.905203014602709,-105.3014311022728,0
2563.0,7.120014,-304.6734801641271,46.25770378205165,-407.0172425720592,12.4865486333489,-165.51036480298265,-222.55581184235268,0
2569.0,7.136682,-74.5874075971881,281.67159744829826,-315.7939323747475,-48.360107924766986,177.25988824863668,-136.2847185672192,0
2575.0,7.1533500000000005,-161.10293043733833,44.63562169620651,-501.8539301940425,-50.73524380522532,-80.3411164963055,-55.265658152263285,0
2581.0,7.170018000000001,-186.00819033465984,45.16029728253726,-367.9025938244922,-75.37688207361151,-15.088417273183236,92.55959219384236,0
2587.0,7.186686,-112.28650372955502,-1.8116446563987847,-246.8643361000827,10.332854956604749,-260.8936015902732,3.105328319387496,0
2593.0,7.203354,-301.65209635218594,66.07531517042413,-249.27059810559047,-104.11763620961256,-83.78748137152587,330.97233732927623,0
2599.0,7.220022,-157.5926184652577,98.80680494639552,-203.24440276575444,-90.2114122352734,-173.46398836794864,392.7189734091783,0
2605.0,7.23669,-184.2154092893608,-26.84108592850411,-210.7636924874468,-225.3470465900088,-309.94643282421305,137.48700008778536,0
2611.0,7.253358,-391.79990032205046,36.65902734671592,-138.3803931114401,-75.99810922739451,-79.06587891131147,128.16271347168265,0
2617.0,7.270026,-157.22700326377512,0.079941952013872,-91.67815142377046,-215.8518680047561,-290.1645695256507,47.77113466203066,0
2623.0,7.286694000000001,-181.3901754062186,29.153896013905022,-87.1053119872724,-79.54410080343627,20.054277242319472,68.87330362450118,0
2629.0,7.303362,59.3658872181885,31.46841750289996,199.3024791790148,-50.97026909264611,-169.31040402686875,18.591659434726942,0
2635.0,7.32003,-345.6301885510621,198.4245682612496,-140.6934569891676,-21.981850046187976,174.67105273918406,83.30522913243098,0
2641.0,7.336698,-112.8730786929154,-21.679333572846858,70.16966412813879,-26.27471043672692,-196.85149004464552,60.67316136629656,0
2647.0,7.353366,-24.009773516040752,-33.350886371533406,108.89144635237074,53.53425176117621,-55.40478412220305,27.44687079891757,0
2653.0,7.370034,-110.65988015516676,43.4697055170901,108.12220486538985,-34.49316670171818,-48.62514330059398,100.7232453449977,0
2659.0,7.386702,-124.6484743411932,-64.93835668288952,59.33566223301427,48.38862082556821,-29.849828288247167,69.34945524323643,0
2665.0,7.403370000000001,-57.08475110398268,19.8824879357479,95.15678863514566,-72.06405613001891,-71.9433851312673,36.88623064126087,0
2671.0,7.420038,-38.14158898820817,2.580324943823669,216.3984424888546,-34.20697500110548,-29.63659784886402,-12.803164209818943,0
2677.0,7.436706,-45.54956939320944,149.58613274150605,105.81281949769937,-110.32685257053538,129.3705865567216,66.0922544559526,0
2683.0,7.453374,-167.76367621662047,-74.62173637384026,206.08704204376087,-38.85908833715199,-272.44663726243505,85.18216478859274,0
2689.0,7.470042,104.4034396067984,73.32922819334863,194.5611752993015,-77.60192333696318,-98.28181216553052,60.36708651991879,0
2695.0,7.48671,-5.690969072006702,-2.452027287590308,305.7952528742836,-103.97639338736153,19.516312896296444,64.27539902446743,0
2701.0,7.503378,-241.9497887235608,22.936205399419425,185.73939813610696,-140.9304256449389,-220.35959905641465,114.98751339792692,0
2707.0,7.520046000000001,185.99178323303403,34.033784001781044,308.8201752604786,-86.90964482034818,-17.03860946285986,-44.59931180157844,0
2713.0,7.536714,29.73068029544061,-52.75950413472819,317.3210296807777,-203.2905157924244,-142.29789458119834,53.20192339944698,0
2719.0,7.553382,29.313385683241133,56.18718484168938,289.0540822906821,-132.24326986007117,-125.4771505761457,-50.61373711368865,0
2725.0,7.57005,14.63409778442222,-62.22522880252146,264.2379293213436,-154.37708267305328,-49.98771655486194,-128.05337512575062,0
2731.0,7.586718,106.4745924539786,-43.46224177567353,312.33989578098914,-241.6867190108837,-46.899848347179926,48.97834087232473,0
2737.0,7.603386,95.85532751658094,57.91574843276197,339.71406755630824,-152.64479839738323,7.508660184169878,-20.41118797610255,0
2743.0,7.620054,71.70601432806097,157.72194168378462,294.84814330742523,-373.32407119796886,537.7551511546567,31.254373384709325,0
2749.0,7.636722000000001,230.878203815096,43.38918553543053,329.4280841217465,-60.58448408838965,213.5682514580885,-11.072931923354815,0
2755.0,7.65339,166.45506926268502,-100.62171871793564,487.1987373215511,-207.32599248161824,127.6146056872965,-2.4199187918769667,0
2761.0,7.670058,171.1710696897725,-86.56778304080872,428.7079284631064,-367.16044813065207,232.0714891068628,23.37356016752837,0
2767.0,7.686726,170.11701183178798,62.77541353700529,333.8350075475048,-194.65502927882628,279.4254846750288,-72.49699269945202,0
2773.0,7.703394,182.4777340745224,-110.79627570547794,431.33850037541976,-253.9186497065225,152.13908451609308,27.871366151658208,0
2779.0,7.720062,118.93920306593728,-217.8324621888952,319.5932068482052,-212.90594146594896,103.95660389624214,-28.31202365084757,0
2785.0,7.73673,132.64531292659697,-59.84509886507394,210.2749601266988,-347.54691468322653,160.81091878579838,-184.275974019806,0
2791.0,7.753398000000001,160.98962758647443,-163.82704096066948,156.86538005383863,-318.55024562788515,280.33947111942484,13.93569660932208,0
2797.0,7.770066,129.38865024070253,-126.99115423386024,33.712555419797546,-332.0637428194603,148.30026695793933,-94.96472110471024,0
2803.0,7.786734,20.01112319977621,-194.74557204918847,43.49504070170386,-365.7631909956501,96.17026180109444,42.21338198832279,0
2809.0,7.803402,318.5413098940728,102.6040836781324,149.12210580724675,-307.4067543577253,81.89846877436975,-71.20361307012847,0
2815.0,7.82007,119.49711367018934,-149.18344941472105,55.3296810653944,-247.85442297268807,135.55519085778306,12.114288389154993,0
2821.0,7.836738,61.91723692755827,-373.5339486737422,16.95142338487763,-253.9686920040656,-43.87586274789558,76.68743020770512,0
2827.0,7.853406,187.12652002333988,-127.81686999596836,108.253154278527,-68.5513332422629,-151.7855615760608,-20.28035112130234,0
2833.0,7.870074000000001,221.0778756509188,-108.58113955320152,94.9462490120337,-176.77736270060473,-57.87298259789588,104.25732807330716,0
2839.0,7.886742,84.46371630160401,166.92827758840315,215.93183469500983,-219.9178215948197,53.6464494596962,-43.63525290620511,0
2845.0,7.90341,94.25386984079589,15.342151347926368,29.778897733689245,-139.97091738480452,73.73433363317207,13.373316533257366,0
2851.0,7.920078,62.29984419078121,105.78323911423104,135.3612548107181,-108.08934780318408,71.71256902978696,-34.565168172421906,0
2857.0,7.936746,84.72912355839958,140.54356993217695,2.56352312881144,-58.83136992228411,51.44147552923653,80.06943553353982,0
2863.0,7.953414,80.96456498110277,110.90744321859572,-12.579999137643211,21.87146338525045,72.03347987757503,13.6673410178566,0
2869.0,7.970082,136.31401435788064,90.01376270132445,95.39304295928171,60.7790492632421,111.62580165684632,80.90533080155492,0
2875.0,7.986750000000001,145.76547849298498,65.92969905274744,-82.98815078892648,30.6387560999768,105.67493617723534,32.35016764734884,0
2881.0,8.003418,63.45637501808719,17.106585899314716,85.4801754829983,163.2367598712096,69.7871055517716,17.27319023756904,0
2887.0,8.020086000000001,163.29581663404653,-84.39166159306508,61.68099576325717,141.61882122984034,-0.9016619213817876,47.1162868996075,0
2893.0,8.036754,-46.3777119512724,-36.14544845686843,-21.3921521431228,118.77272172918347,50.06117389152139,-24.425801539225724,0
2899.0,8.053422,-5.844733913682177,-2.1314202537232703,-78.48949797991614,225.6597951075414,-48.32859173127154,93.60947892182546,0
2905.0,8.07009,-30.57956361969643,-5.824858801091878,-46.61143589013661,315.6080574088789,-58.26187562093475,-3.462508373590655,0
2911.0,8.086758,104.82810725535788,-42.53142808919891,135.9639635168761,160.1230730420401,-28.08952237464877,38.00592442514658,0
2917.0,8.103426,-116.93601012198,-29.698311567802293,-249.8918648464708,323.25486156861257,-74.91088232101647,-56.20536091851518,0
2923.0,8.120094,-15.174612506176082,40.790370547297286,-169.8074479484519,242.57018440554,-32.183355458110185,66.8132026207276,0
2929.0,8.136762000000001,70.36442395073566,-125.78755447380956,-29.459740966351266,290.56611499294775,-93.1595497340994,-2.028821805727226,0
2935.0,8.15343,-308.9843304971321,-44.0047629436103,-146.2781784555061,239.10341912054832,34.58999095926709,75.70279704433165,0
2941.0,8.170098,-8.579909054494777,29.77720830568077,-168.2272603650785,403.94136666883736,-81.13461800808957,1.0383317670132897,0
2947.0,8.186766,-86.878947754362,-104.04493967252262,-98.40549669091942,357.994583723502,-86.40191751343701,69.21435027137305,0
2953.0,8.203434,-207.4338715112704,-36.91014953886682,-247.9096117753677,270.65356799234297,-195.3816623631924,-17.921850286683537,0
2959.0,8.220102,-122.75142327001672,-112.58383946626476,-70.90782087508164,248.9953300299644,-365.6487284685969,-24.87692646002964,0
2965.0,8.23677,-103.12360949342322,8.419749641471036,-248.59856861747812,275.62489620444865,-45.46163221773078,20.119285142806213,0
2971.0,8.253438000000001,-76.59451155158423,34.454842410301374,-205.1742318277465,175.5772925824722,-96.9354057864529,-26.6722816343804,0
2977.0,8.270106,29.293962687445102,-91.29068698104048,-99.78599569637244,119.65738714221024,-249.6788435053504,-19.965860077043967,0
2983.0,8.286774,-128.61802056067262,6.90273244534606,-220.05196201368145,375.43156241611246,-306.2536826791164,-13.5577485674671,0
2989.0,8.303442,-204.2742880262039,-35.54620322963615,-128.0973453288075,210.74744300136365,-108.18797398716258,-54.258966174661495,0
2995.0,8.32011,-150.75789549374232,26.949592947391363,-237.5507809819508,246.99643950394025,-75.78704240634113,-19.05043776515796,0
3001.0,8.336778,-131.85427693459238,-10.65851579540403,-290.4424372743498,339.6861729827374,-323.3725222717545,-77.58305752926938,0
3007.0,8.353446,-167.52741620917516,-20.227701157164297,-239.2664573038677,275.13045287187623,-83.337204285858,-66.46755036809292,0
3013.0,8.370114000000001,-249.9964092514621,60.01690909721865,-195.393904059452,244.6346654820427,-50.47588192390722,-5.045452829101148,0
3019.0,8.386782,-59.5228086959139,-52.17494597776504,-213.71024885588352,173.72384625908944,-127.87087900719467,-63.12582108018837,0
3025.0,8.40345,-193.70149219542947,-13.1592418939942,-188.3258657361216,407.5909773573383,-76.5853917717435,-60.25463402440361,0
3031.0,8.420118,-182.1967861084052,81.25131731506237,-245.67463186185816,188.97788916333948,-44.96382007886723,0.0788203179488888,0
3037.0,8.436786,-149.06259133088997,109.97606790810384,-193.03274041892425,149.47536558239756,243.34191187522944,-28.09608170740396,0
3043.0,8.453454,-178.52157465691556,214.00502878163985,-158.79588363670342,275.20862707954126,110.8604169749266,-37.37299288997715,0
3049.0,8.470122,-198.39434205275583,128.3503718960324,-161.40049303786583,28.980590633618377,138.9659456036984,-109.25432559472898,0
3055.0,8.486790000000001,-89.98328035571286,79.59897882490522,-143.82582604868023,147.76638235537737,110.16723995625914,-66.42959548990592,0
3061.0,8.503458,-204.67977999848864,98.61940339384148,-101.52760331544052,150.87794426934778,137.63030952485596,-28.188899790028017,0
3067.0,8.520126,-122.42389381175994,98.0700659972856,-150.39512842413632,21.530161952350618,339.71716036609047,-44.85545635894374,0
3073.0,8.536794,-223.8050631591662,38.56289914706029,-156.80090770122257,-19.23581042833913,124.74637612043244,-147.9201121352215,0
3079.0,8.553462,-264.4814398651442,-41.93043233495381,-156.3511425529671,-84.07709722444235,-1.813778008010928,-97.58662980846424,0
3085.0,8.57013,-168.99530719848684,-6.187333489631179,-96.378040629941,-129.11618832594615,190.0796364739855,-18.025414467476686,0
3091.0,8.586798,-75.9810384670553,-10.4179636878493,-121.1005058529603,-127.23286901864508,-74.76082076393202,-141.0880155727013,0
3097.0,8.603466000000001,-113.6517531403256,33.70023166070555,-101.91820978086758,-479.2717807573686,35.29674199885549,-108.96966789598676,0
3103.0,8.620134,-85.65256078047399,-68.74047136272824,-167.3641045126342,-102.423895997429,-143.8996945943862,-83.45706788451268,0
3109.0,8.636802,55.659784948576544,-5.849770926429879,-56.687822165021736,-323.54932688799204,-114.61694584197612,-18.66398757397983,0
3115.0,8.65347,-249.37053058431985,-81.54231054638849,-71.10908620709945,-305.5903678445811,-103.47440856660768,-83.98080991739694,0
3121.0,8.670138,-172.01585225766215,17.276936148013256,38.4758830058,-405.0998924683148,-342.36314420652417,-54.65417058070287,0
3127.0,8.686806,-150.6522385324495,179.24552460113694,7.1192737209012265,-234.27915207150733,163.56343482625013,-132.34389483320987,0
3133.0,8.703474,-49.531605069841845,155.29823799827335,34.129813232091536,-110.37099649327972,13.492224064597828,217.1911191310276,0
3139.0,8.720142000000001,-332.413404793769,215.92507627272423,24.742384142419724,-512.3076540006748,293.21218262944467,417.637299808972,0
3145.0,8.73681,-48.94436153979152,181.95781453312705,-0.221126745268549,-262.2306120772276,-36.587014308880455,210.2669344231033,0
3151.0,8.753478,63.23329124471076,81.39706695329772,224.7526590909953,-260.7766908108774,392.8442971168141,297.5600612816429,0
3157.0,8.770146,-100.09775819517844,70.90364294183458,215.34957366843292,-187.85251470899613,57.59408606382375,52.30466899394069,0
3163.0,8.786814,61.24695514650018,-37.23811504933316,133.56254393838236,-108.50722036513277,-70.74585209500319,-124.24808120045287,0
3169.0,8.803482,51.58678077025056,189.8507512711321,116.67840716444454,-195.53158245124035,112.8091344058494,46.27987869871225,0
3175.0,8.82015,-62.27652453704103,-3.794560781941019,217.037754313868,-96.27356674060152,-47.98012630388983,17.596320424706207,0
3181.0,8.836818000000001,34.97106649606363,83.49251193489951,88.85525887381837,-82.47027176012254,92.26988640256646,52.31009471402917,0
3187.0,8.853486,-59.63838896020744,152.73336971222386,226.8015674744095,-115.7410582023027,70.44170523825203,0.8520333691126423,0
3193.0,8.870154,87.88450895935551,-97.56903935552836,152.25726362494174,94.66831121085552,-135.63990144634266,90.52659962677986,0
3199.0,8.886822,45.79957441084416,-80.08075479146679,195.51461131993145,40.35660085956758,-162.34191809128336,-8.996609304842611,0
3205.0,8.90349,147.23212074409875,-90.88539436916788,161.43445229339687,-27.89823905849115,-163.534968901547,32.58576961916908,0
3211.0,8.920158,66.22243512975476,-65.06842856789815,75.71030812354158,113.19540445250752,-236.94290337202443,-58.65049251512104,0
3217.0,8.936826,53.7834243085621,-127.90869839331242,163.438587071591,-144.28441379706618,-1.5143382751924577,179.33122241873656,0
3223.0,8.953494000000001,172.23299413500104,-59.53072068683125,207.8098850333928,-159.6478322515637,-74.3351466193345,195.3345344263629,0
3229.0,8.970162,126.42287132689025,-314.2596194186741,139.9978224173292,-186.96195130841107,-180.83555095764925,-23.70665547621136,0
3235.0,8.98683,186.6701413794537,-136.17512100515518,215.6062008184584,592.3476341805094,-321.0561686473597,55.85199559870422,0
3241.0,9.003498,129.17526536831497,-208.09770127746336,184.50665889372564,63.27563618307524,-217.52457903507616,69.326656082915,0
3247.0,9.020166,198.00190890997456,-129.9796687340954,165.8332587949305,-189.8032235470244,-205.13938721927136,222.07242674504363,0
3253.0,9.036834,320.2584245847338,-243.8077744704564,168.69658634537265,287.3991208649616,-210.9435909276453,230.422966470356,0
3259.0,9.053502,182.82013679581624,-214.6213677069278,169.4868387412222,280.62352523489847,-154.56996317471015,-27.634813099508413,0
3265.0,9.07017,119.24769885061464,-91.56692991419892,203.43558501633385,96.85016700556422,-249.79604440050133,31.006221531974223,0
3271.0,9.086838,282.4521945120794,-214.68274406113525,215.1087570991435,159.88290853898184,-134.02456082226723,-16.769396079234205,0
3277.0,9.103506,254.97924679573907,-114.691466547215,111.142203444686,-15.33963902424388,-170.4467521026736,-68.14334517368655,0
3283.0,9.120174,183.6209835870692,-94.01625103361816,176.2295963220788,166.9761537912485,-124.87556625323984,135.10021519953528,0
3289.0,9.136842,267.4983591427448,-88.92166858204828,220.73517254855284,138.6028125681062,-12.46832404965092,44.34906331787038,0
3295.0,9.15351,198.96265912904968,33.91339669866041,129.93830996304263,167.7382077766744,-111.8069485707517,-13.893626006252788,0
3301.0,9.170178,185.7687070408734,220.01851982143123,134.859648419835,63.90224804336742,336.37473909112947,209.7704602345528,0
3307.0,9.186846,375.03914721088944,35.75532164403924,196.6545630100977,33.802545106416844,-30.64466378485525,-35.68811597635776,0
3313.0,9.203514,165.3537992023111,85.1844095666292,114.27147173107906,50.69761308933797,180.84942684225217,27.129630674702824,0
3319.0,9.220182,430.7815289773226,202.303914605208,235.407450295768,-161.95802269216065,259.38972457314685,-129.06946730271378,0
3325.0,9.23685,239.5280843953903,147.68090159091568,272.0357836247639,-106.27528218559628,454.5574114777143,103.88623729659696,0
3331.0,9.253518,151.692879196142,125.70721257508606,150.36693867396508,7.2931025014542,189.83628963081148,-27.34935487712356,0
3337.0,9.270186,275.2778645100224,16.76512481649412,158.90677523520827,-251.3069005000673,141.56934173769318,-31.820905626962823,0
3343.0,9.286854,43.435522568417326,65.85666141058675,89.2759455856646,-201.85243421285625,279.7884104249498,-207.6469125666846,0
3349.0,9.303522,110.93320373932696,20.551736852678584,-93.41329800482396,-155.06344745992908,116.87406106705174,33.75597793003257,0
3355.0,9.32019,216.648831883696,-149.7329248086998,-54.23533306652729,-272.4702076827046,55.62409083782505,-72.89094095843566,0
3361.0,9.336858,22.421001359877533,-24.30846276564938,-126.60134119308576,-186.890088677196,148.11879414412135,118.58223407870176,0
3367.0,9.353526,-65.05994310761871,-95.72084321083572,-92.75851151937944,-462.96396405471296,50.49511134518429,-152.71593269821824,0
3373.0,9.370194,19.697100603692924,-101.34355648215984,-121.02306502853288,-236.6812794461964,47.92183872106609,26.230442327646507,0
3379.0,9.386862,-74.63739119641394,-120.4869996386079,-5.2315377462792725,-246.2862114217608,-18.14096548924706,93.37171008636824,0
3385.0,9.40353,-59.38578308272719,-10.311488103159082,-50.80573016754022,-265.614596901962,63.93415679420176,23.8642865286464,0
3391.0,9.420198,92.81886351418989,-59.322715399064,-337.52899558295314,-334.00154988721056,-101.42475334286958,-69.16819891179851,0
3397.0,9.436866,-152.24344191326435,212.4782936463208,-303.1751640754709,-180.88949926923016,124.5966394121877,6.809314960446859,0
3403.0,9.453534,180.8309719730852,48.70479880282636,-204.22072336493667,-174.91960869035165,-64.76231356937438,-71.10860057267324,0
3409.0,9.470202,-134.3604727981065,151.68050419450066,109.74742077326036,-217.74414885631256,70.12354171251644,62.82076284732091,0
3415.0,9.48687,-131.6773556278618,-96.73455138728394,58.24461897714961,-54.46908322397768,-32.2491455764821,-71.00141842664853,0
3421.0,9.503538,-81.03521271241688,-27.51490246746621,185.7917364899351,-110.02265866000168,-91.61277421536644,-41.74461466543752,0
3427.0,9.520206,-68.52848522034368,-84.42731357508204,-81.40669798205775,-147.8188720404342,-54.30644424849172,-48.53878012261987,0
3433.0,9.536874,60.62262053674215,-25.115092003552377,98.6136390620318,-27.80086549099761,-26.70531670846674,48.06572369535602,0
3439.0,9.553542,-115.83829578651093,-24.77757175873917,115.72781576180742,178.71593859926298,-36.43798014104316,-30.33749081484336,0
3445.0,9.57021,-74.67863701951208,49.27687748552746,133.22362410007955,-188.12743865606188,45.32079505808089,130.41515065342836,0
3451.0,9.586878,-95.15550430298724,-19.54052666816186,3.945361779270284,12.658638576381309,-1.2944388170564878,-105.9575138890774,0
3457.0,9.603546,5.102583730753523,-60.73647421606494,148.00599905960215,79.01230458690317,5.5963558762508825,-74.87269169578698,0
3463.0,9.620214,-157.80049443699252,65.27440766624952,56.047360041561205,-20.238552278587303,226.03044820865,-33.74672463791569,0
3469.0,9.636882,-222.38895717493847,-43.6090411683093,-10.92111140830106,450.56974769512055,-178.40982722889302,7.234048932017856,0
3475.0,9.65355,-1.2876705977427747,-37.4194939558937,90.26418214604016,-38.58196625305662,183.2219171088982,-30.14916442385968,0
3481.0,9.670218,-135.82741127170505,-68.15172815133859,72.6937234728445,177.9310207432768,107.75490982272017,-21.96606121804481,0
3487.0,9.686886,-112.08655216699349,-1.7425500518174135,41.0336330146116,244.12462008285465,-21.278251070548155,-84.59258341858965,0
3493.0,9.703554,-135.5192539811523,-120.33959000939612,47.41073536324422,190.75921974673747,-23.906574163380377,-125.38345582664364,0
3499.0,9.720222,-82.56607131630928,94.92397277158156,-8.98316477675472,157.9564043516617,147.7892944543593,-148.47014027708576,0
3505.0,9.73689,-58.38758708254355,6.8272345592280885,-18.50218584019168,285.60297355434886,-139.90503066786465,24.332918008826866,0
3511.0,9.753558,-19.95299748607292,-39.93480050790088,1.511140805798913,122.63339527755102,85.12332525977652,-162.26312041264654,0
3517.0,9.770226,-2.754959111507773,-24.59685811316922,37.37131373344633,359.5845887504046,-113.76795914876556,13.96683119224292,0
3523.0,9.786894,-51.17355507856048,29.6526542982143,-33.26202402995863,231.43583480456985,27.467471301940453,9.454577800242816,0
3529.0,9.803562,-127.2166961886198,-56.19167088070441,-47.441960651503486,364.1952259227869,-254.0606022282214,-18.0923268100974,0
3535.0,9.82023,-47.04988443486893,56.15800432722196,-7.275137331681364,185.8575287962105,34.825555710301806,133.6842067902347,0
3541.0,9.836898,10.823312624246595,-27.832620895493605,-122.00147760172182,277.2952896730055,-203.4808765029146,209.8234207275516,0
3547.0,9.853566,-150.04857745520826,-29.429000838204537,-90.7389169172259,224.14009173952104,-149.52024474144753,-1.936880490693461,0
3553.0,9.870234,72.21082523103605,23.229802260677843,-22.058796282421326,257.6518787142583,93.6733466342262,-123.21033198780368,0
3559.0,9.886902,-74.44140573627118,-22.44057946552996,-170.97626405974358,153.31832834197036,-104.43126521421024,170.74011246855156,0
3565.0,9.90357,-11.646239422835052,-18.013669244345504,-43.68055930955649,504.7576268772164,-345.2380171767031,71.25119682126959,0
3571.0,9.920238,-16.60755653735398,120.98792648932633,-175.61388400317287,96.97797592239506,-2.9860771968181936,187.70110398563867,0
3577.0,9.936906,-143.3397245063745,-8.973335476250881,-43.103408465438335,349.4945402337156,-180.03112866069338,-167.41690812672252,0
3583.0,9.953574,21.724440004101524,-35.660555492714614,-128.02982718683415,85.77318704853099,208.42644210551688,188.310093493174,0
3589.0,9.970242,-40.01650913068973,54.41674428555695,-195.54967854371407,334.5311804100177,-376.47185309943177,256.2704771874741,0
3595.0,9.98691,246.8656342424077,-59.58260695991163,-8.364826738810848,512.1719356652982,-43.25472555709855,33.77188874817858,0
3601.0,10.003578,-79.74481806586446,-3.246763844322052,-216.9996181719663,48.61986461558968,-57.751552333430496,-67.86406771256725,0
3607.0,10.020246,-1.2256393744108325,-93.58690545120244,-174.4222124748309,133.33190712046252,29.897998916478112,203.67906798876265,0
3613.0,10.036914,-16.412966456068514,142.68045075005347,-135.89363391807092,293.67083757959574,-115.39096671151329,214.4406138669496,0
3619.0,10.053582,-65.34011361841813,282.7557643408129,-159.34255073261298,47.48637631228556,384.9872735136006,-29.163956459556907,0
3625.0,10.07025,-27.4375950472632,98.64057730788838,-213.3771334745288,143.4471439576547,15.27678468808951,204.96006245848284,0
3631.0,10.086918,-52.32378564216992,-237.0011129617833,-172.1038565890788,-46.37440738972461,114.49179897163124,-31.15035178465351,0
3637.0,10.103586,-25.181436439529463,-56.35941261659309,-206.8295537399692,580.6666979326458,-341.231497278153,280.9892452049951,0
3643.0,10.120254,-80.00684404730269,173.96129504659996,-189.50879562975584,35.434522464103686,259.50746742235384,-12.592201024034074,0
3649.0,10.136922,-123.98856522206118,89.88116890213675,-243.87037480109296,101.46076676338625,349.2195013782141,-3.959362434653887,0
3655.0,10.15359,-151.6607947522386,1.851256494442852,-171.27419879227313,103.60351052542892,40.30197186382824,177.66286487953136,0
3661.0,10.170258,-159.92895538331933,117.27091878862755,-165.15339432834844,52.882271844780064,247.68272169701788,7.2942620287768705,0
3667.0,10.186926,-77.22196666350526,111.5598133739303,-73.80434984609421,-94.79246457884236,139.37068650729026,252.2429025793716,0
3673.0,10.203594,-225.9882003054596,25.235438936126407,-12.517761026900928,110.43389294376968,-4.540978433851336,-125.24881044144372,0
3679.0,10.220262,-224.82927283123485,18.22230306711648,-64.95372883262647,-212.06977123066565,158.231227283363,78.17993524929942,0
3685.0,10.23693,-225.2053733337788,154.9189646503875,-76.46495662354702,-315.6443414316502,-87.43442157391868,26.30616329395796,0
3691.0,10.253598,-98.7143366340848,82.78597167264992,-53.59774047364968,-209.1860849455244,-14.782626604257551,-13.782972910385569,0
3697.0,10.270266,-93.50806697885858,131.754275371618,-49.25126308112836,-331.9950684578035,15.791757787540469,31.637211495789,0
3703.0,10.286934,-137.042507348784,76.11930440202241,54.44069705917352,-77.12675307463732,-32.69027540680551,46.3668819003336,0
3709.0,10.303602,-318.50467221821003,168.56088226869787,-98.71740041301406,-497.2575363725625,21.716819961217467,-190.48691457687443,0
3715.0,10.32027,-24.224465510947528,117.65385237208034,60.91740176021801,-206.629811959812,-120.78627338486945,-148.32781698933167,0
3721.0,10.336938,-66.25994088128834,20.6507785883179,122.03533298121846,-489.79327246120346,44.40325388459355,-123.08193008217232,0
3727.0,10.353606,110.35503587392236,-17.26517120512868,27.25912954229205,-29.94097374749565,-89.22673615238217,44.27100415470762,0
3733.0,10.370274,166.42179032768135,61.97768573380328,248.41053048382344,-41.93365101377019,-222.21176073988823,-114.95278863756032,0
3739.0,10.386942,6.894201552068651,239.4438208692283,41.4404215687769,-83.08839972312185,110.74472475211049,13.493405833001578,0
3745.0,10.40361,79.47973822189965,-129.81787098827246,144.71796682308062,-82.2841889553319,70.83794217608913,-331.89207858490704,0
3751.0,10.420278,136.690632471224,-27.65952513744565,274.0442400617877,92.72838566501984,69.0389243197443,-5.641992008561578,0
3757.0,10.436946,102.16137410314109,90.32435476218646,110.67953599747838,51.06129927595295,-7.883330543272546,49.658825936352585,0
3763.0,10.453614,131.09146316659707,17.251138418361798,119.03759747193668,-110.26460605478236,78.61050894232847,-218.8896320535447,0
3769.0,10.470282,113.84664214697366,1.4538026423293768,123.2665388651939,-2.2206214936851865,27.43042219834553,-124.14458866432422,0
3775.0,10.48695,64.86334021724817,11.281994207998338,183.76882157765573,15.90046405357488,16.640634961345704,39.68149494682819,0
3781.0,10.503618,-40.37566758613925,-32.043960599493275,135.85889063076547,-95.54974535010432,-43.056657810872125,-139.08526715280567,0
3787.0,10.520286,55.132305155857466,-3.2887728257373965,133.59610299906487,172.15019843933203,-144.2063139241766,-97.52658512407464,0
3793.0,10.536954,35.125664397303254,-94.02229531898178,190.10882056677804,-114.47863515959176,-127.32148482070644,-172.4848274382469,0
3799.0,10.553622,87.18740797831961,-62.26744973943941,49.83324474483234,-24.61837963877342,-48.52423296332324,30.94057938289486,0
3805.0,10.57029,156.19772972334903,-100.72965227330194,172.63518232607083,83.97714258103767,-120.1158589960666,-12.27839542671754,0
3811.0,10.586958,153.87444718802888,87.6616882761202,259.8233108662238,44.74422193031548,56.79298078185802,-34.34505115877663,0
3817.0,10.603626,102.71073925871644,-265.00238202726507,177.19097738169592,-5.18957186220117,-241.3385676285252,-60.92655059951788,0
3823.0,10.620294,176.61802437475507,106.0679495439872,232.7602885045548,-18.120209478488107,204.2663114652856,24.705668639289684,0
3829.0,10.636962,186.57776505567097,-201.8693108067337,169.79893341208447,131.6070180694602,-259.2758915594269,5.1792001553894025,0
3835.0,10.65363,367.0081094780117,25.427246146218778,158.35660245849851,79.15811635480149,23.50723402800104,103.08845102086796,0
3841.0,10.670298,139.26565172046463,-180.4287972797241,167.83541866533443,77.04585923125151,-148.8525298550059,193.2400257090761,0
3847.0,10.686966,223.65764217283152,77.12458860846964,222.15390765963025,45.24121198961172,-112.26052852529698,222.0034711450649,0
3853.0,10.703634,232.23263367890425,-114.88845808418716,-3.3570824782134423,170.68463149196833,-104.63056552017584,272.12414073043664,0
3859.0,10.720302,7.919244201589052,-59.62469914065173,388.2829117693342,166.89898379272282,-42.88267668700742,202.71122115946432,0
3865.0,10.73697,283.10644363572464,-6.946250588686919,190.7184386802671,72.19304945715692,-66.41335857782528,289.35979455408403,0
3871.0,10.753638,131.7814872764102,-292.7217224642608,98.5529757277326,262.8373534431307,-245.58916769453776,414.3599689526009,0
3877.0,10.770306,136.7769448567778,209.9818341405216,94.960599047839,-21.019791139970827,55.8654697635624,224.5685894442984,0
3883.0,10.786974,237.31510266256936,-171.614070664632,60.77346966304407,132.1758879796748,-338.7091369208623,143.09761831570853,0
3889.0,10.803642,171.82101463356548,64.12279447449582,8.121118534302568,135.73318351130027,-361.8331749418983,180.43440162464847,0
3895.0,10.82031,155.34583447950848,-22.081476895908263,112.34834294856746,-62.95252776826011,82.83105651255157,153.83882162081062,0
3901.0,10.836978,323.1679150146788,-157.97954392999048,17.224158243778817,64.0273400757278,-37.90443042666952,-66.58562098774885,0
3907.0,10.853646,-258.898546680575,9.375182891222485,477.43542777996015,19.191614643663183,108.79520739217335,40.13599423083785,0
3913.0,10.870314,383.1558393250766,-13.302115998449388,-307.0472803709261,-158.57228637633227,-23.894271454602425,-143.80165884924557,0
3919.0,10.886982,66.40775696612906,-94.05278492560592,179.00052126795975,219.7812577050161,-26.564129941028604,110.83706035292508,0
3925.0,10.90365,-58.93733407585964,5.198461179150787,-0.7044385637768933,-221.42114586474148,105.3675406172022,-95.1236396440533,0
3931.0,10.920318,285.8731402586125,79.80106976863425,30.02264051883096,96.25755718928323,-21.072623307498723,57.54040411933296,0
3937.0,10.936986,116.31175033032753,139.14552968430908,12.710054138814924,-32.879554584093434,335.833399727632,-1.560028425291648,0
3943.0,10.953654,36.99511926534189,102.135609223722,-3.141703237723121,97.18283243309482,81.61684278557415,-98.92949963326758,0
3949.0,10.970322,31.82381515436663,-72.6032449861998,121.00388255455876,-310.32652861116287,130.9762835374243,-14.793538479136416,0
3955.0,10.98699,28.91229926849984,136.7414204960758,58.038362293038354,73.12649123320753,74.9460072270136,129.04245729342244,0
3961.0,11.003658,-36.6015023394021,18.40294798749153,22.445249485813505,-92.92417804967836,223.48299078764177,33.251069094983514,0
3967.0,11.020326,-75.33120784968148,107.8304900131714,61.92257477225085,153.04122875828983,-89.77449049931354,-235.60498661829973,0
3973.0,11.036994,-128.88093772026374,85.60919329296058,-193.73705990026212,-203.5048315338912,320.5744331990595,-5.797088494252655,0
3979.0,11.053662,-35.14322391273195,-60.1394823727315,-155.45028659653696,-333.63548823932706,26.916291841290253,-101.1531227510032,0
3985.0,11.07033,-93.46996484390928,5.453200510200713,93.9173018492479,-2.295207774194708,186.32183053685165,182.69063662369533,0
3991.0,11.086998,-191.7639450303348,11.352690148401797,-326.7876284617637,-180.4238431392248,-42.66035089611625,-35.15825750217081,0
3997.0,11.103666,-136.80990401891765,-67.00639021542949,-553.4238149683365,-203.3922772541293,228.81624307019555,-22.615868320732044,0
4003.0,11.120334,-421.70418343712174,82.87848567009968,-392.8620051073078,-221.0141070592975,-67.37335219910153,86.69398180580009,0
4009.0,11.137002,-165.66184031490863,-248.55433363576824,-215.2397136600717,-224.0976364964373,122.03142138286684,23.51283621406476,0
4015.0,11.15367,-140.92992839076322,76.48094718215899,-90.03475031564676,-309.3489859813339,163.29526226332405,89.58168852811457,0
4021.0,11.170338,-212.615506230713,-103.60257964864437,160.1781170862224,-128.7028526392183,-219.4822427188812,76.06268599692817,0
4027.0,11.187006,-68.39093990552625,-82.36527839251325,169.98781662824317,-123.39718432725086,150.85611861212698,83.86090725102994,0
4033.0,11.203674,-167.20304894698182,-22.38878699704032,121.72733219405838,47.00854265072879,-54.766977598063285,273.4215668350445,0
4039.0,11.220342,-39.22654529814584,-21.74929405396523,149.7571078339822,-157.80272085122715,96.8374235538057,17.30898839382553,0
4045.0,11.23701,-196.88370146386137,195.6611717330732,63.74722209779571,-22.35439289237633,260.1036487066941,122.35187856741518,0
4051.0,11.253678,-151.11228290218622,75.62736383415799,131.8244373791999,-9.57210888416018,-97.12424636909915,63.30514102519743,0
4057.0,11.270346,133.7713701525288,85.5088970390596,117.18564272264166,-23.09958030990065,161.71979153788686,160.58809295034263,0
4063.0,11.287014,-95.84253473380184,41.88569966749223,146.15419433174637,139.7470009515527,-6.955463724239152,192.6975822059405,0
4069.0,11.303682,-158.96110376325817,26.82664985545524,110.82838942360594,38.49526492266139,192.48621471716424,-57.44491762843357,0
4075.0,11.32035,-261.50330884896425,170.7787351816599,129.2447540184297,46.81242116671248,104.47675625398972,45.00380107858642,0
4081.0,11.337018,96.65660311262268,-65.61704195335246,244.50724883593304,-140.59686510202332,395.8817621293489,-158.06618759727485,0
4087.0,11.353686,-262.6821530380271,-89.11768581472697,131.62074895431022,47.23594073048302,-283.8812715318354,-45.01016735381464,0
4093.0,11.370354,147.71926330554805,-151.2957969741473,100.4758285595092,162.5615039649838,31.9286540362466,30.763540869887706,0
4099.0,11.387022,-178.8434372022125,45.24446823414314,118.15403801546606,184.0121766946998,158.71902377636133,62.7494593451264,0
4105.0,11.40369,955.1714254355508,-577.8715523997566,302.89733384098525,20.03289976797573,-57.45517456180952,29.151876590474124,0
4111.0,11.420358,-1130.0254113605124,574.0846760163367,-70.18016853251873,85.50307495430701,80.57499589181006,48.98356491591667,0
4117.0,11.437026,-113.54182154847692,-83.79061954048179,30.005817961092816,25.21229367132069,-22.57722835813789,-203.2017557913628,0
4123.0,11.453694,10.007139491579622,13.279551523072136,9.845817311629672,191.5866363802525,-121.1771507457613,133.57327792204015,0
4129.0,11.470362,-157.35666934465416,-2.154684031342618,46.43575774555591,92.81071741160572,124.47631244438963,-11.771491962286198,0
4135.0,11.48703,55.61305467172787,-105.93011128274526,15.920139501803444,9.34590244281422,-46.84165418206891,-23.374797419395577,0
4141.0,11.503698,-111.0429375490364,34.82478873045684,98.63833024967109,149.98345796371558,-94.84874008540376,-6.21063337264561,0
4147.0,11.520366,45.598975437044245,-20.27379771848389,-78.73799803798113,99.47743946655308,-6.847898840294036,-50.65810362944716,0
4153.0,11.537034,-69.55731270840656,-43.17596466673547,48.68699839301369,176.58890091361587,46.927629523039,-93.78502241869715,0
4159.0,11.553702,34.61886864625705,-135.25876422101769,28.68136896228912,208.13966072733945,-203.1423714239952,-158.05117982101467,0
4165.0,11.57037,-247.2901684527663,59.34934513287526,-137.30577982834996,143.77960263988606,-23.656139045093376,-66.1712294399198,0
4171.0,11.587038,233.5735623948684,-143.92456309072423,-555.0087310291561,78.46907292229268,-253.22673395275223,-84.63825961458049,0
4177.0,11.603706,30.968888054941687,-130.737550493765,-351.5054757830096,75.86506023471863,31.20427682953037,-114.04066135204198,0
4183.0,11.620374,15.107636717202634,22.941858765620967,-336.1640973041094,51.15584209607786,-67.24104747831471,35.02055821619827,0
4189.0,11.637042,-68.6127100146105,-217.13568921615223,-222.88209884615028,281.71982124309045,-256.55727800316527,-241.575051847446,0
4195.0,11.65371,-112.89375840379284,96.87585380917174,64.67849378300146,-13.162752559118871,-196.07454890573663,36.09516900072265,0
4201.0,11.670378,-80.48358724477353,-52.43815944266876,-4.789889246522609,94.03241272939562,-16.087133737022572,-146.41743699086666,0
4207.0,11.687046,0.0220045257053769,60.65946980838304,54.88805090684743,228.4308487884205,47.74045303409403,-69.85735297959977,0
4213.0,11.703714,-13.47182985076239,-5.32119677157128,-23.111056185283232,31.222711347743363,-196.6748497051496,-152.9090504174089,0
4219.0,11.720382,-46.35953611023044,33.3474552776443,15.684388535963258,96.98701507158977,-2.7052625385451847,77.30735501593921,0
4225.0,11.73705,-23.47584779265372,-4.204606279137131,147.479197824254,-9.853204681933192,141.18588398246533,-312.28765124715244,0
4231.0,11.753718,-49.99582082367003,125.74212207614602,-6.901858155677049,-3.680338636811325,-63.91845112563236,33.55341300253979,0
4237.0,11.770386,-60.35194549979758,-8.537637615935054,192.0109274669076,134.60404296540662,116.19979386165691,-174.54167064566712,0
4243.0,11.787054,-69.43473618365765,-11.694531593734546,78.47145720696079,-10.18860460152069,48.89906836709728,-42.94161132341196,0
4249.0,11.803722,1.5698946634470443,57.68398726060338,-2.6153593496900687,-130.84323663175155,104.59942115299256,-340.0465088450642,0
4255.0,11.82039,-52.9524683641842,118.17371437900016,90.85613126466498,231.8010359286917,197.7141925488337,-106.75421721421483,0
4261.0,11.837058,62.27530249636267,-72.29373467248594,-119.55398844307342,-141.91003547760755,87.92194375358292,-286.9309001610816,0
4267.0,11.853726,-127.53188413532816,126.08285625294968,112.86177766853656,120.94964040739964,281.3323706432959,-59.64875591698956,0
4273.0,11.870394,-188.1700733691716,22.26600405490369,243.53785094664207,-164.43072539513273,90.96136554225431,-218.0759890213714,0
4279.0,11.887062,19.09426453182164,59.21117237024232,40.1054988800942,-133.29834856560169,375.8354919343791,-83.55053697270253,0
4285.0,11.90373,-154.7057833162695,110.88478007699943,157.49017282112922,-188.0421785316466,64.73189910818527,168.70071012492363,0
4291.0,11.920398,-62.32205478408113,81.26244858426978,129.7625752594863,-327.32961145691866,48.48646627315063,-120.22751160322709,0
4297.0,11.937066,-107.83788128168132,-61.33526029094564,94.21570262031835,-158.81127339763896,-12.741305926138274,-18.60416664525755,0
4303.0,11.953734,-41.49613128387708,62.22169096432289,139.46959919009663,-341.08954253481886,180.8690474998873,91.97358081332156,0
4309.0,11.970402,-220.6764875302485,21.99799576325553,-21.86268295405129,-282.57857760237795,-161.02728421444425,65.4180345916017,0
4315.0,11.98707,385.8535857718671,-105.88527816642808,128.89280406091612,-321.4109499538793,55.93444717632802,41.6756449062148,0
4321.0,12.003738,-212.8537021140566,113.99614766467404,6.874901485308214,-263.2780244003446,-69.88477745008035,-68.08265835405085,0
4327.0,12.020406,-120.49310719892046,52.00454282894102,41.18503966095466,-309.45613715219883,145.94594647534072,130.68468505752168,0
4333.0,12.037074,-50.71769230377379,-60.24064069478162,27.732851803376263,-371.77850482664087,-182.81889476790235,178.12461600656695,0
4339.0,12.053742,-102.3227254897326,-16.3307235429792,74.10343505513333,-56.391119919507744,-106.470678401769,45.82602494207677,0
4345.0,12.07041,-42.33225250056941,-44.929266535522814,164.03645799213805,-36.99492878476143,-195.73093042502933,175.9622118657405,0
4351.0,12.087078,-40.753462531943526,37.88441940479992,98.55451813216727,-189.06698983516816,11.561928774857815,150.94697100632294,0
4357.0,12.103746,149.82060673968672,-240.18189192672853,-30.050732390622088,253.39105550040884,84.3265755798333,193.3557532683217,0
4363.0,12.120414,-8.961079082476306,59.18327051523438,28.416470793068225,363.6377970905171,-246.3130603971105,661.2027655150241,0
4369.0,12.137082,22.05753169763858,-47.09204026961432,-80.87589867975424,534.739859411956,138.78762550854512,648.5775296194458,0
4375.0,12.15375,70.11809661966466,-98.2074071191212,48.1598482191161,261.67909279885225,-251.10217393066563,269.4608130430142,0
4381.0,12.170418,97.0621069733588,126.48563099377635,-33.54410824492466,229.41784502535592,394.2678384267688,174.5243984600486,0
4387.0,12.187086,95.21244188541232,-201.6488827414699,72.37930423045071,21.9027885718329,-338.8684524136534,-13.540756396764245,0
4393.0,12.203754,101.07119882635064,252.35184059864963,41.18271287373307,126.05310358626694,249.64916955089816,-39.93286059667007,0
4399.0,12.220422,31.799210717062746,67.7720585183639,77.34572791420865,-230.13721767245104,-77.61197840139204,61.18491983596115,0
4405.0,12.23709,125.60522173236376,143.55598660206806,-57.8466365504766,216.39859132077453,313.1390090816827,-176.23836059322667,0
4411.0,12.253758,69.36516205299681,-77.77993651112892,129.66475744579793,-67.58091049475237,-124.76267735977623,27.565914965113063,0
4417.0,12.270426,241.37391741520213,10.715415044760164,86.5581445845753,14.268786519223257,102.89504404496245,40.18207880747,0
4423.0,12.287094,-83.83175065424547,79.17851595681245,96.86469555481598,-20.90496707367972,-227.89938612474631,-127.69117889743056,0
4429.0,12.303762,114.30045167721396,48.002380569796685,195.7168958617499,-30.15250188458991,119.65886980728982,-2.363789418959428,0
4435.0,12.32043,105.24531264112667,16.356086689879945,75.79267174615629,71.81675408605125,-188.86365245988628,26.16274031212384,0
4441.0,12.337098,174.6196799690077,-101.60530052308368,81.65430057225983,132.57234200456747,-199.49890565678567,-94.15042622974669,0
4447.0,12.353766,192.7211927581728,118.94987407417996,-81.74332809978395,181.1393082268624,-139.62633015779727,-105.69773852117636,0
4453.0,12.370434,226.98814465039715,-29.01223251975397,112.36633913527962,23.274726337410176,-132.26736145131042,-77.32378428273066,0
4459.0,12.387102,124.4034766385381,-14.606650535367336,-0.9023069173607468,118.0645489317492,-253.00106385384635,-104.00362112419154,0
4465.0,12.40377,238.0082231165786,150.699766863803,133.9756384508609,197.91389546029023,-29.3621928941878,-257.11154001681007,0
4471.0,12.420438,228.3445266380328,-141.88824698739623,160.518160893596,-94.2651913205692,-361.3239032945652,-205.4544279673075,0
4477.0,12.437106,143.6224149332315,32.15721331492317,-28.25147247505219,166.4459355478353,41.98844421661713,-33.44805746104706,0
4483.0,12.453774,297.67707518669835,-12.81103649828924,137.3576867624155,34.40668731996334,-110.91684799550391,-332.0531771539098,0
4489.0,12.470442,293.62595135008564,36.6295070600726,-116.0375128950642,-30.15002144209401,-194.143701910144,-26.33538363546602,0
4495.0,12.48711,259.6003518020418,47.91565579964201,143.11996058763597,-10.58426976789822,-244.7966477792308,-72.54938809803582,0
4501.0,12.503778,274.0330106737717,-45.17302181577473,60.245673552822325,257.1967372167791,-131.103394335459,55.828336315002005,0
4507.0,12.520446,356.7455013279441,163.72611481090422,-79.73599492334787,107.99791716412012,-9.439851182361169,96.96907171532314,0
4513.0,12.537114,118.02785476758972,-205.26994570765592,-23.72658602555896,466.6058394768802,124.7237512709903,125.07651662523456,0
4519.0,12.553782,141.56821268170586,-6.778024083054229,209.1218871359572,116.20138175747276,5.164551139578521,-140.76678856065945,0
4525.0,12.57045,381.2577448076777,-115.50717559505124,-236.70998416716736,271.40419348932244,-89.20004508316647,283.9558139313546,0
4531.0,12.587118,249.4028503631396,-137.6376353982157,-71.91311187480876,71.76923415324399,-286.2446636765624,129.50538346864715,0
4537.0,12.603786,130.15857219954236,-50.375437358176455,81.35197343801731,-17.238363761741635,109.07002126218082,98.03568362295256,0
4543.0,12.620454,245.04410493858333,298.2187967921208,-35.246971722439824,76.53897906205849,80.33326977930541,113.05332073514931,0
4549.0,12.637122,187.7731050277833,-190.6708373375422,-142.88397840627098,64.63929061545659,-481.7722412152248,166.11994905865012,0
4555.0,12.65379,262.3490973779068,-220.92462730516016,-171.6724589062074,14.985827729345644,267.24663323572526,199.77906499584063,0
4561.0,12.670458,153.23877868227655,-178.8042221423579,-74.35355642654979,14.94758474512014,-129.1659904810022,73.84643087360439,0
4567.0,12.687126,244.00172204689625,-55.13835514732184,-111.62902631443984,-312.3424314051819,-39.11363544324515,-142.66863120977231,0
4573.0,12.703794,110.7990351334502,-68.59315776074742,-195.01351227178705,-22.950821246757457,-44.643251229716384,159.51472194665735,0
4579.0,12.720462,191.4446925944848,-131.83455522675496,-184.1358505590896,-198.82327713148908,35.85264132525343,14.262248813349174,0
4585.0,12.73713,113.2295583864518,80.46709404256364,-34.25473410873879,-56.31738526465891,104.90313522420786,164.64113584170565,0
4591.0,12.753798,149.27384469818762,54.39269109001828,-219.7524317749016,-128.1553332583234,-99.29906953446496,473.3496263125653,0
4597.0,12.770466,164.0684337105559,121.1477570787591,-183.5481855842973,183.1237362460245,397.5293334612919,65.19083274205715,0
4603.0,12.787134,352.8308428796306,224.82225467425584,-307.90397373960934,-258.0016091286817,139.89877808450083,306.88364462120506,0
4609.0,12.803802,86.05089517682856,-108.29716048073688,-117.220856066579,96.65799076304394,166.7014654955674,468.7092481634504,0
4615.0,12.82047,105.477770568457,189.5375150340072,23.740935173085347,-195.5345343739101,407.40259873040566,178.7142768637293,0
4621.0,12.837138,31.22699964990791,-242.52490180771764,103.53189869632732,-81.52720260893103,-28.30125020066153,380.1182316897089,0
4627.0,12.853806,122.06251697832435,99.30480381817746,-225.3714761708664,27.930568303633123,99.1002004619458,275.47221640843065,0
4633.0,12.870474,-12.46209721167181,414.8490934146606,-71.89884885464224,101.62406657591796,269.9927193355095,233.7130654448855,0
4639.0,12.887142,-80.6193344680947,-803.0254839928219,139.51433482927376,-23.609322398493163,-122.90124778482408,348.74847753052364,0
4645.0,12.90381,-206.71418541178696,217.836876490808,-16.590985403448542,49.35998939035844,-117.04784459924196,324.2318350049296,0
4651.0,12.920478,-481.29324968429535,3.9057687566000254,114.78181519795272,226.66762291008288,155.17768137276937,277.1210507833832,0
4657.0,12.937146,-1032.3457521146574,-309.7676717060525,307.46703426383664,221.16849938047648,-1.2866691692995325,175.0716898822207,0
4663.0,12.953814,-936.142024202649,599.3411767776408,105.167424371861,215.40240019165083,50.34030656047136,313.15732700102035,0
4669.0,12.970482,-530.7482775913401,-29.16055864917199,-156.84257354084252,150.08284398045944,192.22704957192613,218.1780063352988,0
4675.0,12.98715,-170.57819573356082,-39.61511630644769,175.95825942102513,3.587610446191817,-98.23092996381114,257.12065028974894,0
4681.0,13.003818,199.1384922101027,-739.4742218290029,41.95645595390771,55.30768198955538,-154.78689767381255,141.64288644103857,0
4687.0,13.020486,360.0576890112485,158.00637404452308,-12.557768833711776,115.08113788891106,144.06646278320457,81.5673977369859,0
4693.0,13.037154,35.81912032984534,10.359694940348852,104.75335161898832,-105.04167509801252,157.17817704717288,124.37516652300629,0
4699.0,13.053822,-78.62033067266927,-30.96552005351082,9.805637947846323,-43.13765731923067,-72.52832977321975,118.08721875404616,0
4705.0,13.07049,-141.98943805020275,176.0882336571102,61.39565091183204,93.98295185749164,180.5899226215013,-75.7129799524424,0
4711.0,13.087158,-117.25116928551472,-52.870873684759616,101.73716235806975,72.50146956603857,13.116962175354466,28.05461177483489,0
4717.0,13.103826,-93.45428877095888,272.2666684083319,303.5864095412628,21.708301451500404,186.9291139625919,-109.40765981618608,0
4723.0,13.120494,217.8316080835719,15.252270853325513,-21.766483937336066,24.41402967206504,-153.38343875501835,6.23315000366182,0
4729.0,13.137162,343.27902891910657,-21.161149098814803,364.2974639515464,-168.58772626321064,85.01180701012568,-384.98783281462727,0
4735.0,13.15383,-123.85425668935927,32.61458102964815,39.661565740866514,5.658325803059363,1.3474763929935918,-185.6056914402697,0
4741.0,13.170498,-57.617715894216346,202.5198714109212,284.98708712208224,-33.93287261102219,108.29333203096316,-137.89961528900875,0
4747.0,13.187166,-104.44175115570911,-13.261341205495896,173.64204579095798,-66.0639371698387,63.00167865281992,-201.3896980618652,0
4753.0,13.203834,76.8031237080549,-17.266778090057283,76.23045760070045,-64.76117554029072,18.729318940020978,-168.05704368851386,0
4759.0,13.220502,82.25671812506454,-27.437964243427125,104.29708643396002,3.178796430293758,-139.5764691661502,-219.3504699868511,0
4765.0,13.23717,31.74576949072029,114.2377749805488,113.77004185825665,-98.13096550158184,81.23495730582732,-314.8111970384717,0
4771.0,13.253838,4.6099436108158045,-37.06365812009588,97.3992237176424,-56.81771748109587,9.310216892189732,-205.13320763474027,0
4777.0,13.270506,-46.95373241756238,-50.491808405969216,155.39192994611474,-49.22130582921645,-185.3223492732511,-366.1939927709361,0
4783.0,13.287174,74.56192383824425,-31.652925889562336,51.231925825177626,-87.52513501453625,-31.35013106566356,-293.3503070077162,0
4789.0,13.303842,46.10965028988127,-65.60694744084819,87.74363053191446,8.93845224692592,48.39460474133566,-323.3986999157324,0
4795.0,13.32051,18.60787674073429,30.205747844705108,64.17485385361582,-46.62467599335574,-84.73400806861764,-260.02136544837634,0
4801.0,13.337178,32.909841841802006,97.46190608692385,44.0780498128075,-135.22124107626246,-41.57546602378018,-272.7636111952676,0
4807.0,13.353846,-27.65110673870041,-84.63390461159038,6.076737384249956,-39.84268792030285,-168.03064916103202,-316.0733906088311,0
4813.0,13.370514,82.07729829770791,-132.9189473266257,-155.48610685857383,78.85519305500011,-32.24236013297671,-199.2218373778937,0
4819.0,13.387182,-30.655437743026265,48.09889835983491,-31.280318405425604,-58.14188176017068,-53.24241158485829,-355.3193816530984,0
4825.0,13.40385,-37.52474755191276,-87.87868050588446,50.16348014018611,-247.2583204215768,-350.5145758275434,-236.8981419421141,0
4831.0,13.420518,-58.25591449222659,-92.12411965081984,-78.82031260403593,-222.3529537130545,-310.9029898470893,-383.20141094735584,0
4837.0,13.437186,-115.54155534684288,20.28891791241152,33.8585011098334,8.610197661243609,22.37159877313738,-160.48803017050292,0
4843.0,13.453854,-8.837855093764531,26.18183656906981,30.446908836061223,-205.94067954927223,2.013123852743888,-222.17713790855777,0
4849.0,13.470522,-43.86689789292544,-238.8563524151741,-205.75535186345343,-0.0998781118890832,-203.2154830976621,-386.1752020908533,0
4855.0,13.48719,-217.8678481952452,-77.58743265435263,-208.98403781718667,-112.636043769434,-38.01089289560409,-270.9847458790694,0
4861.0,13.503858,-256.355825319146,-235.5926083654063,-12.184084333714267,-172.5786535732977,-198.5573687416323,-148.60867916894833,0
4867.0,13.520526,-237.01355171270893,-98.87029144492818,-6.482493530587952,-3.590145602107789,-95.48787805305612,-57.882927606119466,0
4873.0,13.537194,-70.10011566243776,21.005783430144746,-21.60928025559288,-100.16144519789692,2.8806387185476225,-195.68311771619588,0
4879.0,13.553862,31.91831041420982,-108.8790604077883,61.67201795546737,-138.64928130487948,-138.54835787241518,-15.065167882073212,0
4885.0,13.57053,-40.89163547378844,-162.54099725222815,-83.4843742974137,129.18693984282478,30.890585958919782,-82.82763158186172,0
4891.0,13.587198,46.20252877742293,35.78208240596376,-10.505642231898603,-101.1755471539818,-99.9768808316264,-117.26847515633106,0
4897.0,13.603866,-42.348905953887694,-16.186035401864586,-3.71126126864884,-52.967200030747485,155.5087547856021,-66.47778657936186,0
4903.0,13.620534,-72.28345774603076,-76.16253794021718,77.8021452577658,3.2343369120994296,76.0946803284557,164.22514214121304,0
4909.0,13.637202,-61.06754859587255,2.850849235618824,133.27433729793972,-70.73710023907523,216.2533178623332,-72.89738313732789,0
4915.0,13.65387,-120.26349916201649,205.3805100551562,29.025011136937387,-103.20705234024732,177.80463482901922,46.817336600228415,0
4921.0,13.670538,0.3702208932991373,332.22614251817083,34.19254395761713,-3.2617580916183115,353.17120707910533,85.12258194821516,0
4927.0,13.687206,-93.41465130219648,-224.21560077670176,-21.00047283685484,-154.77141544709903,47.82970398623365,104.6627178464842,0
4933.0,13.703874,-39.07266776378579,32.135567706709125,-54.97159567476293,36.042508180982,73.2233217640464,91.73460482177865,0
4939.0,13.720542,-29.984057439279937,191.81134218220097,98.20923207533936,-334.1373580855841,292.6656001485702,-77.68306386525772,0
4945.0,13.73721,-37.43567787265637,-9.847904529100546,139.05170270114286,-7.146424571141168,14.09800877571486,102.88591401024011,0
4951.0,13.753878,-92.43789877287628,210.82563040018627,27.6891910433986,-161.2600329561671,265.8133369164152,110.62899476157588,0
4957.0,13.770546,-96.36088540830868,193.63606839940533,195.86866230216185,5.787955590245456,-43.20735962348476,459.5514887093494,0
4963.0,13.787214,-52.32544860692186,221.7425210103309,23.99166898749702,-83.08074772772031,339.35660012388405,316.59893970023336,0
4969.0,13.803882,-94.67327863299356,247.45583043561115,210.4283630099138,12.051239860442443,34.69447894793949,256.5293013811503,0
4975.0,13.82055,-43.48929444017302,71.63155749149556,237.5838844225653,36.35016569448999,6.839863577439772,286.3897748515293,0
4981.0,13.837218,39.69193643540761,-30.16596610348921,148.89889641076886,194.0608417714478,-368.25605436571607,422.3244591973316,0
4987.0,13.853886,19.363344915138946,94.91339261945794,204.26005938778752,135.02402983017495,-198.77113730733035,423.7083577295416,0
4993.0,13.870554,-46.45252009995,92.47374968519496,233.8974343313428,-39.48948227576396,102.6273440665784,284.3838381597325,0
4999.0,13.887222,-18.91504564514993,-175.2410145123123,184.0608089667569,83.93522828291957,-372.1207329953741,422.8323200361897,0
5005.0,13.90389,-27.618402955712032,158.5518637625233,127.43496507174596,99.02358538600892,10.147557073636293,288.20062822341333,0
5011.0,13.920558,-19.93440124763369,86.5270567891985,339.3148973426776,19.88657563944201,-6.797361735347097,235.2817689643909,0
5017.0,13.937226,-42.42384541621591,79.13581296096851,72.63945549245732,39.20325139549018,81.6429889557143,223.63254482092097,0
5023.0,13.953894,-7.541460065324749,-27.800725991036884,7.724459280478909,54.094080877487954,57.77010794832336,88.33446419584246,0
5029.0,13.970562,136.30462041295377,20.46999249853902,115.20589819847544,164.59864497646367,79.2399333312355,-180.14383367817695,0
5035.0,13.98723,31.064776737987465,27.58163492245773,4.780283293250079,289.9462060327287,23.606112603739973,-79.31758481204825,0
5041.0,14.003898,146.34208737141483,-72.63566478431301,102.59060823988634,75.46203365072434,-27.883498113485544,-42.0532847794161,0
5047.0,14.020566,90.63896051082637,-97.1454484981396,-10.632285912538045,216.6190100018003,-131.61864616607363,-124.7476058624248,0
5053.0,14.037234,103.51770335351836,-78.95905104943293,172.82046610962212,196.20165553217512,-114.96617022747937,7.764272820239341,0
5059.0,14.053902,108.4519759646247,7.960764778945839,-18.729178435507592,287.5049981619801,180.13522666485397,-21.715863262383607,0
5065.0,14.07057,137.46327628495234,-24.805528664397283,-32.31059291380935,116.93781701061444,-135.09289122212823,-59.00546410337085,0
5071.0,14.087238,120.70891084366691,-5.085534841882062,9.253998986317216,183.69982810035629,143.89331524538562,-72.38456495268136,0
5077.0,14.103906,126.18871520852927,-55.04020421784252,-57.36971025474449,52.007758777886,-108.109887116423,-199.16407938128376,0
5083.0,14.120574,111.09653771379864,-5.0288050256853225,-38.65252399014797,33.67776849358879,-22.55080232291852,-137.78544812538476,0
5089.0,14.137242,231.41288666900965,-140.98640162411692,27.52693343659923,10.945823735772024,-124.91385550773704,-230.9211665313083,0
5095.0,14.15391,109.10015558334754,122.46948613354118,-190.91156167045543,31.097509696341064,0.1048712313550623,-97.40854910066976,0
5101.0,14.170578,251.78476167599905,-246.9703115317176,-257.2343151595911,27.88324688448244,6.504550971018844,-144.2821171929293,0
5107.0,14.187246,-74.52047655461521,446.04837272855286,323.1940404842158,47.962010701081866,-279.06791899239334,-125.29047375060097,0
5113.0,14.203914,306.4211604207339,55.32384236737374,-77.87408065461958,150.59907177383522,58.24746105806754,-116.62503841849542,0
5119.0,14.220582,200.7829426842439,239.46624294947088,-110.67651690599264,33.11373297169428,27.256429903665747,-116.29356774532232,0
5125.0,14.23725,261.8063758264634,-160.20233522920427,-32.884283642476774,-47.61769524096343,-159.762768979647,-134.64176773520825,0
5131.0,14.253918,216.74855044624027,69.64274967987691,-224.49557347632984,173.1552063382088,-318.4929906992592,-125.1827415748444,0
5137.0,14.270586,261.5824887694887,-80.78482776807218,-134.49838633897247,-7.928524315801411,-328.3905960274134,15.469534612737007,0
5143.0,14.287254,268.25330095179964,38.80061768354048,-111.54706115477704,50.373157433642085,20.20530618609016,-153.57905564137013,0
5149.0,14.303922,263.02022967845915,119.44334044669095,-121.88160272875254,-104.70946172617248,-124.40744602923122,-92.56979916390924,0
5155.0,14.32059,286.8364642250649,-34.88022701284583,-104.38150989908974,195.76028021195577,-117.908985558622,-143.35905430543073,0
5161.0,14.337258,249.98798834304185,-106.1843670431047,-181.8366034785725,-112.21754811855402,-188.83103887429843,-91.4576199892704,0
5167.0,14.353926,79.75530282495501,-87.97948536248721,-149.87458781536623,86.70133857931992,-261.66302286026,46.85844891668479,0
5173.0,14.370594,288.70256266124693,38.92946093934403,-137.40579011160477,25.712604108114,54.0279242689864,-201.72746165906483,0
5179.0,14.387262,-6.700909173144634,-3.388858202050928,-196.0560493443959,26.837188820025105,-136.23869444565082,-17.572674971316005,0
5185.0,14.40393,115.71523867003734,98.38711880116574,-138.58611637843595,-9.634993657019535,-0.575632437619717,12.556889440151563,0
5191.0,14.420598,193.38672528131428,-13.892858442646911,-191.3684844750176,107.60712773858737,58.7044471266924,3.483342778906028,0
5197.0,14.437266,116.97191537745144,-91.30989987523776,-149.47408880316326,28.05259124447984,-275.57635914556874,87.5302466262624,0
5203.0,14.453934,-403.6437764290425,285.6745851809881,-344.9133732194269,123.6288339623615,471.4359948102401,105.1021765661674,0
5209.0,14.470602,247.81458792027,-19.18096007723909,-146.83157184245022,148.52576096011006,-137.9360528908864,119.16022004563705,0
5215.0,14.48727,73.56802312923281,28.830850465087508,-142.00134545068124,290.4456442044194,335.88224101678327,85.14468691269529,0
5221.0,14.503938,5.672272679582971,72.61568607451568,-205.60135486011347,117.48361832341024,185.1293747940477,76.1765756540409,0
5227.0,14.520606,-30.10424600385976,6.694911062537059,-462.1070411026391,326.91600183537594,48.04120008420338,152.3787149899482,0
5233.0,14.537274,84.53508360771379,-165.00432373027047,-222.6943230211403,289.418542146595,266.4210392651055,309.46837547292216,0
5239.0,14.553942,71.48888943122512,-87.87086569607705,-427.59031336202327,237.83147233134,306.737126431306,195.1353302410369,0
5245.0,14.57061,97.01588156932424,87.62005978976552,-282.32670209899936,329.1320376816165,446.943224021271,191.6053854802176,0
5251.0,14.587278,56.78114306045427,-143.09137236542955,-234.3450134659205,398.7338331871963,273.9291819817988,398.4577029971695,0
5257.0,14.603946,32.72359954077046,7.038441019179079,65.25212395806386,342.5184384919245,357.23326125030286,355.53889317067103,0
5263.0,14.620614,-40.43537984919038,78.33844330500868,-436.81975269936976,258.8195715008912,231.21265868677864,266.04817469149486,0
5269.0,14.637282,22.407493728919853,-162.49484305455624,98.8694111901558,281.9910052206801,215.3412505745684,237.42006043502312,0
5275.0,14.65395,-151.13075386205375,-75.76045209011326,54.51017834626021,211.72943874438,111.8793414118094,246.2550064554328,0
5281.0,14.670618,-174.83533388516952,12.127205841830154,-19.975632751979816,329.2449227301014,187.6614654881253,200.85109405114065,0
5287.0,14.687286,133.5750397867386,-158.3831208376704,310.8868067160684,101.45847578629974,189.79043253933432,202.7896921820606,0
5293.0,14.703954,-179.0514349151705,-259.2151107506927,-38.89393178225696,203.00372453201712,81.00139070525664,80.2627778111778,0
5299.0,14.720622,-53.88999909361033,-174.15677551490637,67.5556689934447,99.26400538738366,8.365737166809652,180.11606507400333,0
5305.0,14.73729,-97.85017951523562,159.07603205883902,154.33849008644268,-63.78422708336139,81.78408302039473,-274.38745290542937,0
5311.0,14.753958,606.5338825097082,-826.4990020421849,-1319.6826617862826,274.0421862879008,119.3166581379079,124.97380758053892,0
5317.0,14.770626,-339.1654798935292,648.4686130424355,690.7487227642422,105.65261293091856,178.62712103510924,-121.45489576347192,0
5323.0,14.787294,12.680371240627512,-33.52217038456276,130.53106967453192,97.82436883273246,-3.423173233450364,-7.634612950688137,0
5329.0,14.803962,-6.437390620053711,75.43953527592869,174.9898292415184,-54.43232908238375,102.33119482281744,-149.20231254695784,0
5335.0,14.82063,-20.289778350094394,-2.731147181222022,143.09582020564176,-26.347908383717268,-97.5276934310163,-72.81096976001027,0
5341.0,14.837298,25.766846835042205,188.06930267997257,136.29287896885808,-142.91146239012642,231.01113966012105,-200.9533688514059,0
5347.0,14.853966,27.401055289448195,-12.6092696848226,172.41048777674263,-96.3081805746932,-30.68144062276665,-107.9162252718678,0
5353.0,14.870634,45.03914946624348,0.8888615922722813,166.7949302663454,-76.18188133005826,17.573101866108992,-250.1079973743751,0
5359.0,14.887302,64.8223194273469,75.23289975703634,244.72844758093265,-188.9147277259692,97.7660506549564,-231.8432056051048,0
5365.0,14.90397,13.625618469869346,103.66354228486072,132.8590592021099,-138.6855194733592,19.73365850446444,-220.94381200568063,0
5371.0,14.920638,54.598510890812776,182.6397881056307,194.4140135802796,-190.64878606688623,-3.1667176843264,-252.32041515276296,0
5377.0,14.937306,-6.7138495150260695,91.90406788559292,-32.969591262542025,-172.4589655561307,-59.16125920460958,-361.25078589761927,0
5383.0,14.953974,-53.883937588321466,17.34164712389645,183.5933910047411,-232.31357187473253,-189.59020393619875,-287.0500717005246,0
5389.0,14.970642,102.63150897764824,124.22441218513694,127.0283255061066,-246.718281872204,-94.04425604036096,-261.99057991372774,0
5395.0,14.98731,-612.827290331368,-615.6101431642896,-269.8642635051396,-923.0945760400864,-504.1202280904414,-723.7203176340427,0
5401.0,15.003978,-50.02564695209611,525.3296071196795,105.19531001764938,-258.90412002395,131.36947013375868,-390.3723273936005,0
5407.0,15.020646,-0.6704323988157768,-168.12461297606137,70.87604547037344,-325.7537879790603,-369.4308851997822,-318.5508228929526,0
5413.0,15.037314,37.70657637370192,-66.46606018268248,3.3853364301238784,-131.19466634184914,-291.9663460671078,-473.1328986564308,0
5419.0,15.053982,26.022015285001245,-94.48191997354714,16.744515122258072,-366.38886218605705,-335.2302639732868,-233.4197811627756,0
5425.0,15.07065,-42.05868091885578,14.757297593675176,36.90379302807075,-295.66785894423504,-354.893473698292,-423.5205698203886,0
5431.0,15.087318,11.663225280484326,3.2452683187251665,-17.594402948983188,-381.1319982333308,-283.32228192692924,-65.12145932081792,0
5437.0,15.103986,-71.61453471790594,165.32779660669576,-83.04264922233966,-155.52376142946972,-210.23429980387584,-278.81084717008207,0
5443.0,15.120654,-109.03873136630696,-54.78004150243113,3.5855791604969944,-128.85801820533217,-199.67219261731083,-261.35024809189065,0
5449.0,15.137322,12.06174259300748,88.50267853805926,-45.94825308954034,-325.26839408191734,-234.3489155920326,-181.3129872201094,0
5455.0,15.15399,32.9400220585778,-24.898123576880863,10.19973317818436,-296.2143484118697,-291.34336380125615,-312.8976586352453,0
5461.0,15.170658,-230.03060245653984,121.9530278039762,-349.0877271606897,-224.631349154612,-129.91869513249608,29.94508213818344,0
5467.0,15.187326,-0.0186661392302198,-22.86311590441012,0.4312073816751488,-537.7876838991917,-302.34853647305744,-118.92204008981383,0
