Frame,Time,RightHand_Accel_X,RightHand_Accel_Y,RightHand_Accel_Z,LeftHand_Accel_X,LeftHand_Accel_Y,LeftHand_Accel_Z,Label
1.0,0.002778,116.14742844823144,101.09562648395234,64.33391817151282,-92.96910329241412,-65.47217916473947,-8.511767168892728,0
7.0,0.019446,29.8860530350096,-58.824907396942,-52.79640859165386,12.93028307349732,30.93077036946818,28.94614819318897,0
13.0,0.036114,-36.33315205925205,33.36849895242342,31.191114244098177,-73.7486698743561,-14.521803132317354,4.345564753872967,0
19.0,0.052782,29.1088934692326,-26.942987491952834,-40.57140199710266,-28.97482279307093,-55.479807860969046,10.687101745547649,0
25.0,0.06945,13.919078450500184,6.087349523248662,15.917922326546847,50.0897365984049,3.8383717696091537,16.968920048171974,0
31.0,0.086118,-19.074486561624663,8.889677655560433,27.687998738268945,-18.12007269316092,-26.98077847464016,23.810870204088467,0
37.0,0.102786,-10.84310695738155,-52.88492742448791,-114.7911803515088,17.800439339334233,38.22518510691218,-22.550200034703657,0
43.0,0.119454,99.14184533722454,31.38040266961155,141.34420347579845,-34.91548711414076,-15.586442978984303,7.71272790785838,0
49.0,0.136122,42.11684644944583,-15.204990646438604,-10.163009580086316,-26.73451794600792,5.600031558737714,-42.40784275394805,0
55.0,0.15279,-20.957102167714545,53.3090533421404,35.16760905529204,-11.006134557904955,5.732972589229373,25.128740774762925,0
61.0,0.169458,141.6865727302836,-5.726439513256601,9.657672181757947,-9.048379679648813,71.03330699143388,-10.886151012507726,0
67.0,0.186126,-43.94634359827784,-24.026536703160463,-42.12191436891251,56.13742141072464,12.25355531485566,-17.648081777450813,0
73.0,0.202794,-37.86019596507473,35.86158721673377,15.042041385474295,-30.938553265593104,-4.526505611768037,2.4348771412025165,0
79.0,0.219462,-10.382826165413483,-8.163679196545072,29.768109494781097,99.69326740580811,60.27721332291389,-30.439731372688613,0
85.0,0.23613,-7.696201817508578,25.6773009289669,26.69870430808537,-4.660844363793221,25.72731593274406,-0.3998222861263789,0
91.0,0.252798,1.4439014585789398,3.072394729770476,13.42730197025264,-2.980937324537895,12.936369571032174,-20.68029176651985,0
97.0,0.269466,-1.2141531896776545,12.182705605692256,32.00909086182501,12.708255029721292,90.113350014154,-19.94773497509295,0
103.0,0.286134,62.244607784566696,57.5988429789309,1.6720072110056403,20.506844943956573,6.936605100251739,-15.263466400604685,0
109.0,0.302802,-6.171061117573409,-18.783311661521218,81.78946824841016,25.59589535822883,29.477728150091227,8.821437520356824,0
115.0,0.31947,-13.527303093472993,25.71599543218714,26.33079774338873,-15.503954624983464,40.78678236868612,-21.772101337308506,0
121.0,0.336138,11.649063183079075,16.260196520059033,49.65354727768002,-3.1485929716450203,0.7228050877175416,-0.82601151897709,0
127.0,0.352806,-50.90678111634887,102.06976137688702,25.980225873863,22.5146780864141,12.980520788693497,6.634396535906637,0
133.0,0.369474,-5.781872101167632,-81.21289491827312,-37.31800390476352,18.028931638489937,18.417682696627043,-18.95007035382744,0
139.0,0.386142,6.493553634974337,-0.1525341639131765,23.572754540810607,7.802402216527373,4.105977940868716,7.982003543493992,0
145.0,0.40281,30.30020097636435,2.542183667507363,-40.5061938391344,2.70728459283586,14.874644807272237,7.089008014576564,0
151.0,0.419478,19.22887992911537,-25.09018376732576,29.16258628259102,7.865596946894112,14.622937790926937,4.558850461727816,0
157.0,0.436146,9.712757120064907,-30.64850884618013,-25.71754434363961,-6.504718951339622,-42.07569151647349,12.564936061235615,0
163.0,0.452814,-1.0213176933930193,-40.59628271813269,-60.73263497093757,-5.657721481506146,-49.11261974461731,23.683511855536533,0
169.0,0.469482,8.36397841875311,21.240117858222646,33.7652973704364,-25.76677758246632,-32.616413382223655,43.483613521719626,0
175.0,0.48615,101.21873101027214,4.14913474559724,-10.140417396204487,34.13824777759699,12.32366212247343,-10.372907018390086,0
181.0,0.502818,-111.22577829029169,-24.045640110928662,-50.98665722063643,19.821892214439707,3.9908448486134063,-12.610377137056457,0
187.0,0.519486,1.9542699455601424,-21.43681404714956,6.630170198434059,29.15290116326593,-27.71330172564949,59.05985331783799,0
193.0,0.536154,12.000948433110146,-68.63143309175523,-7.163324477011837,11.505765654395294,-4.759126717061967,21.24037988237704,0
199.0,0.552822,-46.08141583694946,43.14019467218884,-19.364362574637585,2.342491779402003,1.893548967136976,0.0478558529193136,0
205.0,0.56949,-59.15128570465514,13.822744267549137,-2.730255487441167,1.1096753673725304,7.148708601906742,2.28435827428236,0
211.0,0.5861580000000001,-1.278127845143608,-67.86525638672651,-49.27328515999627,43.71732865610413,13.29592089751586,28.54094973333811,0
217.0,0.602826,178.53476877193367,54.10870262782521,83.91646525802668,-8.972638763981953,-26.08695128183373,35.09166881631721,0
223.0,0.619494,-92.96187320167098,4.73098443526553,-67.90452129987948,-8.719820159068863,-1.1399913614931645,-30.554180174188705,0
229.0,0.636162,15.521097197435145,-47.533784627278806,5.083618722323706,-25.133001404320368,-25.096901762250702,-5.869773225789875,0
235.0,0.65283,-242.17022503509352,-77.70817370628559,-72.57407137296143,50.67538203493129,32.48536261013203,-17.46096763200138,0
241.0,0.669498,-45.82612368934525,-37.17898660848779,-59.13638530299942,5.1176081289943856,-17.983276172484228,24.52990794565253,0
247.0,0.686166,-27.417909797651006,70.80879945624837,40.93264233981362,11.291117042137016,-23.040785981572096,-23.77162969072723,0
253.0,0.7028340000000001,19.04712287649201,-0.3156814684017539,47.02143868246486,37.55092608251749,91.12878377324552,25.33143433178648,0
259.0,0.719502,-9.633624662443289,17.44097849119457,-17.514422669265972,-51.080120252608445,-8.328317027798779,-68.22776201656302,0
265.0,0.73617,-81.70818248951878,55.81744475824027,20.59600636406777,16.319296529533858,-1.4153184218661257,23.674256584717067,0
271.0,0.752838,43.23815235957002,-3.53468436221511,23.27388887987016,-5.961597997760046,5.696385535481953,-10.340466347291684,0
277.0,0.769506,-38.996916227613966,-54.7434900179137,-32.03969315208087,-4.221999704947449,-8.491928121213107,-11.75163690801488,0
283.0,0.786174,30.00433383998612,36.036581766952544,47.18164519052758,17.445432913820383,35.84974117689015,20.563783840122305,0
289.0,0.8028420000000001,-0.3727938208763319,23.415288774096894,-22.09999928348124,-19.1694096044844,38.64446838447065,-38.85025230036446,0
295.0,0.8195100000000001,-25.959339889486305,43.94041638433417,-2.580043519681406,-28.693206625524866,-42.15825686054208,12.153894298082008,0
301.0,0.836178,-35.18053059390299,-37.42205461391199,9.37718219202926,-15.2276576298305,19.067362684092178,-30.79719113750714,0
307.0,0.852846,94.45129532972749,46.107841539549966,56.171988972471766,-30.1572493383102,-25.46532853106802,14.463569927762617,0
313.0,0.869514,-63.4184648526896,31.76996655916239,90.3680371630696,-11.319242269334804,-16.238271804346443,17.080672676260715,0
319.0,0.886182,78.42856190561672,-53.20516506371841,-62.75460175469291,-0.0486930961730358,-29.95330740170695,-41.30980051682573,0
325.0,0.90285,-8.316318386224122,-7.2843276106193855,-14.703550220384278,3.542395800204993,6.24995309811238,44.024852920988735,0
331.0,0.919518,40.7726878782548,-42.991920183633326,124.49432499408042,-6.3745486545429975,-18.10128464324709,-27.76543535544891,0
337.0,0.936186,5.307807665336238,60.21467919719166,-17.536371909451766,31.39286829076724,3.0604438807052947,40.8185198856153,0
343.0,0.952854,-54.81473718322242,6.619089696875373,-29.149389752716253,-14.362333805976553,-13.170035002364555,-13.844772326650348,0
349.0,0.969522,30.75403043668436,27.13692095886748,21.28808720616071,-0.6213656244179797,32.73539834755274,-4.802553224711766,0
355.0,0.98619,43.21410355083158,-21.80554135259128,-38.44754954329002,7.320228352738936,-16.64599692037554,-3.970762303506048,0
361.0,1.002858,-4.740682722171128,4.258172208620899,-26.045379486413456,-41.10040535550368,-31.864744485329307,-13.20154945093162,0
367.0,1.019526,24.067875861707527,-4.500731008475928,-6.340269468297382,2.227589598871825,-24.98022439231245,3.0103168100910955,0
373.0,1.036194,-10.591338733926902,-18.33783719565137,17.01651094276403,3.694091723225581,46.87434074528621,-17.894354330085008,0
379.0,1.052862,-9.183970649074515,22.11985197700591,22.83662341020152,-8.702463910174764,-0.7281925064057129,4.499315878711222,0
385.0,1.06953,-88.08325304716925,-17.236768833978527,-63.16326858810888,9.456888273792517,-23.8782415787421,-43.63486646246685,0
391.0,1.086198,19.907358671545666,14.352983079053663,25.376474889154427,-17.204653659672257,-30.19617732310865,34.21044117300503,0
397.0,1.102866,80.28990786228093,-51.82107182320592,-15.560514155004627,-10.068083058145524,45.88407601623069,13.856405750206338,0
403.0,1.119534,-2.0798807729682203,33.83833722441089,3.568426383164752,18.1538455625436,33.02078486208094,-36.01059848950189,0
409.0,1.136202,96.84877625748672,33.20254059421912,44.03509656938132,28.17318022450188,-17.209973990796854,10.800492119425568,0
415.0,1.15287,-53.03922719076378,-49.52095436235668,-38.93749210035658,-7.858271679861966,-19.883006523205808,3.8838040057314327,0
421.0,1.169538,14.25037230856868,-0.02665078613105,3.2981873643902206,0.7285535951546436,18.71881101399965,-10.44314207151615,0
427.0,1.186206,-1.1380234667295897,12.687529187499452,-9.2881122540115,2.967914201791497,37.40175598253786,-29.808024988820733,0
433.0,1.202874,-25.54931819386029,-0.4191691349229032,-4.117106536234225,-6.7216055472911975,-16.36898592539791,-15.688027478320633,0
439.0,1.219542,-13.698390949179911,-27.22753791648196,-5.120083326990743,5.2804000618593285,-26.808699731739388,5.372185179805615,0
445.0,1.23621,70.18087948208837,18.487044842815024,7.438286469898482,-4.262815982005579,36.09857548721455,3.7385956685595234,0
451.0,1.252878,30.40140309866522,25.547789248019885,20.59695351459069,-2.842703925014896,26.139274230661343,-28.22962231685508,0
457.0,1.269546,0.5257266445748622,-3.5978032038258623,9.409131443396502,-0.2423351967222538,27.939493783840245,-23.490007625247763,0
463.0,1.286214,-12.000986708081449,-17.958654849638613,-18.471726524330872,5.990000335370299,-20.77259645065192,0.1238920378726966,0
469.0,1.302882,15.570064511611882,-0.3896406041758489,-4.090247366074859,1.663113414679806,-30.051200826336466,-0.5813309372164213,0
475.0,1.31955,29.511473424708367,-2.6985321122054344,7.599834247294403,16.68569667233943,20.169041572187755,8.666021024210917,0
481.0,1.336218,-15.717063113287711,27.08463982745157,14.0044849195276,0.6380573403805974,38.43983080042493,-13.101797118863418,0
487.0,1.352886,4.909143874488284,7.0556267825477175,-6.744548825790162,26.64584420858652,14.12192354136426,-17.655849780989545,0
493.0,1.369554,14.392139276779114,-15.064443205866056,9.758164636926828,5.502031427947561,-0.8470580805325021,-6.2139682375749015,0
499.0,1.386222,-13.315763800010057,12.874114641777863,2.675688808029406,-11.231161443990514,-5.19202282796731,0.3288622167012471,0
505.0,1.40289,1.2311619843897588,-12.377791220003887,-18.276055253311053,21.409139265392227,-8.999021626500912,12.356179873077036,0
511.0,1.419558,5.706878486904493,-1.3855977480739554,7.045257031073065,-11.229726865923965,2.4203191386457155,4.312228356363901,0
517.0,1.436226,0.4461981664707264,19.68436666634637,19.16278591243281,5.858680120743795,16.828695705778596,12.207595091495238,0
523.0,1.452894,-20.2603006581382,32.89577364868599,15.368803137954572,-11.745604378519822,37.23022956618247,-48.24946483434347,0
529.0,1.469562,17.42834675603374,-32.56361981086171,-6.216492740075486,-7.15886477056267,-39.925832747038754,30.91586686607385,0
535.0,1.48623,15.760942081631654,-16.040590755442246,-18.49891092758574,-2.8847279626144555,-16.15957995791026,8.741847865495917,0
541.0,1.502898,-39.13936032595233,22.04345610993991,50.736296026877504,-11.508858998836418,-11.615534557074662,2.581330897736395,0
547.0,1.519566,26.7134410570102,-4.6953061060812615,-12.662357411054684,-15.317128971151943,-3.2976698236532407,9.434461200341543,0
553.0,1.536234,50.17745249715347,82.45905302493738,45.948029730356005,40.44275749961058,8.761207506943093,-6.6941469986024895,0
559.0,1.552902,-11.892691744219048,-78.361209312147,-52.54635263949688,-7.631921811367214,-5.040590305452167,-15.909815149602036,0
565.0,1.56957,-18.681976584698663,-20.22585730173768,-5.3162059271198405,-11.775819263006262,-16.305397519224496,5.083534929244404,0
571.0,1.586238,-15.345776733758845,-3.3525950413010106,1.291052157827698,-0.3692558774758938,-14.3829869820223,16.612943999533268,0
577.0,1.602906,-8.640647367589576,-39.20109844125002,-24.7712131084309,-7.637615768223837,19.28180239856536,-2.139334372859267,0
583.0,1.619574,31.26039432127449,32.404956291755006,39.692076612149954,-1.834893443139357,19.968257520048084,-17.830993694722505,0
589.0,1.636242,-19.423441800187867,-55.83299241707488,-64.23390807264664,-7.35208589243306,24.521985170538063,-4.4158518337119865,0
595.0,1.65291,-6.464894422830575,155.3073933173551,70.70101146165817,-5.684846511676325,-35.16847454988893,16.900043115127367,0
601.0,1.669578,-5.804135953897486,20.885746835921022,20.84830225354903,-20.35014423125707,0.431480221779303,-14.275173620709484,0
607.0,1.686246,-32.59384479055453,16.691642240049024,15.270031757833529,-38.42182117573114,0.2504274986955987,-22.91234255461825,0
613.0,1.702914,10.437419157006364,-11.2606526614958,-6.321695779954855,-45.42654536214114,-14.169290200351064,-34.2971193572032,0
619.0,1.719582,-29.56990742291948,1.118402613812071,-29.00642641631157,44.99254862614388,23.33571939983221,-2.150499278460196,0
625.0,1.73625,26.98574449505732,8.69545910275809,25.181154718585784,-14.59801178499923,-11.760789072946832,0.9523089772383052,0
631.0,1.752918,-54.86524422363941,-24.768593299854444,-27.876783390341707,-5.1638082125101565,-16.367933879790883,13.595570917250011,0
637.0,1.769586,8.946378646869228,-2.343032935703798,17.926341617071305,3.167454087088478,17.46118870758795,2.356397725917068,0
643.0,1.786254,-86.6156781816002,-61.58637280077139,-68.8914023082628,6.928983429501916,5.7360359080889065,-31.146415383281724,0
649.0,1.802922,24.90162240405437,17.52734244626008,32.31333035120308,-29.295041596915848,-6.925990332922799,18.207432290728992,0
655.0,1.81959,47.87860991490407,-18.2128494626222,-2.0037361907051108,-2.315683206710955,-28.219069651287008,6.857766392579587,0
661.0,1.836258,-3.5783344049672845,13.031125005730503,-4.365105884415419,32.33031163786046,50.25582806282077,-18.32510876967945,0
667.0,1.852926,-40.72179252281976,-57.105292462748416,-35.26586543512663,-6.121583606481087,-44.114152459708016,17.278604295803525,0
673.0,1.869594,-16.92014663562111,8.610951361484755,-29.541818473748,-6.424986843392407,-25.164265397385314,11.86104214318644,0
679.0,1.886262,25.214369469564826,20.42687791006402,27.912589588721296,9.692670767972723,13.747706305478896,-28.567484835690863,0
685.0,1.90293,3.8660171933993,-26.410463861522985,-6.731847476209708,26.751960684352056,-27.12893713684914,34.844471900260174,0
691.0,1.919598,46.80050888473258,9.59242075272697,37.98068922857362,-35.860831663244504,-13.164740788330164,-11.95835625530396,0
697.0,1.936266,-16.205794026597165,-12.887513425127183,12.082697557042405,14.501433857125631,5.18832863785901,30.63310997863576,0
703.0,1.952934,-1.4631348696486293,38.19594561884863,-18.847142307102043,28.1919220306899,9.485211694251529,23.40690137702892,0
709.0,1.969602,4.327591007812158,-18.30512326639464,17.7492475292633,16.05419625698135,-7.393993428634337,14.164785018720856,0
715.0,1.98627,14.11484949177352,0.3139769255891507,-42.71064223496168,-8.465435216581858,-28.91595032971281,-5.727540323061191,0
721.0,2.002938,-60.953214430536846,-16.55312456846592,-2.916654775444897,-15.769456971990303,3.332868566575294,-2.987131543453036,0
727.0,2.019606,41.80976505837064,42.21194115205783,58.7431362195601,-14.594950933635047,-28.83846399627675,10.062381476413089,0
733.0,2.036274,1.47165240853127,8.93655105532841,5.191472726410078,20.91837351604039,14.64103685774975,-16.42900128037996,0
739.0,2.0529420000000003,21.620499255279054,2.44870541603488,-22.314754901875588,-3.831778168819753,-6.908594402510277,25.747711686097706,0
745.0,2.06961,-26.49580246111057,23.191964481007293,60.12189220685889,-44.09954545906817,9.218793328931026,-42.61516533565493,0
751.0,2.086278,-18.08744446923265,5.57158311603298,39.54519166291112,82.19982885958865,-4.8471650720910375,45.60528914203301,0
757.0,2.102946,-10.511117537768556,-3.210526000010435,-5.110605877509745,32.16379601893914,-41.70806721615975,52.79549733857205,0
763.0,2.119614,10.647160108087482,4.412142742197098,14.1219852149094,3.540411886958694,50.826012296082695,-17.766017698500335,0
769.0,2.136282,-8.176017778605207,2.6644892844064705,9.136538294524415,5.9727263059924,-22.21244743645011,-1.1333391518456593,0
775.0,2.15295,-40.42809528567743,15.087412961396854,1.2425242895920796,-5.627636765135083,-25.228315322326228,6.672663459032496,0
781.0,2.1696180000000003,67.4949802179069,23.46929938571074,20.57034746918427,14.7940188472303,25.29620407954869,9.654466965913189,0
787.0,2.186286,-15.009349389310492,-13.04539800265074,18.505714772763348,-39.33741664901744,-16.37750797266963,-3.1929293790325683,0
793.0,2.202954,59.90517911012989,17.863670321240072,-51.29793304867359,50.77006368623167,20.04957249324353,-27.565058677823988,0
799.0,2.219622,-25.185920500408017,16.04695125797818,10.759480396490895,23.48390673105079,18.47525956785533,-6.503948995211317,0
805.0,2.23629,-18.503102217859592,23.69456255058883,-5.049685778137441,10.598389183555188,-11.948847610113148,8.095360593161924,0
811.0,2.252958,47.00691221611679,-32.84255612882268,-7.221158372732262,-7.048375763170263,15.856098192074276,15.259042253279455,0
817.0,2.269626,-26.75030071584512,17.338210504827575,-4.860667690509921,17.857804780648394,-9.037769491044632,-5.840548282445333,0
823.0,2.2862940000000003,138.81744641307205,-26.395720279857297,30.87536238902136,-2.340926505797203,8.757731277149258,-5.36891598282889,0
829.0,2.302962,-13.414532945787585,3.422839855958701,8.153930124500613,8.398999201537794,19.9357791415553,-1.8663810849491136,0
835.0,2.31963,47.38005458704208,46.73083828265688,26.921879576959377,1.660242081897572,-18.49051095301307,11.829059372103034,0
841.0,2.336298,-27.819599824166737,-27.84624067785004,-28.51625490315312,36.71410387096787,10.50089070656319,-8.743016439157653,0
847.0,2.352966,-11.247479895234136,-14.2502927681575,-4.913879241578517,-7.983607342586632,11.213848551714817,2.1694520643031936,0
853.0,2.369634,10.074455454238734,-22.41029153453458,-26.07856938963292,1.256799515815315,-29.28389724931585,0.264487611961405,0
859.0,2.386302,76.54998101685845,45.27683718695303,50.27085395288687,33.98271406476519,-9.76231270347524,-7.839252732179478,0
865.0,2.4029700000000003,-89.06366120016904,-50.78162263353556,-6.833288497952264,-7.7750237916718,13.9765034936644,9.10607183711203,0
871.0,2.419638,-4.883849971243203,16.901535827676874,-1.809088537468253,1.72334747660706,-16.048991412830443,6.934106797970189,0
877.0,2.436306,27.18164422679911,-3.2010065217196724,-14.341626949442984,11.329224055842552,47.50205587762295,-13.616089238093116,0
883.0,2.452974,-41.637430439199086,-24.27067612489597,-24.627767034351923,-6.164522993934097,-16.986988000603475,0.3431575552556135,0
889.0,2.469642,-7.972901757968362,-14.86610689501506,-4.141494191901277,6.488418966548008,5.24549347450249,-7.113748357487477,0
895.0,2.48631,-1.4373444620988955,3.380889802846156,-71.22772002212884,-11.00870179194214,11.176709127263354,-23.532978513516547,0
901.0,2.502978,22.57529639377462,9.148281032079376,59.8144395244654,-8.292972389116096,39.336171785492446,-4.820044845345737,0
907.0,2.5196460000000003,-25.536877920159395,-21.21342824448332,-6.195889539987181,-1.96629012973912,-9.551655757548913,-15.3206597037772,0
913.0,2.536314,7.685566114888791,-10.29184349735326,-2.042010999395799,-8.02109201755,4.859944735801777,-20.659200943092063,0
919.0,2.552982,20.610550079485044,5.994814752185077,6.970008502504641,7.152647070675908,6.898489617400311,22.169225857352423,0
925.0,2.56965,-24.328453676169687,-1.803716538656499,-2.973836518881654,-1.6604812415618455,17.800408952838875,-11.834239543664792,0
931.0,2.586318,4.504138025092716,5.112973341396721,12.664993594743624,6.567716010134458,12.592691572798966,-23.835471647665813,0
937.0,2.602986,10.862485021416292,-15.378182162802982,-15.378200603562563,-11.665371924178457,-18.56118838074968,37.58468768459255,0
943.0,2.619654,-3.604016965323397,-4.036966012035842,-1.4577448757362053,8.308745767061517,10.07045345760317,-0.8756314490592436,0
949.0,2.6363220000000003,-0.9084778244564728,4.63333894569984,8.073163823049157,-0.1748320084765015,4.05624083463014,1.339684865232193,0
955.0,2.65299,-7.724956863935179,7.043854687094499,-5.783072482726637,0.6919888162432111,4.721806047382021,-1.864663768536893,0
961.0,2.669658,29.362415397296644,-9.869857839992465,-5.600979441881803,-3.5312658319538244,-19.764521733231817,8.384495353090282,0
967.0,2.686326,-15.769570632529769,-4.870043751355666,-19.812626211541133,5.811159432855771,-12.684841349060662,-2.8429735128359823,0
973.0,2.702994,27.37368784952093,-74.70949204909212,-18.26583415390271,15.534450768408425,-18.29266697789063,11.912269759000084,0
979.0,2.719662,-17.124864220492178,35.73451253859077,33.7112237578481,-2.41917555701608,3.755612716754501,7.772597308748381,0
985.0,2.73633,49.67950747293906,-18.47610993107388,-2.6552860602520325,-1.9789879246956312,25.346109268706115,-8.446207657438503,0
991.0,2.7529980000000003,-22.611119802178592,10.84305535485164,13.629857910085647,11.457413950698466,-8.531308078792673,4.27309196392267,0
997.0,2.769666,34.019419460389244,12.526652400542282,19.689707217926344,-0.2717055944461317,-5.129201396397538,8.534008842524958,0
1003.0,2.786334,-22.711288248102107,23.50569022032624,19.60169139245296,20.98270416529449,-19.380397499637628,3.2546605966913127,0
1009.0,2.803002,16.884513860425823,20.920598377335427,42.851743736261206,-10.022224378652686,28.44211231085816,-4.714894298208794,0
1015.0,2.81967,-21.26078924710125,-0.4834037983272821,-30.48585721873186,3.709025113133701,14.995088905355711,-4.6444565773289455,0
1021.0,2.836338,8.062168191650526,-8.978803878899717,-19.15543682523649,12.26209469838324,-15.201963338960017,9.909126566212358,0
1027.0,2.853006,-3.1685069241862727,5.15113587777466,37.2112840854816,6.687732009212352,-0.8845431797245338,5.78909458659963,0
1033.0,2.8696740000000003,10.231883231198694,-6.770288579744356,36.61509966694628,2.9317948346718943,0.433101077065305,6.373892477775198,0
1039.0,2.886342,-44.261663718206734,-36.13301659333243,-62.92541474702517,-9.680578312203558,14.020129453860214,5.416748469573909,0
1045.0,2.90301,-102.31860377907178,-95.7815829879326,32.825421799074824,4.074334877624676,-14.532044839302248,1.6426812653564848,0
1051.0,2.919678,-34.15568451933257,69.95523999902412,-40.25085200476139,10.282935530565467,45.81991982997387,-3.4769177851986948,0
1057.0,2.936346,52.887325408399455,2.282025796956976,34.91947066375582,-0.9148701113210264,-0.9616308547156098,-8.311784395061709,0
1063.0,2.953014,16.253114929860786,-8.918654158247847,5.801741321555934,-13.162693060788875,-14.40465227796502,4.320940314458357,0
1069.0,2.969682,-10.93768719673682,15.943255602320678,-6.533089795830422,7.040954377581303,19.61591066017521,-1.1584302330919714,0
1075.0,2.9863500000000003,-21.50840183723829,-4.045530324115847,8.25784102224901,10.118759203025016,17.739976850444858,-23.97786715445793,0
1081.0,3.003018,-35.25426329871824,6.92075249591619,4.1200346128533525,-14.088608941384647,-16.1204769398093,11.342515442859886,0
1087.0,3.019686,-18.933961806233352,23.6185690762537,4.892399445857068,-12.13252170169249,-18.447780076360907,-15.474027512858823,0
1093.0,3.036354,38.39043068901475,-20.00440543058936,-7.2933731554413,-3.418109899154385,5.949028892490255,22.93098007567085,0
1099.0,3.053022,-75.44308896978293,-31.59775708110873,-42.314762296655566,-6.363333899701591,-4.231664978783793,-4.199229895446797,0
1105.0,3.06969,-28.94032819927077,-30.46587309308125,7.994858697038657,-2.811205226688056,-6.131620041127832,-11.086279761480872,0
1111.0,3.086358,-34.694961749450215,23.867225593358373,-4.8033469955926975,2.661788458960727,17.86549802209316,-22.213863996366847,0
1117.0,3.1030260000000003,-33.54974849685598,-44.89094288382382,8.62765890866524,8.530115297464718,-15.054385069597092,23.03724304531553,0
1123.0,3.119694,-82.14015993005775,-70.59703887930903,-34.650407386747965,-11.595544314127636,1.6437395400685553,10.428445043197756,0
1129.0,3.136362,24.975924680759285,36.65249864463047,19.81178046404303,-5.9589539130294105,3.3837574534109365,9.404666678873472,0
1135.0,3.15303,2.852348777816895,16.438469843725457,-7.830535135947166,17.082438971916574,23.781872525959333,-11.599075823150454,0
1141.0,3.169698,6.00721285302482,-13.225053829467328,-35.52759745207892,-3.922377120288013,-20.69354273206241,15.664820517463808,0
1147.0,3.186366,-18.64829034083301,-37.929713588297474,22.120064092831427,0.4480758232968771,-24.773611598457265,14.83197532463052,0
1153.0,3.203034,-11.935502708242428,9.65491051956117,-6.757163506405734,-3.436783167830449,18.78241470961551,-17.98450323825431,0
1159.0,3.2197020000000003,11.829473437269858,14.711780511449264,2.811170941029715,4.272512179180289,-7.448337736811257,4.26915913417837,0
1165.0,3.23637,-22.3788652556739,-12.023215161148173,-11.259640120234202,2.6318943670522947,3.5785417939009254,-3.196994540565868,0
1171.0,3.253038,11.19729752769018,-19.103045977247227,-1.1060540506756311,6.970591660944988,-21.34370949160161,9.77615126096932,0
1177.0,3.269706,-4.658867138873388,1.3869154344216117,-1.571870686426042,-4.8173051941794025,-27.11904989420978,15.25311591948502,0
1183.0,3.286374,-12.93777848876328,-6.306403155515799,-10.793370203629236,-6.529881313275632,-15.164900414883393,16.06565315653753,0
1189.0,3.303042,-35.906176457116864,-14.641864379761197,-17.7984133650751,-3.641275312489672,-95.83426449047695,33.48441494591783,0
1195.0,3.31971,81.16888455856379,-62.149922410944086,-18.50566246702948,43.62550647955552,46.337786398198375,31.815377182968096,0
1201.0,3.3363780000000003,-20.81429754153612,26.29239873103869,-5.577075379810947,-41.28633963075843,-11.751880324622672,-17.37630171192907,0
1207.0,3.353046,-5.656070511171796,-0.6034332126415434,-8.234928952965223,-1.428821323682353,9.333602534701363,31.25580362441949,0
1213.0,3.369714,9.039501991861613,13.372707739841315,11.790676590313517,50.62588893864219,24.17942300953503,-16.747763058103633,0
1219.0,3.386382,22.24955851417068,3.197017299472149,9.59242138207803,-36.2102223567842,-44.55321128544277,67.62765126160886,0
1225.0,3.40305,-8.49317131202817,19.444855037143792,8.14621802847395,1.5410643628698848,44.01348393937898,-73.98143401548708,0
1231.0,3.419718,-50.832553484745546,-7.809513097970136,-1.0567377411014425,-26.447362163956264,12.084450153835212,-10.963778648927024,0
1237.0,3.436386,17.92872858075342,8.877747600556978,-1.6658127286540845,28.504832562322616,21.748772322441667,-27.5846036448178,0
1243.0,3.4530540000000003,5.834190368068072,8.547021836256285,-10.094968464763674,4.142513002492136,9.58485524805054,-15.02558684422375,0
1249.0,3.469722,29.17843104311702,-44.0334454083717,-20.951829212882707,-36.663926415442106,-32.30243773682172,4.679837694958343,0
1255.0,3.48639,-50.21758378705767,8.78912063772138,8.707335712493332,-19.365288545396744,5.696995270706268,-15.610957449772926,0
1261.0,3.503058,-56.315173343120925,22.401642686317924,-4.791600118332723,14.695559265297216,50.643174844332805,-1.1908510499297345,0
1267.0,3.519726,19.670209148507364,24.030007710822865,19.13532288834956,23.548321885125475,2.530092527195439,-12.497637305653983,0
1273.0,3.536394,1.880650958302533,-12.63621967426214,-9.232570747369504,-3.076909578864269,-9.685025010774693,9.68159715171689,0
1279.0,3.553062,-63.914856942649465,84.73564105703869,70.06646006410205,6.234934145513257,23.7223966265726,-1.17611450753573,0
1285.0,3.5697300000000003,6.649070872682478,-20.585236125843608,-14.551836968216271,5.555418058390834,-2.069346923762748,-24.963715275075963,0
1291.0,3.586398,-45.1267774535534,44.027070600577815,-5.116294588279292,4.690028439251829,23.16995319505825,-17.846152086764967,0
1297.0,3.603066,7.592815012857685,-13.825931514815794,-5.115989716789205,-19.49333253483745,1.580710115216224,9.024543793834331,0
1303.0,3.619734,-25.271209116580128,-0.4995315461270369,30.87970154370185,2.643978209814925,8.707661494028137,-3.641514294570652,0
1309.0,3.636402,34.03029434963467,-6.0886879598760295,19.829332811591563,-19.278450694991072,0.9934967733215192,9.89121010929154,0
1315.0,3.65307,-33.50900429153029,-8.634459763361868,-45.04961648444049,25.46847300246667,1.4519226112704486,-4.886407981390992,0
1321.0,3.669738,9.601117773689197,-19.009007520957624,68.77207514657934,-24.272445547980634,-30.499840315880228,18.98078814409038,0
1327.0,3.686406,28.637418457360905,-1.5380898485464458,-33.744443199778985,33.783983613674216,26.993706576634164,29.46071091655692,0
1333.0,3.703074,15.693957146409218,21.545672769316795,-6.994384886040558,-41.622779673829626,-8.3668126517726,4.084852377690591,0
1339.0,3.719742,-0.2200633794542774,-2.716866887319989,2.42990498754032,8.940331705934554,-10.79355089072361,2.9315809595421274,0
1345.0,3.73641,28.00475784915044,0.050307853926748,-23.550551341833803,8.866464122917282,-2.7371895990798656,25.75664036968057,0
1351.0,3.753078,35.37154754330672,-35.0525588695169,-2.502325813404247,-14.936526261295796,-20.26617785273867,-9.469980413152678,0
1357.0,3.769746,-7.876471204630448,3.052080044546009,11.355422850819537,14.414954307820228,13.202771313501572,17.172760916482893,0
1363.0,3.786414,25.70229874759893,-12.043337995926596,-39.63294710536358,8.249481129232692,-35.34788200418736,29.89237281740524,0
1369.0,3.803082,17.558044005753572,-12.593824110572834,2.013690444154945,10.664515709929818,-8.174126370329997,5.387613363134729,0
1375.0,3.81975,35.40220910093224,2.828471856625568,9.254739547022012,76.65935609569016,-16.797983536505722,71.63662690480687,0
1381.0,3.836418,11.385987023562867,2.080994440152637,-18.58744643940252,-39.59498703562616,28.148040604205228,-32.94209755375813,0
1387.0,3.853086,92.5014337002389,-78.36446590053032,-35.067476189222695,22.63254853876051,-6.824823894667802,18.447403030826543,0
1393.0,3.869754,-13.80084275628026,-5.389295405546108,-26.48347145085534,60.3510419537113,-63.66957404502669,106.12845601199037,0
1399.0,3.886422,48.04483370677142,-11.835968542454468,8.149599964647493,21.38699680005149,-10.418747974668664,42.38461648997128,0
1405.0,3.90309,-15.323733309039696,13.621381778165762,-59.57526419194578,47.06704453520875,-33.39291914441783,65.79394320500685,0
1411.0,3.919758,85.6170713222231,-162.74366661536644,-183.95899513810585,3.712916787775171,9.970339743349786,67.27016415578333,0
1417.0,3.936426,124.96281289783197,-40.74861911475076,-33.20953644624842,111.40896828850995,-115.34567085356632,227.6267604385671,0
1423.0,3.953094,-34.16315749046696,15.2540937261302,-85.44411330461323,33.192552799131846,-85.01257240063666,60.86692210336777,0
1429.0,3.969762,134.08408879831472,-112.54964492564228,-93.61857259382818,30.03911351928576,30.018278297666026,158.28775188013395,0
1435.0,3.98643,76.47733182394265,0.3913533483320339,-140.05859359935258,-3.8232945079891767,-28.0511735703615,207.3070161181983,0
1441.0,4.0030980000000005,433.7207902952304,-46.58480861716117,-157.9657828148633,168.42878436363134,34.11521626101867,172.22249923809062,0
1447.0,4.019766,53.41137010414877,-84.14216768465056,-252.92484900504823,115.69035484896747,-31.235392822508267,164.12402758014707,0
1453.0,4.036434,23.125897717051952,46.96188157087447,-40.83437565457636,7.708511964994948,-58.60628685646021,194.96981353960547,0
1459.0,4.053102,61.07230116483309,-210.8973504735584,-290.0732203516434,124.33959338528098,-95.07107052809305,264.3810345766632,0
1465.0,4.06977,190.07769492208564,116.21430716491793,18.15884471095826,-27.271585213502167,19.989273926316024,134.2087767038435,0
1471.0,4.086438,88.13235747361105,-32.325766181518624,-214.88894055290672,117.30458497868844,-57.44273149046637,182.80463056556772,0
1477.0,4.103106,-9.413983780058729,7.423547382602251,-131.6380028883243,92.84036307107458,-16.09589355481924,52.72530619613612,0
1483.0,4.1197740000000005,123.54074551534444,118.4371451778273,9.527489824530493,-1.0260932917407055,-55.91059949580008,208.5412747451608,0
1489.0,4.136442,345.8692063351823,-57.76904528107024,8.653480138352478,43.858983546145744,-33.746252939030896,121.05876125497,0
1495.0,4.15311,-343.53822603396986,-113.74218398086973,-261.6659796036921,143.93334990346844,107.59919791504734,141.64059680542897,0
1501.0,4.169778,143.89484896253802,-9.157619693326543,-63.41985357905175,-29.30190893191876,-74.53685232969598,11.966440494055137,0
1507.0,4.186446,189.21540461010645,139.3513073363342,1.3460540380632864,-74.14889119624048,103.0861577494781,111.52181433576624,0
1513.0,4.203114,36.545273215377335,51.17685265736712,-114.80133242092644,3.66152115339112,-22.20853464280387,74.22696997358676,0
1519.0,4.219782,-182.08736481086817,-169.90601409488522,-64.00685855013232,-9.896721805004583,-9.492925578801788,16.132239891628295,0
1525.0,4.2364500000000005,-157.62836485817115,169.71965841546822,-334.73631997378993,-10.090404094023311,269.79939635716033,48.075573695424254,0
1531.0,4.253118,-124.0935456124691,-208.51407226029988,215.829476766684,-46.93182217587526,-186.68588477446585,-41.1590893670775,0
1537.0,4.269786,4.485391048563855,66.35298875091604,-17.35908394123887,78.48904442713277,54.59651158062209,27.39378194268188,0
1543.0,4.286454,-182.54192770744964,-219.7418350499169,-166.17945179832975,-14.10785631024779,-158.02857790697902,100.0647842584543,0
1549.0,4.303122,28.70181388753242,129.69737186766747,-45.01206600693799,-79.9320163711661,242.6741447621672,-13.711972454939923,0
1555.0,4.31979,8.286318458603976,235.11676087849887,-135.91872753351555,-130.16949593425477,-117.77570948554585,92.18074389797373,0
1561.0,4.336458,-233.4521719274747,-314.5795085103411,159.73326453095632,-37.20296024881816,115.77548672582157,-81.83581505607161,0
1567.0,4.3531260000000005,-74.80049520637564,130.5648593155043,-129.00134130393715,-12.329571283370145,-13.758520867577872,84.72800364063593,0
1573.0,4.369794,-24.01567904120012,-37.714010449619074,-192.22105355600115,-208.06551964860188,-26.733838437180527,27.20767902159389,0
1579.0,4.386462,-60.1154926853783,1.6519464852687031,-190.81384221123807,-71.15673413843018,-72.389056548214,52.90011088170502,0
1585.0,4.40313,-43.52156333888314,67.83278187207176,-88.25554936715308,-46.26921105587287,-43.81400524056628,18.774213619621325,0
1591.0,4.419798,43.69756136085938,106.2133325934944,-45.59923874525456,-168.46898663660355,77.91957538922537,-24.8682244472954,0
1597.0,4.436466,-173.23663036665212,8.862352190414676,-87.77736331472359,-30.66686158011926,-214.84356693593008,154.18086445085305,0
1603.0,4.453134,70.7138353483244,121.5090271531842,25.730989844380304,1.252161132468192,152.41688796286877,-62.51676070068302,0
1609.0,4.4698020000000005,215.89540130079112,1.5864973636685704,-14.92426214670968,-124.57544505857872,-60.90632583687043,-126.08821624714332,0
1615.0,4.48647,-155.39604601299538,-34.20211341578661,48.39808074219566,-35.1333711890977,-101.33481081327466,33.85670790060025,0
1621.0,4.503138,-50.0051018772968,69.87104936458579,17.40505382972436,-6.755752049082513,-116.52829767426752,10.834954291484436,0
1627.0,4.519806,-175.40324235981407,57.23157419764923,-88.8993846208294,-6.569023374257654,67.76514120970728,-141.86025347366262,0
1633.0,4.536474,-83.86917787680542,24.709982623449832,76.56314780755221,-8.200587239971107,-98.78915468220492,34.122696349834115,0
1639.0,4.553142,22.30909165952002,-57.79763668801201,57.87984000125914,-56.245591622169215,-29.67191325312793,-42.74887623719755,0
1645.0,4.56981,110.0545944483412,108.88709186823722,-2.840573573011973,51.16748913016127,19.102916956747904,-50.60999160219819,0
1651.0,4.5864780000000005,-217.6015840741936,11.511062301527222,-9.135754466980796,-35.8636871576351,-40.212054836893415,-159.58924301752353,0
1657.0,4.603146,-54.37071554636513,85.67840587583106,66.82655089156444,-4.563431741689907,144.32857740531284,-86.57748578807802,0
1663.0,4.619814,-91.44161213009752,-77.16558069770474,62.408388127193405,-20.24221120995547,125.05876131103165,-215.01955959077185,0
1669.0,4.636482,-16.782547768696894,-113.88901785477717,-42.19536903161981,-97.27674759596536,-69.28424659760967,150.51447088975146,0
1675.0,4.65315,36.50308207860569,62.95162713849668,141.97516486239402,68.76971626512237,135.7626210945613,-35.17012025532031,0
1681.0,4.669818,-60.94089335278759,-8.993410024853212,-37.97651491998212,-119.88822480455832,8.701904647496711,-216.8509512703447,0
1687.0,4.686486,113.96299881098612,227.164231780778,207.1909844578876,18.56526728567161,74.83036649771239,-181.70876547875025,0
1693.0,4.7031540000000005,26.18202235235644,-250.234947520596,66.93100795215528,-110.33658288104122,-85.03474604794727,-144.2906713661709,0
1699.0,4.719822,-215.75001134634607,-265.78546076047667,-29.993871425808635,-93.28436276745934,51.05980327429766,-129.88792138112672,0
1705.0,4.73649,150.19033327814407,235.06902199199092,168.6314226789201,55.47510176102864,-117.08899653984122,-266.28788813066035,0
1711.0,4.753158,54.71611104135731,33.51568709760323,96.2226977780069,-94.34158391989138,124.41846818797347,-236.31524057955627,0
1717.0,4.769826,-386.4672783218765,-259.4974483423606,147.9494188659196,-60.76397887324804,42.00684889463662,-125.49660520082102,0
1723.0,4.786494,-93.00161764695451,203.3801876222524,221.3177219402984,59.16487754719293,26.792318881356167,-74.74575078017756,0
1729.0,4.803162,137.20044705120097,150.96004641607524,220.36626884738328,-50.77483422106458,-171.67105209109317,-84.39688407102375,0
1735.0,4.8198300000000005,-253.0653506162932,14.428927964727023,74.3868884422091,27.05658185839887,123.92963299991214,-261.4551318924697,0
1741.0,4.836498,-114.79342927951096,159.7781018828747,237.6119841782348,-36.96922393980173,-112.33195805282948,-176.54767655485338,0
1747.0,4.853166,-13.848734109091737,69.47687474860795,237.9447322286701,110.47268383859782,39.83216537031141,-194.5736304408503,0
1753.0,4.869834,2.398687304041598,-2.367092318399457,133.83454209259756,-22.795775930474235,29.314531260158123,-17.035939651279634,0
1759.0,4.886502,-228.0348888677757,363.6743642266552,203.29516047575584,-90.879683269326,-88.27843977793846,-164.7855981809605,0
1765.0,4.90317,-98.0293318855919,-102.15459752832936,35.34748341623495,-40.72911388197329,129.05477311475542,-187.64992247567807,0
1771.0,4.919838,-99.85531715163884,-79.50815120707396,261.7377958511736,80.82089428467087,-130.90945962328644,48.354982041940616,0
1777.0,4.9365060000000005,19.835107464409635,-180.72080464745537,-29.444158656838816,17.43101816392813,-28.60660458903265,-173.73731661647574,0
1783.0,4.953174,-140.93010925960232,161.8481165140331,88.0864843845909,-119.41502607192288,-44.73926225305826,29.405788137263627,0
1789.0,4.969842,-114.76160987605068,22.71091226690664,220.64031197653435,171.70666905319067,225.92770202999017,-235.66866929931467,0
1795.0,4.98651,-58.40388039966318,40.71629722763653,187.3916122617576,64.87375756070035,-117.516000374424,-88.4396478285639,0
1801.0,5.003178,0.7300482428442692,-80.82681298473166,60.28693855479927,-47.73293918538783,3.254294003721901,-73.88834694089627,0
1807.0,5.019846,-74.86143071809938,-46.70441758487812,149.85442112633132,86.83664356788458,53.93053950362639,-41.9904700016732,0
1813.0,5.036514,-69.01322269303957,36.821395009973415,98.19468884332508,-56.41695319893247,-1.4442215103164742,-79.2023996862872,0
1819.0,5.0531820000000005,-125.00586423177442,26.28160344161389,33.73806634985245,40.04451968357881,-61.27036225998073,-77.50832949675191,0
1825.0,5.06985,63.61245091460927,-6.936484259901185,96.3626254635851,64.53417495426027,1.184074102540917,-79.17803492038182,0
1831.0,5.086518,17.311102855393358,-78.72868338731561,-15.82267537372715,-21.68242243371911,-53.61212292192463,-22.190775644037192,0
1837.0,5.103186,-70.32978899647708,-39.06256086898443,-20.521952420330685,-7.391638241077732,-101.43227218405671,96.57884141932584,0
1843.0,5.119854,27.270170385662816,166.83912417246336,181.09937834042324,34.332267417863406,154.58652130526212,-272.71551193066097,0
1849.0,5.136522,15.637137825903274,-158.84528348479728,-37.74216785789876,102.52995296056824,28.05170147736787,151.88819601754764,0
1855.0,5.15319,7.233074588361054,137.02843857600806,73.4355579992256,-27.55468293504728,75.17681956783404,-97.0829724380584,0
1861.0,5.1698580000000005,-212.86220582373167,-7.925981478413576,77.15544133598775,19.65659099257332,59.30215396141429,16.415791907776747,0
1867.0,5.186526,118.1744848255644,19.56895765376188,-132.14319889676676,95.06499824759754,101.16242915968635,4.5776467217186685,0
1873.0,5.203194,-63.48416856150676,60.47635076250433,29.53884445750085,45.55123170722118,48.504867981901405,14.540095505033952,0
1879.0,5.219862,-29.98159310448824,53.43617911282492,195.5617669315962,2.1798997890026963,130.17020202851086,8.982934547148588,0
1885.0,5.23653,220.23630066812672,-13.410164383720907,-93.9657586623474,-34.44669815506083,11.929894477989992,100.84857964965728,0
1891.0,5.253198,20.53604112352803,23.291534616566807,195.5837519734165,-71.97165558216922,135.94859093008978,-116.27218339921168,0
1897.0,5.269866,152.92950897937027,-70.74254316673118,56.796272826044095,109.350656298426,88.43083442788654,163.4779010125485,0
1903.0,5.2865340000000005,90.53620816405903,14.608456154592808,68.10098080484963,-60.23832153976397,0.3601473233954806,4.4114902105857965,0
1909.0,5.303202,80.95001527230617,-133.71310793035124,-39.35904686578724,-9.968460434982283,96.75797719695404,-8.86284767997898,0
1915.0,5.31987,173.00258664726067,-40.82742976455061,79.79024201633518,-14.210296695966214,-62.689575770924,116.10644440765664,0
1921.0,5.336538,81.38108662865085,106.9052433783994,139.72966919774956,-64.4606101681774,-32.80801140861432,18.96709402588025,0
1927.0,5.353206,233.04627886238745,-46.95735265852405,-22.32919818691071,139.30213866704474,45.06968678041633,51.932795545352334,0
1933.0,5.369874,97.41737002553324,-104.20658890997991,132.82701108249117,-73.48540680784873,-88.07172069335806,55.56366857579406,0
1939.0,5.386542,-8.102492863334092,115.84440663348448,90.87044480444638,52.95424099940003,-55.77769485790195,87.57109074262786,0
1945.0,5.4032100000000005,-62.011343321787336,-28.542738495011044,253.1202188487132,0.0312852376937673,-59.10400499973816,67.08666954571663,0
1951.0,5.419878,262.06559189435603,196.6515108890428,-58.64517099747604,48.48109613440935,-40.976011130470894,67.21674146214494,0
1957.0,5.436546,162.74451924308735,-107.59755531311812,33.35583982832592,8.123435009875193,-6.562770977432686,144.3828532133797,0
1963.0,5.453214,-25.90800224491702,190.2766044848016,103.2763106930005,-13.612831609940546,-52.82017517835688,63.433491953518846,0
1969.0,5.469882,10.886200786728551,224.5201554150755,468.9095514783841,5.501237889008355,-87.15418322585444,298.13935026769417,0
1975.0,5.48655,336.7090177893598,-56.137881023727445,-539.2361592550079,-39.0225746095718,-7.367612634304741,46.94678564338433,0
1981.0,5.503218,49.314703391624384,136.31747480278415,-95.7063167867546,-54.64216049808894,4.075727820309972,115.09202201567192,0
1987.0,5.5198860000000005,-175.71304957635795,177.54918358066578,161.17443108281284,-4.585603365838338,33.47571835500482,177.71849454207057,0
1993.0,5.536554,-50.97657266701257,-90.41753188096,-104.59847781878392,64.2430655671354,162.96603877380016,65.32214096658957,0
1999.0,5.553222,145.74877572036854,152.37128068920626,158.10671187847987,-157.49942047250215,-191.15559565515008,52.39087245744055,0
2005.0,5.56989,-72.77183192503455,-47.923649432419495,254.09904846475703,71.35178487485477,96.34282560357974,109.11725475439648,0
2011.0,5.586558,-226.5454505292836,2.627997383572372,-19.36683583634248,-30.413620853487885,-32.59254329658185,227.5095479543335,0
2017.0,5.603226,71.98969670158175,83.24730020499163,12.345142689445922,205.52870531378704,0.866048432429924,-269.1984729837333,0
2023.0,5.619894,99.54435183769978,84.63012696555191,13.433012470602872,-20.68303643565531,138.97804066692612,-14.825380635455607,0
2029.0,5.6365620000000005,-379.0016883092891,-31.815460173422373,36.68706184381522,-38.8631206252256,-203.0371560665624,120.56156483013488,0
2035.0,5.65323,-119.80718262964972,93.31355206149853,-77.9086001287844,3.9767122965494366,44.50226294479157,72.15790847145715,0
2041.0,5.669898,9.99817284999864,-4.187343487209283,-211.84502906870296,17.935005544466087,43.60901770209823,-116.57810192551648,0
2047.0,5.686566,-89.36308725085588,48.22169609683044,-9.086912086826125,-7.546951744746797,-103.26082608381935,128.69991234564452,0
2053.0,5.703234,-27.031377142392373,-115.7167913155602,-37.86534288694166,100.3332305976167,40.07491321677155,-232.3298196181738,0
2059.0,5.719902,-192.2585084466447,-18.83431432851373,-105.40936151675884,-108.41531788549923,-37.66030838531479,-138.53893167660345,0
2065.0,5.73657,43.84043206514879,-75.21291512065,-92.7354272166662,14.935323535431806,-46.93986091047619,40.74483196535765,0
2071.0,5.7532380000000005,-50.211410314365736,4.661669335984563,-85.6603173482703,3.459624783115874,69.8130878044534,30.65963828420205,0
2077.0,5.769906,-7.567153466748003,32.07663633790462,-103.4332677711222,-10.622423190231514,60.12247904964743,-110.27107753398452,0
2083.0,5.786574,47.29643550279785,-51.27290634322048,46.99599680822784,56.37492667847478,-60.08034358885232,29.946661982923683,0
2089.0,5.803242,-145.21590315826364,-59.969934631838015,-127.00587991609058,-65.37447939869705,-37.3417772718858,-193.5906349324424,0
2095.0,5.81991,-7.411761353257763,4.925798938391068,-52.360434429322666,7.957608877353572,77.33820130953498,-74.71989943765637,0
2101.0,5.836578,-23.56366018135426,-63.65284743473201,-52.32125095483173,-16.142546331870868,-32.063292469128555,-122.00487928539364,0
2107.0,5.853246,187.3762948409519,100.26514957610684,-49.47069903215843,-3.8706692673100775,68.25626528126281,16.45692770181364,0
2113.0,5.8699140000000005,-166.251223017539,-96.26360767841264,-95.93733798696384,-7.815857032047365,-21.145923801795988,-7.750537994348623,0
2119.0,5.886582,34.994192120668274,-29.232805795656528,-96.56104494383123,83.55808337094228,6.725128210806842,-193.7953718093329,0
2125.0,5.90325,36.84334030462163,-36.95268886466904,-19.3361928433802,-44.86980557781902,-52.12932350061622,-0.4295345999369164,0
2131.0,5.919918,-65.03876021826437,-5.24658117736335,-73.99933686363119,-83.57454116239444,20.9482852907273,33.23053780547456,0
2137.0,5.936586,-33.38328705332552,-59.36345169292682,-68.74921300373325,-20.315234471334414,40.38198103756227,-47.76277117806084,0
2143.0,5.953254,4.191469482413076,67.2273911580522,-26.611435239106445,34.75024752360939,-19.27469988443674,-58.33690515383438,0
2149.0,5.969922,46.82645347978946,24.73016754083758,-17.617607786876807,-50.49648814424442,24.12696187020542,-17.41930420266913,0
2155.0,5.9865900000000005,32.16092001917929,71.73626463333395,-77.67575872216878,-22.50230064791515,44.22935984001885,-72.32052426786686,0
2161.0,6.003258,-30.244526523563053,-148.13515785717868,-4.102367158213204,-8.946686476525691,-97.23305400036874,12.66106642052525,0
2167.0,6.019926,-21.26922317061538,10.477916429576435,29.715508443927103,-0.5703825588824891,-14.362654737372909,-63.27918800860379,0
2173.0,6.036594,45.33153451544537,27.17886782771845,-48.56717410891001,-26.751719661726188,2.16508338194817,3.0333313263365977,0
2179.0,6.053262,44.33112429950004,-26.1337690735848,-39.15810631996284,-0.6402863598090973,11.92083518103586,-26.487593844265543,0
2185.0,6.06993,-104.12888952457044,26.076109342268303,4.637247687518197,-48.73768476335349,-18.747082133964334,-7.409081934935966,0
2191.0,6.086598,45.34327413114052,46.79548995552216,7.870476817126146,11.69913960119827,24.78514227140191,-10.26859656454054,0
2197.0,6.1032660000000005,-29.96665456743632,-3.183651942201868,33.293040219638684,-23.008311726827028,-26.72378794362335,-6.302762727774123,0
2203.0,6.119934,39.75743910957076,-42.18753595920267,-84.88338997199202,-15.119922092128048,-4.47305065763922,-1.1370760363832293,0
2209.0,6.136602,-16.70787596699638,13.912733265935,-0.981865009481222,-20.415539987563587,10.435313761771315,24.98616995446797,0
2215.0,6.15327,14.048679149311004,48.71906700456434,75.52098990603209,1.73707047015382,0.0115813297371794,-22.43889046907148,0
2221.0,6.169938,87.65662888364676,-27.51496485693066,-124.81772629032392,-5.11371665700764,-14.716815203744218,10.131021888694365,0
2227.0,6.186606,-101.44252969920645,41.172125727856056,92.1921362409948,2.5858526384053846,37.78809806862838,16.392854317755763,0
2233.0,6.203274,116.10309909911018,64.90965014889115,8.895460964188775,70.31926918266349,81.05767896841486,-60.14768474700233,0
2239.0,6.2199420000000005,-173.56615565404124,-139.40952569901813,-20.26294080448401,-22.26697717615816,-44.3141753326224,31.993468019312377,0
2245.0,6.23661,80.42237874831284,48.67995721354112,10.993601628648165,5.6858353586169805,-30.17672170354552,-17.330880141515923,0
2251.0,6.253278,-46.08202582605726,-29.197317168669457,108.3645156831158,-31.036875068142063,-5.117376378435056,61.612306230822185,0
2257.0,6.269946,-27.206898563138267,25.09263556485596,25.24329045820792,7.144048368417813,9.959557936334422,-27.772885015848647,0
2263.0,6.286614,4.120822012843619,49.39108682803625,72.81728706659159,-31.157717128894607,9.690569265401445,-32.49664242832509,0
2269.0,6.303282,-17.481299290273604,-11.119485938979036,-4.957937404919459,42.01275663126013,-1.4314516506945356,-74.84978758119661,0
2275.0,6.31995,12.2016817222279,-15.628373025839824,-1.9257940293898024,34.29489651492368,12.465666823705927,13.769293093950749,0
2281.0,6.3366180000000005,27.53365880832285,-35.30930625149167,20.27394350634644,1.5112660595635363,25.837016002111863,21.20334833811361,0
2287.0,6.353286,-38.5483722947889,0.3684614342071022,25.030896812674168,-10.76785233187586,-25.880520939677226,-40.043254263986825,0
2293.0,6.369954,29.42443232805931,91.51341651692148,-27.37296684990281,-27.65076600133585,30.094013800747124,-48.00373729583098,0
2299.0,6.386622,18.137709612250468,-72.41092892505733,57.52735873382437,9.89807558179308,-2.237814536031607,158.52976886676385,0
2305.0,6.40329,5.1543192472351365,25.17255911781531,34.991397198800684,-26.61152636980838,-3.925288196517197,-96.0430567933862,0
2311.0,6.419958,2.5945269031206326,116.46165435232106,-8.79648990537965,25.239483668614582,27.34586327501645,-4.567066964962148,0
2317.0,6.436626,-6.184958252787227,40.94708669197452,74.97556376622687,14.10260939717342,-19.98942856709015,3.720327214563127,0
2323.0,6.4532940000000005,-9.33348830972484,-12.710406774055826,-55.70283853796892,-33.160365017640125,2.254886870625187,-19.20151432108771,0
2329.0,6.469962,8.718908359889529,38.82153493714375,-27.98093020302161,-31.429331564699183,12.239273431474794,-47.83012451905318,0
2335.0,6.48663,-1.1527874237707314,-41.93536473648561,4.128881181435085,16.874654425100168,-72.23928002150728,21.65548665132449,0
2341.0,6.503298,-8.41736495606526,-30.521983655234504,-21.079058213548823,16.343652091520106,-36.48065253043677,-72.15149827812738,0
2347.0,6.519966,-54.11154731644483,88.93144802086333,66.90781152848328,-26.50178914874292,-6.717809924219168,-20.84311679877285,0
2353.0,6.536634,8.4523720253246,-34.995423580944966,-123.57161410386377,11.596829513002808,-11.47997838238711,14.101590226484472,0
2359.0,6.553302,16.140235308414148,35.243251034046104,-37.14443600567339,12.043013639724824,-30.470916477334114,-118.18576919955154,0
2365.0,6.5699700000000005,-16.036488379224906,-4.332500330040098,-61.66931059408529,-6.881498639449077,13.43335078863992,19.95311174075639,0
2371.0,6.586638,-43.36492053463044,-12.87196325212603,1.1074003483260242,-24.53796339456193,-75.23785938690358,-80.15715439497987,0
2377.0,6.603306,45.37419241072322,32.537529010706564,-26.251215779790947,19.180366265235385,9.329198196257988,-11.013196478789483,0
2383.0,6.619974,-134.66982783671284,-44.30387839769657,-28.18586216404728,-20.80010769898417,-86.99500712285263,8.583048770793164,0
2389.0,6.636642,-58.85458819140765,85.72627240321316,17.567103513482188,-57.38545074180591,101.39589885743533,-67.49673373848248,0
2395.0,6.65331,-14.34130847554339,74.94825434519535,22.218916640949395,79.01189493228748,29.549056557059306,18.41421114739842,0
2401.0,6.669978,-55.2756429401699,-178.04527501469994,-228.94315249387245,-200.90263602226275,-93.87151491337131,-245.4084347104376,0
2407.0,6.6866460000000005,-7.839795493825608,173.36262352089625,-124.611268217476,47.22521506369954,-5.800616381256795,97.88051236504506,0
2413.0,6.703314,-138.5498173607606,-165.25755566418198,-8.634164908020622,-1.887939535734376,-118.63539386557676,75.50679394935945,0
2419.0,6.719982,8.475534370360542,-98.41539526784256,-188.1642165680649,38.74490011754858,107.64864525355296,-22.276190680189657,0
2425.0,6.73665,-154.4864777786432,58.31823400346177,115.23419512374832,-57.64214350523315,-39.77327922956657,-79.52103951842629,0
2431.0,6.753318,7.706688245394886,-31.502781869531987,-253.7943955964226,-10.520667936644127,-199.13695804752635,-38.664457079113,0
2437.0,6.769986,-121.79693383118922,-53.92905274658793,-24.06840115748532,-32.91991141261004,50.25401064296031,-28.84164758875184,0
2443.0,6.786654,219.58146791601712,34.545446151129056,9.325932855168228,61.07706349311142,-139.36133802404083,-32.79049261874923,0
2449.0,6.8033220000000005,-267.4328455057796,-19.524580274993667,-179.56685691234404,-13.361782456935966,-0.985607126146462,46.39344594715165,0
2455.0,6.81999,-149.32419263203474,-103.4157932186177,16.687962163302934,-115.13102519195084,18.432381733517595,69.71884331730516,0
2461.0,6.836658,219.8732825340637,-76.46089535799882,3.024830999392073,20.66524942147361,-178.37089858704985,-15.185433421025309,0
2467.0,6.853326,-153.48993459496228,-91.93340904662205,26.461040788758105,90.22468679461356,40.85824497679596,-18.30123891714991,0
2473.0,6.869994,82.7618968066822,59.23108280990033,270.9306212847911,-74.41129118162027,213.96284373942603,-13.933619351848588,0
2479.0,6.886662,213.79148740072097,46.5795123152352,-44.81523885939572,124.76590860722192,-60.41153369537095,110.04884922876728,0
2485.0,6.90333,-92.81611204293908,75.07589807207312,129.69399357858248,23.51126746468828,230.6839240213948,-26.884106292119203,0
2491.0,6.9199980000000005,93.04915172304123,58.78871669213961,88.95337947622066,96.03047296297248,95.81730477125244,1.9629238904998871,0
2497.0,6.936666,21.808136296177548,-129.35012162601336,59.28899770856729,179.00178714007058,147.47966825479307,-38.40485284797077,0
2503.0,6.953334,-113.45939440613968,-70.0452116927933,118.27390196012844,-37.57427319446426,80.75569384198633,99.69070587551148,0
2509.0,6.970002,301.62362521342004,55.37718285650912,87.28042970332247,10.676122615585651,47.74701957507413,46.78672032690018,0
2515.0,6.98667,-130.80413500475595,-150.6482304047554,21.79996309704312,59.17318894561024,105.89085871597734,-18.04633018806177,0
2521.0,7.003338,136.34080743035906,-76.47283513580643,91.69907947928613,-34.77630265154974,-31.93589291272716,108.20279924041792,0
2527.0,7.020006,82.82750937106374,-12.304858574874151,81.47922797331739,36.20217297174112,178.13045732905783,87.46248354292813,0
2533.0,7.0366740000000005,17.459312765432664,-8.150263105275226,110.24318011030942,-48.373620652419845,52.2616186588255,29.49068231451642,0
2539.0,7.053342,112.06054909040316,-10.231901823436129,95.16165972753862,96.95149419110508,-26.73604278353448,131.7419955847803,0
2545.0,7.07001,124.04264644012363,-46.77204276944483,82.94575843157804,-32.349682440834314,44.03466820608889,-116.35270289512746,0
2551.0,7.086678,51.82705269120247,62.12781902750962,171.42842730337065,-49.624467761876176,38.46725892301016,195.40415549813304,0
2557.0,7.103346,190.27722372711807,-112.34411641805843,-48.16688414046193,73.78133184804722,-6.1580607354091095,-0.5527371522152495,0
2563.0,7.120014,158.96623148393888,209.46692664484425,326.7405938567989,47.73388851376731,51.23335700677293,100.63897774047588,0
2569.0,7.136682,186.98651000359487,145.06952719785727,189.3338617449985,118.50397238984029,106.12739871477476,-217.18482427417092,0
2575.0,7.1533500000000005,60.65098527136544,42.229495208317175,64.32874164036221,129.65820823113756,130.08510030147994,37.97953965584151,0
2581.0,7.170018000000001,300.5435344206416,468.1875708764549,342.080443049136,264.7616526964805,385.8419566718437,-388.6028400889094,0
2587.0,7.186686,19.76938701751416,324.1507365213756,361.05858094214375,396.5680395530513,527.3088652481175,-241.57475684158376,0
2593.0,7.203354,-9.268454532266873,451.6916112003216,381.9279102317368,254.66173374398096,352.42414200127786,-482.73200120865977,0
2599.0,7.220022,182.55039440189225,445.9512007192619,310.449223437586,391.4555918227898,334.6943075711848,-522.9393423753617,0
2605.0,7.23669,-104.46542326247966,378.814448097726,421.9676999620463,354.69572402163817,412.5175662848071,-487.8114259940564,0
2611.0,7.253358,3.163640284400202,544.0617726218652,390.3019659330907,323.4316991999702,400.18286807490335,-538.2826874237239,0
2617.0,7.270026,-100.86012386848982,565.3697288142239,551.3379426141757,236.8320482947505,476.16826152934175,-522.4649884422671,0
2623.0,7.286694000000001,96.82693932570696,559.2810937491056,295.4275335583773,78.35491561421281,453.0673636303935,-486.909560154365,0
2629.0,7.303362,-177.32248745459572,450.750502827348,-97.12113722186392,-28.77129155355557,391.06703156426505,-606.7152960749885,0
2635.0,7.32003,-112.27471879043571,413.4399850588597,315.2769029223184,-80.81565110841728,380.3701641757549,-263.0100364203398,0
2641.0,7.336698,-239.8037341070224,621.518885868524,524.3704493753243,-203.136081373059,251.6522006603176,-160.27586394318746,0
2647.0,7.353366,-352.97720329991427,325.0114663828064,370.2420465027232,-170.12916704102594,268.22273012526284,-304.56362299791266,0
2653.0,7.370034,-547.4936225953657,-38.04898778648866,313.67763731204144,-328.07216015701,4.363433530591109,-225.48019088893804,0
2659.0,7.386702,-239.8649095830065,91.2880939840809,41.26061447406976,-477.2315179760485,105.36837057486728,161.0756971054655,0
2665.0,7.403370000000001,-299.08255260718715,-249.58033382292496,-230.76686215394545,-308.961504637674,-1.0349086399443408,211.29865150655456,0
2671.0,7.420038,-554.0598396852112,-390.9949655980223,-52.06062826802434,-390.4132258877773,-407.529454099349,496.0325009981972,0
2677.0,7.436706,-185.9307999450272,-289.2179391518776,-336.65966173340644,-329.6278693228656,-60.82442924054746,172.67452059122743,0
2683.0,7.453374,-288.28592795445263,-538.336469931158,-356.2969327369693,-145.5591026739335,-517.4061688376305,682.972935716565,0
2689.0,7.470042,267.24631949607124,-566.3956342910229,-598.8356687185988,-209.76268548941812,-393.1121737690082,197.1011297343984,0
2695.0,7.48671,-50.08335252021023,-261.8179511393373,-367.48119971303214,-589.5978177862671,-410.74979995643696,-328.5210033973187,0
2701.0,7.503378,291.1499252153416,-480.370036646353,-616.3878103530924,491.87421452218246,-411.54708840269865,1203.0338621847484,0
2707.0,7.520046000000001,370.235191348094,-401.0027539352269,-507.5911771463196,82.10969891396499,-513.898855841827,588.7895047601892,0
2713.0,7.536714,244.67574669964424,-375.2633976667457,-421.7517353558733,207.28671458705665,-428.1740414185162,442.73038760076594,0
2719.0,7.553382,157.14097519219465,-440.8809753757388,-449.6614707660473,146.04810191513505,-424.3677946625645,537.7971406477149,0
2725.0,7.57005,222.9607060768692,-430.5329883256969,-389.7191056032308,125.44263759036326,-251.98020432374767,354.17864342325754,0
2731.0,7.586718,543.2961092534371,-405.6639475104216,-413.6001011936663,244.7606925858433,-326.0696329997779,375.2705064223839,0
2737.0,7.603386,301.66935873007805,-181.3159056219928,-289.6138966202805,31.50023566172781,-381.78555157190107,226.0311704907046,0
2743.0,7.620054,295.5381954753482,-384.2001663915271,-378.8461893154906,218.983057426017,-226.76218311550792,460.4101139162244,0
2749.0,7.636722000000001,253.90772519326,-81.28956914272274,-433.902519401712,186.37149402150965,-356.2000013885749,283.1483731482265,0
2755.0,7.65339,211.35243129407897,-113.23349623708644,-290.1577197567044,202.4688191357204,-319.06197323138645,364.9588805291672,0
2761.0,7.670058,224.14629945343492,-141.61635011913106,-413.3259461315288,306.07035815690506,-126.12067406669384,480.07217168840384,0
2767.0,7.686726,423.1403369489486,-164.2638519703179,-413.0411688090408,256.5967367018523,-94.20026996286953,379.7971465557362,0
2773.0,7.703394,295.31928216749105,-131.37926456900206,-592.7185240884098,213.59140715577848,-237.3013641266168,513.3672226947947,0
2779.0,7.720062,599.4019864272531,-45.80671928718058,-664.3958638988315,287.28026485175747,-33.909963093836126,606.6319449565399,0
2785.0,7.73673,594.4705260960778,-5.099003627527054,-898.3423008733414,300.1826690815394,-171.29083876280723,965.9618032436332,0
2791.0,7.753398000000001,1075.5444926174766,-114.17983897073093,-1231.5714250996698,477.74942287424426,-28.44788613757297,1169.2411382616829,0
2797.0,7.770066,903.2133454353228,-58.39211446701219,-1637.4806932941435,436.5261452825364,-139.89663110562344,1840.618563179872,0
2803.0,7.786734,1136.7627316455955,339.305053001387,-2419.8800457644934,324.3499391912813,-105.9075838616882,2482.983974665282,0
2809.0,7.803402,891.4094174638844,298.4510860666051,-2934.4251050920493,165.6005737279848,110.70818480953798,2685.596032503725,0
2815.0,7.82007,323.73294416016404,393.02383433324616,-3320.4668139916985,-542.5673270411954,337.4268320994907,3108.193233746261,0
2821.0,7.836738,-336.8820161487064,-721.1289673960443,-3534.0638785179835,-2022.009481743978,-441.6142721174322,2960.7836978308405,0
2827.0,7.853406,-2304.5119332068466,-1109.3739176819072,-2562.46368615778,-2583.027016590928,-568.853647174968,2392.871674668688,0
2833.0,7.870074000000001,-3440.81194045248,-1607.2800961635207,-1390.3173108592298,-3988.1936230366086,648.3561431735507,1750.1742038978136,0
2839.0,7.886742,-3547.052878252809,2444.840356028384,13779.274736165338,-1819.6643078354623,-2041.2294128891667,-16149.985695198167,0
2845.0,7.90341,-435.8861412268113,2860.165595315368,17665.277808189327,10464.036238933137,2530.291339559364,-12095.397695475143,0
2851.0,7.920078,-483.6323667980921,-4478.408005640029,-7183.179568890001,-6209.250567771422,-1832.1743716133897,3370.8995386916795,0
2857.0,7.936746,720.6173042463361,1375.3079413552025,209.63619253554515,754.1510439615879,1800.8795681812192,964.742991318004,0
2863.0,7.953414,-223.7448844571331,-1817.592410005768,1166.6727852309496,415.2093049940445,-141.80100709257786,-289.08820062954953,0
2869.0,7.970082,-350.00330865531464,-554.1780375777385,-315.719388701904,-46.66946359649999,-258.660153148188,244.9163370926404,0
2875.0,7.986750000000001,618.8852126933054,-551.5152916026872,368.399788372266,210.8952789777041,-1312.1843101788672,-828.1549380061435,0
2881.0,8.003418,82.97432735345012,399.5304437539575,615.4041841321148,307.9274294100826,155.50371313963336,247.5366447207008,0
2887.0,8.020086000000001,95.59654284497992,380.2286500465793,1080.6596794290783,-261.6310656465823,482.596074544348,268.2885508522703,0
2893.0,8.036754,-142.24302521104562,739.6593567589687,830.0315405130069,759.5832219730069,521.8116660822203,-3316.204893934633,0
2899.0,8.053422,-232.08343630129656,177.59233891389383,419.4149359480152,-374.992651880363,248.31494944405563,146.98170972230457,0
2905.0,8.07009,-435.97707570409193,203.88691809364764,311.02641720838227,-21.264130244572133,-35.218766598996524,-655.5541016632667,0
2911.0,8.086758,-424.9496850867012,-167.06445209632403,248.80137057138165,-243.7237120122423,-4.423018157008322,-517.9152896833809,0
2917.0,8.103426,-428.4228992631272,-476.03306172752826,196.2687561011782,-230.57956827394983,-189.7899511475257,38.79678466225914,0
2923.0,8.120094,-464.076163131808,-70.5784717136413,136.80905187377022,-77.10423789336778,180.3214721839415,-444.34281114297073,0
2929.0,8.136762000000001,-159.7515021916523,273.9849857535004,-527.2373578702995,-335.32081198888864,-72.50698960021126,-251.0493281437657,0
2935.0,8.15343,-355.6803123016732,-694.2325918291865,163.21380597295638,-136.59017688003982,-381.5722130594993,-115.06731610064904,0
2941.0,8.170098,-476.78255974759696,-290.0437242066678,-121.07524027583226,-133.49396845021772,-322.1368741655304,-163.0312413155756,0
2947.0,8.186766,163.26476359106294,-813.1590607492001,-832.5554140911388,-272.85563127735384,-363.42012151626966,126.30645594130796,0
2953.0,8.203434,-310.2226186622352,197.45195774404905,-47.58033181171267,-129.3059995101874,-139.69566949090927,145.25366164379705,0
2959.0,8.220102,-275.83051128306755,-264.80008576687794,-445.3926630524306,-175.29717960072267,-415.06429028680014,378.4492474065517,0
2965.0,8.23677,-139.3353615215088,-484.36794852753,-460.94775623469184,-251.1395048908052,-311.0765705251588,243.4104335374672,0
2971.0,8.253438000000001,399.3157721786373,42.084946425647615,-645.8473664164933,-225.6439179307976,-48.00214454695768,548.0997623791969,0
2977.0,8.270106,-241.52184650750763,12.847527029512213,-368.4349221043424,-265.305690714855,-30.5045917576486,429.7513344222553,0
2983.0,8.286774,350.1924984801216,-65.13584319888517,-533.4939259162634,-147.35983078939813,225.60839553002089,505.2276844161428,0
2989.0,8.303442,-1.3821092068513678,281.3588974543377,-431.6103816347872,7.962550179426955,265.22907570636846,351.966859103151,0
2995.0,8.32011,514.6264328215084,374.5281911671765,-334.36886350714553,154.67873309010645,505.32257498179735,370.56814675842975,0
3001.0,8.336778,294.284947517386,308.621102171576,-324.5580165852806,228.4281891338844,406.5151201917261,427.036742089493,0
3007.0,8.353446,371.4931998276055,226.6814520713396,-236.2716359229005,279.86689878224604,317.4402835786272,217.39670110341217,0
3013.0,8.370114000000001,435.81759927222856,697.8752186278102,-52.80573214034378,479.6701634236373,534.4913043499558,252.42786730616336,0
3019.0,8.386782,482.52570983806487,456.6634464553177,-172.920777249718,386.10959554258847,550.2010279326526,114.62811417817196,0
3025.0,8.40345,388.90496217333896,482.9803468144977,5.638418101408419,473.9303754457169,251.56849477886232,285.62115987096627,0
3031.0,8.420118,381.185928889649,366.2471812556339,-55.384206629731366,407.67257540119306,329.82265953427327,160.73366839027892,0
3037.0,8.436786,191.93987663675784,136.0722569213472,135.0178049639662,386.3227453122248,188.3519246961312,-79.55018142110772,0
3043.0,8.453454,484.2611946736243,437.6431596669539,31.23180224744772,368.1100419125133,151.35990174682726,283.3164968106061,0
3049.0,8.470122,140.77700627015815,242.32680753112123,224.2362072202732,424.4786309509414,382.37135189299215,-29.73201199815523,0
3055.0,8.486790000000001,375.433048896187,102.28924438191156,82.29154034810063,462.0394457692729,113.40751165661416,120.21365647483331,0
3061.0,8.503458,215.67590046633384,31.676549490414533,-141.56821847810812,-51.63145962113293,239.1824109034713,-243.35968113648417,0
3067.0,8.520126,-66.49987102859528,124.93664967868853,232.268183400976,385.9684506281416,135.66061519427103,320.7817344372619,0
3073.0,8.536794,295.2323303662554,61.30726066847814,-231.50116655977973,72.04872687193509,-130.27863349352535,137.8168335217118,0
3079.0,8.553462,-67.67115606616318,-124.99937245077204,-88.74531454671498,-19.50862324584221,-28.48187421270518,107.7993899369714,0
3085.0,8.57013,-12.693709763593546,-69.61530388291493,-72.09728241878281,53.71026233695253,99.58105266920516,55.94652432550623,0
3091.0,8.586798,54.39628094009729,53.27483276030208,-128.28686087089164,-10.68085739394105,-52.57323851356394,245.480650908961,0
3097.0,8.603466000000001,-29.69447655408047,-195.543042610492,-220.5704735407672,-22.106658639654515,-200.9665883026953,231.26350168404755,0
3103.0,8.620134,146.1532993242563,-63.97645612472292,-314.07391643490826,-137.32393998897015,-20.40427234994992,226.02544616640552,0
3109.0,8.636802,-98.5661428268224,-232.79669885265668,-66.09261005710593,49.3591975012271,2.5344595894054294,198.28631253011773,0
3115.0,8.65347,45.54671663854704,1.3216941103350734,-11.153385190621776,-31.631386270136417,-200.88290589920683,-53.13643569699488,0
3121.0,8.670138,59.46520579696911,-83.9326174842111,-413.0166189853967,-53.73776351288397,-22.87574019029188,80.92714448997565,0
3127.0,8.686806,-41.37796161247298,-147.07614296080905,131.75531497307986,-98.48648577925532,-243.88105393069912,109.13787220111104,0
3133.0,8.703474,-111.35974718053586,-91.20626472322697,-75.44015422737456,-109.11068693239883,-417.566631050919,207.76905401683337,0
3139.0,8.720142000000001,24.461503907146565,-118.34162128847788,-101.40288531121637,-57.10571675590037,30.978159243633367,-193.0698119969932,0
3145.0,8.73681,-156.5004033253952,-28.019205820642583,-110.08929040035969,-242.00886971111663,-218.09001142674555,-0.7725002569099262,0
3151.0,8.753478,-74.72893871595788,-247.1900771448664,-95.52620045618634,81.73716356099456,-99.19913714649384,85.09370806439149,0
3157.0,8.770146,-109.23635753913824,27.406830432262232,112.49818127571614,-287.9974280795023,-76.3581316915772,-406.5217615046992,0
3163.0,8.786814,303.61527841656766,-287.1822944171513,-235.7008582392144,86.02303075131975,-127.94030668921243,244.5094244654563,0
3169.0,8.803482,-193.15240506223853,2.461193077631396,-40.04560583019506,-120.31332840047357,-44.29434605010096,-377.8668832776982,0
3175.0,8.82015,168.65323757586884,-68.23773947949867,-83.02282215272932,-110.73398261677524,-240.3652738038957,109.62500776089458,0
3181.0,8.836818000000001,-228.13074747561444,-22.921958319805025,242.87149474164136,80.3239517618515,-44.56776033675735,-271.43666380222425,0
3187.0,8.853486,-0.909610749648918,-143.18304053033353,-246.3013705242514,-52.83771289619453,62.8592550936536,6.731998767473975,0
3193.0,8.870154,-137.03079992956694,-101.3270662580706,199.48737873727865,-39.14656522242704,-73.25437809269775,43.231057972157934,0
3199.0,8.886822,100.88415348983416,9.929010379172894,-69.21799104647485,17.404891285188974,-102.64887213044044,-138.4905090282594,0
3205.0,8.90349,-189.6576771517736,-89.91282079336361,83.63059134085282,62.26312680094048,-181.2420691164167,95.13398422111008,0
3211.0,8.920158,148.31428336829345,-186.66127630030644,-109.6975656590619,-118.6825987723921,-66.63096746506656,-156.07065484960623,0
3217.0,8.936826,-44.783961894018965,-387.75207314121394,-59.813769644389474,-22.36035273439552,-147.54637764103586,81.37827901156598,0
3223.0,8.953494000000001,-210.54180604530168,4.668687921317037,29.238847524944944,-20.21239039368498,-114.06784943069977,203.040334795651,0
3229.0,8.970162,51.2186187220905,86.71357631854097,-40.00965701243842,-39.479257784214965,-257.4541728406156,83.36286579222838,0
3235.0,8.98683,-17.79017837430513,-26.56233771719789,53.75948841351392,-111.7229244184447,-58.7220247555557,23.90661867655062,0
3241.0,9.003498,-77.67330192743634,-143.27741672751955,-65.26905274971128,22.008497418039468,-331.9548513841225,138.5707732871088,0
3247.0,9.020166,158.37178508935665,18.58068342180989,-149.73110272579376,-74.28136180998072,-253.87647149522132,-39.423027274896654,0
3253.0,9.036834,-59.11531224630591,-267.5911606779263,-81.32297515608856,10.666173582962042,-321.13988441369145,127.23031187056309,0
3259.0,9.053502,70.00985498664596,-153.75905424211803,-141.44797186310393,5.682431653797124,-254.7320255112899,-130.6562884913314,0
3265.0,9.07017,-122.93958420874544,-139.45653909921316,1.1529971705264046,-91.33250241064115,-127.99581265633184,-122.6747124009715,0
3271.0,9.086838,-11.762362412938437,-172.84698606569012,-83.08946204299325,-95.43673905591206,-334.1649856281699,42.70030896115528,0
3277.0,9.103506,58.79783550622604,-298.3792149848115,-40.59853963655709,-119.4883775345986,-125.49919352393252,-52.597283759991214,0
3283.0,9.120174,116.25566507493828,26.333197016579305,161.08839338491504,-158.35518721483385,-22.966132449911623,-111.08217151095954,0
3289.0,9.136842,-198.890392204393,-273.4049224235788,-45.386613920923466,-111.30895001350248,-34.359593114903845,62.6079308282359,0
3295.0,9.15351,-60.41260259517136,-260.1588172167336,-26.107124846581016,6.698961102248248,-50.3678431741997,53.71107689830311,0
3301.0,9.170178,-197.13724065843,-132.29145887894242,114.50915937219172,-293.94719962275065,93.16438968698832,-217.85869052054744,0
3307.0,9.186846,-148.63966867484723,38.718524459021125,76.5106422840676,-47.235804611381056,17.43879006731906,155.39678874991995,0
3313.0,9.203514,-123.78204039701052,329.7885787245792,56.9593629385011,-253.7181442441435,87.31664820819731,-344.6432642757867,0
3319.0,9.220182,31.66892176675966,-223.0138206876804,-207.13120452714296,8.721571037902862,122.33110062763538,51.16243845639864,0
3325.0,9.23685,-157.41652633269305,-90.93079543225414,19.93995986329536,-94.44556385032664,185.03442443266616,3.386147090415534,0
3331.0,9.253518,-474.5815164030055,-41.031298939506,101.56882178492184,-66.2868535007546,175.90767891397428,-123.0369180343265,0
3337.0,9.270186,238.92032995802288,451.6508551513773,-74.36832737385302,-23.84798100507534,385.68693609978527,25.637576424359125,0
3343.0,9.286854,-5.826112124465723,336.53945808464,40.99667629152528,-72.27871839406313,377.11035169597807,-179.5172069319737,0
3349.0,9.303522,-0.5930393490353936,334.7364553693334,-189.51108590810952,-160.1135146233639,329.5754833492072,38.89945617541574,0
3355.0,9.32019,-229.40320611335952,344.7373990833744,-89.74704689591542,23.28770813626322,412.2024118609934,-10.757234664448951,0
3361.0,9.336858,-16.250299206800236,519.6560322172627,-18.10590905855305,249.29476252364103,515.6837879468677,8.368153726418601,0
3367.0,9.353526,-21.872862399223465,278.08052088778885,-93.20194239761636,-59.70056920831544,449.8351673142192,-33.17461672990811,0
3373.0,9.370194,22.10620639185204,397.135175656126,-60.56790201426615,17.151266892348353,314.0526229211039,62.10841470682425,0
3379.0,9.386862,319.8786681926208,522.4926883758874,120.2261352321997,156.1419282867469,246.0260377204777,-22.13452500369301,0
3385.0,9.40353,-403.07045043926814,-399.0248707254125,-446.1490081583244,200.1527065007812,178.56572986780495,-93.67694043911072,0
3391.0,9.420198,413.63146174164496,470.88454213404185,279.4834979583891,210.2213723522312,109.16481436177192,-72.34658669294748,0
3397.0,9.436866,35.58485928045525,104.88069641998848,-9.794853234210564,171.06705800808473,75.46956460609712,-76.35678558547801,0
3403.0,9.453534,109.87206189706887,-113.03280704297596,-94.99696820115818,135.39288409891523,-61.4769361576294,131.0251205132081,0
3409.0,9.470202,83.12386342589994,101.62089104375588,56.221785109339066,302.28130433797827,40.44989389623312,-85.52068948912044,0
3415.0,9.48687,79.2613958085241,-199.7178501691196,-50.830939409487456,129.15723570172798,-50.87661690963146,11.256120913769546,0
3421.0,9.503538,90.6553908483476,149.67803504448594,55.9079324434263,244.83643992429035,43.91534462736768,-54.16149013705862,0
3427.0,9.520206,181.71054504346728,76.98941204101408,101.67428634050816,111.4252427805458,-112.04055280714792,83.91037434109265,0
3433.0,9.536874,253.41623787559064,-96.43911046992176,84.31350111507865,149.37529844173227,95.54401918884489,16.424861696633435,0
3439.0,9.553542,-80.4965721978948,189.07793984143024,41.33470384093096,186.3495152204008,43.15950047783247,13.675210455616584,0
3445.0,9.57021,294.0307995632695,-115.67497616002233,140.85673694727157,32.37128195608887,4.093686850541037,28.81443331610928,0
3451.0,9.586878,43.97372913755007,316.4242044710959,10.061695488464904,336.66401394000025,17.095360253930856,274.24645558629027,0
3457.0,9.603546,46.48018780374606,-68.12183514293339,58.60336312391579,-32.2276784458776,137.90134912207816,-257.68749173014845,0
3463.0,9.620214,266.1251387205824,395.1565786626941,90.11579086193012,-0.2410104327160809,89.2359469323577,34.09235739150228,0
3469.0,9.636882,-273.5753051419304,-351.3480907553189,-101.72523551343868,247.34204004477863,73.78388772039986,-39.151376345261895,0
3475.0,9.65355,68.86468140073643,45.826523758080576,161.37703125751625,122.43468256978971,97.16671423328116,170.91804013592474,0
3481.0,9.670218,-153.6598560876367,105.62544356444717,-69.12064679262612,26.3439330678547,119.15822275643066,0.1013639971668283,0
3487.0,9.686886,306.6049574140534,136.18809354961468,121.141685814565,46.60853867065418,3.7360132423849066,47.57798444097102,0
3493.0,9.703554,-289.78831320013927,-48.43982563308195,155.89908210850183,41.94736992217871,87.71540988825085,144.50051361631313,0
3499.0,9.720222,220.73123490058043,0.5042835668271763,-2.5921602439372435,106.7709325685792,185.60269463753104,-14.172658805873532,0
3505.0,9.73689,-265.4887572729119,-78.35467314928326,126.74821170248538,-64.35247036252227,-272.3185245166969,113.45266720828351,0
3511.0,9.753558,195.2444526712896,4.804189936390607,227.52757112887355,-38.33803079586679,179.45745190501887,-11.723311373251017,0
3517.0,9.770226,37.518415794781085,-37.306654375512245,-16.093031924845455,-2.1854062369046208,167.99641786042616,100.98745131580964,0
3523.0,9.786894,-83.76564422288017,-142.47463815136706,165.93081038597143,-56.32618443765675,95.79282387249847,94.99183212502778,0
3529.0,9.803562,39.09587152291213,-56.41508721086984,33.73995751723318,-133.95571193857694,4.694332189057131,-174.11260879003376,0
3535.0,9.82023,154.01596974803613,9.554326984447716,144.00016995416706,-124.56834263177846,109.41088105264444,117.35215561706198,0
3541.0,9.836898,110.51017455294168,-206.1325839553889,97.63848792915036,0.7224701226980308,13.658915903089174,100.57917035869706,0
3547.0,9.853566,15.67986021323141,27.34941037659097,83.9967450606164,-107.15664665776616,126.35342038638316,49.11865635422588,0
3553.0,9.870234,250.6358837834816,-141.73331566296926,-26.67330377968942,-53.35044764923165,196.09686072763984,-103.40303091859089,0
3559.0,9.886902,-381.55751036602953,39.2713989341566,166.0257222103234,-57.32616741137505,115.48956788213611,9.987457622406597,0
3565.0,9.90357,17.774986126937947,161.67139681179896,190.28754428055584,-160.91670763921022,166.6934862467563,-34.61910323370425,0
3571.0,9.920238,40.82440025143232,-39.16114214661678,-36.9786054452434,-200.15371331818585,-60.66696890273844,111.38639841144568,0
3577.0,9.936906,158.56347206389822,-10.145868569993052,85.79943382430032,-105.66766997231166,7.079173500481232,45.74576857555695,0
3583.0,9.953574,-163.85819959081942,102.3871620088908,20.259777826004857,-164.30240094834096,-25.17633681020388,5.418871217984766,0
3589.0,9.970242,106.8755114345916,-29.47720509834045,120.45950529122857,-120.38867786497087,-55.281625897485775,60.607951970457904,0
3595.0,9.98691,-121.96357436653877,12.732010843475068,5.419108388232581,-206.94567626954904,33.903126391328016,-88.82376139511962,0
3601.0,10.003578,-161.30104949701416,63.44656219472863,71.5183139609648,-203.3700192332625,-66.1668099550015,224.96326904474049,0
3607.0,10.020246,217.7554281493092,-90.70774418074753,108.9568196324019,-111.4743361715841,-79.48553620164012,107.2762362121507,0
3613.0,10.036914,-346.7730494704382,239.77196367512343,200.5142381314689,-139.26976808414827,118.5981776829766,16.786292809610323,0
3619.0,10.053582,-29.744627172918364,14.134748340969544,-63.59098667076388,-73.38997051455377,-185.14335422163128,207.37422520899,0
3625.0,10.07025,-92.18305621327816,-246.760753333465,58.30465037414572,-120.96082640906192,-134.95285731101484,39.20526617535936,0
3631.0,10.086918,-8.014579577475978,8.164840248375024,-214.9893459653452,-13.11071856391198,42.06942402411308,-32.70016622347245,0
3637.0,10.103586,-468.6393660619767,74.17102910629893,256.13983822336866,-59.42278129087153,-101.5102329327456,142.62430666948475,0
3643.0,10.120254,262.798452083708,-18.26665669146785,-32.80474918822543,-81.52764333679947,-25.37197045110396,-38.92031811120329,0
3649.0,10.136922,-182.0551887850275,-147.25245877715514,-229.6645606440736,-127.28280180302532,-16.321533535067147,61.416447349477096,0
3655.0,10.15359,53.040841316309496,50.30484884366703,44.8133776297524,-72.15059464692794,7.957914569878199,154.44287646242788,0
3661.0,10.170258,-133.88982083324976,-30.11189916856565,-89.02826436794889,-97.31872020342814,101.4209921741488,-8.988112223976113,0
3667.0,10.186926,-87.6895295110824,-161.64734418439073,49.48015035687416,-114.2437667732806,-100.96136630575955,21.264321039254057,0
3673.0,10.203594,-127.06839582522989,-66.75646312495368,70.12872158048904,11.379470066966055,19.92645107113455,83.52637710190896,0
3679.0,10.220262,-157.8724821649572,-189.25168186084247,-80.46408626312491,-75.31172396242313,70.2776517796259,-46.03603654792198,0
3685.0,10.23693,-111.93882010412555,-24.73381579359916,-77.2537877641091,-69.51399678178731,-25.22796586255865,54.74121101596916,0
3691.0,10.253598,-26.53795646095164,-189.19475421789105,123.32640705763176,-69.69457346811478,6.157469594311962,43.70174431961834,0
3697.0,10.270266,-87.5915268892318,-112.18486038090217,-7.460906260741908,-57.20085263111868,-35.66620873726711,-160.33677212527903,0
3703.0,10.286934,41.56428349694623,-41.18926328780041,-135.99948374207855,28.197503930986755,-177.67919750274834,-70.11355892800592,0
3709.0,10.303602,14.924905360330897,26.349085292501613,-181.6690582790661,-46.24679645020749,42.35571962982844,-181.16037337022425,0
3715.0,10.32027,-11.317650551042467,75.36489519893162,68.45813337738336,-23.57492197165101,-143.56870323075557,23.0037852503495,0
3721.0,10.336938,19.767415073587827,-36.022754151293995,-137.171004685664,-95.46574534876804,52.3655203699056,11.533197333104797,0
3727.0,10.353606,-70.30376444470758,-84.29894637614157,-7.608078620524709,-82.43705329085708,28.15736611377229,45.70856839802208,0
3733.0,10.370274,-34.97431293287529,56.71776642051268,143.31807144439284,-36.325924552724686,-20.427811980697847,-141.14430852845987,0
3739.0,10.386942,-8.697824386320203,-23.9421920538505,-27.55150351880577,2.202437290684008,13.011813840169207,-193.2597414287436,0
3745.0,10.40361,174.71055329333717,-49.826791785056734,-44.85830018785475,-61.05511034933872,-19.71304979773943,-35.40196382469442,0
3751.0,10.420278,73.02012670918683,-71.87238957318095,19.934160230552067,-50.50641777954248,28.562066885711605,-187.6522517307887,0
3757.0,10.436946,20.3206945747076,-102.92123903461383,-3.089529169059928,-58.77275073227132,83.87437815493067,-117.55495758411868,0
3763.0,10.453614,-109.82362849187795,10.87914487990502,-160.66530521896533,-38.78585382576115,-6.243330850542861,-72.86879427123911,0
3769.0,10.470282,145.8119001505281,69.97781494641818,-100.91037741218932,78.46574161220292,5.874318243602019,-136.85029905625288,0
3775.0,10.48695,225.42613209331847,56.4422035603598,-139.203811370347,74.68027063506638,84.13369960385027,-169.26298349596962,0
3781.0,10.503618,57.40033781764588,-11.556221797050696,-120.49244336017482,104.65252117090508,15.06843161941019,-149.88155947465896,0
3787.0,10.520286,84.85962384664661,80.79600629911346,-2.030104902069212,26.439515441037813,104.94079809522036,-184.78626304083943,0
3793.0,10.536954,74.86801069186794,-95.56573787789532,-284.7743626672859,95.9133278987928,-42.53777023674724,-115.4199058505105,0
3799.0,10.553622,257.6143277215766,-162.8342111761921,-12.474765538829727,108.83296431095675,-42.443024508220056,-160.80124848818102,0
3805.0,10.57029,78.00931933706923,-146.55359306583077,-136.45871350940246,148.01595610697834,155.08747618342562,-50.625796390627066,0
3811.0,10.586958,60.78037758615341,345.8611506553148,-13.314350100227095,69.72740757501677,-35.92975568703557,-140.04570453630546,0
3817.0,10.603626,-70.09203226358584,284.875524850333,-81.10580718109023,189.08502746517507,-31.942614549187297,-3.006773577079324,0
3823.0,10.620294,85.70234964299283,63.44779665166366,-75.86272012460454,105.6076278821544,77.97929470220947,-154.56142620888602,0
3829.0,10.636962,307.2470987903412,82.38122091694652,-240.1741818554053,114.35196461276024,107.96916969446792,79.22834383417654,0
3835.0,10.65363,-128.10626925186193,345.37093648917147,104.03470340439584,20.13076434525889,-164.8278279205645,97.0462181407038,0
3841.0,10.670298,281.04324550117286,85.380477487804,-175.3659313408803,91.0353924411542,151.34509835015257,-22.621147975854733,0
3847.0,10.686966,-382.0847516344489,538.7970416559062,262.27233281989083,204.7288929981813,-58.82980505831323,-79.59674931891017,0
3853.0,10.703634,351.9318743636113,-231.7925466423299,-212.87271841690253,124.3580414770503,53.778015134422006,88.79215843848667,0
3859.0,10.720302,254.2917013614584,-97.52280910423332,22.43830666682591,132.00076360286616,-5.933720164038196,-6.941444884070982,0
3865.0,10.73697,-232.07535987499324,402.0800012926736,57.71257285320262,141.84047118769712,-214.91427872230668,42.0440152399764,0
3871.0,10.753638,476.9592108373981,-556.4912053361883,-174.69356779843278,149.1156532488626,59.57441569899774,-29.66320808000865,0
3877.0,10.770306,-144.59106926573745,70.24774326876931,103.01514732940166,126.627076572706,-263.59497357383003,83.57372148473169,0
3883.0,10.786974,-76.43089885739843,87.29736726610713,79.79826270959,222.78007303437505,25.486712195432528,-14.651724616755327,0
3889.0,10.803642,247.58881897996585,-332.5911048234822,-145.66720151753626,235.0252693354488,-59.63815326464573,66.42759564421289,0
3895.0,10.82031,100.38254097653196,-186.2158202442774,112.07044427324185,71.75355140636412,-165.77271909515196,47.51748619190644,0
3901.0,10.836978,-190.93536367971072,169.07439500320643,96.01024734196756,85.68709200581263,-113.69956685374768,168.91156707631424,0
3907.0,10.853646,-60.75202634081187,5.322469998177262,-28.58799801080137,62.29510705099061,-5.6842233750481865,-111.31507369050306,0
3913.0,10.870314,80.39547352874297,75.35652862867059,-94.103087380026,103.8884796357296,105.35095378581784,147.66244897628712,0
3919.0,10.886982,46.77628536704049,-78.73364490490059,122.22796365168348,60.280697396454215,-1.7706105197499866,-36.697353033115206,0
3925.0,10.90365,-56.72363565365308,-247.2803457517792,-201.56674636177016,95.92027331760733,-123.67343901919384,-50.46383463873289,0
3931.0,10.920318,107.73348530669156,-68.24195090789506,-139.1954949843294,-79.58207217822489,85.50129016093153,233.86884684311983,0
3937.0,10.936986,-86.78767798907965,27.509449917307,-101.95440411548677,-0.9014688811289844,133.0240078218262,-149.96992883381105,0
3943.0,10.953654,-170.6456850675799,-148.02548872943026,-97.6884196398664,-11.980298070494577,-7.174457666148541,-72.57750433542753,0
3949.0,10.970322,155.00244227453598,199.47792814071573,-126.8063920888858,-174.13822386264036,7.226017802426469,139.54275662424402,0
3955.0,10.98699,-73.89246019855597,10.269460717825057,-226.8439087779314,-182.326765850843,136.36675156158816,-0.8453691525269384,0
3961.0,11.003658,-253.0797242946916,98.02112721737944,276.8879188139156,-79.28218323950443,-16.46946170825085,-147.75105911011264,0
3967.0,11.020326,317.8035330356542,-92.71246488504288,-99.8398103328126,-9.250844067504476,47.990488690262666,92.21474205714507,0
3973.0,11.036994,-119.36549177008408,-39.49461850629467,-134.2684943442429,-83.12860550145686,-57.64471492058188,-67.31878262764168,0
3979.0,11.053662,106.8607583515046,-37.89991206863407,60.48913668601691,-62.35952274287263,-132.28438687481528,-121.08966926375432,0
3985.0,11.07033,36.54141646247261,-117.24949826449482,54.87686287401446,7.197297276807845,-150.27660092572972,-47.65235524508705,0
3991.0,11.086998,57.64213170180772,-50.40401787649625,84.33865036356067,-125.43216894909966,-122.0835332641427,-80.63178461686894,0
3997.0,11.103666,-14.872143638659638,-80.39938087047837,-17.5635752750308,-94.33152826746267,-121.6246292289582,-80.29887954839398,0
4003.0,11.120334,85.63874886703303,-36.63808258913848,-53.38712244994349,-32.58768311884374,-39.73535283491986,-32.42060948323498,0
4009.0,11.137002,-168.84805171812565,103.47449631556114,80.51924781197991,-43.62788723008666,18.128236332110127,-145.10772079144897,0
4015.0,11.15367,180.9783898803172,17.834297564034298,-204.40090588723265,-19.39826142596145,13.870591696027656,-68.49706629856675,0
4021.0,11.170338,25.903297402114045,107.00641694971073,30.6919287200367,-48.87328037031399,64.5623958899491,-23.917828399391446,0
4027.0,11.187006,-12.231300686235237,64.45074275324149,-22.14631432049089,-62.93003614233004,-97.49019124819829,-27.62142303482948,0
4033.0,11.203674,-13.240183277292198,-51.17693701970252,-72.27932648191732,-16.13386856403154,-19.806265596729173,-117.24245306975124,0
4039.0,11.220342,71.98565124992514,177.9456004839238,47.15733480139759,55.9692556334422,-1.0029846051818874,-50.65722816419306,0
4045.0,11.23701,-5.231722554337651,14.69392171596064,-4.040742994880691,-59.3870423368287,-13.616969902767424,-11.393795557618253,0
4051.0,11.253678,112.0637531176874,-14.493986216640952,117.61577198808564,-12.12906044712213,-30.434286353777072,-201.91443030507213,0
4057.0,11.270346,30.39338765960192,-97.91619077428422,-12.76300061317736,-21.10198207973309,46.28157901228701,-0.1840573850975175,0
4063.0,11.287014,52.52743098645575,23.284371773486424,-160.48162070714366,145.0638975889703,42.68784949217044,27.684997518792763,0
4069.0,11.303682,-47.2115120657059,-36.20425636315594,192.9375558479975,16.414574787690036,48.397866647846485,43.692218765064446,0
4075.0,11.32035,6.35638791185605,-40.16060708281527,-25.357647744368187,48.56530761023091,34.43055339924135,19.53305873612349,0
4081.0,11.337018,31.174014067666697,34.69399324164174,34.64391066857887,-23.66084440461356,103.11165735230182,-42.405575735853816,0
4087.0,11.353686,-53.485005367949,-25.860171321708748,-1.628470066009192,77.04087309023096,64.09187925380941,18.39186059687552,0
4093.0,11.370354,33.70189155654109,-30.87790115993337,-9.02689998545765,37.33961873358402,56.67063284728573,3.912759490191029,0
4099.0,11.387022,138.54951645154932,-9.205632563060522,-69.1707314807834,13.269877858507405,88.25418670577288,75.15789561461094,0
4105.0,11.40369,-31.380364353135523,63.275127590417895,85.27074280700307,60.34949872389776,156.69129077233163,-47.81396056389859,0
4111.0,11.420358,-57.201871893451376,116.71071445855878,38.10908256806414,151.03359460283963,111.30156145569345,29.93937477916556,0
4117.0,11.437026,81.81853940572739,112.925360095618,-89.55378444607109,-6.027053378171564,158.14988838365565,47.722993596780846,0
4123.0,11.453694,81.13706106102167,-44.37453652355598,-203.9532263692385,240.7771750622017,-14.837404056038118,159.97391484533983,0
4129.0,11.470362,61.90472033341409,336.82890939762103,75.52930429883824,3.804832276398084,329.8743782170317,22.375939633493985,0
4135.0,11.48703,-57.45528369825711,349.58309363836497,258.28596783911445,220.43969537882225,311.068789600364,4.167493283112085,0
4141.0,11.503698,93.30938820487796,2.955665540723623,-372.01441679069205,-17.74148233507841,260.92123146340526,2.0695124145547226,0
4147.0,11.520366,138.56033549565345,249.38870599188743,-92.19500035623156,34.861768855333,183.8262847129472,158.36792924184616,0
4153.0,11.537034,111.156544373859,109.51145118148668,-56.84969025869248,112.61558554328046,71.59133012590637,37.197883363667344,0
4159.0,11.553702,112.72707872478,220.10411710714072,13.055204130303997,17.646079751887527,302.4411932267944,135.33391119989574,0
4165.0,11.57037,107.54453433297591,-24.963938747847315,-0.9378320422069422,-125.39087860969684,148.66789824419212,101.83318295897364,0
4171.0,11.587038,88.3257468718418,141.70228160634997,-154.7533319775179,-26.02105550554781,32.95296035666144,-43.30652121548091,0
4177.0,11.603706,72.45774281613635,-108.15830579054588,-324.2042399402361,3.3701656051211373,-14.394502231671872,-45.958630328307805,0
4183.0,11.620374,-223.64988894375287,188.43654601272303,222.73491804927207,-58.26982899131874,45.04670339185614,-20.32526585332741,0
4189.0,11.637042,288.48614725272387,-198.345691554258,-454.7414730109712,7.767497763952221,43.97658848807493,-54.872622849409474,0
4195.0,11.65371,-32.796498177978066,-209.31868746966484,-76.44079594661984,-101.89190824068088,-592.2348936652866,37.83656977839674,0
4201.0,11.670378,-197.45023105218763,144.25933544454068,-57.32485608887078,-29.99259866547237,1.3074671532765638,-59.931097879287485,0
4207.0,11.687046,-10.912488332327918,1.829979731018504,37.13234210787283,-55.86592382885394,-165.00189323562472,-30.279885598446665,0
4213.0,11.703714,7.977285428405743,-120.51698407552014,-149.60610006716252,10.18925588384365,-210.46295050528653,-110.29096784965586,0
4219.0,11.720382,58.01790927256468,-110.5227290494458,-101.68385300797463,28.79472188094609,-150.32483376380952,-101.97524522870164,0
4225.0,11.73705,-260.5958343702222,26.051650681505336,97.92489740620842,-25.43578286194139,-344.2561691745524,-5.778234273209721,0
4231.0,11.753718,-54.2978796521935,-192.89767893535168,-108.75033893057056,132.10974123405356,-76.83735873124392,-28.93623429189956,0
4237.0,11.770386,-88.55872530294495,-50.60925246470537,-18.842232427120827,-56.14927042140799,-392.7329080403007,-167.57846425254158,0
4243.0,11.787054,-178.6133170277492,-46.8519062594585,-65.42137070487394,-5.363793671136065,-177.6721587938656,-26.13129023377235,0
4249.0,11.803722,-277.72756981027413,-181.259427581175,527.689771438374,96.11999170895228,-315.83701152574486,-106.92302973465986,0
4255.0,11.82039,67.4672694754434,-89.07656755888604,-387.16112299790734,9.248151440328144,-283.8119909845738,99.81087052011914,0
4261.0,11.837058,-80.91314244907184,-226.28252796886892,38.56941824115811,71.68682214405669,-163.4935884777218,-112.61274680296152,0
4267.0,11.853726,-178.3156188707756,-108.71557254692848,54.66511188045672,111.56467523884776,-257.37062573058955,-127.12363676569618,0
4273.0,11.870394,-24.118831962302444,-342.96405369855506,74.07786710184298,26.90560884927643,-215.15036516012972,59.13605570742721,0
4279.0,11.887062,-84.85899575349885,-57.08989607821644,96.26263712241403,113.64503795799943,-288.74059522805175,-89.07026162822325,0
4285.0,11.90373,-129.88617271903755,-430.7214812288248,-113.308865922823,-80.25429531945491,-9.854842785611556,88.26011085959523,0
4291.0,11.920398,18.069146823223434,-89.39958917387969,25.973260266872625,108.6014828069122,-94.11947028325017,1.9160350326830693,0
4297.0,11.937066,129.72520958872582,-241.5992265825805,-336.4666168084998,8.295327185263332,-67.98965210085927,-86.49172122112891,0
4303.0,11.953734,-11.33982690371962,101.68305837665515,99.21760651637166,210.7455582430126,147.12879379743876,-63.84461752775855,0
4309.0,11.970402,-84.21898034932232,-154.4189806925735,38.949092021126944,-37.81048542706191,-75.19188260805385,52.968883359257454,0
4315.0,11.98707,-48.652945245468096,53.21469553254183,170.09040207709555,125.19479714254824,82.79668661580052,-32.317612882760656,0
4321.0,12.003738,54.56298340103044,-128.31760246393492,-68.38321408720074,180.4611345077805,67.5825067666307,-134.21947932999615,0
4327.0,12.020406,-126.59232349299018,152.1713682105625,-60.86442927176056,210.0696910553294,218.1298349477226,-136.2164694899551,0
4333.0,12.037074,112.0773473582145,-138.17282950378134,-164.1006860095536,192.17688481212173,242.4929810439251,74.58781090284093,0
4339.0,12.053742,82.61628123761378,-99.90278867749284,-195.75624476456443,80.80564497530796,119.14377120372896,-108.54661615035258,0
4345.0,12.07041,-10.541658310503683,-74.77428470333378,-114.26275185559383,57.64042490102036,195.1539214731505,18.840725735795736,0
4351.0,12.087078,334.19770964395644,61.32808138546289,-20.495836010039028,167.76086684202,219.7428314284465,-134.74464206980076,0
4357.0,12.103746,73.25713219869422,205.8737363900362,-212.73087414745163,74.98060265515736,205.5687571572153,-161.81579374032722,0
4363.0,12.120414,-117.33325886940156,238.2572921542692,-147.25632860268075,71.95190340680001,117.43842767871948,2.7305815672348395,0
4369.0,12.137082,114.3443527139308,175.24461524634867,-130.9948405853247,82.20029058765705,51.62738427333901,-58.63365083160023,0
4375.0,12.15375,187.61295306801497,-420.4838185046646,-179.76564587327104,-0.4271996997917977,-387.4848976486473,-139.9230579568264,0
4381.0,12.170418,259.14521630387065,641.9391349092502,-17.70707465382364,249.85415650254097,494.7830899826725,43.78031817050673,0
4387.0,12.187086,147.2604863485722,106.5640584797545,-21.133113107404697,5.19749511559106,-138.7621332752298,38.979216576283456,0
4393.0,12.203754,50.40489673764385,-263.5898109576921,88.57546025977166,21.208445251862088,-70.8448339989241,-113.16226207927912,0
4399.0,12.220422,2.2670477227667405,95.5444037297624,136.19202411044358,30.506727775654824,-39.72703015910305,152.87353925733288,0
4405.0,12.23709,76.77998397238073,126.17175998969807,-76.02785082614764,-83.73066458197025,-43.86201224213394,128.39105088954898,0
4411.0,12.253758,48.58275988752055,23.598304331714672,12.372592537683886,-37.11519614226262,196.83135806514943,29.704891741628707,0
4417.0,12.270426,-0.0928499321885354,51.38948549689135,156.95826525825748,90.82264336197342,-84.86495300960057,130.21574169084633,0
4423.0,12.287094,-93.2495237254365,260.1976380335024,182.6241359954732,-81.42193340700649,266.7005638413875,18.214533480149065,0
4429.0,12.303762,-11.777454081694708,-156.25718787537875,-261.1095260213041,-271.7253929708042,-121.67142953648126,46.43814017987028,0
4435.0,12.32043,-78.39406544705568,-59.43617569725073,356.5286538556292,-62.40802655010903,183.28295630155287,186.96920560983705,0
4441.0,12.337098,-0.8468777732781234,46.83504029140551,-114.23387351034626,-276.3945058776951,151.76442790840764,73.73119271412992,0
4447.0,12.353766,-280.32424046535823,86.30967441508048,415.1971595074392,-231.7918050578138,200.13684664562604,-16.858361269676735,0
4453.0,12.370434,-52.93203142036123,244.3890033135788,307.5708432340156,-181.66065449566048,28.83040887023561,162.81398868347898,0
4459.0,12.387102,265.98648033559846,-523.4151020008203,-22.484538873363228,-351.6569253988628,161.78091744619684,-109.29473367497644,0
4465.0,12.40377,-202.36663984027425,5.156463859575091,256.4027453252146,-211.8451110474876,9.20583756789203,-85.4924854383695,0
4471.0,12.420438,22.018358783049266,-82.63317779395781,259.5230417713219,-209.9900389120301,137.73168371207927,-35.71423662957032,0
4477.0,12.437106,316.26501935268584,2.9702828338463227,204.32989141685903,-162.7590010166698,-165.58820845103304,-17.922056716651312,0
4483.0,12.453774,-106.6779317690782,-143.2068431199575,400.8021939750348,-222.12842412603624,117.06651086564386,8.151282106023018,0
4489.0,12.470442,248.85288670974776,56.16513248535357,-162.38641138394067,-141.50031983447715,-49.98868918258548,-88.76494657403961,0
4495.0,12.48711,238.49197223383183,807.3630769507984,202.6556760922575,-275.18444482454544,483.7895988927795,103.63556438924768,0
4501.0,12.503778,-5.621686036182961,-544.0059454924283,-172.70503090866077,-139.6200732625507,-522.6216025911059,-129.3761720853942,0
4507.0,12.520446,-89.31677370119965,-282.0923049932892,354.5121867514028,-186.7801541260129,-388.28060843483513,51.47630888559332,0
4513.0,12.537114,-328.57135686864365,269.2212949658598,201.0166295672526,-489.1473713206768,-191.70297686052453,62.76220933254336,0
4519.0,12.553782,211.7960283830172,211.3659823261353,-12.984083258612236,-66.6851823141944,-335.82154236466783,117.6095806829953,0
4525.0,12.57045,-106.90979075349377,81.54472285938209,-211.36691168164376,-205.8420694044325,-62.32016734452425,-1.5222405447856673,0
4531.0,12.587118,4.835865831393068,260.5096020436117,118.44761804624414,-175.82743740864228,-126.88715961958152,-181.66304118472385,0
4537.0,12.603786,-217.5314879161568,-206.86473989427225,-80.92378311475036,-360.93942867338137,-283.35428797794646,142.58526265424493,0
4543.0,12.620454,-87.98618401553013,344.1004180141133,211.57382787423813,-154.20138562687578,-100.33059129017828,53.008374807460825,0
4549.0,12.637122,-171.88476516209303,48.223090500680925,127.56927320387696,-129.11590949746457,-115.6087877094541,13.204741911175034,0
4555.0,12.65379,311.21581484211816,-336.019739361644,-172.49797468518474,-168.05098822163762,-79.00639900855084,14.203341525432066,0
4561.0,12.670458,-364.539251253192,35.98949414175493,3.1061337216212763,-196.65733047632017,126.80771595690666,11.240323982691043,0
4567.0,12.687126,-429.215567907703,-45.9362309197268,165.7088212531547,-53.787455583585,73.48085803171378,110.18245185123156,0
4573.0,12.703794,31.07603968382295,-66.31320330475337,-131.44013658933258,-131.34849613936697,-57.1384950046843,46.43973065550957,0
4579.0,12.720462,-382.0368756262333,-39.07308868846685,165.0488449234735,-93.63894987132764,-22.03347069483352,67.27528696395038,0
4585.0,12.73713,109.84844142299065,-39.57592174055016,19.471505089697043,65.21511598052017,75.19448491906611,-40.56453412099869,0
4591.0,12.753798,-364.56361238861615,-562.6991538910213,-444.2123063966754,101.71503158633142,43.96182560336879,89.80975104840707,0
4597.0,12.770466,-223.87782641213252,322.25323383166176,326.6055907968065,58.51747012750021,6.4109025078036765,132.0627129696485,0
4603.0,12.787134,69.4552898348509,-188.65034338749487,-40.70550115863695,-13.899630675642689,-11.469529770390931,49.87842858138868,0
4609.0,12.803802,-90.4088030627116,-221.32456947059933,-374.2669930993432,178.3299403590541,74.59603649210867,-150.0291569200203,0
4615.0,12.82047,-62.06681078624875,-193.10935210862016,83.25065822317286,148.48419351190415,10.532250873317944,108.54650307878232,0
4621.0,12.837138,253.63586281614343,-248.58301898467548,-107.07669993088112,218.5298216215083,73.21904491901695,-32.4233416496471,0
4627.0,12.853806,-156.51577648010485,166.40367499123738,272.0295704873346,85.26655673308765,85.64950346234008,23.461094460844805,0
4633.0,12.870474,55.30073421695317,-261.60386361698426,-456.4436015387125,196.1148112165706,72.97369204889317,-79.94015372740905,0
4639.0,12.887142,-115.75412252109425,232.9935746067187,135.84897716098234,200.30397264313143,190.58369397056904,-41.63254438133701,0
4645.0,12.90381,-76.94936138219299,75.88804767927795,165.42310124895403,87.38551206910729,41.13327931876451,-39.739404988366026,0
4651.0,12.920478,195.276135927026,-741.1285096996817,-522.0707539447606,106.74426661629998,-576.7121492255753,-58.13083421940314,0
4657.0,12.937146,-162.34502146142597,424.873360296942,144.57588300656798,89.54360026258477,716.3443089426466,99.90210258899056,0
4663.0,12.953814,101.39229242618984,-242.2408859894764,-133.45600525891467,201.1609715485398,29.30243553615816,-76.66370782371584,0
4669.0,12.970482,150.7611633843421,20.174126959039,85.16392598163246,255.3948286522072,9.724183528927322,-38.75423717633788,0
4675.0,12.98715,210.91434394057248,116.26061463926445,-343.27153477824874,-101.79163688451412,76.7638943646556,55.98660888747682,0
4681.0,13.003818,-92.7542247272437,86.36814883132725,28.801024438814068,-5.453932168832946,-126.43423148086478,96.4114828145209,0
4687.0,13.020486,65.72329284997033,-12.668146048300322,99.660730537229,106.18292202110182,106.66133875598192,-118.58112785595108,0
4693.0,13.037154,217.90595252300065,418.54986193365255,153.05612040805477,9.268470596983406,-45.67531514007503,117.69807834268416,0
4699.0,13.053822,-10.65333497880482,-374.0673970094791,-324.1012464774907,19.25098161031948,-92.824400255938,-108.80931879694184,0
4705.0,13.07049,250.6084091141928,213.6058664161249,124.05214129253956,111.82735744149618,117.1439545613544,-46.31904823298079,0
4711.0,13.087158,50.70976221221392,-381.8041789773355,-509.36052817167246,-60.823709063812686,-97.60957431026354,75.53703532155043,0
4717.0,13.103826,180.584615893416,421.5408487545358,251.00523494727508,229.4792658729748,-18.13314403772444,38.68490373742412,0
4723.0,13.120494,1.3013344247117455,96.90151384968294,-48.387823554766335,-4.51875393193162,-54.30625440868482,48.8647028416607,0
4729.0,13.137162,6.288743740295953,-225.5405817471805,20.7543565825259,-96.42452719162527,15.842534519231377,17.87713476588193,0
4735.0,13.15383,-69.57891623562996,85.25568492054418,6.515646979746556,145.6909159807556,-48.16090946992574,1.33139271845641,0
4741.0,13.170498,263.49324551732883,42.88598410853018,67.30221627673706,33.78658654084814,-27.342740196027627,38.259791109465326,0
4747.0,13.187166,6.5186252052938585,-168.9834516250047,-131.01121371338854,-11.636304145851202,-10.383574720176313,-22.65497178823575,0
4753.0,13.203834,-45.01951488749822,38.88900768590701,88.32727863039702,-105.70378113516117,4.114846582871412,118.10234934631356,0
4759.0,13.220502,173.2909608512095,214.2429661185831,-40.90956081096847,145.70620442665842,-8.848688026867446,-20.954299798550075,0
4765.0,13.23717,-192.2635571862274,97.61670005760968,196.9240791992135,-1.9136844671209627,25.76278684968453,83.41226418473141,0
4771.0,13.253838,-68.72903931483553,-286.866464775687,-89.7035992209768,61.771377567584565,78.3599108967533,-62.03749312065863,0
4777.0,13.270506,248.5189396093062,193.87553984520852,-22.51727806248629,64.49964914752292,-41.61457959025871,97.854243057199,0
4783.0,13.287174,-192.92354453095385,259.895757317261,335.99825293632495,-98.251413472185,83.6678558990234,49.4981450398577,0
4789.0,13.303842,22.32086008098917,-112.955371258044,-198.3769159147268,53.94742040402664,-76.70646850295685,-73.79990154064797,0
4795.0,13.32051,23.43733314651479,-139.60576783492354,-237.49359731816008,-7.887289446596206,-21.46824184527028,89.92139801554919,0
4801.0,13.337178,-175.5544371392155,157.4030946239778,235.36588161015607,82.94662396722343,8.763846762936929,11.28840556649121,0
4807.0,13.353846,256.42145030525546,-292.78136500213793,-187.33756037849545,-2.35265366471239,-66.52092069771673,61.00652249518596,0
4813.0,13.370514,-55.02269137819236,217.98998464774,43.528597231535706,70.5439574041696,95.15325988175184,-63.010114108349256,0
4819.0,13.387182,-31.77149669384768,-62.64991947224247,-59.24485084995066,44.641116192488056,51.20709119320038,-130.37308656743252,0
4825.0,13.40385,180.10276898563768,-6.044264605322072,72.28869015743359,-7.83146113759889,-41.90892577461971,45.57185321756297,0
4831.0,13.420518,82.41934638667429,43.67072853073386,129.18700493593775,44.47649234509432,44.1695652160102,-11.536657604153348,0
4837.0,13.437186,72.89433917506564,-34.40837570983125,-144.72771199700168,47.34030470991343,-19.08635509591392,-93.01083452680504,0
4843.0,13.453854,144.30107514961134,125.2128048186596,-52.23452265688935,51.91138470061375,-39.23636151414532,-0.5452488033476248,0
4849.0,13.470522,-147.38830247414805,-257.29907999146485,260.4951769691464,23.97417623445919,60.21753955921307,-90.02764081578482,0
4855.0,13.48719,-38.12129003562896,419.2778363291734,88.86289499163371,94.73655484267142,29.004321107281605,-57.383156102827456,0
4861.0,13.503858,56.45018852936144,-50.06473498938806,-106.38085147822892,-11.620328516601536,-55.256584577237206,-37.43235674663248,0
4867.0,13.520526,148.71072461938098,-86.48772840627973,87.96560749051704,8.81578990377358,51.2354638109878,25.858287962955234,0
4873.0,13.537194,-0.2401191155031483,62.67407384287033,-159.705264696113,80.32981984598607,49.965360240380434,-54.710233403036966,0
4879.0,13.553862,9.196067313623738,86.00570914634625,84.4291962587834,5.777952665640388,-41.78366189256072,-72.75961319546202,0
4885.0,13.57053,454.6173709987053,-286.505876982667,-17.47070162716062,177.90736586739024,-69.33543706670457,-119.58589378074088,0
4891.0,13.587198,-405.9769894349684,400.5701922107989,-346.4792347828219,-65.72467384869924,87.80756495980539,110.36438117233229,0
4897.0,13.603866,143.06399915328103,-107.2469032823428,154.27307886991645,-2.824534226275004,37.95428364348199,-83.89746606612553,0
4903.0,13.620534,-92.37235182815743,-59.7123673016813,-220.63155807949028,113.33771049461066,5.139873922872546,-119.45830614793437,0
4909.0,13.637202,427.9080476289533,-167.87206690536783,-208.1772723217402,-50.82117834079813,-30.356564088123022,97.36394343120767,0
4915.0,13.65387,-381.6412375946761,151.73606140997742,200.28271852864816,29.97325385076759,13.657290952963184,-65.74133676707491,0
4921.0,13.670538,69.3674845266815,-103.83260324851628,-9.39094487624255,200.5973800181333,-73.2953059808664,-135.50453488356,0
4927.0,13.687206,399.9923751967048,-44.23016230074245,274.5796071351307,-72.4832864087245,-29.231634226069083,137.45549833272403,0
4933.0,13.703874,-11.01764461270271,-95.12218346160148,-255.49204359635405,160.68550968656203,-224.922329469295,-76.98890441132406,0
4939.0,13.720542,-496.6039192425554,97.47634071747363,-139.95591046302977,43.28686963350168,-278.31695080418547,72.09947342468375,0
4945.0,13.73721,364.5286159129273,150.94807786046766,51.63321729023147,174.81436494677246,-51.99790882759275,-117.66203171733852,0
4951.0,13.753878,68.21851391923684,-378.7743395331229,191.6057927911989,80.25305247733068,17.710762926018578,76.09214655187917,0
4957.0,13.770546,-151.43892585489522,411.3411186311955,-584.4167305041082,62.880915497865104,-160.4494443916887,83.84539479099735,0
4963.0,13.787214,-508.1284903002409,632.0769876849395,551.2374598709164,22.31007517950897,65.9100673634389,-146.55514354092708,0
4969.0,13.803882,402.4571205095071,-602.0312141623784,-586.8850310673333,72.57999407120494,-220.3941980851306,126.95693095637044,0
4975.0,13.82055,80.51373059890486,617.8768895140713,130.76884024794217,129.72772292839574,62.488955633037065,126.26882297204102,0
4981.0,13.837218,-81.27822632161924,-154.35083575326175,-109.52851024896358,156.1330864814706,-92.233339945924,-65.48365101375641,0
4987.0,13.853886,2.0055728880499686,253.7833236743524,-90.71916022190906,198.15680892852848,-131.95892515222144,110.67400777363012,0
4993.0,13.870554,-108.36326963925151,-2.80967227563049,295.8180037437021,234.1161187918692,-26.925324549826144,31.32882284238784,0
4999.0,13.887222,65.4895256076363,-197.1000436594641,-46.66099545822361,143.325571011832,32.5353337282958,82.28623937332252,0
5005.0,13.90389,241.738921857365,-178.4353510102759,-52.81006607906609,257.2212838656525,-234.81609518174812,-13.796975341670311,0
5011.0,13.920558,113.96805810939154,-178.34969719628455,-127.77468948446642,173.9190328374683,29.59650699904588,55.09330433467993,0
5017.0,13.937226,-16.99104125622425,-116.69762843578634,-171.44139007020155,177.95791134891647,147.42472692532095,118.44890515509216,0
5023.0,13.953894,165.36144109155128,-3.0814649788253234,-43.06289955869895,55.992181489351296,12.385966740449843,-31.353823566613148,0
5029.0,13.970562,37.605519764767394,24.403582984154127,-28.935579524720644,179.45747387246007,-0.5269464487349698,-217.07088312940925,0
5035.0,13.98723,76.21446904197352,-121.09736989090806,-153.63601603850205,329.9277325274152,163.10089956554174,-96.80844597166352,0
5041.0,14.003898,82.60983793073353,24.52947564022656,145.8362413352071,-10.163805657457672,-4.085682466598872,-43.402903615085606,0
5047.0,14.020566,460.95200558347335,-308.7659473518553,-667.3301875066734,64.68140836364297,46.12299882246481,-73.16624866631749,0
5053.0,14.037234,305.6023624461923,-171.86842656316009,-39.01527886422734,237.7749000595784,-123.59851885173607,-232.0932998502404,0
5059.0,14.053902,-192.78317508331423,-856.8634529889692,5.825900445981858,56.08079156879808,-957.9776315813676,-322.28454212490544,0
5065.0,14.07057,354.3253077694769,233.4965895269225,-193.0699661838177,118.70469455362604,406.32432514240656,-17.348344847638955,0
5071.0,14.087238,312.0466410383315,1182.6152538566548,-39.72048343560064,226.2039343796785,1167.1548566866045,-74.92743346857787,0
5077.0,14.103906,-94.584018124007,-668.8537384293147,-153.31475339909042,9.413050763539715,-687.6802990209801,-180.78972601957503,0
5083.0,14.120574,158.55491791923248,1.5885989142924473,-109.07947521366722,118.2329557733909,268.2209425619054,-254.2197071103355,0
5089.0,14.137242,36.71812262133357,208.36004010111049,-48.047286996411856,103.48566261243404,48.599843808201015,-118.02155829189896,0
5095.0,14.15391,-154.4725442206785,-135.9672411265884,-66.05207951864713,216.5472267503109,207.73436854664595,-81.02867673817363,0
5101.0,14.170578,-132.39026255552153,108.54250907840564,-67.7797194350341,47.73214806063916,359.1376272928424,-281.6919918460361,0
5107.0,14.187246,208.180956380332,366.4346024699696,-349.47402941733026,28.485182395764248,367.52699620869134,-140.27107925450042,0
5113.0,14.203914,-35.9832255610507,123.83561746500234,-8.565407507229153,-6.014196208393493,335.64803923869306,-244.6146040655547,0
5119.0,14.220582,-51.35878539339271,274.11121633462096,-90.39309922593188,3.780876937019201,71.95878721821788,-186.4563641019082,0
5125.0,14.23725,-39.8808416448189,281.63625428593764,79.99748212455094,-86.92368035928898,29.01402769804072,-174.50352518958306,0
5131.0,14.253918,-69.49344856188935,267.9744118277015,69.40174096165205,15.377734004395336,65.82627114462007,-41.18582262214693,0
5137.0,14.270586,14.901231194157956,-246.589163965681,50.2304722215136,-55.8904214775865,-208.9817712437424,64.5436249067795,0
5143.0,14.287254,-61.25650089990307,-25.413407935906307,88.9510524186827,45.08581244440093,-112.22897071803963,60.03829769323952,0
5149.0,14.303922,4.21032326970537,-393.10094319816096,65.3211732906824,-22.83033982558851,-375.9376605857941,46.29170895005928,0
5155.0,14.32059,-234.21688118657696,-185.2394548673316,74.09571209475598,-77.38438903267846,-181.890864420578,186.5630261430397,0
5161.0,14.337258,-301.9394850587888,-246.04259903547688,54.28007953321082,-217.0640896105893,-138.470527393261,96.8259804954121,0
5167.0,14.353926,-259.6377751630479,-71.90593793920222,290.7425194831468,-313.25957528635735,23.513989226580293,96.04166530003084,0
5173.0,14.370594,-324.10750003633933,-56.82863888519864,85.61492343286807,-321.38252020994935,146.80131651153997,62.545015494225765,0
5179.0,14.387262,-273.7770512736643,-64.10120960794163,27.618453789567432,-309.2807388251298,-121.0498418347526,-9.966623265282834,0
5185.0,14.40393,17.292451851507167,-97.27866915475276,-158.62971074499347,-448.9690492327614,-3.6187874787589607,134.1776655116582,0
5191.0,14.420598,-38.32089261506508,187.42333047909813,-121.43008403614525,-447.35227041369626,-51.88369182770768,-99.80890962483944,0
5197.0,14.437266,-223.5163657959584,-429.6638129984316,390.02908448306925,-453.12448147299824,-286.71014415691536,100.2077084369256,0
5203.0,14.453934,-169.50029882035085,302.5426538812469,90.41377496712391,-395.6683603735211,-15.152724999965002,255.2608008614536,0
5209.0,14.470602,-303.6066143104049,15.674767063888282,268.2682389853637,-399.9017831796225,2.2890772587128367,141.01458288661007,0
5215.0,14.48727,170.03922908767234,463.9481857225171,215.9526620216514,-388.4241747041093,128.2843204379525,14.331556750771362,0
5221.0,14.503938,-380.3858252872844,-163.01613062704814,425.7214656198756,-310.38988165454384,-166.8561635199114,60.79940172295395,0
5227.0,14.520606,-143.88310539345665,257.7979028610778,198.71059767346293,-245.7182566266872,9.020503167450563,187.9354032109517,0
5233.0,14.537274,437.9891468204462,-134.48845268232526,-177.82470129062193,-569.6796755070484,-497.8602554387508,57.67967401671169,0
5239.0,14.553942,-217.0402992136989,-261.9183713874638,185.61140502856784,-114.33119481729376,-209.0349069454767,48.11737078028156,0
5245.0,14.57061,-356.8872326708301,193.2723422468285,306.66931231925474,-346.8722376782678,-220.18795407680176,160.9412419942166,0
5251.0,14.587278,-51.07334860275605,88.03070241750608,139.1420412427572,-241.79155702215897,-160.76614701027262,86.11919454288315,0
5257.0,14.603946,-120.85433941194565,61.7827718602594,34.633350519908866,-371.45995580729465,-100.4547706277284,230.4828261478345,0
5263.0,14.620614,35.56661062767405,-126.59671855815571,198.93229869680465,-162.2165410820943,-161.3738593130306,160.03790081957615,0
5269.0,14.637282,93.17624666628328,171.85450661021312,147.4503248946991,-438.95278430688745,117.84259652297315,107.02213324354624,0
5275.0,14.65395,-39.71538953076007,-176.35454508601356,156.07217987618543,-209.6905653996384,-191.77949797224392,10.48971049348042,0
5281.0,14.670618,-40.639666024449134,-37.56949313465498,-193.6227562090237,-279.37633122955543,-132.95717840786992,115.99421453772447,0
5287.0,14.687286,456.33901881291615,-68.83317971876038,563.3659073434492,-209.29074570326395,3.804248131055672,-90.9079261510421,0
5293.0,14.703954,-351.52016274455764,188.021347193414,-61.56289945616602,-301.4221036926468,157.16502408139064,323.4610504466837,0
5299.0,14.720622,-351.95605583218247,111.9019136092416,255.43594801346003,-21.480634390036634,-11.270008717721012,-32.42494920760856,0
5305.0,14.73729,931.3226692914224,-173.78806915778796,-569.5792477260767,-147.85594613865604,-43.87267307921009,25.585655729948314,0
5311.0,14.753958,-685.5915611760444,7.503047337663141,413.8796457649659,-110.23295232922366,-6.813867851301609,-49.23497236378063,0
5317.0,14.770626,262.5049884057513,140.47383946293962,-260.20931496283043,-106.39738354623816,22.78636147503316,135.14506049467838,0
5323.0,14.787294,-87.14965131631314,143.9197032616495,11.09295048828983,80.64934842431049,162.85696881310304,-72.30593814440051,0
5329.0,14.803962,195.99106984891,-24.90081035863249,-150.51578686828492,-32.20191423283403,-17.82957262062351,-76.63754085403001,0
5335.0,14.82063,-180.98786926270645,22.43978452322657,-38.39109853563794,84.88395137425672,61.45050830677641,78.85338995261414,0
5341.0,14.837298,165.96309127031418,156.978334922655,-205.0103435271826,74.82082215248805,-13.641537858085854,-117.76531543147657,0
5347.0,14.853966,-417.9324775282042,-110.428816812194,162.4169991765281,150.7990732141627,39.98300332796597,38.847675869253976,0
5353.0,14.870634,108.02095307221131,-105.4619646988222,-179.45264578018268,73.75730739358407,-70.80750009350425,163.23199291113008,0
5359.0,14.887302,-75.5755898570945,-3.667005558721137,-3.712387946835843,145.97465415381242,186.9677711563166,96.40983496910891,0
5365.0,14.90397,-7.432025697812748,-72.50665580349148,-1.7296318627241778,184.7673731694977,-54.447778667588864,33.16604039858453,0
5371.0,14.920638,-383.3482064314682,-194.18670370564888,89.73881163177748,258.94064849609094,53.335488163617896,123.52779073069776,0
5377.0,14.937306,116.90231364755635,-43.20776430288919,129.8239179332983,-2.097960076041545,190.2007259563864,-80.84800485608162,0
5383.0,14.953974,17.086818499000334,23.55897891997016,-36.67694261360792,429.5510692275885,143.05196618305345,-6.695884847045221,0
5389.0,14.970642,-18.05969038099679,-85.74713773805547,44.76641321769774,7.438588265078067,-36.54860970673712,74.55792544207041,0
5395.0,14.98731,-219.5393419173025,145.63642882839193,81.62547196875639,203.66185711770828,99.04470093956031,-37.724232139665006,0
5401.0,15.003978,309.8987606071619,677.8458736495227,16.662673454100286,326.5765376526989,800.9293900197838,185.94917146501945,0
5407.0,15.020646,-28.84910531834014,-442.1010575245874,82.45250604552186,48.7415262082078,-249.12065342070204,137.5748909188393,0
5413.0,15.037314,-257.429601886995,214.00594421841404,137.8306746000294,284.97985652081906,141.6922287807738,-199.84832096129009,0
5419.0,15.053982,259.2079169021751,214.8787083022885,-83.93447604237898,913.8209941174892,6.474476995535152,-627.2802222455015,0
5425.0,15.07065,39.7408671545664,-63.08318098306444,44.61804250668421,-959.3168199728624,211.9275690895439,961.309222427891,0
5431.0,15.087318,83.18648366814764,126.48719784564211,15.368860262279078,684.0824437400514,-104.10951287329344,-454.0754004550296,0
5437.0,15.103986,-28.055842125875586,126.60965783990206,70.00037884544284,-59.699180546203465,94.7760905546646,32.756811814025085,0
5443.0,15.120654,349.04964383080926,-69.59371035589197,-262.1356907624702,-152.14819803965167,-303.82677209917904,153.90831614857382,0
5449.0,15.137322,-191.7729877347318,188.2764008329156,81.6655692876887,121.0228870591984,75.4435067469727,-41.13445334645228,0
5455.0,15.15399,67.60457042363431,61.00380074467196,46.42938888099899,383.3532213232336,244.45873411395723,-121.45126259817972,0
5461.0,15.170658,257.27776450237576,-6.307188224380376,108.56055699737564,-263.4937587450248,-259.0325864002724,86.13999113959201,0
5467.0,15.187326,-67.99386837812096,135.29440156268265,-128.20461466413667,70.34864174955158,63.70053248663005,-42.03517123179201,0
