Timestamp,Rotation X,Rotation Y,Rotation Z,Rotation W,Acceleration X,Acceleration Y,Acceleration Z
2026-01-14 17:25:22.371,-95250530,-45189400,-34222000,-6948496,46691900,-4244995,-6719971
2026-01-14 17:25:22.381,-55427430,-46052570,-35085160,-46598950,5355835,-68725580,-49926760
2026-01-14 17:25:22.391,-55427430,-58988860,50702460,-46598960,20736690,-71899420,-57281500
2026-01-14 17:25:22.401,-55426570,-97140860,12550460,-46599820,-28362270,-68237300,-28915400
2026-01-14 17:25:22.411,-55340260,-98004030,11687290,-46513510,12191770,-6173706,-35095220
2026-01-14 17:25:22.421,-55253940,-59247810,50443510,-46427190,-1578331,-123535200,-45959470
2026-01-14 17:25:22.431,-55253940,-99730360,9960960,-46427190,16498570,-1361084,-24551390
2026-01-14 17:25:22.441,-55167620,-99730360,9960960,-46340870,31261440,-7745361,31707760
2026-01-14 17:25:22.451,-55167620,-59256440,50452140,-46340870,16775130,-3289795,64453120
2026-01-14 17:25:22.461,-94879360,-59256440,50452140,-6629127,18005370,-3741455,60058590
2026-01-14 17:25:22.471,-49191910,-99738990,9969586,39058320,-18569950,-4940796,3878784
2026-01-14 17:25:22.481,-9480167,-99738990,9969584,-653421,9,-3543091,-60668940,18529890
2026-01-14 17:25:22.491,-4919191,-99738990,9969584,3907555,-56266780,-12609860,-27053830
2026-01-14 17:25:22.501,-9462904,-99738990,9969584,-636158,9,41992190,-9442139,-4107666
2026-01-14 17:25:22.511,-49157380,-100602200,9106418,39092850,57128900,-12768560,-5493164
2026-01-14 17:25:22.521,-49148760,-51234160,-40261580,39101480,4434204,-15197750,-57250980
2026-01-14 17:25:22.531,-49140120,-51234160,-40261580,39110120,6149292,-16918940,-3652954
2026-01-14 17:25:22.541,-49131490,-10147400,825189,4,39118750,70373540,-17114260,-19454960
2026-01-14 17:25:22.551,-49114230,-5209822,-4112387,39118750,826416,-13085940,-32157900
2026-01-14 17:25:22.561,-49105600,-5209822,-4112387,39127380,51605220,-12054440,3366089
2026-01-14 17:25:22.571,-49105600,-5209822,-4112387,39127380,12275700,-9893799,2633667
2026-01-14 17:25:22.581,-49105600,-5209822,-4112387,39127380,-7785797,-7965088,40496820
2026-01-14 17:25:22.591,-49114230,-5209822,-4112387,39136010,-4660034,-82214350,59265140
2026-01-14 17:25:22.601,-49114230,-51234160,-40261580,39136010,-6335449,-8404541,6652832
2026-01-14 17:25:22.611,-49105600,-51234160,-40261580,39144640,-3201294,-8831787,435791
2026-01-14 17:25:22.621,-9393853,-51234160,-40261580,-567103,3,-116119400,-7904053,21224980
2026-01-14 17:25:22.631,-4910559,-99738990,9969584,3916186,17059330,-56610110,-76675420
2026-01-14 17:25:22.641,-9377451,-99738990,9969584,-548978,9,12397770,-8178711,-30334470
2026-01-14 17:25:22.651,-9368819,-99738990,9969584,-540346,9,39489740,-1171875,-46447750
2026-01-14 17:25:22.661,-49096960,-99738990,9969586,39205060,97839350,-8618164,-3540039
2026-01-14 17:25:22.671,-49088340,-99738990,9969586,39213690,8502197,-6585693,-18310550
2026-01-14 17:25:22.681,-49079700,-99730370,9960958,39222320,34179690,-7116699,-98724370
2026-01-14 17:25:22.691,-9336018,-99730370,9960956,-504094,4,9498596,-7952881,8178711
2026-01-14 17:25:22.701,-9336017,-59247820,50443500,-504092,4,36499020,-53527830,22903440
2026-01-14 17:25:22.711,-9336882,-9885857,1081549,-503226,8,18615720,-67871100,22613520
2026-01-14 17:25:22.721,-9336884,-48642080,-37674670,-503228,8,26382450,-5545044,40863040
2026-01-14 17:25:22.731,-49096960,-48641210,-37675530,39256850,4385376,-5834961,3564453
2026-01-14 17:25:22.741,-9347242,-47778040,-36812360,-510134,3,27877810,-6262207,19897460
2026-01-14 17:25:22.751,-9347240,-97114970,12524560,-510136,4,43701170,-89782710,-27580260
2026-01-14 17:25:22.761,-4920496,-97978140,11661390,-4919617,29403690,-7904053,-2418518
2026-01-14 17:25:22.771,-4920498,-48639480,-37677260,-4919615,51513670,-81848140,-40222170
2026-01-14 17:25:22.781,-9331704,-9883268,1078960,-491142,8,50750730,-8300781,-5154419
2026-01-14 17:25:22.791,-9331704,-9882404,1078096,-491142,8,4525757,-92285150,-56762700
2026-01-14 17:25:22.801,-49114230,-50364950,-39404460,39308640,28762820,-847168,-5581665
2026-01-14 17:25:22.811,-9324798,-99678580,9909164,-480789,4,42785640,-85876460,-43792720
2026-01-14 17:25:22.821,-9316166,-99678580,9909164,-472157,4,6088257,-8453369,-3338623
2026-01-14 17:25:22.831,-9317029,-99678580,9909164,-471293,9,44128420,-10736080,-11161800
2026-01-14 17:25:22.841,-49131490,-50363230,-39406180,39343170,28335570,-95703130,-3665924
2026-01-14 17:25:22.851,-9318756,-9879814,1075507,-469563,8,9346008,-8911133,6088257
2026-01-14 17:25:22.861,-9318756,-9879814,1075507,-469563,8,28533940,-6555176,-1676941
2026-01-14 17:25:22.871,-9319618,-97926350,11609600,-468704,4,24993900,-6585693,16174320
2026-01-14 17:25:22.881,-49157390,-97917710,11600970,39369060,18722530,-6707764,-31707760
2026-01-14 17:25:22.891,-44751780,-97054540,12464140,43774670,2720642,-9185791,-35736080
2026-01-14 17:25:22.901,-44760410,-97054540,12464140,43783300,3515625,-8190918,-3475952
2026-01-14 17:25:22.911,-9304946,-4690711,-3595696,-448847,5,20446780,-9454346,-47332760
2026-01-14 17:25:22.921,-53110700,-41116380,-40021360,-44254600,25360110,-8258057,-637207
2026-01-14 17:25:22.931,-53025240,-45179910,-34231490,-44167410,47729490,-59783940,-5166626
2026-01-14 17:25:22.941,-92721450,-9358462,1589958,-4125944,15609740,-95214850,-55664060
2026-01-14 17:25:22.951,-92635130,-91849650,17617250,-4039627,-48294070,-10437010,-36834720
2026-01-14 17:25:22.961,-52681700,-58358750,51108150,-43820420,66337580,-10083010,-31463620
2026-01-14 17:25:22.971,-52509060,-89260140,20206760,-43647790,40893560,-7861328,-66452020
2026-01-14 17:25:22.981,-5233727,-58013480,51453410,-4347432,31463620,-82336420,-2067566
2026-01-14 17:25:22.991,-5225099,-36546510,-25601550,-4338799,-16260150,-7293701,-14514920
2026-01-14 17:25:23.001,-49088330,-34820180,-23875210,39558960,25405880,-58898930,13214110
2026-01-14 17:25:23.011,-49071070,-81491640,27975260,39576220,72021490,-22705080,13465880
2026-01-14 17:25:23.021,-917026,8,-57236630,52230260,-30731,24,9112549,-29663090,48561100
2026-01-14 17:25:23.031,-5164675,-78038970,31427930,-4278380,10107420,2166748,17089840
2026-01-14 17:25:23.041,-5147414,-27053390,-16104980,-4261114,101989700,907135,-3419876
2026-01-14 17:25:23.051,-5130150,-26190230,-15241810,-4243850,12426760,22262570,-13183590
2026-01-14 17:25:23.061,-9109006,-25327060,-14378640,-247730,2,9588623,13175960,-48103330
2026-01-14 17:25:23.071,-9091744,-19537190,-18442180,-230467,793457,-31471250,-323,2956
2026-01-14 17:25:23.081,-9074480,-19537190,-18442180,-213203,5,44128420,-37902830,-32043460
2026-01-14 17:25:23.091,-9065849,-19537190,-18442180,-204572,1386261,-4727173,-29251100
2026-01-14 17:25:23.101,-9048586,-19537190,-18442180,-187308,5,19317630,-57250980,-3665161
2026-01-14 17:25:23.111,-5043834,-19537190,-18442180,-4157533,17181400,-62194820,-27740480
2026-01-14 17:25:23.121,-46277340,-19537190,-18442170,-45391040,4962921,-6774902,-27709960
2026-01-14 17:25:23.131,-89985210,-23600720,-12652300,-1337912,-11367800,-82458500,-10322570
2026-01-14 17:25:23.141,-89898890,-23600720,-12652300,-1251592,29449460,-62408450,459671
2026-01-14 17:25:23.151,-89812580,-22737560,-11789140,-1165276,26367190,-4598999,19378660
2026-01-14 17:25:23.161,-89726260,-7114226,3834194,-1078960,4043579,-21896360,20004270
2026-01-14 17:25:23.171,-89639940,-7114226,3834194,-992640,3,58685300,-6707764,16052250
2026-01-14 17:25:23.181,-89553620,-7114226,3834194,-906328,3,23101810,-5731201,26641850
2026-01-14 17:25:23.191,-48838010,-21011220,-10062800,39809280,3668213,-4006958,25009160
2026-01-14 17:25:23.201,-8947594,-21011220,-10062810,-81138,24,39611820,-74523930,4020691
2026-01-14 17:25:23.211,-4883802,-7114227,3834190,3982654,-74310300,-109558100,-15037540
2026-01-14 17:25:23.221,-8931190,-56373470,53093430,-63013,39,-40039060,-1105957,-19741060
2026-01-14 17:25:23.231,-48846650,-71996800,37470100,39852440,-32562260,-62438960,32989500
2026-01-14 17:25:23.241,-48846650,-22735830,-11790860,39852440,-18081660,-440979,75927740
2026-01-14 17:25:23.251,-48846650,-22735830,-11790860,39869700,-45196530,-28274540,82458500
2026-01-14 17:25:23.261,-8925152,-22734970,-11791730,-51791,24,-43548580,-4928589,62927250
2026-01-14 17:25:23.271,-8926013,-71970900,37444200,-50929,89,1726,151,-47973630,70251460
2026-01-14 17:25:23.281,-8926012,-56347570,53067530,-50928,89,19241330,-39245600,418396
2026-01-14 17:25:23.291,-48872540,-7109913,3829877,39895600,3668213,-41503900,27633670
2026-01-14 17:25:23.301,-8919109,-7109911,3829875,-40569,24,54138180,-78552250,-4798889
2026-01-14 17:25:23.311,-8919109,-7109047,3829011,-40569,24,49438480,-11694340,-10063170
2026-01-14 17:25:23.321,-8919109,-7109047,3829011,-40569,24,7269287,-12237550,-11230470
2026-01-14 17:25:23.331,-8919972,-7109047,3829011,-39705,74,85998540,-12792970,-1158905
2026-01-14 17:25:23.341,-8919973,-22732380,-11794320,-39706,74,7940674,-13354490,-9002686
2026-01-14 17:25:23.351,-8928604,-22731510,-11795180,-48338,24,7598877,-109436000,22720340
2026-01-14 17:25:23.361,-8928604,-22731510,-11795180,-48338,24,6713867,-9259033,29083250
2026-01-14 17:25:23.371,-44860540,-7108186,3828150,43959390,6011963,-6573486,6549072
2026-01-14 17:25:23.381,-48924330,-7108186,3828150,39895600,66223140,-3326416,9613037
2026-01-14 17:25:23.391,-89639940,-21005180,-10068840,-820012,3,75927740,-1713562,10882570
2026-01-14 17:25:23.401,-89726260,-70210040,39136010,-906326,4,109375,-30822750,10797120
2026-01-14 17:25:23.411,-89898890,-70210040,39136010,-1078962,1451416,-13038640,97839350
2026-01-14 17:25:23.421,-89985200,-69346870,39999180,-1165278,15039060,-3894043,70373540
2026-01-14 17:25:23.431,-50101700,-20142010,-9205678,-41221430,10101320,-31707760,6048584
2026-01-14 17:25:23.441,-50274320,-6849232,4087100,-41394060,9777832,-8306885,51574710
2026-01-14 17:25:23.451,-50359780,-6849232,4087100,-41481240,7421875,-9869385,50720220
2026-01-14 17:25:23.461,-48984760,-18416540,-7478481,39783390,9289551,-11584470,7342529
2026-01-14 17:25:23.471,-9046859,-18417400,-7477620,-171771,2,21594240,-77697750,7659912
2026-01-14 17:25:23.481,-48984750,-67655060,41760040,39731600,24694820,-2696228,95581060
2026-01-14 17:25:23.491,-9069301,-18419130,-7475894,-201119,2,24353030,36315920,10656740
2026-01-14 17:25:23.501,-44788890,-56114520,53352380,43858400,27246090,6719971,9320068
2026-01-14 17:25:23.511,-9109006,-15221350,-14126340,-247729,5,2529297,11291500,5041504
2026-01-14 17:25:23.521,-9123678,-70304990,39230960,-267584,9,20800780,7897949,35308840
2026-01-14 17:25:23.531,-9146986,-22741870,-11784820,-296067,8,18786620,43060300,16355520
2026-01-14 17:25:23.541,-4896750,-24469930,-13509430,3948990,15759280,25634770,-39123540
2026-01-14 17:25:23.551,-9184965,-26198860,-15233180,-344404,8,12451170,-23956300,-59631350
2026-01-14 17:25:23.561,-48958860,-77288020,32403310,39394960,70251460,-50933840,-7751465
2026-01-14 17:25:23.571,-92143130,-29654980,-18682390,-3841096,27954100,-107421900,-8734131
2026-01-14 17:25:23.581,-92289860,-57383370,52377000,-4039623,12374880,-11340330,-9967041
2026-01-14 17:25:23.591,-52660980,-79074770,30737400,-43841140,35083010,-93688970,-12310790
2026-01-14 17:25:23.601,-92514290,-75622100,34190060,-4333107,14831540,1628418,86242670
2026-01-14 17:25:23.611,-52747300,-7129761,3849729,-43927450,-14355470,-6626129,59173580
2026-01-14 17:25:23.621,-92194910,-17573230,-6595459,-3961940,-29907230,-6732178,6829834
2026-01-14 17:25:23.631,-48907070,-5489574,5488193,39343170,-45166020,-9161377,-50849920
2026-01-14 17:25:23.641,-48881170,-5490610,5487158,39369070,-32714840,-25390620,-13049320
2026-01-14 17:25:23.651,-48855280,-5485431,5492337,39394960,-8105469,-16967770,-22583010
2026-01-14 17:25:23.661,-48829380,4869127,15846890,39420860,-1071167,12557980,-13000490
2026-01-14 17:25:23.671,-9091742,-3848864,7128900,-264992,8,-18981930,8728027,-1459961
2026-01-14 17:25:23.681,-48760330,15226270,26205770,39489910,-17834470,-11468510,-28881840
2026-01-14 17:25:23.691,-48725800,-30737400,79074770,39507170,-56427000,-18334960,-34594730
2026-01-14 17:25:23.701,-50331290,-5215256,5767687,-41509720,12321470,113342300,-31640620
2026-01-14 17:25:23.711,-50071480,-2471247,8513422,-41251640,6088257,19665530,-2734375
2026-01-14 17:25:23.721,-89665820,-51651940,58212020,-1484650,11151120,198555,-27807620
2026-01-14 17:25:23.731,-49983430,-51574250,58306960,-41167050,10473630,-86242670,-25219730
2026-01-14 17:25:23.741,-50069750,-51401620,58479600,-41253370,-12702940,17944340,-25146480
2026-01-14 17:25:23.751,-50242380,-16952600,92911340,-41426000,-24743650,21008300,-1685791
2026-01-14 17:25:23.761,-89924780,-15226270,94637680,-1743602,-38354490,19921880,-14489750
2026-01-14 17:25:23.771,-89752140,-14363100,95500850,-1570970,-3972168,16223150,-1463623
2026-01-14 17:25:23.781,-49898840,35076540,46061210,-41079000,-3347168,15356450,-24536130
2026-01-14 17:25:23.791,-8925149,36802870,47787540,-103578,2,-31591800,11114500,-140625
2026-01-14 17:25:23.801,-48570430,37666900,48649840,39662540,-359375,7928467,-11175540
2026-01-14 17:25:23.811,-48510010,-1089319,9893627,39740230,-3774414,8728027,-11047360
2026-01-14 17:25:23.821,-47399110,39393230,50376180,-38572360,-2993164,36849980,-61523440
2026-01-14 17:25:23.831,-46449620,39392370,50377040,-37622880,-13354490,27557370,-1161499
2026-01-14 17:25:23.841,-45241190,-10047270,99816680,-36414450,9387207,-5822754,-50689700
2026-01-14 17:25:23.851,-43946440,-9192736,100688500,-35119700,14111330,-2536621,14595030
2026-01-14 17:25:23.861,-47948950,-748368,5,10243210,40301290,21716310,-7159424,-14697270
2026-01-14 17:25:23.871,-41180860,-492004,10504750,-32361010,48291020,1730957,-14294430
2026-01-14 17:25:23.881,-39625430,-236506,5,10767150,-30809040,56591800,20239260,30319210
2026-01-14 17:25:23.891,-7745199,-54997580,55108060,1064283,52197260,39733890,12408450
2026-01-14 17:25:23.901,-35991500,272762,5,11293680,-27192370,70751950,-8276367,10284420
2026-01-14 17:25:23.911,-34172800,-49122860,61207200,-25385760,11708980,1194458,9857178
2026-01-14 17:25:23.921,-7190182,62092810,62203300,1579599,16376950,26660160,18664550
2026-01-14 17:25:23.931,-70158250,854534,5,11920350,17332400,1671875,3486328,28320310
2026-01-14 17:25:23.941,-6840601,931357,12016150,1886021,14179690,38183590,28393560
2026-01-14 17:25:23.951,-27396070,1092771,12200010,-18697070,12099610,41137700,27148440
2026-01-14 17:25:23.961,-64573550,-48846650,62484690,22105720,13173830,33007810,10821530
2026-01-14 17:25:23.971,-45091860,-48648120,62976700,41224870,17382810,34472660,12634280
2026-01-14 17:25:23.981,-21731100,6949794,8069322,-13140860,19306640,42456060,7574463
2026-01-14 17:25:23.991,-58263800,-48302850,64012500,27189770,20371090,42700200,13549810
2026-01-14 17:25:24.001,-56019570,-4806981,6464264,28916110,19960940,4338379,7067871
2026-01-14 17:25:24.011,-15871920,-47759050,65367670,-7433600,18369140,50634770,25146480
2026-01-14 17:25:24.021,-13857290,3729747,15087300,-5477660,15400390,51660160,29516600
2026-01-14 17:25:24.031,-117520200,4567883,15975510,-34397220,12636720,51123050,56365970
2026-01-14 17:25:24.041,-58500310,-45989560,68604540,-50258790,11865230,7651367,34155270
2026-01-14 17:25:24.051,-7103004,12026510,13177980,1060833,12353520,7626953,28344730
2026-01-14 17:25:24.061,-40396750,8369271,19942620,40395720,10761720,57373050,51849360
2026-01-14 17:25:24.071,15858120,-42113940,74223770,23847590,72509770,61621100,6274414
2026-01-14 17:25:24.081,8864736,-40102770,76873700,87810020,50146480,56591800,55145260
2026-01-14 17:25:24.091,-30944550,-37487360,80127830,46999460,42456060,44311520,7476807
2026-01-14 17:25:24.101,7721896,-3444902,8382219,15410990,2998047,2524414,-22964480
2026-01-14 17:25:24.111,11488760,22624480,34517200,19067370,49291990,17944340,-14656070
2026-01-14 17:25:24.121,-35389860,-56502940,63080280,39239590,68896480,19787600,21102900
2026-01-14 17:25:24.131,-13404990,31534960,43560610,60016030,6328125,28759770,15515140
2026-01-14 17:25:24.141,-33318260,-17902090,103010400,38825270,57128900,40527340,3083496
2026-01-14 17:25:24.151,28310170,-1288711,10869870,35391590,4428711,546875,38256840
2026-01-14 17:25:24.161,-3108264,47577790,59800240,3835055,39501950,7441406,47387700
2026-01-14 17:25:24.171,37514980,53501700,65788030,44313290,45361330,81396480,39501950
2026-01-14 17:25:24.181,42163140,-55139140,68345600,48814700,60539250,6899414,4482422
2026-01-14 17:25:24.191,1798845,66735790,79139500,8300221,-5419922,27612300,45751950
2026-01-14 17:25:24.201,2392701,1808336,14263840,8742160,-7651367,-60821530,3708496
2026-01-14 17:25:24.211,-24885120,-6251835,6252012,37055780,-5493164,-28152470,12878420
2026-01-14 17:25:24.221,3568338,-53076160,72376590,9603598,-31420900,20214840,-3166504
2026-01-14 17:25:24.231,41147200,-52489220,73377860,99894370,101257300,5415039,-64990230
2026-01-14 17:25:24.241,-21095810,-51928150,74335980,36028600,34204100,69677740,-8798828
2026-01-14 17:25:24.251,-19947800,-62121300,64505360,35571120,26391600,76953130,-10673830
2026-01-14 17:25:24.261,-18868840,-50892350,76079580,35061860,4043579,7998047,-11308590
2026-01-14 17:25:24.271,5709853,6867361,19597360,10949280,-26171880,4741211,-79589840
2026-01-14 17:25:24.281,-16943980,7492293,20249910,33965640,-79248050,-42773440,-14172360
2026-01-14 17:25:24.291,-16080810,8188869,20968930,33378680,-14335940,-12119140,57666020
2026-01-14 17:25:24.301,6368453,-48639480,79316460,11171110,-15976560,-13056640,8769531
2026-01-14 17:25:24.311,-14423520,-47914430,80162370,32170250,-14492190,-12792970,59716800
2026-01-14 17:25:24.321,8742422,-47120310,81008260,9194198,-10976560,-14199220,54052740
2026-01-14 17:25:24.331,-12887080,-46265780,81862800,30927290,-8901367,-20058590,6738281
2026-01-14 17:25:24.341,-12213820,12301860,25107810,30254020,-7495117,-21796880,8569336
2026-01-14 17:25:24.351,-11618230,13185750,25984790,29520330,-10136720,-1640625,13222660
2026-01-14 17:25:24.361,6873404,14062720,26851410,10856060,-71435540,-19541020,14980470
2026-01-14 17:25:24.371,67896750,-61732020,65999500,106463100,-6152344,-22089840,17480470
2026-01-14 17:25:24.381,-1015081,-41544250,85997370,2718976,-6435547,-22070310,19179690
2026-01-14 17:25:24.391,-9796946,-40534340,86782860,26352500,-5332031,-2125,22929690
2026-01-14 17:25:24.401,-9494838,-39472650,87551070,25497970,-43847660,-22148440,26015620
2026-01-14 17:25:24.411,-9244520,18655640,31321760,24643430,-51953120,-22207030,28847660
2026-01-14 17:25:24.421,-9037361,19661230,32284190,23797530,-6225586,-22226560,29941410
2026-01-14 17:25:24.431,54526290,-3588191,8984708,86342640,-63916020,-21074220,33984380
2026-01-14 17:25:24.441,-8709360,-3453534,9058943,22122980,-38012700,-15703130,37636720
2026-01-14 17:25:24.451,-8597148,-3311111,9132313,21302970,6500244,-6972656,3578125
2026-01-14 17:25:24.461,45117760,-3166965,9202227,74171980,44213870,-6677246,29296880
2026-01-14 17:25:24.471,4137162,-3018497,9269555,6963171,39233400,-36450200,32324220
2026-01-14 17:25:24.481,37142100,-28760740,93325660,64539030,-19750980,13681640,2828125
2026-01-14 17:25:24.491,-12887950,-2737105,9388673,13818450,-54345700,15732420,23242190
2026-01-14 17:25:24.501,29080110,-2601589,9439598,55165030,-41796880,13886720,17167970
2026-01-14 17:25:24.511,24703860,-24721120,94862100,50219080,-7993164,16513670,11220700
2026-01-14 17:25:24.521,-9227255,-23495420,95276420,15821860,-12441410,14902340,6591797
2026-01-14 17:25:24.531,27510880,-55314360,62646100,29976080,-13691410,10253910,13305660
2026-01-14 17:25:24.541,2347126,-2121666,9594970,2590193,-10839840,69921870,-77001950
2026-01-14 17:25:24.551,8545358,-2018951,9623454,32541410,-86279300,8520508,-16074220
2026-01-14 17:25:24.561,-10228530,-54017020,61733740,13525830,-5239258,9243164,-21210940
2026-01-14 17:25:24.571,379794,3331825,4483292,23961530,-7001953,6616211,-19570310
2026-01-14 17:25:24.581,-4056885,33767980,45229110,19421270,-9926758,4260254,-13896480
2026-01-14 17:25:24.591,19343580,-1723747,9690781,42804470,-6669922,14196780,-8227539
2026-01-14 17:25:24.601,-19301290,-1675408,9699414,-16951750,-4633789,-32617190,-7236328
2026-01-14 17:25:24.611,-8341650,-1633112,9705455,-5986930,-54003900,-5078125,-7006836
2026-01-14 17:25:24.621,-14044600,34888360,46197580,-11677790,-8652344,-13793950,-6220703
2026-01-14 17:25:24.631,-30832340,-52351100,60482140,-6974396,-1203125,-84350580,-1003418
2026-01-14 17:25:24.641,-26583830,-1558016,9704593,-24170410,-16103520,-1751709,85791020
2026-01-14 17:25:24.651,-33420120,-1534710,9700278,-30972170,-20507810,-8795166,17148440
2026-01-14 17:25:24.661,-51721000,-1506226,9694237,-26827240,-234375,1295166,15361330
2026-01-14 17:25:24.671,-5914419,-14777430,96847390,-3373259,-24980470,18164060,13994140
2026-01-14 17:25:24.681,-66860950,35559050,46683550,-40862350,-28007810,16845700,15693360
2026-01-14 17:25:24.691,-7480205,-14216370,96597070,-4811296,-31367190,21606440,21171880
2026-01-14 17:25:24.701,-20672860,35761030,46792310,6793131,-36171880,17871090,32558590
2026-01-14 17:25:24.711,-21933080,-13456780,96234540,6396071,-42226560,13623050,39453120
2026-01-14 17:25:24.721,-23288250,-12938880,96010110,6007645,-46171880,31274410,3390625
2026-01-14 17:25:24.731,-24729750,-1242962,9574255,5619219,-53554690,5776367,31269530
2026-01-14 17:25:24.741,-26292080,41232210,42305130,5230797,-62734380,53515620,28925780
2026-01-14 17:25:24.751,-13189200,-4898475,5735748,-9909163,-68046870,7949219,21269530
2026-01-14 17:25:24.761,-29727490,-1078097,9457727,4505736,-76054690,79589840,16054690
2026-01-14 17:25:24.771,-31635080,-10263060,94024830,4169099,-8203125,58496100,14287110
2026-01-14 17:25:24.781,-20256810,41304890,42336030,17273710,-890625,59765620,4038086
2026-01-14 17:25:24.791,-35847340,3659657,4678542,3530356,-9171875,5019531,-328125
2026-01-14 17:25:24.801,-38143370,-883020,3,9176335,3219614,-91328130,11230470,-13232420
2026-01-14 17:25:24.811,-23624030,-849358,9077070,19862350,-80859380,640625,-26367190
2026-01-14 17:25:24.821,-24848860,-44908010,53044230,20812690,-5640625,15222170,-40078120
2026-01-14 17:25:24.831,-45557980,35215500,44886430,2278764,-3734375,2409668,-484375
2026-01-14 17:25:24.841,-25220720,-848494,8,8698139,24756680,-14472660,2253418,-55195310
2026-01-14 17:25:24.851,-50935510,-43285260,50938100,1148008,16474610,6269531,-72109380
2026-01-14 17:25:24.861,-53723540,-94516,84,835980,1,431584,71914060,67333980,-88984380
2026-01-14 17:25:24.871,-56425260,30934200,40156280,-405688,2,150703100,22578120,-89453130
2026-01-14 17:25:24.881,-31812900,-42553290,49287720,25777630,2140625,490625,-79804690
2026-01-14 17:25:24.891,-61328050,-42774260,49066760,-2563610,28453120,5140625,-17373050
2026-01-14 17:25:24.901,-63511860,24351680,33549600,-4747420,28703120,89921870,37792970
2026-01-14 17:25:24.911,-6527271,21505820,30750340,-804470,7,2153125,138984400,62070310
2026-01-14 17:25:24.921,-66446620,18290520,27629990,-11514650,13875,-119921900,-43188480
2026-01-14 17:25:24.931,-6648976,-29373590,65557570,-1956802,-1093125,-2796875,-10605470
2026-01-14 17:25:24.941,-44822560,-44573970,48389170,-39629750,-783125,-101875,-4946875
2026-01-14 17:25:24.951,-34618200,-1697851,6989069,27011960,2059375,6334375,-83203130
2026-01-14 17:25:24.961,-67240740,25251100,33841340,2606770,147375,30625,21875
2026-01-14 17:25:24.971,-66999060,-1368984,7271326,794113,8,8625,-13320310,99453130
2026-01-14 17:25:24.981,-66101360,-41539930,47280000,-1691810,-64101560,1040625,-20015620
2026-01-14 17:25:24.991,-6446134,-1727198,7420651,-217518,2,61132810,12158200,-67226560
2026-01-14 17:25:25.001,-32958320,-1854948,7531138,26341280,143203100,34140620,-42265620
2026-01-14 17:25:25.011,-31315710,-20370750,76183160,24721120,-5328125,46132810,-78125
2026-01-14 17:25:25.021,-29965720,2245443,3237397,23464340,-126953100,-14277340,-16025390
2026-01-14 17:25:25.031,-28820300,-2342637,7785771,22434590,-12359380,-44335940,22128910
2026-01-14 17:25:25.041,-27806940,26753100,27781820,21531710,-141484400,-40820310,18105470
2026-01-14 17:25:25.051,-27020590,22298200,32702830,20867940,-1521875,-33847660,17753910
2026-01-14 17:25:25.061,-53516380,-49617460,55205600,-6577339,-151484400,-40273440,31972660
2026-01-14 17:25:25.071,-52446060,-2397879,8125860,-5973118,-131953100,-37128900,37109380
2026-01-14 17:25:25.081,-51384360,-49742610,55650130,-5066797,-9703125,-28710940,32324220
2026-01-14 17:25:25.091,-50296760,-22157510,83235240,-3996466,-70039060,-22011720,26386720
2026-01-14 17:25:25.101,-23419020,-21044020,84227880,22898540,-55390620,-17529300,24296880
2026-01-14 17:25:25.111,-25134400,-19826960,85168740,-24670360,-42617190,-13046880,25957030
2026-01-14 17:25:25.121,-47042620,-18514940,86066420,-552426,3,-23300780,-37402340,17109380
2026-01-14 17:25:25.131,-45963660,29638580,40053560,526535,8,-14052730,-36193850,7817383
2026-01-14 17:25:25.141,-2397704,-51500620,52217570,-1933670,-13378910,32910160,22497560
2026-01-14 17:25:25.151,-43771220,31633360,41960300,2529082,-10966800,7820129,2590332
2026-01-14 17:25:25.161,-42718160,-4764167,5517886,3478566,-7685547,-4156494,-725708
2026-01-14 17:25:25.171,-4172550,33388180,43623620,438490,4,-37451170,-85998540,-114868200
2026-01-14 17:25:25.181,-40793290,3416244,4435129,5248060,10940550,-13671880,-4819336
2026-01-14 17:25:25.191,-19197710,-46753460,54737760,-14603930,9946289,-17929080,-13701170
2026-01-14 17:25:25.201,-38963380,35432160,45550210,6836289,17431640,-5185547,-21269530
2026-01-14 17:25:25.211,-38057050,-952936,8,9147850,7552715,1640625,-10371090,-26972660
2026-01-14 17:25:25.221,-24128980,-9132312,91841020,21239100,10566410,-13535160,-32011720
2026-01-14 17:25:25.231,-36201240,-889062,8,9216903,8890625,-4827881,-13642580,-32109380
2026-01-14 17:25:25.241,-35269020,-46449630,54817180,9529367,-53271480,-13330080,-32363280
2026-01-14 17:25:25.251,-34371330,-46584290,54976000,10185370,-6347656,-13183590,-34628900
2026-01-14 17:25:25.261,-33482260,-46788000,55186620,10850010,-5209961,-12646480,-37285160
2026-01-14 17:25:25.271,-32610460,36789920,47040900,11514660,-29614260,-11230470,-40234380
2026-01-14 17:25:25.281,-31764560,36584490,46901070,12187930,-13513180,-9501953,-44609380
2026-01-14 17:25:25.291,-30953180,36251300,46647300,12861200,-15197750,-7890625,-46875
2026-01-14 17:25:25.301,-10539270,-1139381,9349830,-6171647,-73876950,-3684082,-44882810
2026-01-14 17:25:25.311,-29494430,-48900160,57010480,14078260,-14736330,4440918,-40820310
2026-01-14 17:25:25.321,-9287682,-1355173,9344651,-4937318,-19853520,12236330,-33691410
2026-01-14 17:25:25.331,-28329150,-1482923,9332567,15209010,-19501950,16904300,-24609380
2026-01-14 17:25:25.341,-8200090,-1617576,9315303,-3832464,-17353520,20761720,-19101560
2026-01-14 17:25:25.351,-27457350,32117600,43167870,16460610,-12226560,24101560,-14941410
2026-01-14 17:25:25.361,-7227299,36151960,37269070,-2802703,-6508789,24472660,-81396480
2026-01-14 17:25:25.371,-67983060,-20733280,92169020,-23340050,-58496100,27714840,-1899414
2026-01-14 17:25:25.381,-26715030,-53600980,60527030,18428620,-6826172,28339840,72753900
2026-01-14 17:25:25.391,-60473510,-54350200,61038030,-14794690,-20825200,24472660,6870117
2026-01-14 17:25:25.401,-57486950,-26153970,90477220,-11221180,53125,15009770,18671880
2026-01-14 17:25:25.411,-34367010,25012870,36789920,-29680010,8364258,9736328,27695310
2026-01-14 17:25:25.421,-26792710,23736240,35615150,20733280,8862305,14140630,28613280
2026-01-14 17:25:25.431,-53145220,22492420,34459370,-4859633,-23596190,18359380,290625
2026-01-14 17:25:25.441,-5242014,21234780,33282870,-334044,8,-6850586,21894530,29628910
2026-01-14 17:25:25.451,-51695100,19952980,32078760,-1821282,-48413090,14375,31757810
2026-01-14 17:25:25.461,-28254920,18682400,30880680,-23189850,13282780,42236330,35097660
2026-01-14 17:25:25.471,-5076287,17461010,29719720,69917,48,8117676,-17346190,3765625
2026-01-14 17:25:25.481,-28657160,-3904971,8400347,23702580,-39208980,-20898440,3765625
2026-01-14 17:25:25.491,-29157790,15272020,27610140,24134160,-10693360,23706060,38046880
2026-01-14 17:25:25.501,-53015740,14301820,26664110,1225696,-17353520,96191410,37246100
2026-01-14 17:25:25.511,-29258790,13369600,25749150,-23739690,-18525390,17675780,32050780
2026-01-14 17:25:25.521,-54224180,-43374160,80576680,1916227,-1140625,17880860,20019530
2026-01-14 17:25:25.531,-5309340,-60328500,63846770,389285,8,6713867,-7623291,12451170
2026-01-14 17:25:25.541,-51651940,-6054257,6385716,6076698,2796875,-2109375,11884770
2026-01-14 17:25:25.551,-31462450,9360186,21817420,27008510,2609375,-16992190,10957030
2026-01-14 17:25:25.561,-25836330,8423653,20889520,-19911550,10537110,-14541020,13925780
2026-01-14 17:25:25.571,-32480990,-48518640,76122740,27560940,-12017820,-33966060,16552730
2026-01-14 17:25:25.581,-57012210,-4926097,7531139,3841094,-10351560,14042970,21582030
2026-01-14 17:25:25.591,-33629000,-49960130,74508620,28035680,-56103520,22578120,22753910
2026-01-14 17:25:25.601,-32039050,-50667930,73679980,-25793170,31054690,14189450,16181640
2026-01-14 17:25:25.611,-61310780,-51410250,72834070,1924861,8022461,37768560,13359380
2026-01-14 17:25:25.621,-32271240,3676229,16090310,31654940,16972660,-6459961,14443360
2026-01-14 17:25:25.631,-35614290,2853632,15255620,29002430,17060550,-82910160,1328125
2026-01-14 17:25:25.641,-36253040,2050885,14435610,29071480,92333980,-64941410,11386720
2026-01-14 17:25:25.651,-36926300,1293887,13656170,29123270,4790039,-6010742,12128910
2026-01-14 17:25:25.661,-45460440,5817748,129181600,-38784700,57910160,-5253906,14521480
2026-01-14 17:25:25.671,-78910770,-55536190,67603270,-11549190,14990230,-41357420,16582030
2026-01-14 17:25:25.681,-38842530,47370630,59662130,29054220,13144530,-58746340,13974610
2026-01-14 17:25:25.691,-34736440,-56658310,66015050,33678200,10673830,5942383,12050780
2026-01-14 17:25:25.701,-90977840,33755890,46000790,-22097090,11142580,5050659,10488280
2026-01-14 17:25:25.711,-40715610,-2777675,9441328,28631260,11865230,-43920900,10253910
2026-01-14 17:25:25.721,-41345720,-33853420,88060340,28450000,11533200,-51953120,6425781
2026-01-14 17:25:25.731,-41975830,-39662540,81957750,28234210,20080570,-50146480,53466800
2026-01-14 17:25:25.741,-76467140,9556131,21690540,-69408160,-7165527,-95996100,9160156
2026-01-14 17:25:25.751,-8071476,-49994660,71055940,-7361957,7228,851,-7939453,109375
2026-01-14 17:25:25.761,-84960700,-60323320,60433810,-77832670,35229490,-23266600,8051758
2026-01-14 17:25:25.771,-12124050,-60228370,60235280,-4966669,6357422,1352539,22949220
2026-01-14 17:25:25.781,-12527150,-10929430,1089318,-5340418,84716800,-3781128,-23852540
2026-01-14 17:25:25.791,-12918160,-16439890,-4448765,-5708991,16542970,113464400,-91796870
2026-01-14 17:25:25.801,-13359240,-76131370,43503640,-6131082,14208980,22949220,14746090
2026-01-14 17:25:25.811,-13834850,-2286634,-2167309,-6587694,-20617680,13476560,27001950
2026-01-14 17:25:25.821,-11014880,-62294790,56701470,-10288100,-13212890,-2692871,-72784420
2026-01-14 17:25:25.831,-14674710,-59384540,59318250,-7387853,-1796875,-22424320,-47802740
2026-01-14 17:25:25.841,-15002720,-43899830,-32058900,-7698593,-12070310,-8203125,-57714840
2026-01-14 17:25:25.851,-15296190,-101707000,16426080,-7974809,-45239260,4360199,-4699707
2026-01-14 17:25:25.861,-15581030,-63632700,54206920,-8242389,-13793950,16571050,-39794920
2026-01-14 17:25:25.871,-15866740,-11038190,714703,2,-8509104,-20288090,25732420,-25390620
2026-01-14 17:25:25.881,-49338650,-11462860,258952,6,24427640,-4729004,2175293,-19299320
2026-01-14 17:25:25.891,-16420900,-64469980,52437420,-9025282,-11757810,-14465330,-11328130
2026-01-14 17:25:25.901,-50046450,-6468578,5189365,24134160,-15664060,-5317383,-10986330
2026-01-14 17:25:25.911,-16885280,-6484114,5141026,-9441326,-17080080,-49316410,-33984380
2026-01-14 17:25:25.921,-50667930,-12789550,-1193758,24030580,-13876950,-41577150,-6669922
2026-01-14 17:25:25.931,-17193430,-65074190,50624770,-9702869,-81640620,-9246826,-4790039
2026-01-14 17:25:25.941,-17324630,-65169140,50288130,-9813353,-36889650,14086910,-27197270
2026-01-14 17:25:25.951,-51315300,-58381200,56851660,23970160,-24780270,2232666,-42211910
2026-01-14 17:25:25.961,-51470680,-135983400,-20940440,23970160,-1607666,14624020,-61376950
2026-01-14 17:25:25.971,-17598250,-65462620,49407700,-10040370,15991210,10839840,-49243160
2026-01-14 17:25:25.981,-17673350,-65557570,49140130,-10103380,27416990,12109380,-33251950
2026-01-14 17:25:25.991,-5186773,-14108470,-2654239,2395289,13977050,16830440,-3972168
2026-01-14 17:25:26.001,-17832180,-14255210,-2818241,-10238030,-8654785,-6137085,-49243160
2026-01-14 17:25:26.011,-17898640,-143864100,-29632540,-10292410,-10559080,-8618164,-46826170
2026-01-14 17:25:26.021,-17972870,-14499490,-3091864,-10356280,10471340,-546875,-3881836
2026-01-14 17:25:26.031,-5234246,-65894200,48061160,2390971,41931150,16784670,-3544922
2026-01-14 17:25:26.041,-5244603,-65946000,47888530,2389245,50315860,138168300,-24951170
2026-01-14 17:25:26.051,-18148960,-14827490,-3454395,-10508200,1748085,-31173710,-1583252
2026-01-14 17:25:26.061,-18204200,-6605820,4756917,-10556540,-72631840,-7397461,-16992190
2026-01-14 17:25:26.071,-52696370,-15007030,-3654648,23849320,-12683110,-48675540,-18835450
2026-01-14 17:25:26.081,-52774060,-9975713,-8841335,23840690,-17236330,-4067993,-18237300
2026-01-14 17:25:26.091,-52834480,-6615317,4719802,23832050,-13415530,20553590,-14453130
2026-01-14 17:25:26.101,-52886270,-6617906,4710307,23832050,-44952390,59539800,-13439940
2026-01-14 17:25:26.111,-18382010,-15259940,-3936905,-10706730,42388920,121032700,-49865720
2026-01-14 17:25:26.121,-52955320,-66248100,46947680,23832050,13110350,15039060,18325810
2026-01-14 17:25:26.131,-18419130,-15350570,-4036170,-10738670,14135740,11425780,-39978030
2026-01-14 17:25:26.141,-39879200,-15392000,-4081054,36959970,1005249,51513670,-29022220
2026-01-14 17:25:26.151,-18465740,-15432570,-4126802,-10778370,15899660,43151860,-11224370
2026-01-14 17:25:26.161,-18483860,-66325780,46697360,-10794770,61401370,32409670,-61401370
2026-01-14 17:25:26.171,-18502860,-15497310,-4200173,-10810310,9375,10505680,-31204220
2026-01-14 17:25:26.181,-5314522,-10456580,-9327215,2378026,12512210,1927185,-51361080
2026-01-14 17:25:26.191,-18555510,-56550590,56351720,-10861240,9875488,4611206,-9643555
2026-01-14 17:25:26.201,-18581410,-15630230,-4343458,-10887130,-25157930,27771000,-118896500
2026-01-14 17:25:26.211,-39956880,-66455260,46377980,37003120,-11657720,-11405950,-1081543
2026-01-14 17:25:26.221,-53274700,-15721730,-4441857,23685310,-26782230,-16662600,-14294430
2026-01-14 17:25:26.231,-5331786,-15745900,-4469481,2365941,-34545900,-24658200,-18005370
2026-01-14 17:25:26.241,-18696200,-66498420,46231250,-10996760,-24682620,-16021730,-22998050
2026-01-14 17:25:26.251,-53361010,-10722960,-9596002,23650790,-118652300,-9887695,-31274410
2026-01-14 17:25:26.261,-53361010,-10748850,-9621897,23650790,927124,-14526370,-2692871
2026-01-14 17:25:26.271,-53369640,-15845170,-4577375,23642160,18029780,-1361084,-23779300
2026-01-14 17:25:26.281,-18722100,-15871060,-4603272,-11022650,21533200,-12878420,-19616700
2026-01-14 17:25:26.291,-18730730,-57356610,55304000,-11031280,18969730,-16027830,-2331543
2026-01-14 17:25:26.301,-18747130,-66619260,46041350,-11049410,1352539,-17358400,-2199707
2026-01-14 17:25:26.311,-39971560,-15947020,-4682682,36988450,14025880,-9649658,-19628910
2026-01-14 17:25:26.321,-18771300,-66662420,45998200,-11077030,18664550,11772160,-14758300
2026-01-14 17:25:26.331,-53386900,-57365250,55295370,23521310,24243160,5847168,-4031372
2026-01-14 17:25:26.341,-53378280,-16009170,-4741377,23478160,19799800,71487420,26378630
2026-01-14 17:25:26.351,-18816190,-10964640,-9837691,-11135720,9338379,-3942871,-60028080
2026-01-14 17:25:26.361,-39893870,-10990540,-9863585,36893500,-4449463,-5444336,-34576420
2026-01-14 17:25:26.371,-18865390,-11007800,-9880849,-11190100,-9790039,-35003660,2758789
2026-01-14 17:25:26.381,-5341281,-11016430,-9889482,2328825,-8581543,-10369870,8483887
2026-01-14 17:25:26.391,-39842080,-11033700,-9906743,36824450,-14782720,-20056150,5834961
2026-01-14 17:25:26.401,-18955160,-11042330,-9915376,-11290230,-22277830,-2758789,6958008
2026-01-14 17:25:26.411,-53464590,-11042330,-9915374,23150150,-2614746,-25195310,61340330
2026-01-14 17:25:26.421,-15574740,-11042330,-9915376,-14808760,-28198240,-21691900,55511480
2026-01-14 17:25:26.431,-19046650,-11033700,-9906744,-11388630,-21044920,-24304200,9429932
2026-01-14 17:25:26.441,-53533640,-11016440,-9889479,23029310,-14660650,-33764650,17907720
2026-01-14 17:25:26.451,-5355955,-11007800,-9880850,2296888,-15466310,-40405270,19934080
2026-01-14 17:25:26.461,-19156280,-16060960,-4793169,-11503430,-19885250,-3684082,117248500
2026-01-14 17:25:26.471,-19198570,-16035060,-4767274,-11547460,-2409668,-25048830,725708
2026-01-14 17:25:26.481,-19241730,-66714210,45946400,-11590620,-1821289,-20788570,70007330
2026-01-14 17:25:26.491,-53697640,-66688320,45972300,22796250,-14794920,-2298584,4562378
2026-01-14 17:25:26.501,-53740800,-15964280,-4699944,22753090,-1862793,-29052730,-36102300
2026-01-14 17:25:26.511,-19362570,-15937520,-4674914,-11711460,-17480470,-3112793,-7446289
2026-01-14 17:25:26.521,-19406590,-15901270,-4642113,-11753750,-16259770,-2697754,-803833
2026-01-14 17:25:26.531,-53896180,-15865880,-4608449,22649510,-17150880,-16503910,-93444820
2026-01-14 17:25:26.541,-19495500,-66472530,46067250,-11837480,-12060550,-1385498,-8532715
2026-01-14 17:25:26.551,-1953089,-15794240,-4541988,-1187115,-6210327,-15283200,-113342300
2026-01-14 17:25:26.561,-19575770,-66377580,46110410,-11912580,-32073980,-17272950,-18701170
2026-01-14 17:25:26.571,-5411197,-10669960,-9545424,2253730,-47424320,-16809080,-27685550
2026-01-14 17:25:26.581,-19656050,-66291260,46144930,-11987670,-3503418,-12854000,-30249020
2026-01-14 17:25:26.591,-54215540,-15658720,-4418552,22502770,18112180,-11151120,-28735350
2026-01-14 17:25:26.601,-19719920,-66187680,46179460,-12044640,27450560,-13549810,-30200200
2026-01-14 17:25:26.611,-19757040,-15586210,-4352953,-12076580,-8781433,-1784668,-2836914
2026-01-14 17:25:26.621,-54379550,-15549960,-4320150,22476880,-3842163,-16259770,-30493160
2026-01-14 17:25:26.631,-54431340,-15512850,-4288214,22476880,-65979000,-10559080,-27148440
2026-01-14 17:25:26.641,-54483120,-65971890,46239880,22476880,-4083252,-6524658,-24108890
2026-01-14 17:25:26.651,-40116570,-15439480,-4223477,36912490,18951420,-12390140,-21447750
2026-01-14 17:25:26.661,-16431770,-15411850,-4199310,-15660790,-28152470,-19958500,-19458010
2026-01-14 17:25:26.671,-19939170,-15382510,-4176866,-12222450,-10974120,-18127440,-14575200
2026-01-14 17:25:26.681,-40237420,-15345390,-4144928,37016070,-23425290,-12768560,-13842770
2026-01-14 17:25:26.691,-16519300,-6567840,4625715,-15745900,-3059082,-30593870,-22558590
2026-01-14 17:25:26.701,-20022030,-15269430,-4082781,-12277690,-24682620,-14015200,-27319340
2026-01-14 17:25:26.711,-20026350,-15232310,-4050843,-12273380,-22229000,-14152530,-30444340
2026-01-14 17:25:26.721,-20040160,-65471250,46274410,-12276830,-24121090,33691410,-38793940
2026-01-14 17:25:26.731,-20045340,-15139960,-3970570,-12271650,-24682620,10418700,-46606440
2026-01-14 17:25:26.741,-20042750,-15085580,-3921368,-12256980,-2286377,10510250,-56884770
2026-01-14 17:25:26.751,-55113240,-15031200,-3872166,22848040,-13537600,20431520,-74609380
2026-01-14 17:25:26.761,-40643100,-56717010,54838760,37421760,-59387210,-119140600,-9399414
2026-01-14 17:25:26.771,-55147770,-14898270,-3746145,23037940,-11947630,-21838380,-10146480
2026-01-14 17:25:26.781,-55147760,-64987880,46516100,23158780,19256590,-26782230,-10429690
2026-01-14 17:25:26.791,-19829550,-14715280,-3566606,-11986810,6616211,-19433590,-97314460
2026-01-14 17:25:26.801,-19740640,-14611700,-3463026,-11885820,12158200,-11804200,-85302740
2026-01-14 17:25:26.811,-19626700,-64685770,46818200,-11758070,26416020,-42663580,-74902340
2026-01-14 17:25:26.821,-54975130,-14406270,-3254139,23849320,34643560,-46653750,-6176758
2026-01-14 17:25:26.831,-19372930,-92842300,-81690170,-11476680,36010740,24749760,-49365230
2026-01-14 17:25:26.841,-19233100,-14191340,-3037485,-11323030,35473630,8605957,-37475580
2026-01-14 17:25:26.851,-54750700,-64280080,47275690,24488060,3720703,6500244,-2614746
2026-01-14 17:25:26.861,-18936170,-89478520,-78321220,-10998480,35229490,-13214110,-16186520
2026-01-14 17:25:26.871,-54569450,-13858150,-2697396,24945540,2746582,-8728027,-51612860
2026-01-14 17:25:26.881,-54457240,-137468000,-25843230,25178590,26708980,-9210205,15490720
2026-01-14 17:25:26.891,-18464010,-13644950,-2479016,-10486620,27246090,-11236570,3552246
2026-01-14 17:25:26.901,-18297420,-63796710,47879900,-10307950,28125,-34332280,45117190
2026-01-14 17:25:26.911,-5413790,-79193100,-78076000,2587773,36010740,48950200,45092770
2026-01-14 17:25:26.921,-5402563,-63649970,48078420,2611079,4819336,4309082,41015620
2026-01-14 17:25:26.931,-17805420,-13313490,-2137202,-9781414,6020508,715332,32666020
2026-01-14 17:25:26.941,-53801220,-13262570,-2084547,26542400,64208980,5432129,26538090
2026-01-14 17:25:26.951,-53706280,-81893020,-70715000,26740920,5810547,-58013920,19152830
2026-01-14 17:25:26.961,-17363480,-131771200,-19973700,-9308402,5004883,-12963870,1060791
2026-01-14 17:25:26.971,-17230550,-131512200,-19714740,-9165118,42944340,-19396970,14976500
2026-01-14 17:25:26.981,-53438690,-63442810,48354640,27301980,31445310,-21008300,-3869629
2026-01-14 17:25:26.991,-16972460,-63425540,48371900,-8888037,2454834,-14880370,-11383060
2026-01-14 17:25:27.001,-5325741,-63408280,48389170,2767312,16320800,-10632320,-17443850
2026-01-14 17:25:27.011,-13050490,-6340828,4840644,-12240320,109558100,-9222412,-26464840
2026-01-14 17:25:27.021,-53041640,-13083030,-1901556,28044310,12243650,-31555180,-35473630
2026-01-14 17:25:27.031,-16401910,-13075260,-1892062,-8284682,9112549,-24612430,-359375
2026-01-14 17:25:27.041,-52825850,-13058000,-1874797,28450000,7287598,-4522705,-38085940
2026-01-14 17:25:27.051,-16092030,-13040730,-1857535,-7955816,64453120,-51696780,-37597660
2026-01-14 17:25:27.061,-15933210,-63347860,48501380,-7786637,119628900,-7562256,-37841800
2026-01-14 17:25:27.071,-5247193,-63313330,48535900,2909735,13952640,-8416748,-37036130
2026-01-14 17:25:27.081,-41987910,-63287440,48561800,39684980,20031740,-1697998,-36035160
2026-01-14 17:25:27.091,-15430850,-129207500,-17358300,-7253201,30029300,-28125,-2854004
2026-01-14 17:25:27.101,-15271160,-78444660,-67258010,-7084881,30859380,-40478520,-2364502
2026-01-14 17:25:27.111,-51988570,-12835300,-1648647,29977800,2680664,-39746100,-19116210
2026-01-14 17:25:27.121,-14935390,-12784370,-1595996,-6730116,26245120,-32128910,-11584470
2026-01-14 17:25:27.131,-14767930,-63080280,48820750,-6552307,37597660,-19543460,15823360
2026-01-14 17:25:27.141,-5160879,-126738900,-14820580,3061649,48950200,-12225340,16687010
2026-01-14 17:25:27.151,-14455470,-75858610,-64665060,-6226030,50878900,-9942627,30639650
2026-01-14 17:25:27.161,-51367090,-7534159,-6414627,30996340,44677740,-7757568,38500980
2026-01-14 17:25:27.171,-51254880,-62916280,49053810,31177610,41503900,-43640140,41088870
2026-01-14 17:25:27.181,-10304410,-12478810,-1280077,-9479391,49047850,8959961,47192380
2026-01-14 17:25:27.191,-51030460,-12445150,-1244685,31522880,6665039,2722168,5107422
2026-01-14 17:25:27.201,-5091823,-62821330,49200540,3166959,89990230,29052730,5722656
2026-01-14 17:25:27.211,-13625960,-73620420,-62414770,-5363726,10683590,23132320,6796875
2026-01-14 17:25:27.221,-5071110,-124054400,-11980760,3192851,11152340,26708980,6826172
2026-01-14 17:25:27.231,-13430020,-62855860,49235070,-5162608,10488280,28833010,67626950
2026-01-14 17:25:27.241,-13361830,-62881750,49209180,-5092691,10185550,29858400,7128906
2026-01-14 17:25:27.251,-13301410,-62924910,49166020,-5032269,10527340,27270510,7133789
2026-01-14 17:25:27.261,-50478030,-62968070,49122860,32230670,10205080,21557620,6748047
2026-01-14 17:25:27.271,-50452130,-63019860,49053810,32256570,9453125,23535160,68408200
2026-01-14 17:25:27.281,-50434870,-126557600,-14483950,32273830,9394531,31152340,72021490
2026-01-14 17:25:27.291,-5041761,-12732580,-1526943,3227383,10097660,38354490,7182617
2026-01-14 17:25:27.301,-5040898,-12827530,-1621891,3226519,10576170,46704100,6376953
2026-01-14 17:25:27.311,-42235650,-78884880,-67680960,40421260,11816410,46533200,57177740
2026-01-14 17:25:27.321,-13212500,-63477340,48544540,-4948542,13183590,40405270,5058594
2026-01-14 17:25:27.331,-50400350,-81730740,-70532000,32204770,13632810,33251950,5488281
2026-01-14 17:25:27.341,-13269470,-8354166,-7234638,-5012413,14375,39086910,66015620
2026-01-14 17:25:27.351,-50469400,-63943440,47957580,32083930,15566410,35009770,75097660
2026-01-14 17:25:27.361,-13404990,-13826220,-2643018,-5153110,15019530,3305664,80908200
2026-01-14 17:25:27.371,-50624770,-64357770,47370630,31859510,13720700,3293457,8222656
2026-01-14 17:25:27.381,-13643220,-64599450,47025360,-5398252,12734380,23059080,82666020
2026-01-14 17:25:27.391,-13805500,-14680750,-3532081,-5563978,11191410,9710693,80322260
2026-01-14 17:25:27.401,-51064980,-15010480,-3875620,31298450,97265620,21835330,7807617
2026-01-14 17:25:27.411,-51254880,-15364380,-4246783,31056760,8017578,-10119630,7270508
2026-01-14 17:25:27.421,-51470670,-56510710,54475360,30789180,57373050,-26611330,70751950
2026-01-14 17:25:27.431,-14719600,-16104110,-5026224,-6497062,24841310,-46948240,6064453
2026-01-14 17:25:27.441,-14993220,-16472690,-5417239,-6775864,-47973630,-6347656,4597168
2026-01-14 17:25:27.451,-15284110,-16849030,-5817749,-7071930,-33666990,-80859380,31518560
2026-01-14 17:25:27.461,-52515110,-17225370,-6218256,29572120,-6040039,-9711914,14160160
2026-01-14 17:25:27.471,-52774060,-67007690,42804480,29244110,-9194336,-10498050,-8666992
2026-01-14 17:25:27.481,-53041640,-17942660,-6985610,28924740,-12392580,-10791020,-19848630
2026-01-14 17:25:27.491,-53291960,-67482430,41863620,28605370,-14404300,-10869140,-23425290
2026-01-14 17:25:27.501,-16702290,-67698220,41423410,-8519465,-16347660,-10986330,-2890625
2026-01-14 17:25:27.511,-16956920,-6788812,4102636,-8782729,-18300780,-10830080,-30419920
2026-01-14 17:25:27.521,-53956600,-19134700,-8262237,27716310,-20683590,-10126950,-33129880
2026-01-14 17:25:27.531,-17449790,-68207500,40327180,-9291138,-2328125,-87353520,-3540039
2026-01-14 17:25:27.541,-14011100,-68328340,40033710,-13195930,-2625,-75,-39453120
2026-01-14 17:25:27.551,-54543550,-19722510,-8900116,26904930,-28300780,-6347656,-42749020
2026-01-14 17:25:27.561,-18096310,-19836450,-9027867,-9956638,-30839840,-44091800,-49951170
2026-01-14 17:25:27.571,-54888820,-68483700,39481280,26490610,-32324220,-20007320,-63671880
2026-01-14 17:25:27.581,-18424310,-6846644,3939497,-10284640,-32207030,17684940,-7832031
2026-01-14 17:25:27.591,-55190920,-55341120,52433970,26240290,-30742190,16870120,-8100586
2026-01-14 17:25:27.601,-55320400,-19877020,-9108138,26179870,-2890625,23693850,-9067383
2026-01-14 17:25:27.611,-55441240,-19795880,-9033908,26162600,-26835940,19299320,-98291020
2026-01-14 17:25:27.621,-18778210,-68078020,39472650,-10604020,-24570310,115722700,-1109375
2026-01-14 17:25:27.631,-55657040,-67905380,39593490,26240290,-21015620,925293,-11875
2026-01-14 17:25:27.641,-55760620,-67689590,39740230,26326600,-17314450,33050540,-11894530
2026-01-14 17:25:27.651,-18823090,-67473800,39904230,-10593660,-13808590,-18066410,-12109380
2026-01-14 17:25:27.661,-18825680,-67249380,40076860,-10573800,-10820310,-53588870,-12929690
2026-01-14 17:25:27.671,-15104820,-66999060,40258130,-14277400,-8930664,-3050232,-1328125
2026-01-14 17:25:27.681,-1883173,-18514080,-7795265,-1053324,-7138672,940,3229,-13798830
2026-01-14 17:25:27.691,-18834310,-6648978,4061203,-10513380,-53466800,11621090,-13212890
2026-01-14 17:25:27.701,-18846400,-66239470,40793290,-10501300,-29003910,19567870,-12255860
2026-01-14 17:25:27.711,-43297340,-6600644,4094005,40360840,-1538086,2841797,-11992190
2026-01-14 17:25:27.721,-56641040,-65773360,41086770,27241560,-8068848,3022461,-11669920
2026-01-14 17:25:27.731,-18937890,-17517120,-6841464,-10530640,-5267334,27270510,-10839840
2026-01-14 17:25:27.741,-18990550,-17356570,-6691275,-10564310,-91552740,2401123,-10761720
2026-01-14 17:25:27.751,-5704672,-65160510,41388880,2738828,-13061520,22460940,-10595700
2026-01-14 17:25:27.761,-57184840,-64979250,41466560,27405560,-22229000,18322750,-10136720
2026-01-14 17:25:27.771,-57322950,-16952610,-6318383,27422830,-3173828,13891600,-984375
2026-01-14 17:25:27.781,-19263310,-16836080,-6210489,-10774920,-46435550,140625,-97509770
2026-01-14 17:25:27.791,-5759914,-64495870,41656460,2742280,-5239258,1652832,-8959961
2026-01-14 17:25:27.801,-5771138,-11324810,-11324700,2741419,-51708980,2529297,-7192383
2026-01-14 17:25:27.811,-57823580,-16538290,-5938589,27388300,-48901370,31713870,-57714840
2026-01-14 17:25:27.821,-57918540,-64141980,41785940,27362410,-53759770,28051760,-54248050
2026-01-14 17:25:27.831,-19614610,-64055660,41803200,-11079620,-68066410,24304200,-4885254
2026-01-14 17:25:27.841,-58108430,-63986600,41820460,27293350,-7895508,21643070,-40893560
2026-01-14 17:25:27.851,-58186120,-63908920,41829090,27267460,-8149414,21716310,-31347660
2026-01-14 17:25:27.861,-58255170,-16281930,-5711576,27250200,-7895508,21081540,-21691900
2026-01-14 17:25:27.871,-19822640,-6378807,4186363,-11268650,-7631836,21252440,-12182620
2026-01-14 17:25:27.881,-19851120,-16208560,-5646841,-11291960,-6845703,21447750,-7727051
2026-01-14 17:25:27.891,-19870980,-63684490,41898150,-11306630,-69677740,1665039,-4864502
2026-01-14 17:25:27.901,-58445070,-16136050,-5581237,27250200,-6347656,37353520,1939392
2026-01-14 17:25:27.911,-58479600,-63580920,41932680,27267460,-60058590,-800,6096,9649658
2026-01-14 17:25:27.921,-19895150,-16064410,-5514776,-11316990,-5395508,6463623,10687260
2026-01-14 17:25:27.931,-19896870,-16037650,-5489744,-11315260,-4399414,8917236,16918940
2026-01-14 17:25:27.941,-58522760,-63477330,41984460,27327880,-2944336,9503174,21386720
2026-01-14 17:25:27.951,-58514120,-6346872,4201039,27336520,-14758300,6866455,28222660
2026-01-14 17:25:27.961,-19880470,-6346870,4201037,-11297140,-32440190,-4827881,32080080
2026-01-14 17:25:27.971,-58488220,-63503230,42010360,27310610,-5706787,-14013670,23803710
2026-01-14 17:25:27.981,-19877020,-16048870,-5495787,-11300590,-44555660,-19567870,1295166
2026-01-14 17:25:27.991,-58436430,-53864240,51701140,27241560,-12191770,-23950200,14782720
2026-01-14 17:25:28.001,-5841054,-16139500,-5577788,2718113,-13412480,-23913570,15686040
2026-01-14 17:25:28.011,-19906370,-16211150,-5644251,-11357560,-5621338,-2175293,10748290
2026-01-14 17:25:28.021,-19933990,-16291420,-5719347,-11398990,-53985600,-14880370,15563970
2026-01-14 17:25:28.031,-16135620,-16388960,-5811705,-15283670,-9436035,-3717041,1472168
2026-01-14 17:25:28.041,-58289700,-16495990,-5911832,26749560,-22741700,82214350,8129883
2026-01-14 17:25:28.051,-20072960,-16619430,-6030087,-11588020,-35180660,21325680,34255980
2026-01-14 17:25:28.061,-20141150,-16742860,-6148341,-11675210,-52783200,34350580,-1743164
2026-01-14 17:25:28.071,-58229280,-16866290,-6266593,26240290,-7055664,5551758,-34887700
2026-01-14 17:25:28.081,-20285300,-11678710,-11678600,-11859060,-72509770,7607422,-5522461
2026-01-14 17:25:28.091,-58168860,-17088990,-6475480,25886390,-6171875,9013672,-83740230
2026-01-14 17:25:28.101,-5812568,-64996510,41224880,2573963,-39160160,9013672,-10566410
2026-01-14 17:25:28.111,-58065270,-1729616,-666535,4,25592910,-18359380,8515625,-12617190
2026-01-14 17:25:28.121,-58004860,-65255460,41138560,25480700,-30944820,7524414,-14169920
2026-01-14 17:25:28.131,-20427720,-65376300,41121300,-12096430,1817627,64697260,-15048830
2026-01-14 17:25:28.141,-20394060,-17526620,-6866497,-12078300,49072260,61328120,-14404300
2026-01-14 17:25:28.151,-57711380,-17601710,-6929506,25290810,7416992,49169920,-13037110
2026-01-14 17:25:28.161,-5759053,-17684580,-7002015,2525627,83496100,33203120,-11474610
2026-01-14 17:25:28.171,-20267170,-17767440,-7074520,-11998030,8598633,26098630,-9692383
2026-01-14 17:25:28.181,-57366110,-66023680,40991820,25169960,9316406,39892580,-6635742
2026-01-14 17:25:28.191,-57271160,-6617043,4093142,25092280,1015625,6660156,-27246090
2026-01-14 17:25:28.201,-20198120,-18108390,-7389574,-11980770,87060540,95458980,-16952520
2026-01-14 17:25:28.211,-16525340,-18257720,-7533724,-15705330,5366211,11064450,7208252
2026-01-14 17:25:28.221,-20240410,-13578920,-12506000,-12059310,27929690,11738280,8129883
2026-01-14 17:25:28.231,-5698632,-18565010,-7830656,2465205,9082031,97265620,75569150
2026-01-14 17:25:28.241,-20249040,-67042220,40335820,-12102470,115600600,7265625,-2817154
2026-01-14 17:25:28.251,-56839580,-18887830,-8146572,24488060,31933590,4152832,4827881
2026-01-14 17:25:28.261,-5675326,-19044930,-8300219,2441900,6533203,5117798,26098630
2026-01-14 17:25:28.271,-16563580,-67594640,39886970,-15753410,93066410,-20898440,5058594
2026-01-14 17:25:28.281,-42047470,-55153810,52345060,38814050,11240230,-3552246,7709961
2026-01-14 17:25:28.291,-41963750,-68008960,39489910,38725140,12480470,-48095700,10546880
2026-01-14 17:25:28.301,-56485680,-68233380,39248220,24030580,12519530,-55126950,12490230
2026-01-14 17:25:28.311,-56459780,-68466440,38963380,23866570,12167970,-5078125,14990230
2026-01-14 17:25:28.321,-20389740,-68716760,38661270,-12376100,11064450,-36499020,16660160
2026-01-14 17:25:28.331,-20492460,-6895844,3831601,-12497800,88720700,-14990230,17675780
2026-01-14 17:25:28.341,-56502940,-20981880,-10264790,23253730,5473633,64331060,17695310
2026-01-14 17:25:28.351,-20749680,-55109790,51922970,-12793010,20593260,12890630,16708980
2026-01-14 17:25:28.361,-56623780,-21572280,-10882810,22770360,-79956060,114746100,1515625
2026-01-14 17:25:28.371,-56692840,-69882030,36857250,22545930,-2286377,50750730,12861330
2026-01-14 17:25:28.381,-5675327,-22117800,-11459410,2233013,-31958010,-7659912,10996090
2026-01-14 17:25:28.391,-56822310,-70270460,36175340,22122980,-3552246,-25195310,10634770
2026-01-14 17:25:28.401,-56882740,-7044311,3584737,21941710,-36108400,-42626950,96777340
2026-01-14 17:25:28.411,-56925900,-70598460,35553860,21777710,-2607422,-5605469,10048830
2026-01-14 17:25:28.421,-56969050,-70762460,35269020,21630970,-37078860,-68603520,11757810
2026-01-14 17:25:28.431,-5701221,-7091784,3497555,2148423,23962400,-7607422,14414060
2026-01-14 17:25:28.441,-21777710,-71073210,34682060,-13940160,4326172,-8120117,16337890
2026-01-14 17:25:28.451,-21875250,-7124584,3437134,-14049780,5913086,-87402340,17988280
2026-01-14 17:25:28.461,-57141690,-71401210,34043320,20992230,6616211,-9814453,19394530
2026-01-14 17:25:28.471,-40826960,-71573850,33698060,37186110,7207031,-1015625,20664060
2026-01-14 17:25:28.481,-22244690,-19730890,-18680070,-14457190,6845703,-9863281,21621090
2026-01-14 17:25:28.491,-22393150,-71910480,32964360,-14619470,6201172,-8642578,22480470
2026-01-14 17:25:28.501,-57486950,-72074490,32575940,20111800,5444336,-71875,2296875
2026-01-14 17:25:28.511,-22749640,-54207780,50200960,-15005310,47509770,-6274414,23730470
2026-01-14 17:25:28.521,-22957670,-25517820,-15102840,-15228860,4658203,-5444336,24101560
2026-01-14 17:25:28.531,-5789265,-21123090,-20084530,1922273,43603520,-51660160,23945310
2026-01-14 17:25:28.541,-23449670,-53863380,49682190,-15755400,35864260,-56689450,22929690
2026-01-14 17:25:28.551,-23734520,-7280817,3040940,-16057500,23571780,-6376953,20917970
2026-01-14 17:25:28.561,-24044390,-22007230,-20978510,-16386370,7867432,-73291020,18740230
2026-01-14 17:25:28.571,-58747180,-73032600,29459910,17625880,-13151170,-7739258,16738280
2026-01-14 17:25:28.581,-5901475,-7312755,2898517,1715113,4425049,-76123050,15400390
2026-01-14 17:25:28.591,-59273710,-7321387,2850182,16633240,16455080,-7290039,14951170
2026-01-14 17:25:28.601,-25525590,-73300180,28018410,-17960790,2734375,-75097660,13652340
2026-01-14 17:25:28.611,-5986067,-23421620,-22412570,1549385,3232422,-7373047,11650390
2026-01-14 17:25:28.621,-26392210,-28216940,-18169670,-18889560,35961910,-71435540,1015625
2026-01-14 17:25:28.631,-26866950,-52366640,47674460,-19398830,42041020,-6557617,8959961
2026-01-14 17:25:28.641,-27349460,-52168980,47423280,-19917590,4206543,-6484375,80078130
2026-01-14 17:25:28.651,-39385470,-73559140,25567020,34553450,33618160,-65283200,6870117
2026-01-14 17:25:28.661,-61474780,-7355913,2506641,12067080,19213870,-6425781,50634770
2026-01-14 17:25:28.671,-6183729,-51510380,46614500,1130747,6161499,-57373050,38452150
2026-01-14 17:25:28.681,-29471990,-29583340,-19824360,-22197220,-54504400,-47070310,32177730
2026-01-14 17:25:28.691,-30039090,-5101060,4602669,-22804020,-6591797,-35058590,3005371
2026-01-14 17:25:28.701,-27376820,-25609230,-24644380,-26657460,-73791500,-23730470,25341800
2026-01-14 17:25:28.711,-3852317,-30111600,-20521810,3299888,-3086853,-15246580,16723630
2026-01-14 17:25:28.721,-35827580,-7315346,2215753,35262890,-3276825,-6756592,7244873
2026-01-14 17:25:28.731,-32388630,-73015330,21691400,-25322750,49102780,-8125305,8532715
2026-01-14 17:25:28.741,-64590820,-30531100,-21120840,5636482,105407700,17974850,57754520
2026-01-14 17:25:28.751,-33587570,-30645890,-21299520,-26609730,15856930,28320310,-61309820
2026-01-14 17:25:28.761,-37737680,-7252334,2030172,31591930,20800780,22598270,-4345703
2026-01-14 17:25:28.771,-65790620,-30848740,-21631830,3072874,20532230,14793400,9819031
2026-01-14 17:25:28.781,-66204940,-48384850,43110900,2192442,23547360,-1725769,-7574463
2026-01-14 17:25:28.791,-3722236,-71884580,18920630,3069161,24353030,-1307373,-19213870
2026-01-14 17:25:28.801,-67024950,-47706400,42391020,405684,22155760,-12548830,-24646000
2026-01-14 17:25:28.811,-37320770,-3113185,-2219461,-30627770,2548828,-93811030,-18908690
2026-01-14 17:25:28.821,-37968140,-3118105,-2231804,-31326930,26611330,-8929443,-3017578
2026-01-14 17:25:28.831,-68267910,-7073657,1711664,-2356448,27294920,-7501221,-4411621
2026-01-14 17:25:28.841,-68682230,-31225080,-22515720,-3288666,26098630,-4660034,-4873047
2026-01-14 17:25:28.851,-69087920,-70063300,16253450,-4212262,24133300,6137085,-4892578
2026-01-14 17:25:28.861,-69493610,-69692140,15813230,-5153112,16052250,25756840,-6308594
2026-01-14 17:25:28.871,-35710960,-45042670,39651320,28111640,13208010,39233400,-95410160
2026-01-14 17:25:28.881,-70304990,-31143080,-22753090,-7000290,97839350,25146480,-15263670
2026-01-14 17:25:28.891,-31812120,-68475070,14647950,31026460,10656740,-24505620,-20449220
2026-01-14 17:25:28.901,-35199100,-68043490,14337210,27225160,24682620,-14978030,-20507810
2026-01-14 17:25:28.911,-71461630,-30842700,-22673680,-9399896,42333980,-11627200,-18154300
2026-01-14 17:25:28.921,-34954830,-67163060,13871100,26761640,5751953,-52093500,-15166020
2026-01-14 17:25:28.931,-7216943,-66722840,13672570,-1076373,6928711,57922360,-12236330
2026-01-14 17:25:28.941,-7251471,-30384360,-22406970,-1140245,77490230,55389400,-11132810
2026-01-14 17:25:28.951,-34676890,-65851040,13318670,26193680,8286133,-1550293,-11972660
2026-01-14 17:25:28.961,-4588859,-26512270,-25726620,-3982397,8066406,39031980,-12705080
2026-01-14 17:25:28.971,-34545680,-41605540,36407540,25893290,90625,34698490,-8149414
2026-01-14 17:25:28.981,-34463690,-29736120,-21984870,25733610,96435540,-25375370,1315918
2026-01-14 17:25:28.991,-73982080,-41081590,35930210,-14078260,88671870,-3945923,6801758
2026-01-14 17:25:29.001,-34230630,-6390893,1256774,25345180,7963867,-2609253,6904297
2026-01-14 17:25:29.011,-30054710,-29399490,-21803610,29158570,72314460,5532837,4440918
2026-01-14 17:25:29.021,-74577660,-40284890,35173220,-15761440,6459961,-23486330,46557620
2026-01-14 17:25:29.031,-33754160,-29280370,-21784620,24647750,60791020,-46704100,2758789
2026-01-14 17:25:29.041,-48767230,-6276089,1171320,-42970200,51708980,-74560540,29760740
2026-01-14 17:25:29.051,-7495745,-39547740,34442970,-1745326,4104004,-6689453,33374020
2026-01-14 17:25:29.061,-75043780,-29224260,-21875250,-18022940,15197750,-5917969,5654297
2026-01-14 17:25:29.071,-75121460,-29250160,-21952940,-18635780,-13696290,-39282230,31933590
2026-01-14 17:25:29.081,-32697640,-38776940,33642820,23252870,-49291990,446167,-28457640
2026-01-14 17:25:29.091,-32446460,-6166469,1015086,22934360,-6274414,6333008,-6694336
2026-01-14 17:25:29.101,-32194420,-6149206,973654,2,22616710,-47143560,10820310,-13066410
2026-01-14 17:25:29.111,-75302730,-61345300,9330841,-21078550,-25805660,9506836,-17822270
2026-01-14 17:25:29.121,-75268200,-37696250,32462000,-21630980,-109558100,19812010,-1921875
2026-01-14 17:25:29.131,-31417570,-61189940,8519463,21684490,57006840,-71777340,-18496090
2026-01-14 17:25:29.141,-51486220,-61155410,8139670,-46224340,-3930664,-13115230,-15458980
2026-01-14 17:25:29.151,-7509555,-37117930,31780100,-2294301,-19848630,-17021480,-12373050
2026-01-14 17:25:29.161,-30784870,-61129520,7388715,20953390,-4645996,-18632810,-8901367
2026-01-14 17:25:29.171,-7495746,-61146780,6991658,-2361629,-6879883,-18457030,-8696289
2026-01-14 17:25:29.181,-74888410,-61146780,6577341,-23927000,-74560540,-14912110,-13095700
2026-01-14 17:25:29.191,-30267830,-36414450,30912620,20365570,-68359380,-10537110,-17900390
2026-01-14 17:25:29.201,-30128000,-31097330,-24404330,20211930,-6982422,-5004883,-2140625
2026-01-14 17:25:29.211,-74698510,-31318300,-24666730,-24583010,-67041020,-7501221,-2640625
2026-01-14 17:25:29.221,-7463809,-61319420,4816474,-2469525,-53564450,27490230,-30253910
2026-01-14 17:25:29.231,-5214999,-6140573,436763,-4716606,-25756840,64501950,-35
2026-01-14 17:25:29.241,-49864060,-61517940,3927414,-49365670,-46081540,94433590,-3609375
2026-01-14 17:25:29.251,-7446546,-6166468,352172,8,-2457438,10638430,10761720,-346875
2026-01-14 17:25:29.261,-29953640,-32604430,-26108220,20075550,3466797,11074220,-32636720
2026-01-14 17:25:29.271,-25601810,-32888410,-26411200,24617280,7060547,10078130,-31816410
2026-01-14 17:25:29.281,-7426693,-62260270,2356446,-2378893,11083980,7182617,-31425780
2026-01-14 17:25:29.291,-30298900,-6251059,203708,9,20541660,15361330,2824707,-30410160
2026-01-14 17:25:29.301,-3049399,-33740350,-27285590,2079542,18759770,-7525635,-28066410
2026-01-14 17:25:29.311,-30745160,-63088910,1527809,21113930,21054690,-27294920,-24589840
2026-01-14 17:25:29.321,-31025690,-6340829,136381,9,21472160,2265625,-3635254,-21210940
2026-01-14 17:25:29.331,-73938930,-34497350,-27995970,-20750550,22070310,-3479004,-16601560
2026-01-14 17:25:29.341,-73852610,-35808500,29516020,-19921910,20683590,-21582030,-11933590
2026-01-14 17:25:29.351,-31976040,-64513140,1173905,22696980,18212890,15525820,-79345700
2026-01-14 17:25:29.361,-32304900,-64927460,1173909,23127700,15537110,2746582,-42700200
2026-01-14 17:25:29.371,-7343829,-65359040,1191170,-1726338,12636720,45776370,-15393070
2026-01-14 17:25:29.381,-32921210,-65799260,1217067,23961530,10234380,5917969,4071045
2026-01-14 17:25:29.391,-7303258,-37000540,30499160,-1545934,7348633,73046870,24694820
2026-01-14 17:25:29.401,-46595500,-66714210,1286120,-40774300,3864746,90478510,43066410
2026-01-14 17:25:29.411,-72540590,-67171690,1312017,-13724360,9384155,10507810,6616211
2026-01-14 17:25:29.421,-33934560,-34508060,34441760,25416830,-34448240,11464840,8510742
2026-01-14 17:25:29.431,-71988160,-6806938,131204,6,-12136130,-6875,11855470,9013672
2026-01-14 17:25:29.441,-34296230,-37109300,-30131450,25987380,-10351560,12265630,9501953
2026-01-14 17:25:29.451,-71375310,-68949820,1191169,-10694650,-13447270,13466800,90478510
2026-01-14 17:25:29.461,-71047310,-37671220,-30622590,-10038630,-16357420,14189450,8984375
2026-01-14 17:25:29.471,-7070203,-38840810,31956180,-941717,6,-18515620,14121090,91259770
2026-01-14 17:25:29.481,-7035678,-7025320,82001,38,-883020,6,-20371090,14033200,79785150
2026-01-14 17:25:29.491,-42238240,-39167080,32165070,-36068320,-22070310,13847660,8339844
2026-01-14 17:25:29.501,-34799460,-71081840,474745,3,27055120,-2328125,1421875,80908200
2026-01-14 17:25:29.511,-34810680,-39184350,-32009700,27147480,-23105470,14697270,73779300
2026-01-14 17:25:29.521,-34805500,-3949596,-3230230,27221710,-22578120,16699220,7368164
2026-01-14 17:25:29.531,-34758890,-72273010,-146738,6,27251060,-18544920,10878910,65527340
2026-01-14 17:25:29.541,-68172960,-39798920,32499980,-6163016,-16904300,9433594,41674800
2026-01-14 17:25:29.551,-34669120,-73015330,-526530,6,27306300,-15068360,6611328,22998050
2026-01-14 17:25:29.561,-31335050,-73386500,-673270,6,30605840,-13798830,2614746,1381836
2026-01-14 17:25:29.571,-34556050,-40911540,-33614330,27333060,-12255860,13687130,20251460
2026-01-14 17:25:29.581,-34504250,-40372060,32876320,27350320,-1046875,-10449220,27148440
2026-01-14 17:25:29.591,-38524030,-74439560,-897695,9,-32342020,-9848633,-1550293,3527832
2026-01-14 17:25:29.601,-65997780,-40718200,33151680,-4212260,-10214840,-15319820,51464840
2026-01-14 17:25:29.611,-34335940,-41698760,-34277240,27380530,-10888670,-1340332,58935550
2026-01-14 17:25:29.621,-65281360,-75423570,-845898,6,-3668462,-11376950,-29760740,68652340
2026-01-14 17:25:29.631,-64927460,-7573431,-77682,16,-3418144,-12861330,-63427740,71191410
2026-01-14 17:25:29.641,-64582190,-42135520,-34600070,-3193718,-14316410,-8564453,7167969
2026-01-14 17:25:29.651,-64245550,-41714290,34020020,-2995192,-15419920,-9711914,75341800
2026-01-14 17:25:29.661,-36417040,-4192058,3421080,-30305810,-16845700,-11269530,6694336
2026-01-14 17:25:29.671,-6361544,-7687369,-34526,37,-262403,4,-19423830,-11933590,66064450
2026-01-14 17:25:29.681,-63330590,-42320240,34587980,-2477294,-22324220,-11240230,6816406
2026-01-14 17:25:29.691,-63063010,-7733980,-5175,923,-2365080,-24589840,-11298830,8183594
2026-01-14 17:25:29.701,-62812700,-7754696,8634,573,-2287396,-26855470,-11757810,7709961
2026-01-14 17:25:29.711,-33409760,-77728220,233053,3,26925640,-29277340,-11591800,5800781
2026-01-14 17:25:29.721,-35314770,-7790085,37117,63,-29301950,-30292970,-12470700,515625
2026-01-14 17:25:29.731,-62182580,-4269313,-3483655,-2278762,-3078125,-12802730,46728520
2026-01-14 17:25:29.741,-33058450,-43288710,35535740,26620950,-31699220,-12451170,35961910
2026-01-14 17:25:29.751,-35142140,-78272020,776848,1,-29198370,-3171875,-11679690,19567870
2026-01-14 17:25:29.761,-61785520,-7835834,91498,8,-2572240,-315625,-10996090,41137700
2026-01-14 17:25:29.771,-6169919,-43599450,35863740,-272762,8,-3046875,-11513670,-26626590
2026-01-14 17:25:29.781,-6163879,-7844466,120843,6,-290887,9,-29375,-11767580,-11212160
2026-01-14 17:25:29.791,-35294050,-40289720,39518740,-29443510,-28300780,-10810550,-17565920
2026-01-14 17:25:29.801,-61630160,-42451440,-34456780,-3349092,-26542970,-97753900,-19946290
2026-01-14 17:25:29.811,-61664680,-7839287,169183,8,-3590776,-25039060,-8720703,-2590332
2026-01-14 17:25:29.821,-61733740,-7832381,186447,-3832462,-24765620,-6796875,-26342770
2026-01-14 17:25:29.831,-35851660,-4209753,-3406834,-30077070,-25429690,-22106930,-25024410
2026-01-14 17:25:29.841,-36035520,-7809938,226151,4,-30273010,-26230470,44091800,-20629880
2026-01-14 17:25:29.851,-62122160,-7795265,246005,-4600682,-25390620,91308590,-2232666
2026-01-14 17:25:29.861,-62303420,-7778864,267584,8,-4816470,-23339840,12216800,-2614746
2026-01-14 17:25:29.871,-62510580,-43985290,36513710,-5023632,-20019530,12822270,-2130127
2026-01-14 17:25:29.881,-62726380,-37544760,-36739430,-5204900,-15859380,11484380,-11627200
2026-01-14 17:25:29.891,-32211680,-7719308,335774,25378850,-1203125,9008789,15527340
2026-01-14 17:25:29.901,-37255170,-43953350,36614700,-31487490,-80859380,53759770,4699707
2026-01-14 17:25:29.911,-37465780,-36880120,-36074790,-31691190,-47045900,14135740,71777340
2026-01-14 17:25:29.921,-63719020,-7651116,395333,5,-5904066,-14916990,-3491211,9501953
2026-01-14 17:25:29.931,-32422290,-40532700,39810920,25409920,7501221,-7626953,11416020
2026-01-14 17:25:29.941,-64262810,-76001890,4151837,-6413334,14807130,-1203125,10332030
2026-01-14 17:25:29.951,-6457356,-7570842,418636,6,-670681,4,6970215,-15888670,6870117
2026-01-14 17:25:29.961,-32563850,-43350860,36233180,25371940,-32409670,-21054690,-51660160
2026-01-14 17:25:29.971,-65333140,-3963668,3963664,-7207450,-24926760,-23613280,-22363280
2026-01-14 17:25:29.981,-32891000,-74577660,4471210,25579960,-4375,-24003910,-35019530
2026-01-14 17:25:29.991,-66256740,-74137460,4790582,-7336924,-34521480,-24296880,-38066410
2026-01-14 17:25:30.001,-33436520,-7367999,523081,1,26035720,-3540039,-22304690,-33203120
2026-01-14 17:25:30.011,-6724937,-73196600,5731432,-712116,3,-46411130,-20976560,-28730470
2026-01-14 17:25:30.021,-34160720,-7268734,627524,1,26692590,-4543457,-17226560,-24726560
2026-01-14 17:25:30.031,-68302440,-4277253,3624184,-6689544,-40527340,-13115230,-14658200
2026-01-14 17:25:30.041,-34977270,-36026880,-28123720,27447000,-2746582,-7524414,-35424800
2026-01-14 17:25:30.051,-35401090,-7097827,800158,1,27834560,-38879400,-9674072,12050780
2026-01-14 17:25:30.061,-35826630,-397130,8,390943,9,28220400,22888180,5332031,17900390
2026-01-14 17:25:30.071,-70650260,-42340950,36259080,-5843644,60058590,92333980,17910160
2026-01-14 17:25:30.081,-36638010,-30291740,-29508500,28945460,94433590,10585940,21738280
2026-01-14 17:25:30.091,-37049740,-6838877,953801,9,29310580,12998050,11445310,28789060
2026-01-14 17:25:30.101,-72506060,-32848700,-25104360,-5437954,17792970,11640630,37089840
2026-01-14 17:25:30.111,-7316207,-66964530,9822846,-547251,4,19589840,15771480,41835940
2026-01-14 17:25:30.121,-7381809,-32019190,-24414690,-561060,2,19326170,18466800,39101560
2026-01-14 17:25:30.131,-7446545,-65505780,9710636,-584367,1,19082030,21386720,31992190
2026-01-14 17:25:30.141,-38525750,-31348520,-23911460,30406800,17373050,23359380,22304690
2026-01-14 17:25:30.151,-7559622,-31074890,-23718980,-645650,9,17763670,24179690,18466800
2026-01-14 17:25:30.161,-44912330,-30838380,-23558430,-37986270,21523440,20859380,15146480
2026-01-14 17:25:30.171,-35057540,-30639000,-23429820,34220270,24765620,19443360,11894530
2026-01-14 17:25:30.181,-76865060,-62605540,8778414,-7656294,26367190,12890630,10898440
2026-01-14 17:25:30.191,-77227590,-6213943,851949,5,-8105144,25488280,67578130,71728510
2026-01-14 17:25:30.201,-38808870,-61673320,8260512,30192730,24980470,3869629,13000490
2026-01-14 17:25:30.211,-77918130,-37264660,31944110,-9054630,2828125,3326416,-27618410
2026-01-14 17:25:30.221,-38732910,-34268020,34267480,29957950,36835940,-58984380,5419922
2026-01-14 17:25:30.231,-78470550,-60413090,7518194,-10055910,4234375,-12480470,13496090
2026-01-14 17:25:30.241,-7866908,-60067820,7293762,-1063425,45507810,-17421880,20410160
2026-01-14 17:25:30.251,-38282340,-29692960,-23012040,29269140,47929690,-17753910,25644530
2026-01-14 17:25:30.261,-7898845,-59446340,6810390,-1200669,46640620,-12109380,303125
2026-01-14 17:25:30.271,-37733360,-5916151,654282,7,28540630,45273440,-47143560,32539060
2026-01-14 17:25:30.281,-49717580,-29577290,-23058650,-43176500,43203120,6719971,31894530
2026-01-14 17:25:30.291,-79161090,-58704020,5981754,-14717010,40742190,37646480,26679690
2026-01-14 17:25:30.301,-36445520,-58522750,5696906,26962760,37402340,44970700,18828120
2026-01-14 17:25:30.311,-79048870,-58376020,5429330,-16693660,35,7060547,8598633
2026-01-14 17:25:30.321,-78936660,-58263800,5196272,-17617250,32714840,70947260,8880615
2026-01-14 17:25:30.331,-35032520,-29745620,-23425500,25302890,29296880,8334961,-34179690
2026-01-14 17:25:30.341,-78651820,-58160220,4885534,-19248630,25234380,8076172,-24194340
2026-01-14 17:25:30.351,-78496450,-29826750,-23534260,-19973690,23125,9628906,-44433590
2026-01-14 17:25:30.361,-78323820,-58151590,4687002,-20629710,21484380,9111328,-10830080
2026-01-14 17:25:30.371,-33442560,-29941560,-23661140,23509230,20527340,5439453,-20507810
2026-01-14 17:25:30.381,-52610920,-58289700,4548894,-46981340,17548830,-45776370,-26054690
2026-01-14 17:25:30.391,-32875460,-58427810,4531631,22902420,15751950,-2758789,-28164060
2026-01-14 17:25:30.401,-77572860,-30183240,-23868300,-22174770,14492190,-25219730,-25253910
2026-01-14 17:25:30.411,-32535370,-34422260,29003290,22569240,1234375,6488037,-20996090
2026-01-14 17:25:30.421,-32397260,-59066550,4687001,22448390,984375,1274414,-13164060
2026-01-14 17:25:30.431,-76960020,-34762340,29301950,-22338780,94091800,16357420,-9765625
2026-01-14 17:25:30.441,-76726950,-59636240,4756057,-22330140,74658200,34814450,-10634770
2026-01-14 17:25:30.451,-7646800,-59972880,4764684,-2227838,5644531,-32928470,-11992190
2026-01-14 17:25:30.461,-31944960,-60344030,4773317,22106580,51464840,-2919922,-16757810
2026-01-14 17:25:30.471,-75950100,-60758350,4807845,-21950350,40600580,-67333980,-23203120
2026-01-14 17:25:30.481,-31881950,-35882740,30253160,22152330,47998050,-11835940,-18964840
2026-01-14 17:25:30.491,-51012330,-61681940,5006372,-45593360,31030270,-13886720,-19013670
2026-01-14 17:25:30.501,-75130100,-62182580,5127217,-20681490,-14074710,-14306640,-19873050
2026-01-14 17:25:30.511,-50204410,-6269183,529123,9,-44726740,-60498050,-12822270,-15917970
2026-01-14 17:25:30.521,-7458631,-32298000,-25430640,-1939539,-11904300,-5629883,-12480470
2026-01-14 17:25:30.531,-7431873,-32506020,-25567880,-1866170,-16650390,25146480,-10888670
2026-01-14 17:25:30.541,-32649310,-35336780,34752420,23456570,-2109375,93359380,-11914060
2026-01-14 17:25:30.551,-28748830,-32941060,-25857900,27840430,-23886720,14013670,-14355470
2026-01-14 17:25:30.561,-7339514,-33160300,-26001190,-1628799,-24296880,14775390,-15830080
2026-01-14 17:25:30.571,-33251800,-6594600,645650,8,24407790,-23847660,12568360,-17880860
2026-01-14 17:25:30.581,-72713220,-66507050,6741338,-14414900,-23730470,11015630,-19365230
2026-01-14 17:25:30.591,-7235068,-40082050,34081310,-1337911,-2296875,7504883,-18369140
2026-01-14 17:25:30.601,-30286650,-6766371,748367,6,29444540,-22128910,3059082,-16318360
2026-01-14 17:25:30.611,-7159112,-33941470,-26324880,-1104856,-21367190,25043490,-13935550
2026-01-14 17:25:30.621,-43561470,-68759920,8493572,-37420900,-19804690,-2861328,-11787110
2026-01-14 17:25:30.631,-70779730,-34001030,-26161740,-8459038,-19472660,-37182620,-79833980
2026-01-14 17:25:30.641,-7036541,-3001758,-2993803,-709523,8,-19453120,-18798830,-3803711
2026-01-14 17:25:30.651,-69933820,-40668650,40072030,-5696904,-20195310,15795900,-52215580
2026-01-14 17:25:30.661,-36291010,-70624360,11342020,28912650,-18261720,2998047,25683590
2026-01-14 17:25:30.671,-69018860,-44561020,38682850,-2882982,-13925780,5083008,5644531
2026-01-14 17:25:30.681,-68526860,-33307040,-24853170,-1458754,-7993164,81689460,8144531
2026-01-14 17:25:30.691,-37376020,-4323849,4266397,30572530,-25268560,9267578,11074220
2026-01-14 17:25:30.701,-37691940,-32702830,-23972750,31085250,17785640,98291020,17207030
2026-01-14 17:25:30.711,-66817790,-7225575,1642611,2718976,6142578,12060550,23671880
2026-01-14 17:25:30.721,-66213580,-31969130,-22962840,4013726,99316410,159375,31621090
2026-01-14 17:25:30.731,-6559210,-31602290,-22466520,517035,8,12792970,21113280,40039060
2026-01-14 17:25:30.741,-32972130,-27108810,-26183150,-25861360,16025390,25683590,46328120
2026-01-14 17:25:30.751,-32297130,-49461220,44192450,-25172550,19277340,26074220,47109380
2026-01-14 17:25:30.761,-31726580,-30849600,-21389290,-24603730,21503910,19306640,42382810
2026-01-14 17:25:30.771,-6324429,-30752070,-21210610,788070,6,20703120,95654300,35371100
2026-01-14 17:25:30.781,-6270913,-30719270,-21105310,822597,1,15517580,40527340,27246090
2026-01-14 17:25:30.791,-2683592,-30733940,-21056110,-2683586,9511719,118652300,26269530
2026-01-14 17:25:30.801,-61673310,-74603570,22761730,8795674,4375,72265620,30800780
2026-01-14 17:25:30.811,-61155410,-30909160,-21122570,9020098,27807620,115625,38496100
2026-01-14 17:25:30.821,-60663410,-75337260,22908470,9132308,3388672,8808594,44414060
2026-01-14 17:25:30.831,-60240460,-492530,492001,8,9089158,29144290,37963870,4546875
2026-01-14 17:25:30.841,-28929060,-7614863,2235605,-22049610,-4892578,-1706543,38320310
2026-01-14 17:25:30.851,-59584450,-76562950,21855410,8605772,-9013672,-8564453,30585940
2026-01-14 17:25:30.861,-36322950,-76968640,21277080,31211270,-11865230,-1625,22773440
2026-01-14 17:25:30.871,-59135600,-7733981,2064699,7759878,-1421875,-21933590,15585940
2026-01-14 17:25:30.881,-35713550,-77676440,19982330,30543180,-14482420,-25585940,89697260
2026-01-14 17:25:30.891,-58850760,-34195240,-24465610,6767234,-11523440,-30234380,58740230
2026-01-14 17:25:30.901,-58729910,-78280660,18635790,6249328,-7524414,-37265620,4020996
2026-01-14 17:25:30.911,-58652230,-3512142,-2547291,5688272,-63183590,-4203125,31225590
2026-01-14 17:25:30.921,-34517200,-78789920,17246090,29167290,-6303711,-4296875,22998050
2026-01-14 17:25:30.931,-58565910,-36014800,-26461260,4445310,-6557617,-43945310,24731440
2026-01-14 17:25:30.941,-58548650,-32161970,-31211790,3754778,-7480469,-46015620,17895510
2026-01-14 17:25:30.951,-33583260,-7935100,1509681,28029640,-95214850,-4765625,8929443
2026-01-14 17:25:30.961,-58617700,-5018370,4367717,2304656,-11816410,-48359380,46905520
2026-01-14 17:25:30.971,-31577250,-37566770,-28241110,-25547170,-13730470,-48398440,-831604
2026-01-14 17:25:30.981,-58859390,-7954951,1308564,871799,8,-16162110,-47929690,-9667969
2026-01-14 17:25:30.991,-59049280,-79514980,12498670,181260,-19150390,-46210940,-23706060
2026-01-14 17:25:31.001,-59282340,-38300460,-29164700,-483378,2,-2203125,-43476560,-41430660
2026-01-14 17:25:31.011,-32262610,-38448930,-29378760,26191090,-24609380,-40664060,-76660160
2026-01-14 17:25:31.021,-59938350,-38526620,-29525500,-1743600,-28183590,-35390620,-11816410
2026-01-14 17:25:31.031,-60361300,-78755400,10582430,-2339186,-32167970,-26132810,-16269530
2026-01-14 17:25:31.041,-34772700,-38519710,-29653260,-28980850,-36601560,-14550780,-21015620
2026-01-14 17:25:31.051,-32184060,-38433390,-29635990,25699950,-39667970,-25317380,-25527340
2026-01-14 17:25:31.061,-35860290,-38287520,-29557440,-30068440,-39628900,8051758,-29296880
2026-01-14 17:25:31.071,-32363600,-4669824,3994654,25658520,-35820310,18027340,-33613280
2026-01-14 17:25:31.081,-36979820,-37842980,-29242390,-31158620,-31582030,25859380,-39941410
2026-01-14 17:25:31.091,-63839870,-33676390,-32822020,-5368902,-26660160,28710940,-4296875
2026-01-14 17:25:31.101,-64504500,-45756500,39179170,-5671014,-17597660,25253910,-41132810
2026-01-14 17:25:31.111,-38511080,-45505320,39016030,-32579390,-6826172,18916020,-34765620
2026-01-14 17:25:31.121,-30328860,-36152910,-27738750,29609490,847168,15400390,-26328120
2026-01-14 17:25:31.131,-66688320,-35573720,-27195810,-6024908,67041020,17207030,-18583980
2026-01-14 17:25:31.141,-34415350,-72531960,10936330,27076700,13046880,19511720,-9921875
2026-01-14 17:25:31.151,-34860740,-7178101,1135930,27459950,17060550,19648440,17321780
2026-01-14 17:25:31.161,-40480830,-7103867,1172183,-34165890,18291020,20839840,12109380
2026-01-14 17:25:31.171,-69631720,-33254390,-25026670,-5705538,18134770,23828120,17636720
2026-01-14 17:25:31.181,-70356780,-69528140,12144770,-5722806,15527340,26171880,20117190
2026-01-14 17:25:31.191,-7106459,-32359290,-24264500,-582639,7,12998050,24042970,21796880
2026-01-14 17:25:31.201,-71763740,-6806075,1205848,-6007642,91064460,22226560,19365230
2026-01-14 17:25:31.211,-72462910,-6732706,1185995,-6240700,59765620,21171880,15185550
2026-01-14 17:25:31.221,-7311892,-31437420,-23615400,-653419,2,3413086,21953120,12451170
2026-01-14 17:25:31.231,-37460610,-31232850,-23509230,29400350,40185550,18564450,11328130
2026-01-14 17:25:31.241,-74292820,-31070580,-23447080,-7259240,5136719,13144530,11523440
2026-01-14 17:25:31.251,-37694520,-40326320,34890100,29442640,57470700,10136720,11005860
2026-01-14 17:25:31.261,-45101360,-37352970,36810380,-38384200,69677740,7290039,74658200
2026-01-14 17:25:31.271,-75803360,-63667230,9460315,-8666206,8276367,4658203,4724121
2026-01-14 17:25:31.281,-46053430,-38772620,33353660,-39348350,8959961,1194458,-13623050
2026-01-14 17:25:31.291,-7661474,-62674590,8467672,-968476,3,8647461,-2758789,-7290039
2026-01-14 17:25:31.301,-7696864,-62234370,7992932,-1021130,87402340,-5410156,-7402344
2026-01-14 17:25:31.311,-7727073,-34953360,34410780,-1075508,8276367,-6713867,-68066410
2026-01-14 17:25:31.321,-77538330,-61431630,7138400,-11333390,7607422,-6479492,-6035156
2026-01-14 17:25:31.331,-48141440,-30554400,-23773360,-41558920,74560540,-61279300,-7866211
2026-01-14 17:25:31.341,-7795265,-60732460,6387436,-1254185,88964850,-75341800,-13369140
2026-01-14 17:25:31.351,-37078220,-60404460,6076700,27952810,10693360,-7836914,-18173830
2026-01-14 17:25:31.361,-7830655,-60102350,5809116,-1363807,10292970,-66748050,-20625
2026-01-14 17:25:31.371,-78461920,-59808870,5567436,-14138680,8618164,-42529300,-21914060
2026-01-14 17:25:31.381,-78617300,-30322210,-23832910,-14570270,7451172,8166504,-23222660
2026-01-14 17:25:31.391,-7875540,-59247820,5196266,-1496735,86035150,5732422,-24609380
2026-01-14 17:25:31.401,-36499900,-58997500,5049534,27081010,10722660,9238281,-25917970
2026-01-14 17:25:31.411,-78997090,-30117640,-23744010,-15588810,11445310,10810550,-25390620
2026-01-14 17:25:31.421,-7909204,-5861770,482510,9,-1582186,13125,10234380,-25683590
2026-01-14 17:25:31.431,-7916108,-58488220,4747422,-1595999,16513670,90966800,-30546880
2026-01-14 17:25:31.441,-36369560,-58410540,4704264,26848820,15566410,5102539,-26152340
2026-01-14 17:25:31.451,-50775820,-58358750,4652476,-44448810,16210940,25048830,-22578120
2026-01-14 17:25:31.461,-7929055,-34165900,28793540,-1589956,16806640,2368164,-20058590
2026-01-14 17:25:31.471,-36518890,-58341490,4600686,27010230,14082030,3244629,-17451170
2026-01-14 17:25:31.481,-79316460,-30036500,-23738830,-15614700,11142580,4453125,-14951170
2026-01-14 17:25:31.491,-36674260,-30064990,-23762140,27200130,9238281,5859375,-9633789
2026-01-14 17:25:31.501,-36725180,-58522750,4592050,27270050,5205078,6875,-122558600
2026-01-14 17:25:31.511,-36711370,-58626340,4557526,27266590,2244873,875,79589840
2026-01-14 17:25:31.521,-79100660,-58755810,4462580,-15295330,20678710,7817383,13945310
2026-01-14 17:25:31.531,-7897119,-58919810,4333100,-1540756,37060550,46679690,14042970
2026-01-14 17:25:31.541,-36328130,-59109710,4177732,26890250,23803710,-31762700,87646480
2026-01-14 17:25:31.551,-36163260,-59316870,3987833,26727110,-70251460,-8300781,-31341550
2026-01-14 17:25:31.561,-78479180,-59489500,3797939,-15865020,-57421880,-10107420,-12089840
2026-01-14 17:25:31.571,-35927620,-59627610,3677095,26496650,-9848633,-65234380,-17626950
2026-01-14 17:25:31.581,-35847340,-34484400,28872090,26421550,-12822270,37872310,-13466800
2026-01-14 17:25:31.591,-78151180,-59860660,3616675,-16089450,-13496090,44799800,-96435540
2026-01-14 17:25:31.601,-50202680,-60007400,3642570,-44020680,-11962890,27148440,-86621100
2026-01-14 17:25:31.611,-77857700,-60188670,3702991,-16313870,-9057617,-34545900,-10556640
2026-01-14 17:25:31.621,-35355340,-31478860,-25058610,25946810,-6411133,-7685547,-11611330
2026-01-14 17:25:31.631,-35246580,-31496120,-25041350,25848410,-5185547,-8359375,-10771480
2026-01-14 17:25:31.641,-47243480,-60706570,4203630,-46634600,-54296880,-7441406,-11318360
2026-01-14 17:25:31.651,-49923020,-60853300,4419420,-43851500,-56884770,-5151367,-15576170
2026-01-14 17:25:31.661,-77115380,-61000040,4669740,-16538290,-4880371,-28466800,-19296880
2026-01-14 17:25:31.671,-7698592,-31402030,-24790170,-1651241,-30859380,-12878420,-20175780
2026-01-14 17:25:31.681,-7684779,-61319420,5299850,-1642610,-9442139,-20617680,-18613280
2026-01-14 17:25:31.691,-34853840,-36360060,30777100,25550620,-13439940,35253900,-96777340
2026-01-14 17:25:31.701,-34824490,-36601750,31036050,25545440,-8068848,6791992,-6088867
2026-01-14 17:25:31.711,-76442110,-31163800,-24355130,-16106700,-10015870,9560547,-6870117
2026-01-14 17:25:31.721,-49171200,-61966790,6568706,-43135930,-703125,16367190,-8496094
2026-01-14 17:25:31.731,-76191790,-62148060,6836292,-15821860,-8648682,18818360,-59033200
2026-01-14 17:25:31.741,-76036420,-62346580,7069348,-15631970,-1875,14453130,-55615230
2026-01-14 17:25:31.751,-75881060,-62571010,7293772,-15390280,-24414060,10195310,-6557617
2026-01-14 17:25:31.761,-75734300,-37921540,32392090,-15122690,-33325200,41455080,-48120120
2026-01-14 17:25:31.771,-75587570,-38137330,32607880,-14803330,-52246100,4638672,-14611820
2026-01-14 17:25:31.781,-34984180,-31196600,-24080640,25989970,-71777340,-16662600,49780270
2026-01-14 17:25:31.791,-75337260,-31215590,-24061650,-14190470,-72753900,-34155270,7163086
2026-01-14 17:25:31.801,-31096730,-63589540,8312306,30205420,-61083980,-5654297,5776367
2026-01-14 17:25:31.811,-75095570,-63753540,8493569,-13672580,-59277340,-8774414,43286130
2026-01-14 17:25:31.821,-35203420,-6388304,869211,1,26357680,-5463867,-8857422,50634770
2026-01-14 17:25:31.831,-3525695,-31173290,-23879530,2644226,-44750980,-63964840,65966800
2026-01-14 17:25:31.841,-35319950,-64090180,9210001,26534630,-5859375,-63916020,40454100
2026-01-14 17:25:31.851,-74802090,-64141980,9503475,-12792140,-43164060,-62158200,9442139
2026-01-14 17:25:31.861,-35484810,-39710880,34279830,26749560,-22546390,-94189460,-17907720
2026-01-14 17:25:31.871,-46695640,-64133340,10202640,-40449760,-5566406,103515600,4550171
2026-01-14 17:25:31.881,-35671260,-6410746,1060834,26977430,-28466800,-2927246,14465330
2026-01-14 17:25:31.891,-74802100,-26536810,-26461670,-11928970,-25610350,-7631836,34521480
2026-01-14 17:25:31.901,-74836620,-40400550,35161130,-11721820,-29077150,-4736328,82910160
2026-01-14 17:25:31.911,-35996670,-6385714,1215341,27359820,-6274414,-64697260,15683590
2026-01-14 17:25:31.921,-7492295,-29312300,-21666370,-1130751,-24719240,-6953125,19501950
2026-01-14 17:25:31.931,-75017890,-28918700,-21231320,-11126230,-48339840,-94873050,21210940
2026-01-14 17:25:31.941,-36398040,-63244280,14009210,27787080,-59765620,-7949219,23769530
2026-01-14 17:25:31.951,-36545650,-6294218,1467386,27932960,-5371094,-8598633,25214840
2026-01-14 17:25:31.961,-7548399,-62571010,15373010,-1071194,-6171875,-2746582,20996090
2026-01-14 17:25:31.971,-4640302,-6216532,1610671,-3989647,-55371100,-6098633,221875
2026-01-14 17:25:31.981,-33128880,-2634475,-1848817,32264680,-30566410,-6508789,21523440
2026-01-14 17:25:31.991,-7614864,-25712030,-17826130,-1044434,-2541504,-18579100,20195310
2026-01-14 17:25:32.001,-76407580,-25042210,-17132140,-10392540,21374510,-3305664,21894530
2026-01-14 17:25:32.011,-76692420,-39849070,39441490,-10383900,-17303470,3642578,2015625
2026-01-14 17:25:32.021,-37670350,-59368660,20042750,28931640,39257810,49560550,13417970
2026-01-14 17:25:32.031,-37815370,-58738550,20845500,29045580,26635740,7158203,80078130
2026-01-14 17:25:32.041,-77564220,-58056640,21630980,-10444330,8647461,76065060,7495117
2026-01-14 17:25:32.051,-38122650,-17860840,-17062920,29290720,7084961,48901370,50683590
2026-01-14 17:25:32.061,-78151180,-56641050,23219210,-10444330,9042969,50390620,68847660
2026-01-14 17:25:32.071,-78453290,-55915990,23944270,-10435700,11230470,68603520,6298828
2026-01-14 17:25:32.081,-7876402,-55182290,24626160,-1043572,10791020,44018560,-38183590
2026-01-14 17:25:32.091,-48163020,-18573640,-10601420,-41295660,11982420,-15319820,-7607422
2026-01-14 17:25:32.101,-39010850,-53723540,25912290,30042540,12558590,-5727539,-89941410
2026-01-14 17:25:32.111,-48408160,-17226230,-9273006,-41464840,9897461,-10683590,-34033200
2026-01-14 17:25:32.121,-8001561,-52230260,27060300,-1011634,13945310,-97265620,-61035160
2026-01-14 17:25:32.131,-48687820,-15905580,-8004150,-41651280,13945310,-86279300,-67822260
2026-01-14 17:25:32.141,-80714780,-15267710,-7399069,-9848740,17177730,-3474121,-1109375
2026-01-14 17:25:32.151,-40227920,-14689390,-6855275,31156030,20917970,-8208008,-80126950
2026-01-14 17:25:32.161,-8138806,-14127460,-6329607,-950347,9,215625,-32348630,-12333980
2026-01-14 17:25:32.171,-8169017,-13618190,-5854865,-930495,2,21953120,-8383789,-9160156
2026-01-14 17:25:32.181,-49185870,-13151220,-5424143,-41895560,22578120,-15185550,-65234380
2026-01-14 17:25:32.191,-8231164,-47292940,29563490,-887338,4,234375,-9897461,-10546880
2026-01-14 17:25:32.201,-8260512,-46705990,29736120,-864896,4,24199220,-14648440,-70947260
2026-01-14 17:25:32.211,-49386130,-85196350,-77597020,-41937000,24921880,-9355469,-7446289
2026-01-14 17:25:32.221,-49438780,-116130500,-40620660,-41936130,27304690,-9033203,-5180664
2026-01-14 17:25:32.231,-42351320,-79452830,-71946740,33210360,26992190,-3154297,-5996094
2026-01-14 17:25:32.241,-4951907,-110744400,-36166720,-4190769,31464840,-43530270,-70751950
2026-01-14 17:25:32.251,-83994820,-44254590,29926020,-7380082,30371090,2644043,-4013672
2026-01-14 17:25:32.261,-84201990,-74038180,-66658100,-7121136,31542970,-32202150,3322754
2026-01-14 17:25:32.271,-8440913,-37405360,36015660,-689672,4,3203125,-5630493,33813480
2026-01-14 17:25:32.281,-8459040,-43417320,29658440,-666367,6,32265620,89453130,-4171753
2026-01-14 17:25:32.291,-43701300,-37103250,35730820,34587980,32636720,7314453,6845703
2026-01-14 17:25:32.301,-8481484,-10503020,-3238604,-619755,2,32714840,14921880,81933590
2026-01-14 17:25:32.311,-4396285,-10568620,-3311110,3487886,27070310,68652340,16640630
2026-01-14 17:25:32.321,-8487528,-73714500,-66463900,-584367,7,225,32983400,19423830
2026-01-14 17:25:32.331,-4409750,-4334827,2915780,3503769,16513670,41845700,228125
2026-01-14 17:25:32.341,-8484072,-43443220,29097370,-563650,3,11894530,33813480,24746090
2026-01-14 17:25:32.351,-49155660,-10881950,-3619259,-41235240,44555660,-6850586,30234380
2026-01-14 17:25:32.361,-49126320,-76660500,-69387440,-41212800,-28295900,-3112793,26035160
2026-01-14 17:25:32.371,-84693980,-109613600,-36779570,-5645122,-8964844,-25952150,21269530
2026-01-14 17:25:32.381,-43991330,-73388570,-72659370,34953960,-13730470,-22851560,17617190
2026-01-14 17:25:32.391,-4914444,-10901810,-3599408,-4126372,-22558590,18029780,17519530
2026-01-14 17:25:32.401,-49190180,-43676270,29382220,-41321550,-25429690,-77705380,19082030
2026-01-14 17:25:32.411,-8459907,-73830160,-66520860,-605083,4,-29179690,27539060,18876950
2026-01-14 17:25:32.421,-43746190,-10508200,-3198897,34663940,-30878910,24072270,19638670
2026-01-14 17:25:32.431,-8465083,-10307080,-3002959,-639607,9,-30527340,32128910,16484380
2026-01-14 17:25:32.441,-8470262,-10087840,-2790620,-660323,7,-30019530,23754880,12919920
2026-01-14 17:25:32.451,-39429920,-98590990,-25705120,38514100,-29882810,50323490,10341800
2026-01-14 17:25:32.461,-49819440,-63368570,-56093800,-42038850,-29121090,-11645510,7011719
2026-01-14 17:25:32.471,-8492703,-42010360,30582020,-722472,3,-28808590,-16149900,23779300
2026-01-14 17:25:32.481,-8502200,-9075343,-1835094,-738871,7,-2734375,-7147217,-3413086
2026-01-14 17:25:32.491,-50207000,-41276660,30918660,-42445400,-24179690,16345220,-7890625
2026-01-14 17:25:32.501,-8524640,-40896870,31074020,-761315,1,-203125,4165039,-11933590
2026-01-14 17:25:32.511,-8535862,-4053435,3122941,-767355,7,-15703130,67041020,-1359375
2026-01-14 17:25:32.521,-43544210,-35778740,35777850,34227180,-12207030,8046875,-15576170
2026-01-14 17:25:32.531,-43609810,-45690040,-38555100,34282420,-9345703,94140620,-18740230
2026-01-14 17:25:32.541,-8569528,-44038800,-36926300,-764768,4,-7133789,9658203,-21152340
2026-01-14 17:25:32.551,-8579883,-39369070,31548770,-757862,3,-52197260,9472656,-19833980
2026-01-14 17:25:32.561,-8591105,-73498710,-2805296,-746642,8,-3166504,9326172,-20
2026-01-14 17:25:32.571,-8601465,-41072100,-34023470,-732830,9,-3125,87402340,-19511720
2026-01-14 17:25:32.581,-86118210,-72428380,-2149282,-7172926,16442870,7446289,-18769530
2026-01-14 17:25:32.591,-8620455,-40792430,-33785240,-700030,4,2541504,6767578,-16767580
2026-01-14 17:25:32.601,-86290850,-41129060,-34139130,-6827656,38110350,5957031,-15302730
2026-01-14 17:25:32.611,-8635989,-38704430,31056760,-663777,3,3786621,35546880,-13896480
2026-01-14 17:25:32.621,-44633520,-38713060,30927290,35347570,25390620,22509770,-10546880
2026-01-14 17:25:32.631,-86446220,-74577660,-5006366,-6223442,14794920,11016850,-6899414
2026-01-14 17:25:32.641,-50263100,-75509890,-5973116,-42216660,14611820,5279541,-8227539
2026-01-14 17:25:32.651,-8646348,-7646801,-691396,6,-580911,9,18774410,-24499510,4802246
2026-01-14 17:25:32.661,-86446220,-46120760,-39160180,-5636484,23742680,-45043940,94091800
2026-01-14 17:25:32.671,-86411700,-78522340,-8830198,-5498374,-13134770,-62646480,13417970
2026-01-14 17:25:32.681,-45078920,-39360440,30435290,35903450,-36791990,-8745117,15253910
2026-01-14 17:25:32.691,-49858280,-80542140,-10608320,-41758320,-65527340,-99902340,14462890
2026-01-14 17:25:32.701,-86239060,-8138806,-1131609,-5256688,-76708980,-9379883,13427730
2026-01-14 17:25:32.711,-49743480,-8225120,-1200664,-41648690,-84716800,-88183590,11269530
2026-01-14 17:25:32.721,-44996060,-39999180,30452550,35865470,-9291992,-67529300,91552740
2026-01-14 17:25:32.731,-49647670,-51784000,-44718120,-41571880,-10664060,-70654300,5961914
2026-01-14 17:25:32.741,-8588518,-52227670,-45137620,-524808,1,-11933590,-64404300,25952150
2026-01-14 17:25:32.751,-85764320,-8469399,-1353443,-5265320,-13173830,-6669922,6164551
2026-01-14 17:25:32.761,-8565210,-8516873,-1375026,-529121,6,-14931640,-70458980,-25
2026-01-14 17:25:32.771,-4464475,-4082782,3088414,3556077,-16533200,-69189460,-6196289
2026-01-14 17:25:32.781,-49371450,-8606640,-1406097,-41364710,-17958980,-76416020,-10878910
2026-01-14 17:25:32.791,-8526366,-41198980,31099920,-531712,8,-18105470,-79248050,-13339840
2026-01-14 17:25:32.801,-44450540,-54471910,-47209220,35409720,-17792970,-7290039,-14667970
2026-01-14 17:25:32.811,-44413420,-87749600,-14794690,35395040,-15742190,-6118164,-16201170
2026-01-14 17:25:32.821,-48951090,-8843149,-1514857,-40973700,-14199220,-43554690,-17802730
2026-01-14 17:25:32.831,-48804350,-8912202,-1549383,-40826960,-12207030,-17736820,-18515620
2026-01-14 17:25:32.841,-4864985,-8998520,-1601176,-4067073,-9663086,19372560,-18867190
2026-01-14 17:25:32.851,-44352990,-91029630,-16693660,35455460,-71533200,10341800,-18466800
2026-01-14 17:25:32.861,-44367670,-9241072,-1772944,35509850,-22937010,13828130,-15722660
2026-01-14 17:25:32.871,-8406388,-94145680,-19101900,-410008,4,14001470,24453120,-12255860
2026-01-14 17:25:32.881,-44401340,-9626044,-2078505,35631550,24243160,27949220,-37524420
2026-01-14 17:25:32.891,-8364091,-38561140,37345800,-357353,2,-11177060,24863280,69189460
2026-01-14 17:25:32.901,-47369760,-44504910,31868140,-39361300,-23400880,21621090,22089840
2026-01-14 17:25:32.911,-83148920,-10403760,-2716384,-3116032,-5102539,15546880,37558590
2026-01-14 17:25:32.921,-8289863,-68059020,-67285630,-298658,8,-5834961,15136720,49023440
2026-01-14 17:25:32.931,-44125980,-10803410,-3024537,35561630,-5629883,17470700,59375
2026-01-14 17:25:32.941,-46744840,-10911300,-3089274,-38812320,-45776370,18183590,64335940
2026-01-14 17:25:32.951,-8222536,-74193560,-66330100,-338365,2,-45507810,13769530,67148440
2026-01-14 17:25:32.961,-8203543,-10916480,-3015044,-378067,9,-3178711,21347660,59609380
2026-01-14 17:25:32.971,-4694249,-46550620,32843520,-3918437,-2218628,21328120,5140625
2026-01-14 17:25:32.981,-42751820,-10678250,-2700849,34104610,27539060,21425780,43515620
2026-01-14 17:25:32.991,-42384110,-104900700,-24747010,33695470,5107422,19072270,35332030
2026-01-14 17:25:33.001,-42009500,-66431090,-58382920,33275970,8432617,17763670,25507810
2026-01-14 17:25:33.011,-8116366,-63682760,-55606970,-668957,4,11367190,17910160,1546875
2026-01-14 17:25:33.021,-4788595,-97278970,-16313860,-4051971,13671880,17480470,36547850
2026-01-14 17:25:33.031,-48141440,-57831360,-49719310,-40851130,15439450,17509770,-7939453
2026-01-14 17:25:33.041,-4838140,-91357640,-10150850,-4116363,17119140,14658200,-14873050
2026-01-14 17:25:33.051,-48633440,-45402610,35855980,-41481240,18818360,95214850,-19316410
2026-01-14 17:25:33.061,-8077520,-45109130,36149450,-987464,8,19423830,35742190,-23125
2026-01-14 17:25:33.071,-39724690,-82553330,-1346539,30606190,20585940,-19897460,-27207030
2026-01-14 17:25:33.081,-8075794,-79842990,1294752,-1092773,225,-76708980,-28417970
2026-01-14 17:25:33.091,-39307780,-37262340,-36452170,30090880,23769530,-12070310,-30019530
2026-01-14 17:25:33.101,-8082700,-75216420,5645116,-1180817,25449220,-18105470,-28867190
2026-01-14 17:25:33.111,-8087878,-4065864,3999573,-1220519,25136720,-24707030,-29550780
2026-01-14 17:25:33.121,-38882240,-35957830,-27916560,29532410,24316410,-30253910,-3265625
2026-01-14 17:25:33.131,-50349420,-34994530,-26980880,-43528670,23457030,-35585940,-33925780
2026-01-14 17:25:33.141,-50516010,-42968480,36891780,-43707350,24355470,-40117190,-31015620
2026-01-14 17:25:33.151,-81267220,-6990793,965888,-13249620,24648440,-43554690,-28925780
2026-01-14 17:25:33.161,-38739820,-6983889,941717,5,29260510,24003910,-45546880,-25605470
2026-01-14 17:25:33.171,-81534790,-42528260,36399770,-13517200,2109375,-48554690,-22285160
2026-01-14 17:25:33.181,-81690170,-70710680,7872094,-13586260,18955080,-49765620,-18535160
2026-01-14 17:25:33.191,-38886560,-36365250,-28544950,29338200,16191410,-4921875,-15654300
2026-01-14 17:25:33.201,-38981500,-37726460,-29945860,29415880,12763670,-4328125,-16425780
2026-01-14 17:25:33.211,-82199440,-42286570,35139550,-13594890,98095700,-50976560,-5214844
2026-01-14 17:25:33.221,-8238935,-41742780,-34043320,-1354311,5732422,-43476560,-8892822
2026-01-14 17:25:33.231,-39364750,-44050020,-36397180,29757700,-14489750,-41640620,10791020
2026-01-14 17:25:33.241,-3950288,-46354680,-38753630,2987852,-8930664,-36660160,21484380
2026-01-14 17:25:33.251,-51708050,-42217520,33223320,-44742290,-17802730,-32441410,35371100
2026-01-14 17:25:33.261,-83330180,-8426240,-947754,-13413620,-2015625,-11503910,40507810
2026-01-14 17:25:33.271,-39899920,-85479470,-11367920,30189280,-23066410,54785160,52460940
2026-01-14 17:25:33.281,-39949980,-8606644,-1267992,30191010,-28535160,31503910,5453125
2026-01-14 17:25:33.291,-84115660,-5343869,-4617079,-14078260,-34394530,51054690,5234375
2026-01-14 17:25:33.301,-8434871,-40957290,30996340,-1451849,-39492190,65859380,45390620
2026-01-14 17:25:33.311,-84573150,-8507378,-1384517,-15001850,-390625,78046870,35625
2026-01-14 17:25:33.321,-84788940,-40180450,30340340,-15493860,-35253900,83203130,31347660
2026-01-14 17:25:33.331,-39547740,-35420940,34443840,29453860,-30214840,82578130,3171875
2026-01-14 17:25:33.341,-34353100,-83131660,-13888370,34251450,-29179690,72929690,33378910
2026-01-14 17:25:33.351,-39189530,-82294380,-13689840,28948910,-31933590,63242190,28710940
2026-01-14 17:25:33.361,-85393150,-8129310,-1331000,-17789880,-35820310,52578120,22382810
2026-01-14 17:25:33.371,-8550535,-38324640,29054220,-1845453,-38046880,43320310,14697270
2026-01-14 17:25:33.381,-85591690,-48656740,-41975820,-19110530,-37167970,34296880,6171875
2026-01-14 17:25:33.391,-8567798,-37539150,28717580,-1973202,-30488280,26503910,-29882810
2026-01-14 17:25:33.401,-3270596,-46274410,-39697070,3270486,-2125,20507810,-11015630
2026-01-14 17:25:33.411,-85772940,-74871140,-9546625,-20897290,-10732420,13876950,-16552730
2026-01-14 17:25:33.421,-37532250,-7425831,-929629,4,26808250,-11651610,6489258,-22246090
2026-01-14 17:25:33.431,-37273290,-32744260,31906990,26497510,6591797,-13891600,-28085940
2026-01-14 17:25:33.441,-8571254,-74491350,-10099060,-2251145,91064460,-11357420,-35292970
2026-01-14 17:25:33.451,-85660740,-46454800,-40034560,-22994780,73291020,-21933590,-415625
2026-01-14 17:25:33.461,-8557441,-36477460,27586830,-2340912,5151367,-34667970,-4296875
2026-01-14 17:25:33.471,-31413170,-77918130,-13922890,30320570,47460940,-45390620,-40351560
2026-01-14 17:25:33.481,-85401790,-7962718,-1566645,-24065110,5673828,-5265625,-3671875
2026-01-14 17:25:33.491,-35968180,-36960830,27034410,25005960,80029300,-57695310,-30058590
2026-01-14 17:25:33.501,-35800730,-37211150,26853140,24828150,82666020,-67148440,-23203120
2026-01-14 17:25:33.511,-35631550,-57244400,-50824160,24652060,3569336,-76679690,-18925780
2026-01-14 17:25:33.521,-57929760,-8834516,-2403919,-51934200,-78125,-92109380,-12060550
2026-01-14 17:25:33.531,-35311320,-9021827,-2579143,24316290,-29833980,-96015620,-11582030
2026-01-14 17:25:33.541,-35168900,-62524400,-56074810,24165230,-40478520,-103125,-12441410
2026-01-14 17:25:33.551,-35050640,-9228988,-2769040,24041800,-5756836,-10515630,-11943360
2026-01-14 17:25:33.561,-8451272,-3835053,2636977,-2561018,-6777344,-103515600,-92578130
2026-01-14 17:25:33.571,-8446095,-91452590,-26628720,-2567928,-69384770,-101328100,-7128906
2026-01-14 17:25:33.581,-84460930,-38186530,26689140,-25713760,-64208980,-89609380,-94677740
2026-01-14 17:25:33.591,-58026430,-37996630,26913570,-52148260,-24523930,-69179690,-12880860
2026-01-14 17:25:33.601,-8454724,-37746310,27112090,-2564472,13115230,-3171875,-22832030
2026-01-14 17:25:33.611,-84607670,-83684080,-18860210,-25549760,315625,11269530,-35507810
2026-01-14 17:25:33.621,-35133500,-37461470,27414200,24131570,43398440,38027340,-38203120
2026-01-14 17:25:33.631,-57883150,-32995440,32001070,-51929020,48359380,58945310,-321875
2026-01-14 17:25:33.641,-3539244,-37608200,27647250,2444230,4625,75273440,-84277340
2026-01-14 17:25:33.651,-8461631,-8303671,-1743598,-2453986,35605470,875,24355470
2026-01-14 17:25:33.661,-57452420,-8343374,-1755680,-51427510,29589840,953125,41835940
2026-01-14 17:25:33.671,-35616880,-38143370,28044310,24753050,27539060,110390600,45
2026-01-14 17:25:33.681,-84400510,-8318344,-1659867,-23961530,31445310,124609400,46796880
2026-01-14 17:25:33.691,-30742400,-38471380,28717590,29662060,32753910,133203100,58671880
2026-01-14 17:25:33.701,-8400344,-38609480,29218220,-2375438,40195310,137109400,61484380
2026-01-14 17:25:33.711,-30489580,-38721690,29796540,29414240,4953125,13984380,4984375
2026-01-14 17:25:33.721,-35078260,-38816640,30461180,24342180,55546880,14171880,26796880
2026-01-14 17:25:33.731,-34800320,-38902960,31238030,24084960,62265620,14015630,84521490
2026-01-14 17:25:33.741,-82587860,-37910310,-30797810,-24272270,68515620,133828100,-4765625
2026-01-14 17:25:33.751,-8209585,-65902830,6344280,-2441904,76796870,131953100,-1734375
2026-01-14 17:25:33.761,-28484580,-39256860,34267740,28484470,815625,123046900,-22265620
2026-01-14 17:25:33.771,-80852900,-23686180,-16192160,-24712490,84375,11265630,-29667970
2026-01-14 17:25:33.781,-32855610,-19099310,-11456820,22352580,84921870,9828125,-328125
2026-01-14 17:25:33.791,-32302310,-14772250,-6979571,21852810,82265620,884375,-44921880
2026-01-14 17:25:33.801,-31704140,-46377990,33085210,21311600,784375,80703130,-60351560
2026-01-14 17:25:33.811,-31035180,-6558347,1551976,20703070,66914060,73320310,-7890625
2026-01-14 17:25:33.821,-76459380,13117560,21409150,-26084920,4703125,59453120,-91328130
2026-01-14 17:25:33.831,-29550540,1797114,10287230,19391060,26152340,34257810,-89765620
2026-01-14 17:25:33.841,-73956180,6264870,14969050,-26551030,13574220,16220700,-80078130
2026-01-14 17:25:33.851,-72506060,-29598010,59636240,-26844510,-16113280,22631840,-74414060
2026-01-14 17:25:33.861,-70978260,-43753960,47620950,-27267460,-434375,-84472660,-93046870
2026-01-14 17:25:33.871,-69338240,23010410,23945910,-27733570,-8515625,-47421880,-10671880
2026-01-14 17:25:33.881,-67611900,-45065970,50676560,-28199680,-12109380,-95703130,-109453100
2026-01-14 17:25:33.891,-23400470,-45575240,52256160,13957420,-129140600,-13390630,-9515625
2026-01-14 17:25:33.901,-22430270,-1087592,8890626,13132230,-10890630,-14625,-83125
2026-01-14 17:25:33.911,-21580910,38164950,48324430,12427890,-79648440,-15890630,-48710940
2026-01-14 17:25:33.921,-20834270,-51201360,52102510,11827980,-58203120,-17234380,-25039060
2026-01-14 17:25:33.931,-6018001,38260760,48746520,-2843272,-43828120,-21453120,31289060
2026-01-14 17:25:33.941,-20129060,-52629040,53402440,11393810,-28847660,-2284375,81953130
2026-01-14 17:25:33.951,-44760410,26854870,37537430,-41556330,-8564453,-205625,11546880
2026-01-14 17:25:33.961,-20806650,-2893338,7813393,12235400,5332031,-18296880,140625
2026-01-14 17:25:33.971,-21460070,-36598300,70434460,12928520,-14931640,-16671880,138671900
2026-01-14 17:25:33.981,-22198940,5105634,15783020,13691560,-21132810,-1640625,1475
2026-01-14 17:25:33.991,-19077810,-46723260,59670770,18228280,-42421880,-1365625,1321875
2026-01-14 17:25:34.001,-61802790,-48302850,57625060,-23115630,-5515625,-114921900,124296900
2026-01-14 17:25:34.011,-44583460,-48207900,57012210,-40576640,-55742190,-903125,10828130
2026-01-14 17:25:34.021,-63494600,45749,10484900,-22010770,-72890620,-41757810,603125
2026-01-14 17:25:34.031,-45071150,1902424,12253530,-40779480,-68632820,-20153810,36875
2026-01-14 17:25:34.041,-65272720,4797486,15055370,-20992230,-60976560,36230470,24394530
2026-01-14 17:25:34.051,-66144520,-3707304,6452180,-20586540,-44140620,8140625,7475586
2026-01-14 17:25:34.061,-6690408,-32135730,68561390,-2027582,-12880860,115234400,13076170
2026-01-14 17:25:34.071,-46178600,-2742281,7248019,-41432900,19287110,118515600,28613280
2026-01-14 17:25:34.081,-6806074,21800160,31716220,-2003411,41054690,10484380,3359375
2026-01-14 17:25:34.091,-68535490,-18048830,80369520,-20111800,49375,9234375,21894530
2026-01-14 17:25:34.101,-28787500,30159940,39929260,19860620,48789060,83046870,-23742680
2026-01-14 17:25:34.111,-28904890,37494440,38464300,19915860,44570310,68828130,-25878910
2026-01-14 17:25:34.121,-29046450,35149900,44779400,19998730,42109380,50507810,-35839840
2026-01-14 17:25:34.131,-29170740,-43693540,51928150,20064320,4421875,38046880,-43085940
2026-01-14 17:25:34.141,-70486260,-591269,8912207,-21078550,39785160,29140620,-53632810
2026-01-14 17:25:34.151,-4845218,-576595,8,8880267,-4349242,31601560,94921870,-5375
2026-01-14 17:25:34.161,-29513420,-43003000,51220360,20291340,296875,-34985350,-49140620
2026-01-14 17:25:34.171,-29643760,35614290,45005550,20402690,32167970,-14130860,-40273440
2026-01-14 17:25:34.181,-29792220,-42908060,50676560,20530430,346875,-21855470,-32089840
2026-01-14 17:25:34.191,-7173783,31850880,41173090,-2113896,3578125,-27890620,-24648440
2026-01-14 17:25:34.201,-72039950,-1316329,7962723,-21147600,36640620,-32988280,-16894530
2026-01-14 17:25:34.211,-7234205,24471660,33705830,-2122528,31074220,-41601560,-14121090
2026-01-14 17:25:34.221,-72635540,19660370,28849650,-21311600,22304690,-54453120,-13398440
2026-01-14 17:25:34.231,-72929020,-2656829,6489296,-21363390,13535160,-63828120,-11054690
2026-01-14 17:25:34.241,-73213860,-44133750,46895890,-21372030,81689460,-70273440,-95166020
2026-01-14 17:25:34.251,-30827160,-3700400,5357682,21342680,33032230,-753125,-9848633
2026-01-14 17:25:34.261,-31046400,21388420,30401620,21537750,-36987300,-7625,-7597656
2026-01-14 17:25:34.271,-31289820,-75889680,13741630,21760450,-2467041,-76210940,-35107420
2026-01-14 17:25:34.281,-74551780,-13601790,-4697354,-20966340,-6381836,-75664060,-28295900
2026-01-14 17:25:34.291,-74983350,-19696620,-10859510,-20759180,-97265620,-73203130,-8648682
2026-01-14 17:25:34.301,-32284190,-25958040,-17200340,22682310,-14345700,-67304690,-20361330
2026-01-14 17:25:34.311,-32713180,-7111638,1552840,23081960,-17626950,-49609380,-86621100
2026-01-14 17:25:34.321,-33161170,-46162200,39464020,23497140,-17402340,-2328125,-16767580
2026-01-14 17:25:34.331,-29245670,-46144930,38445480,28275810,-17763670,93603520,-27128910
2026-01-14 17:25:34.341,-34044180,-84460930,-820010,8,24323190,-21582030,40117190,-24023440
2026-01-14 17:25:34.351,-7826339,-8761150,-474742,1,-1906737,-22929690,59609380,5678711
2026-01-14 17:25:34.361,-7867771,-9036500,-820872,1,-1872210,-23515620,76445310,43320310
2026-01-14 17:25:34.371,-35155080,-5595226,-4780048,25404740,-20839840,909375,840625
2026-01-14 17:25:34.381,-7937690,-57903000,-49820300,-1843729,-17939450,109140600,103359400
2026-01-14 17:25:34.391,-35452880,-45557980,34543960,25624850,-16484380,13234380,93359380
2026-01-14 17:25:34.401,-35464100,-45273140,34138270,25579100,-24296880,1403125,77851560
2026-01-14 17:25:34.411,-35425260,-9498296,-1619300,25479840,-36679690,131328100,67578130
2026-01-14 17:25:34.421,-50332420,-9399892,-1579595,-49725950,-50898440,10390630,64414060
2026-01-14 17:25:34.431,-35197380,-9206545,-1444941,25120760,-61328120,78828130,54609380
2026-01-14 17:25:34.441,-53743390,-43546800,33465000,-47747830,-6390625,64726560,33945310
2026-01-14 17:25:34.451,-54080030,-42882160,33559950,-48119000,-59765620,58242190,13818360
2026-01-14 17:25:34.461,-34815860,-45747010,-38152860,24535530,-46835940,57382810,35180660
2026-01-14 17:25:34.471,-34720910,-74784830,725061,3,24388790,-29980470,54296880,-6866455
2026-01-14 17:25:34.481,-34625960,-69916570,5179006,24242050,-13662110,49375,-60302740
2026-01-14 17:25:34.491,-55097700,-65747460,8951050,-49241980,-45715330,41835940,-13984380
2026-01-14 17:25:34.501,-3434803,-29265690,-21833820,2386398,85302740,29082030,-20449220
2026-01-14 17:25:34.511,-34172800,-60646140,13344570,23642150,11474610,10488280,-23984380
2026-01-14 17:25:34.521,-81577950,-26298990,-18930990,-24160060,9663086,-8852539,-23828120
2026-01-14 17:25:34.531,-8160385,-5904928,1433722,-2456575,7729492,-27617190,-25996090
2026-01-14 17:25:34.541,-81612480,-26355960,-19046650,-24936910,71191410,-42578120,-30664060
2026-01-14 17:25:34.551,-33511610,-27377080,-20097130,22818690,6669922,-55039060,-35996100
2026-01-14 17:25:34.561,-56431300,-6145750,1104857,-50825890,45288090,-63203120,-41015620
2026-01-14 17:25:34.571,-81681540,-6339101,883887,-25869130,21896360,-7265625,-44375
2026-01-14 17:25:34.581,-81733330,-30138960,-29419590,-26059030,-34936520,-81953130,-47578120
2026-01-14 17:25:34.591,-33210370,-36037240,-28872950,22412140,-47460940,-8640625,-48242190
2026-01-14 17:25:34.601,-33241440,-70909200,474741,2,22432860,-6665039,-9078125,-44570310
2026-01-14 17:25:34.611,-33328620,-41538210,-34420530,22518310,-88671870,-93671870,-40234380
2026-01-14 17:25:34.621,-3346329,-44119080,-37018660,2265985,-11044920,-94765620,-35585940
2026-01-14 17:25:34.631,-33638500,-46613630,-39530480,22847180,-15810550,-940625,-30332030
2026-01-14 17:25:34.641,-33862920,-49021870,-41955980,23088860,-21777340,-9328125,-25039060
2026-01-14 17:25:34.651,-3412877,-40007810,30461180,2337542,-2765625,-87421870,-1546875
2026-01-14 17:25:34.661,-3443605,-40128660,30150440,2370688,-37441410,-8265625,24505620
2026-01-14 17:25:34.671,-56450280,-40197710,29856970,-50565210,-50859380,-803125,17539060
2026-01-14 17:25:34.681,-8319207,-40171810,29537590,-2358175,-60195310,-74765620,30839840
2026-01-14 17:25:34.691,-35534880,-57493860,-50574710,24869580,-57773440,-46757810,31933590
2026-01-14 17:25:34.701,-83908500,-88120760,-19602530,-22779000,-38125,10986330,16279300
2026-01-14 17:25:34.711,-36208140,-34417080,33358830,25525590,-16386720,80078130,-84375
2026-01-14 17:25:34.721,-84581780,-8580746,-1863575,-22330140,-18115230,135859400,-2390625
2026-01-14 17:25:34.731,-36691520,-8661024,-1973199,26008960,14672850,16375,-12832030
2026-01-14 17:25:34.741,-53598810,-39032430,27793990,-52967840,-5864258,148984400,30703120
2026-01-14 17:25:34.751,-37018660,-9348105,-2667186,26389620,-15751950,11875,69453130
2026-01-14 17:25:34.761,-37103250,-9673519,-3015042,26477660,-115625,9421875,86015620
2026-01-14 17:25:34.771,-37124830,-9923838,-3317151,26473350,-7110596,99296870,709375
2026-01-14 17:25:34.781,-37074770,-39584860,25912290,26385300,96484380,10671880,46171880
2026-01-14 17:25:34.791,-36972920,-73598830,-67097460,26245470,21035160,110390600,309375
2026-01-14 17:25:34.801,-5696127,-39584860,25066380,-5067572,2984375,1046875,2484375
2026-01-14 17:25:34.811,-8518598,-32954870,31454680,-2279627,32792970,865625,19101560
2026-01-14 17:25:34.821,-36335890,-39869710,24367220,25501410,31210940,61835940,12138670
2026-01-14 17:25:34.831,-36033790,-11216860,-4803526,25164780,27207030,37382810,5708008
2026-01-14 17:25:34.841,-35737720,-40309920,23788900,24839370,23613280,14199220,27929690
2026-01-14 17:25:34.851,-84590410,-40568870,23547210,-24652060,20253910,-6738281,26171880
2026-01-14 17:25:34.861,-35141270,-32950550,31200050,24192860,16728520,-240625,3737793
2026-01-14 17:25:34.871,-34842620,-12169800,-5749557,23870030,16865230,-37929690,3642578
2026-01-14 17:25:34.881,-84020720,-41259400,22977520,-25964080,19941410,-48710940,66833500
2026-01-14 17:25:34.891,-58009160,-41414780,22822150,-52269100,22128910,-57773440,-3491211
2026-01-14 17:25:34.901,-83666820,-12618640,-6198402,-26956720,23535160,-66523440,-49975580
2026-01-14 17:25:34.911,-33534920,-41526980,22589090,22432860,22773440,-76328130,-8457031
2026-01-14 17:25:34.921,-83347450,-41492460,22502780,-28087470,23359380,-84296870,-13945310
2026-01-14 17:25:34.931,-83217970,-41423400,22450990,-28631260,24199220,-9203125,-18242190
2026-01-14 17:25:34.941,-83105760,-41311190,22459620,-29106010,25332030,-9671875,-20761720
2026-01-14 17:25:34.951,-32367050,-41173090,22528670,21114800,26269530,-9671875,-19228520
2026-01-14 17:25:34.961,-82915860,-41034980,22649520,-29865590,25039060,-97421870,-16513670
2026-01-14 17:25:34.971,-8283817,-40896870,22787620,-3015046,23886720,-98671870,-1625
2026-01-14 17:25:34.981,-31871590,-40776030,22942990,20557190,22871090,-97890620,-17666020
2026-01-14 17:25:34.991,-59234870,-40689710,23081100,-54012710,21601560,-94765620,-19580080
2026-01-14 17:25:35.001,-31723130,-118918600,-55095980,20394910,17988280,-94296870,-22753910
2026-01-14 17:25:35.011,-31723130,-40560240,23314150,20394920,15302730,-91953130,-26152340
2026-01-14 17:25:35.021,-8272597,-11758070,-5367175,-3050435,11826170,-8765625,-2890625
2026-01-14 17:25:35.031,-31888860,-4047393,2343501,20574460,96875,-8390625,-30898440
2026-01-14 17:25:35.041,-59152000,-11660530,-5274815,-53871140,11210940,-70507810,-36152340
2026-01-14 17:25:35.051,-8307126,-116044200,-52273420,-2981386,15009770,-49375,-415625
2026-01-14 17:25:35.061,-27442510,-40180440,23521310,26315560,26035160,-19482420,-46289060
2026-01-14 17:25:35.071,-32745980,-40085500,23616260,21495460,38964840,19833980,-55625
2026-01-14 17:25:35.081,-32956600,-85021130,-78635420,21733690,38574220,44335940,-55703120
2026-01-14 17:25:35.091,-8347693,-4026676,2386658,-2835506,290625,52890620,-44570310
2026-01-14 17:25:35.101,-8347693,-11519830,-5070245,-2788895,18945310,63007810,-33125
2026-01-14 17:25:35.111,-83442400,-116907400,-51928150,-27353780,3881836,67226560,-1515625
2026-01-14 17:25:35.121,-83390610,-41345720,24168690,-26766820,-70410160,72890620,12646480
2026-01-14 17:25:35.131,-34062320,-120308300,-54224180,23113890,-11972660,86171870,35742190
2026-01-14 17:25:35.141,-8326113,-12179290,-5515640,-2558429,-15029300,98359380,49179690
2026-01-14 17:25:35.151,-83192070,-42476470,24677960,-25118170,-1515625,113359400,55859380
2026-01-14 17:25:35.161,-56838710,-42744050,24911020,-51005430,-16455080,124765600,56367190
2026-01-14 17:25:35.171,-34616460,-42951220,25221760,23871760,-13095700,137578100,53632810
2026-01-14 17:25:35.181,-56467550,-43149740,25627440,-50617000,-66748050,143984400,52851560
2026-01-14 17:25:35.191,-8257922,-43305110,26145340,-2419461,15197750,1459375,51796880
2026-01-14 17:25:35.201,-34389450,-43391430,26766820,23736240,109375,1471875,46484380
2026-01-14 17:25:35.211,-34198700,-11520700,-4430637,23564470,18076170,149140600,37050780
2026-01-14 17:25:35.221,-33957870,-79285380,-72114180,23339180,28183590,14953130,28417970
2026-01-14 17:25:35.231,-33672160,-43408690,29183690,23072460,4125,151328100,15341800
2026-01-14 17:25:35.241,-80947840,-43400060,30193600,-24807430,57773440,153046900,-14904790
2026-01-14 17:25:35.251,-80438570,-9806444,-2329685,-25005960,74648440,151953100,-17685550
2026-01-14 17:25:35.261,-79834350,-43572700,32506890,-25213120,88359380,14859380,-29453120
2026-01-14 17:25:35.271,-54974270,-8908749,-1155778,-49607090,99140620,14203130,-37519530
2026-01-14 17:25:35.281,-31470220,-85280940,-6214803,21062150,1075,133203100,-453125
2026-01-14 17:25:35.291,-30779690,-44522180,36166720,20423400,113515600,12609380,-56054690
2026-01-14 17:25:35.301,-7634714,-45031440,37349250,-2668052,108828100,113515600,-68007810
2026-01-14 17:25:35.311,-29075790,-7781456,634429,6,18830000,9296875,87890620,-81875
2026-01-14 17:25:35.321,-7390438,-43053410,42987120,-2791486,7015625,56210940,-99140620
2026-01-14 17:25:35.331,-27009370,-47085780,40991820,16908590,46914060,23417970,-108671900
2026-01-14 17:25:35.341,-52113730,-47879900,42390160,-47944640,25097660,-34301760,-102265600
2026-01-14 17:25:35.351,-6913971,-70330880,22166140,-2988289,20581060,-13613280,-106484400
2026-01-14 17:25:35.361,-6728389,-68008960,26749560,-3065111,-32792970,-26699220,-123359400
2026-01-14 17:25:35.371,-50035230,-21770810,-12065350,-46639520,-69179690,-44101560,-132578100
2026-01-14 17:25:35.381,-20413910,-62510590,36960830,10901800,-10359380,-61679690,-135234400
2026-01-14 17:25:35.391,-60974150,-5919601,4279587,-32316990,-14015630,-84609380,-12796880
2026-01-14 17:25:35.401,-17590490,-8510831,1950759,8477167,-16890620,-127265600,-1053125
2026-01-14 17:25:35.411,-16264660,17082940,27801760,7386125,-17171880,-175625,-63671880
2026-01-14 17:25:35.421,-11109480,-4649020,6306302,10245280,-154375,-1965625,-32109380
2026-01-14 17:25:35.431,-13849520,8919109,20083320,5433639,-139765600,-2046875,-13154300
2026-01-14 17:25:35.441,-49744340,14781740,26132400,-32222040,-109140600,-1890625,-50097660
2026-01-14 17:25:35.451,-47914430,-3273129,8244978,-31963090,-77773440,-17359380,7524414
2026-01-14 17:25:35.461,-46162190,-55639780,61146780,-31609190,-50429690,-16859380,19697270
2026-01-14 17:25:35.471,-4453940,-30927290,87378440,-3110857,-30410160,-188125,35742190
2026-01-14 17:25:35.481,-68325740,20599490,32571630,60976740,-44970700,-22171880,803125
2026-01-14 17:25:35.491,-10266510,-37098940,83882610,3129843,52890620,-23625,144765600
2026-01-14 17:25:35.501,-107990900,-4169964,8019694,38402320,108671900,-22890620,19796880
2026-01-14 17:25:35.511,-115699000,9074478,21309020,47267050,144609400,-18328120,21109380
2026-01-14 17:25:35.521,-4306342,4757779,16994040,-2491964,137421900,-130078100,1859375
2026-01-14 17:25:35.531,-13411890,-60482140,61604260,6613586,7390625,-120,152578100
2026-01-14 17:25:35.541,-4500555,-6085331,6085331,-2308110,25371090,-150625,139765600
2026-01-14 17:25:35.551,-46110400,-64461340,56692840,-22321510,-18762210,-1671875,14421880
2026-01-14 17:25:35.561,-47413790,-60397550,-48361540,-21743190,-32285160,-1615625,141875
2026-01-14 17:25:35.571,-48941600,-10885400,1045298,-21268440,-5625,-15359380,1403125
2026-01-14 17:25:35.581,-5072836,-32655350,-20861030,-2089730,-85859380,-122578100,114140600
2026-01-14 17:25:35.591,-52644580,7129765,18765260,-20586540,-11234380,-70234380,7015625
2026-01-14 17:25:35.601,-5457805,-50503930,64141980,-2032762,-120859400,-15625,28007810
2026-01-14 17:25:35.611,-21944310,-4258869,7021005,14274200,-131953100,10703130,-53125
2026-01-14 17:25:35.621,-58030740,15585360,26709860,-20034120,-146796900,2290625,-1665625
2026-01-14 17:25:35.631,-59083810,20204160,31240620,-19205480,-111015600,29078120,-1928125
2026-01-14 17:25:35.641,-41051380,20144600,31127550,-36840850,-3140625,29828120,-133828100
2026-01-14 17:25:35.651,-60861940,-3236877,7708088,-16167130,23815920,30046880,-86640620
2026-01-14 17:25:35.661,-6151794,-3797937,7129763,-1430269,10078130,2415625,58242190
2026-01-14 17:25:35.671,-28385260,4144067,15018250,20849810,15359380,18171880,16953120
2026-01-14 17:25:35.681,-63157960,17051010,27833700,-12697190,126640600,135234400,1834375
2026-01-14 17:25:35.691,-29292450,-101767400,5092689,21599900,71445310,915625,15234380
2026-01-14 17:25:35.701,-6445271,-5311760,5289663,-1375026,32460940,4828125,122890600
2026-01-14 17:25:35.711,-64797980,-20716020,-10185370,-14717000,88671870,20527340,84453130
2026-01-14 17:25:35.721,-28624360,-22930910,-12458960,20541660,-7324219,5449219,428125
2026-01-14 17:25:35.731,-28124580,-70443100,33844790,19919310,-15566410,-8701172,67529300
2026-01-14 17:25:35.741,-6503967,-23063830,-12671300,-1811790,-17451170,-26621090,-20742190
2026-01-14 17:25:35.751,-27161290,-53447330,50098240,18741950,-14892580,-40078120,-37578120
2026-01-14 17:25:35.761,-65100090,-20608120,-10293270,-20060010,-13740230,-4828125,-46640620
2026-01-14 17:25:35.771,-26469890,-19377250,-9107279,17862390,-11132810,-59609380,-490625
2026-01-14 17:25:35.781,-65384930,-18315550,-8097371,-21570560,-10097660,-6921875,-52265620
