Timestamp,Rotation X,Rotation Y,Rotation Z,Rotation W,Acceleration X,Acceleration Y,Acceleration Z
2026-01-14 17:25:22.361,-4586012,85760860,-77032510,6260557,-40626530,-2281189,6942749
2026-01-14 17:25:22.371,2940808,85761730,-77031650,13787380,-79,0596,-231781,-6937,98
2026-01-14 17:25:22.381,2941671,85761730,-77031650,13786510,-31909940,-18722530,17074580
2026-01-14 17:25:22.391,2941673,125055700,-37737680,13786520,47035220,-15151980,2230835
2026-01-14 17:25:22.401,-45851460,85763450,-77029930,62579640,-16082760,-12840270,8163452
2026-01-14 17:25:22.411,-45851460,85764310,-77029060,62562380,26367190,-43411260,2758789
2026-01-14 17:25:22.421,-45851460,85764310,-77029060,62562380,48736570,-5306244,25863650
2026-01-14 17:25:22.431,2935631,125081600,-37711780,13775300,13114930,4825592,16052250
2026-01-14 17:25:22.441,2926997,85766040,-77027340,13766660,-16851420,15312200,13404850
2026-01-14 17:25:22.451,2936492,85852360,-77113660,13774430,-12031560,-4207611,-20858760
2026-01-14 17:25:22.461,2936492,81920030,-81045980,13774430,-31402590,-21118160,-14167790
2026-01-14 17:25:22.471,-45825560,81920020,-81045980,62536480,-74386600,-39123540,-15281680
2026-01-14 17:25:22.481,-45825560,125280100,-37858520,62536490,-55656430,-8087158,30384060
2026-01-14 17:25:22.491,2938220,125288800,-37849900,13772710,13450620,-70533750,9239197
2026-01-14 17:25:22.501,2938220,125288800,-37849900,13772710,49743650,-25543210,4916382
2026-01-14 17:25:22.511,2939082,86028450,-77282830,13771840,9033203,-38085940,435791
2026-01-14 17:25:22.521,2930450,86028450,-77282830,13763210,16708370,-262146,11428830
2026-01-14 17:25:22.531,-45808300,86029300,-77281970,62501960,10574340,-9803772,-6286621
2026-01-14 17:25:22.541,-45808300,125401000,-37910310,62501960,32470700,-14251710,-4220581
2026-01-14 17:25:22.551,2940810,125401000,-37910320,13770120,34362790,-4159546,-3845215
2026-01-14 17:25:22.561,2940808,86031030,-77280250,13770110,2407837,-41381840,-5154419
2026-01-14 17:25:22.571,7814079,86031030,-77280250,8896843,14526370,-8804321,-40161130
2026-01-14 17:25:22.581,7822711,86031030,-77280250,8905475,26054380,-31051640,-3375244
2026-01-14 17:25:22.591,7822711,86031030,-77280250,8905475,-23212430,-737381,-24368290
2026-01-14 17:25:22.601,7822711,86031030,-77280250,8905475,-10574340,-8270264,-8964539
2026-01-14 17:25:22.611,295890,4,86031900,-77279380,1378655,-5962372,-21636960,-15670780
2026-01-14 17:25:22.621,-4575654,86118210,-77365700,6250199,-3012085,-8018494,-36499020
2026-01-14 17:25:22.631,2968429,86117340,-77366560,13794280,-29556270,-35888670,-29724120
2026-01-14 17:25:22.641,78486940,86117340,-77366560,89312790,-23208620,-3479004,-2848816
2026-01-14 17:25:22.651,78486940,86117340,-77366560,89312790,-46569820,-19119260,-28305050
2026-01-14 17:25:22.661,78573260,86117340,-77366560,89399110,-262146,-24887080,-2394104
2026-01-14 17:25:22.671,78573260,86117340,-77366560,89399110,-57,9834,-10824200,-932312
2026-01-14 17:25:22.681,83531120,86117340,-77366560,84613880,-30838010,4959,106,-24780270
2026-01-14 17:25:22.691,83531120,125487300,-37996630,84613880,-27496340,-33081060,-10749820
2026-01-14 17:25:22.701,83617440,125487300,-37996630,84700200,-2885437,-856781,-8926392
2026-01-14 17:25:22.711,83617440,86115620,-77368290,84700200,-48583980,-24749760,-11472700
2026-01-14 17:25:22.721,78830490,86115620,-77368290,89659790,-2986145,-21118160,-24917600
2026-01-14 17:25:22.731,78830490,86114750,-77369150,89659790,-36712650,-20202640,14297490
2026-01-14 17:25:22.741,78916800,86201070,-77455470,89746100,-637207,-45661930,11924740
2026-01-14 17:25:22.751,78916800,86201070,-77455470,89746100,-45288090,15975950,41885380
2026-01-14 17:25:22.761,30262650,125547700,-38108840,138572900,-56549070,-30578610,-533,5808
2026-01-14 17:25:22.771,30262650,125547700,-38108840,138572900,-4714966,-28274540,-10726930
2026-01-14 17:25:22.781,30262650,125539100,-38117470,138572900,-10383610,-23498540,-14373780
2026-01-14 17:25:22.791,79001400,125539100,-38117480,89834150,-24108890,-28182980,51460260
2026-01-14 17:25:22.801,79001400,125539100,-38117480,89834150,-3488159,-22918700,69465640
2026-01-14 17:25:22.811,79001400,82265290,-81391260,89834150,-31280520,-34179690,15022280
2026-01-14 17:25:22.821,79001400,8628477,-7754442,89834150,-6072998,-28366090,21347050
2026-01-14 17:25:22.831,79001400,8628477,-7754442,89834150,-6109619,-17486570,38391110
2026-01-14 17:25:22.841,79001400,8628477,-7754442,89834150,-513916,-10177610,4397583
2026-01-14 17:25:22.851,79000540,8628477,-7754442,89835020,-24230960,-10375980,256958
2026-01-14 17:25:22.861,78914220,8628477,-7754442,89748700,-3326416,-4085541,21377560
2026-01-14 17:25:22.871,78914220,8628477,-7754442,89748700,-13023380,-16082760,22323610
2026-01-14 17:25:22.881,78914220,1257027,-382990,8,89748700,-37323000,-13751980,25009160
2026-01-14 17:25:22.891,78914220,1257027,-382990,8,89748700,-28137210,-13931270,19180300
2026-01-14 17:25:22.901,78914220,1257027,-382990,8,89748700,-19958500,-52337650,11642460
2026-01-14 17:25:22.911,78827900,1257027,-382990,8,89662380,-26626590,-2154541,31799320
2026-01-14 17:25:22.921,78828770,1257027,-382990,8,89661520,-15174870,-35583500,18630980
2026-01-14 17:25:22.931,78828770,1257027,-382990,8,89661520,-13061520,-20629880,-2877,712
2026-01-14 17:25:22.941,78828770,1257027,-382990,8,89661520,-65612790,-5393982,154953
2026-01-14 17:25:22.951,78742450,1257027,-382990,8,89575200,-113220200,-409317,14534000
2026-01-14 17:25:22.961,78742450,44530800,42890790,89575200,-12245180,-11001590,40664670
2026-01-14 17:25:22.971,78742450,44530800,42890790,89575200,-21972660,-55770870,-14755250
2026-01-14 17:25:22.981,78742450,44530800,42890790,89575200,-32470700,38547520,-44937140
2026-01-14 17:25:22.991,78828770,44530800,42890790,89661520,-49591060,-1197052,-3439331
2026-01-14 17:25:23.001,78828770,44530800,42890790,89661520,-2848816,49209600,-24734500
2026-01-14 17:25:23.011,78828770,1257027,-382990,8,89661520,-2684021,-17166140,-4559326
2026-01-14 17:25:23.021,78828770,1257027,-382990,8,89661520,-21850590,-34729000,-31066900
2026-01-14 17:25:23.031,78828770,1257027,-382990,8,89661520,-26046750,-35186770,-17623900
2026-01-14 17:25:23.041,78827900,1257027,-382990,8,89662380,-24307250,-29144290,-11680600
2026-01-14 17:25:23.051,78827900,1257027,-382990,8,89662380,-36132810,-7499695,2758789
2026-01-14 17:25:23.061,78827900,5189359,3549341,89662380,-30441280,-19210820,71907040
2026-01-14 17:25:23.071,78827900,5189359,3549341,89662380,-1676941,19445420,27572630
2026-01-14 17:25:23.081,78741580,12560810,-3822109,89576060,6290436,8346558,2078247
2026-01-14 17:25:23.091,29977800,12560810,-3822107,138339800,3419876,-8850098,12718200
2026-01-14 17:25:23.101,29977800,12560810,-3822107,138339800,-10826110,8026123,18997190
2026-01-14 17:25:23.111,29977800,51876360,35493440,138339800,-4398346,13313290,40626530
2026-01-14 17:25:23.121,29977800,51876360,35493440,138339800,-15163420,-6000519,29392240
2026-01-14 17:25:23.131,29977800,125513200,-38143370,138339800,-22995000,-24597170,-22445680
2026-01-14 17:25:23.141,78739860,125513200,-38143370,89577790,-39215090,-36468500,-6121826
2026-01-14 17:25:23.151,78739860,125513200,-38143370,89577790,-12954710,-3656006,-15159610
2026-01-14 17:25:23.161,78826180,86109580,-77374330,89664110,-37078860,-58784480,-4925537
2026-01-14 17:25:23.171,78826180,86109580,-77374330,89664110,-21118160,-17120360,-11352540
2026-01-14 17:25:23.181,78825310,86109580,-77374330,89664980,-15777590,-8628845,-18310550
2026-01-14 17:25:23.191,78738990,86022400,-77288880,89578660,-10787960,-23757940,56381220
2026-01-14 17:25:23.201,29951900,86022400,-77288880,138365700,-13618470,-20126340,-7671356
2026-01-14 17:25:23.211,29951900,125228300,-37910320,138365700,7827759,-24429320,22521970
2026-01-14 17:25:23.221,29856960,125228300,-37910320,138288000,12466430,12512210,20187380
2026-01-14 17:25:23.231,29856960,85934360,-77204300,138288000,9552002,2603531,36376950
2026-01-14 17:25:23.241,78650080,85848040,-77117980,89494920,-4940033,623703,15144350
2026-01-14 17:25:23.251,78736400,85847180,-77118840,89581240,-4425049,-55122380,22979740
2026-01-14 17:25:23.261,78735540,85846310,-77119700,89582100,-3173828,-23147580,40740970
2026-01-14 17:25:23.271,78649220,85846310,-77119700,89495780,73547360,-23757940,50872800
2026-01-14 17:25:23.281,78649220,125107500,-37858530,89495780,13084410,-4119873,61157230
2026-01-14 17:25:23.291,29831060,125107500,-37858520,138314000,4336548,-5569458,8062744
2026-01-14 17:25:23.301,29831060,125107500,-37858520,138314000,-4962921,-18295290,7208252
2026-01-14 17:25:23.311,29831060,85844580,-77121420,138314000,-8270264,-3729248,7684326
2026-01-14 17:25:23.321,29831060,85844580,-77121420,138314000,16708370,-22155760,45440670
2026-01-14 17:25:23.331,78647500,85844590,-77121420,89497510,7575989,-25665280,38909910
2026-01-14 17:25:23.341,78647500,85844590,-77121420,89497510,3080368,-29571530,21957400
2026-01-14 17:25:23.351,78647500,85843730,-77122290,89497510,40626530,-25081640,24383540
2026-01-14 17:25:23.361,83529910,85843730,-77122290,84615090,9941101,41275020,21453860
2026-01-14 17:25:23.371,83616230,125081600,-37884420,84701410,12626650,8453369,2279663
2026-01-14 17:25:23.381,83616230,125081600,-37884420,84701410,8110046,13160710,25497440
2026-01-14 17:25:23.391,29891480,85842000,-77124020,138426200,27122500,-12611390,45135500
2026-01-14 17:25:23.401,29891480,85842000,-77124020,138426200,9436,607,-22792820,33233640
2026-01-14 17:25:23.411,29891480,82005140,-81133520,138426200,-4220581,7419586,6451416
2026-01-14 17:25:23.421,78817540,82005140,-81133520,89672740,-30410770,-21324160,48919680
2026-01-14 17:25:23.431,78817540,125142000,-37996640,89672740,-27679440,-22598270,45043940
2026-01-14 17:25:23.441,78816680,125133400,-38005270,89673600,-18798830,-26412960,34332280
2026-01-14 17:25:23.451,78902990,125219700,-38091580,89759920,-3552246,-1096344,25283810
2026-01-14 17:25:23.461,30038220,86011180,-77300100,138624700,-24597170,-57792660,21438600
2026-01-14 17:25:23.471,30124540,86010310,-77300960,138711000,-4537964,9750366,-14953610
2026-01-14 17:25:23.481,30115910,125193800,-38117480,138719600,-6744385,18554690,-14060970
2026-01-14 17:25:23.491,30202220,125193800,-38117480,138806000,-94055180,-18587110,-9422302
2026-01-14 17:25:23.501,79159350,86008590,-77302690,90021460,-541687,6771,087,-1889038
2026-01-14 17:25:23.511,79159350,86007730,-77303550,90021460,-4864502,-11474610,-16342160
2026-01-14 17:25:23.521,79158500,125167900,-38143370,90022320,-21438600,1200676,-10719300
2026-01-14 17:25:23.531,30262640,86006000,-77305280,138918200,-9735107,22220610,-55007940
2026-01-14 17:25:23.541,30262640,86006000,-77305280,138918200,14480590,46691900,30708310
2026-01-14 17:25:23.551,79156770,86005140,-77306140,90024050,14953610,8834839,5050659
2026-01-14 17:25:23.561,79155900,125055700,-38082960,90024910,46295170,13687130,25024410
2026-01-14 17:25:23.571,79069580,125047100,-38091590,89938590,43670660,-5393982,2432251
2026-01-14 17:25:23.581,30150430,125047100,-38091580,138857700,40222170,11146550,18356320
2026-01-14 17:25:23.591,79067860,85916240,-77222420,89940320,61157230,-2796936,40527340
2026-01-14 17:25:23.601,78981540,81917610,-81048410,89854010,72509770,-8674622,3326416
2026-01-14 17:25:23.611,78980680,81917610,-81048410,89854860,62927250,-26641850,38116460
2026-01-14 17:25:23.621,78894360,124934800,-38031160,89768540,1048584,-30197140,52001950
2026-01-14 17:25:23.631,78894360,124934800,-38031160,89768540,10211180,-13252260,44311520
2026-01-14 17:25:23.641,78894360,124848500,-37944840,89768540,9564209,3063202,41290280
2026-01-14 17:25:23.651,78894360,124848500,-37944840,89768540,8886719,-21133420,4196167
2026-01-14 17:25:23.661,78894360,124848500,-37944840,89768540,7446289,-11375430,35491940
2026-01-14 17:25:23.671,78894360,124848500,-37944840,89768540,72753900,-74272160,11873250
2026-01-14 17:25:23.681,78980680,124762200,-37858520,89854860,6939697,-18600460,-3967285
2026-01-14 17:25:23.691,78980680,124762200,-37858520,89854860,58532720,-395813,-22094730
2026-01-14 17:25:23.701,79066990,124762200,-37858520,89941180,42114260,-22735600,-30380250
2026-01-14 17:25:23.711,79153310,124762200,-37858520,90027500,21438600,-3918457,-4269409
2026-01-14 17:25:23.721,-45911880,124675900,-37772200,62847230,-10093690,-41656500,-45562740
2026-01-14 17:25:23.731,-45911880,85568380,-76879740,62847220,-10955810,-26260380,-46783450
2026-01-14 17:25:23.741,-45903250,85568380,-76879740,62855860,10902410,-39398190,-2998352
2026-01-14 17:25:23.751,-45911880,85567510,-76880600,62864490,15434270,-151901200,-34576420
2026-01-14 17:25:23.761,-45903240,124563700,-37711780,62873120,27359010,31929020,10986330
2026-01-14 17:25:23.771,3045254,124563700,-37711790,13924620,28121950,13885500,25959020
2026-01-14 17:25:23.781,3045252,85479470,-76796020,13924620,6121826,23040770,23460390
2026-01-14 17:25:23.791,3044388,85478620,-76796870,13925480,6842041,41107180,22567750
2026-01-14 17:25:23.801,-45929140,51505200,35294920,62899020,88256830,11436460,4219055
2026-01-14 17:25:23.811,3042667,51496570,35286280,13927210,8276367,-6259918,9376526
2026-01-14 17:25:23.821,3042666,12443420,-3766863,13927210,5581665,-20427700,12962340
2026-01-14 17:25:23.831,3041802,12434790,-3758231,13928070,7922363,-2748108,11268620
2026-01-14 17:25:23.841,-45963660,12433920,-3759092,62916270,4840088,-11482240,9490967
2026-01-14 17:25:23.851,-45963660,51462040,35269020,62916280,3616333,-42037960,5531311
2026-01-14 17:25:23.861,-45972300,12423570,-3752187,62924900,2734375,-25619510,12817380
2026-01-14 17:25:23.871,3030582,12423570,-3752189,13922030,34122470,-8857727,31402590
2026-01-14 17:25:23.881,3030582,12422710,-3753052,13922030,65994260,-16143800,-10871890
2026-01-14 17:25:23.891,3030582,12414070,-3744420,13922030,55656430,-29403690,-181427
2026-01-14 17:25:23.901,3029718,12414070,-3744420,13922890,34389500,-6854248,-55847170
2026-01-14 17:25:23.911,3029720,51410250,35269020,13922890,6378174,-31311040,-5908203
2026-01-14 17:25:23.921,3029720,51401620,35277650,13922890,29067990,-3793335,-52856440
2026-01-14 17:25:23.931,-46006830,44144970,42534300,62942180,56854250,-1159668,-5493164
2026-01-14 17:25:23.941,-46006830,51375720,35286290,62942180,12371830,12931820,-37139890
2026-01-14 17:25:23.951,3019362,51367090,35294920,13915990,11773680,42999270,-27450560
2026-01-14 17:25:23.961,3019362,51367090,35294920,13915990,1159668,5105591,-32409670
2026-01-14 17:25:23.971,3018497,12359690,-3695220,13916850,713501,13504030,-3543091
2026-01-14 17:25:23.981,3018497,12359690,-3695220,13916850,8459473,68130500,-41778560
2026-01-14 17:25:23.991,3018497,12358830,-3696083,13916850,101867700,-4085541,-41412350
2026-01-14 17:25:24.001,-46032720,12358830,-3696081,62968060,7299805,-3363037,47569280
2026-01-14 17:25:24.011,-46032720,51323930,35286290,62968060,5984497,-26397700,-9102,821
2026-01-14 17:25:24.021,-46024080,51332560,35277660,62976700,5456543,-4269409,32318120
2026-01-14 17:25:24.031,-46024080,51332560,35277660,62976700,45928960,-48553470,32684330
2026-01-14 17:25:24.041,-46024080,51332560,35277660,62976700,49072260,-4525757,32165530
2026-01-14 17:25:24.051,-46024080,51332560,35277660,62976700,91430660,11276250,362854
2026-01-14 17:25:24.061,-46024080,51341200,35269030,62976700,106933600,22277830,62805180
2026-01-14 17:25:24.071,3027129,12367460,-3704715,13925480,14099120,1977539,8850098
2026-01-14 17:25:24.081,3035760,12376960,-3712483,13934110,13781740,124435400,11022950
2026-01-14 17:25:24.091,3036625,51375720,35286280,13933250,15075680,8583069,10223390
2026-01-14 17:25:24.101,3038351,51384360,35294920,13931530,17297360,48187260,8666992
2026-01-14 17:25:24.111,3039213,5141025,3530355,13930660,15136720,10185240,7159424
2026-01-14 17:25:24.121,-45955030,5142749,3532083,62942170,122924800,9391785,62194820
2026-01-14 17:25:24.131,3050436,44196760,42586090,13936700,8929443,-29251100,64331060
2026-01-14 17:25:24.141,-45911880,5146201,3535536,62916280,3326416,-6933594,107177700
2026-01-14 17:25:24.151,3062520,51487940,35363970,13941880,3564,358,-12182620,13500980
2026-01-14 17:25:24.161,3065109,51513830,35389860,13939290,-10643010,-11907960,13122560
2026-01-14 17:25:24.171,-45860090,44291710,42681040,62847220,42999270,-10296630,15185550
2026-01-14 17:25:24.181,3059931,44317610,42706940,13927210,75683590,-524292,14147950
2026-01-14 17:25:24.191,3053888,51582880,35493440,13915990,70495610,4501343,111816400
2026-01-14 17:25:24.201,-45808300,51600140,35527980,62778170,71899420,1158905,70251460
2026-01-14 17:25:24.211,3048709,12386450,-3668462,13903900,42938230,2784729,33477780
2026-01-14 17:25:24.221,7933718,12380410,-3657241,9018892,8598328,21194460,2557373
2026-01-14 17:25:24.231,-45765140,12373500,-3646881,62717740,19515990,-18844600,14701840
2026-01-14 17:25:24.241,3053024,12366600,-3636524,13899590,-12878420,37269590,33569340
2026-01-14 17:25:24.251,-45747870,12359690,-3626165,62683220,-29296880,26123050,20584110
2026-01-14 17:25:24.261,-45739250,51677830,35691980,62674600,-71777340,-903,6064,25222780
2026-01-14 17:25:24.271,3047845,12353650,-3614946,13887500,-5960083,-4296875,27297970
2026-01-14 17:25:24.281,3047844,8421320,-7547278,13887500,-58624270,-41503900,5102539
2026-01-14 17:25:24.291,79171440,8421317,-7547281,90009380,-7281494,-64208980,64453120
2026-01-14 17:25:24.301,79171440,8421317,-7547281,90009380,-9289551,-949707,4562378
2026-01-14 17:25:24.311,79084260,8421317,-7547281,89923920,-9655762,-9454346,7965088
2026-01-14 17:25:24.321,78911620,8421317,-7547281,89751290,-7714844,-74523930,8630371
2026-01-14 17:25:24.331,30038220,12353650,-3614947,138452100,-6738281,-21957400,12237550
2026-01-14 17:25:24.341,29856960,12353650,-3614947,138288000,-8850098,36010740,14404300
2026-01-14 17:25:24.351,29684330,51669200,35700600,138115400,-10681150,30612950,12121580
2026-01-14 17:25:24.361,2958939,51669200,35700600,13803780,-12011720,3869629,10058590
2026-01-14 17:25:24.371,2941676,51660570,35709240,13786510,-13391110,13648990,52490230
2026-01-14 17:25:24.381,2933044,51660570,35709240,13777880,-16955570,-21026610,26474000
2026-01-14 17:25:24.391,2924413,51660570,35709240,13769250,-13024900,-3616333,29144290
2026-01-14 17:25:24.401,2914919,44481610,42888200,13761480,-93444820,-8850098,-30395510
2026-01-14 17:25:24.411,2906286,51643310,35726500,13752850,-6524658,-57800290,-42022700
2026-01-14 17:25:24.421,2889023,51634680,35735130,13735590,-15625,-36193850,-20553590
2026-01-14 17:25:24.431,-45946400,51626040,35743770,62536480,-27999880,-4208374,-15838620
2026-01-14 17:25:24.441,-45963660,51617410,35752400,62519220,-3768921,-25466920,33302310
2026-01-14 17:25:24.451,-45980930,12293230,-3554522,62501950,-14984130,13259890,2255249
2026-01-14 17:25:24.461,-45998190,12293230,-3554522,62484690,-11978150,38848880,42388920
2026-01-14 17:25:24.471,-46015460,8352265,-7478222,62467420,-37506100,1737976,6526947
2026-01-14 17:25:24.481,-46024090,8352265,-7478222,62458790,-9832764,-22094730,-31829830
2026-01-14 17:25:24.491,-4603274,122776900,-35355340,6243296,-9075928,-20996090,-39855960
2026-01-14 17:25:24.501,2768177,122699300,-35260390,13614750,-12194820,-77819820,-86364740
2026-01-14 17:25:24.511,76318660,83266300,-74520700,87165230,-10595700,-15344240,-10418700
2026-01-14 17:25:24.521,76059730,83093670,-74348070,86906290,-9637451,-1538086,-1427002
2026-01-14 17:25:24.531,75800770,82921900,-74174580,86647340,-134887700,-10418700,-14892580
2026-01-14 17:25:24.541,2673228,122120900,-34630280,13519800,42907720,-7269287,-18225100
2026-01-14 17:25:24.551,-46170820,5157422,3593368,62312060,-9559631,-7312012,-13659670
2026-01-14 17:25:24.561,-46196720,12178430,-3427636,62286160,-3225708,-12683110,-14257810
2026-01-14 17:25:24.571,-46231250,12153390,-3400878,62251630,9887695,-10180660,-111694300
2026-01-14 17:25:24.581,-4628303,51522460,36019980,6221714,-12054440,-7330322,-47027590
2026-01-14 17:25:24.591,2507503,51496570,36045870,13357520,-7312012,-10418700,-57868960
2026-01-14 17:25:24.601,78350920,12077440,-3321472,79436090,-11755370,-11254880,8758545
2026-01-14 17:25:24.611,24194580,12043770,-3286080,132729300,-20288090,-19470220,21057130
2026-01-14 17:25:24.621,2375434,80596540,-71838840,13230630,-2800293,-26293940,-66223140
2026-01-14 17:25:24.631,2322782,119496900,-31902670,13179710,-34350580,-35107420,-15966800
2026-01-14 17:25:24.641,-46611040,51315300,36278930,61975420,-4453125,-39746100,-25
2026-01-14 17:25:24.651,70699460,51246250,36347980,81563280,-4255371,-3864746,-38867190
2026-01-14 17:25:24.661,2092319,51168570,36425660,12961320,-38061520,-35253900,-46166990
2026-01-14 17:25:24.671,1994777,77316500,-68558800,12868970,-26831060,-27026370,-49731440
2026-01-14 17:25:24.681,67842380,11585430,-2829466,78723460,-2006836,-1932373,-44482420
2026-01-14 17:25:24.691,-47215260,11497390,-2744871,61664680,-13110350,-83862300,-3388672
2026-01-14 17:25:24.701,-47353370,114179800,-26689140,61595640,-10241700,9399414,-22839360
2026-01-14 17:25:24.711,64723750,11330800,-2583463,75627280,-71899420,83984380,-90026860
2026-01-14 17:25:24.721,1459618,50590240,36848620,12368330,-847168,13757320,107040400
2026-01-14 17:25:24.731,1352583,111642100,-24220480,12268210,-13500980,115478500,1081543
2026-01-14 17:25:24.741,1237784,44382340,43039260,12158580,-1361084,11126710,15405270
2026-01-14 17:25:24.751,6048301,7074779,-6200736,7140899,-12683110,12915040,18017580
2026-01-14 17:25:24.761,10263060,50262230,37159360,119557300,-89660650,5847168,12731930
2026-01-14 17:25:24.771,-54033420,108448400,-21026760,55312640,-9210205,19424440,5569458
2026-01-14 17:25:24.781,832959,44359040,43079820,11769290,-20462040,-7495117,-17532350
2026-01-14 17:25:24.791,56591840,5003779,3741828,67531630,30715940,-76171870,-7714844
2026-01-14 17:25:24.801,-48604960,66694360,-57947020,60810150,101257300,-42633060,-8416748
2026-01-14 17:25:24.811,535165,5,49899710,37590940,11480130,15405270,4135132,-569458
2026-01-14 17:25:24.821,53566450,4983063,3767723,64514860,15197750,10845950,31661990
2026-01-14 17:25:24.831,5261610,10375270,-1622756,6356625,1907959,1270752,61401370
2026-01-14 17:25:24.841,-49036550,63589540,-54837020,60482150,18884280,14318850,69236750
2026-01-14 17:25:24.851,50887170,49623490,37918940,61842490,21362300,9991455,32978060
2026-01-14 17:25:24.861,-49235070,49545810,37996630,60352670,2890625,103759800,61836240
2026-01-14 17:25:24.871,-2,5,61345310,-52592790,10962230,35742190,1809082,9529114
2026-01-14 17:25:24.881,-811376,100023800,-12533190,108879900,47998050,24523930,11940000
2026-01-14 17:25:24.891,4794291,9931604,-1185992,5891722,5185547,41601560,1048584
2026-01-14 17:25:24.901,-189897,5944030,-5069987,10789590,57128900,5292969,56152340
2026-01-14 17:25:24.911,-49658020,9831475,-1096220,60205930,50878900,7558594,9069824
2026-01-14 17:25:24.921,-221834,5,9810762,-1082412,10769740,2932129,74121100,32714840
2026-01-14 17:25:24.931,-215792,9807309,-1085865,10780960,54260260,6767578,37475580
2026-01-14 17:25:24.941,-183853,49019280,38126110,10818080,-20666500,46923830,2128601
2026-01-14 17:25:24.951,-160549,5,9799540,-1093633,10846560,-9819336,-14221190,7574463
2026-01-14 17:25:24.961,-172636,58383780,-49684780,10841390,-17822270,-10673830,2788086
2026-01-14 17:25:24.971,-4980475,48812120,38143370,6038722,-16601560,-15029300,24633790
2026-01-14 17:25:24.981,-264992,5,9626906,-938262,3,10761110,-96728510,-13349610,2697754
2026-01-14 17:25:24.991,-49977400,48639480,38160640,60369940,84033200,-19372560,4248047
2026-01-14 17:25:25.001,-50003290,48613580,38117480,60395830,209375,18798830,-125
2026-01-14 17:25:25.011,-240824,5,96821490,-10211270,10806000,17558590,26601560,-546875
2026-01-14 17:25:25.021,-1139380,9796082,-1148876,109380600,10859380,12714840,-41577150
2026-01-14 17:25:25.031,-39705,5,9876362,-1241234,11019200,78466800,36132810,-1381836
2026-01-14 17:25:25.041,34526,99557730,-13344570,11100340,3876953,-2770996,6149292
2026-01-14 17:25:25.051,50829340,10036910,-1425955,61900320,-20361330,-6303711,33154300
2026-01-14 17:25:25.061,56242780,10094740,-1488967,57350050,-66845700,-65722660,5932617
2026-01-14 17:25:25.071,-49666660,10135310,-1534710,61077730,-67089840,-6850586,70214850
2026-01-14 17:25:25.081,193351,5,48855280,37116200,11269520,-62646480,-23486330,7050781
2026-01-14 17:25:25.091,-4962350,102026400,-16054920,6113819,-46826170,12988280,6225586
2026-01-14 17:25:25.101,-49580340,102458000,-16486500,61164050,-17126460,3762207,43945310
2026-01-14 17:25:25.111,-4951127,48993380,36978100,6119860,-82458500,37524420,2746582
2026-01-14 17:25:25.121,53679520,10384770,-1785896,64747050,-34729000,24719240,36499020
2026-01-14 17:25:25.131,-49304120,4916599,3684001,61319410,48461910,43640140,-11260990
2026-01-14 17:25:25.141,-54678200,105332300,-19309060,55893550,24291990,-29769900,-20568850
2026-01-14 17:25:25.151,-49122860,10595380,-1989600,61397100,5004883,54595950,-2709961
2026-01-14 17:25:25.161,56452010,49399070,36693240,67498830,6777344,24694820,-28344730
2026-01-14 17:25:25.171,56972500,10727440,-2116489,68014140,6191406,22717280,-2548828
2026-01-14 17:25:25.181,782892,107982200,-21838130,11819360,36157230,-6188965,-16784670
2026-01-14 17:25:25.191,-48812120,10859510,-2243371,61517940,10913090,-3466797,-6011963
2026-01-14 17:25:25.201,889925,5,7042755,-6180970,11919480,-64453120,-5366211,9063721
2026-01-14 17:25:25.211,5896642,10982080,-2362489,6999080,-14086910,-56591800,53863520
2026-01-14 17:25:25.221,59486050,49830650,36382500,70506970,-15991210,-50927740,59448240
2026-01-14 17:25:25.231,-54433060,110778900,-24565750,55741630,-8959961,-36791990,21606440
2026-01-14 17:25:25.241,1078959,11122780,-2498007,12092980,-34454340,-17980960,49057010
2026-01-14 17:25:25.251,-5499516,11157300,-2532533,5512775,-8605957,-38116460,-6707764
2026-01-14 17:25:25.261,1159234,11193550,-2565334,12168070,-18798830,-7519531,-117004400
2026-01-14 17:25:25.271,-48328740,11228940,-2598995,61725100,-15527340,-10131840,-22070310
2026-01-14 17:25:25.281,-4830285,11246210,-2616260,6173375,-14245610,16281130,-23535160
2026-01-14 17:25:25.291,61911550,11272100,-2642158,72915210,-13708500,1335144,-22241210
2026-01-14 17:25:25.301,62171360,11297130,-2668917,73173300,-119140600,26641850,-15539550
2026-01-14 17:25:25.311,62343990,11314400,-2686180,73345930,-55023190,41625980,-81604000
2026-01-14 17:25:25.321,62515760,113308000,-27043040,73519420,14286040,105041500,-45928960
2026-01-14 17:25:25.331,1325822,74659660,-66036620,12329490,3873825,13549810,-8773804
2026-01-14 17:25:25.341,-48173380,74830580,-66210980,61880480,-3945923,6964111,-2722168
2026-01-14 17:25:25.351,1375886,75001490,-66385350,12383000,-8361816,-34973140,-84228510
2026-01-14 17:25:25.361,1392286,75086070,-66473380,12401130,32958980,-2154541,-1381836
2026-01-14 17:25:25.371,1416458,11390360,-2782852,12428750,-3543091,-7470703,-17077640
2026-01-14 17:25:25.381,-54383860,50098230,35925030,55773560,-10046390,-18811040,-1932373
2026-01-14 17:25:25.391,1455300,11384320,-2788894,12476220,-14404300,-21899410,-18054200
2026-01-14 17:25:25.401,6431806,11381730,-2791484,7534244,-15490720,-23327640,-15515140
2026-01-14 17:25:25.411,1476877,75071390,-66488060,12506440,-19152830,-24536130,-13696290
2026-01-14 17:25:25.421,-48173380,75068800,-66490640,62173960,-20166020,-22644040,-6915283
2026-01-14 17:25:25.431,1481192,74979040,-66407790,12519380,-17456060,-1628418,-38848880
2026-01-14 17:25:25.441,1478603,74890140,-66324060,12521970,-16748050,-9326172,-39093020
2026-01-14 17:25:25.451,6936411,74801230,-66240340,7046902,-15759280,-19134520,-335083
2026-01-14 17:25:25.461,-48268330,74711460,-66157470,62251640,-16015630,7672119,-32409670
2026-01-14 17:25:25.471,-48294220,74622540,-66073740,62277530,-20581060,8514404,-6402588
2026-01-14 17:25:25.481,-48320120,70602690,-69748330,62303430,-22558590,12866210,-95825190
2026-01-14 17:25:25.491,1467383,112781500,-27396940,12533200,-20324710,770874,-6323242
2026-01-14 17:25:25.501,64553710,11266060,-2734517,75624700,-602417,31471250,-5239868
2026-01-14 17:25:25.511,64723750,11253970,-2729338,75799910,40283200,16125490,-8135986
2026-01-14 17:25:25.521,15027740,11241890,-2724157,125841200,74279780,20996090,-50476070
2026-01-14 17:25:25.531,65062970,11228940,-2719843,76151220,11804200,27270510,-27038570
2026-01-14 17:25:25.541,1539891,11225490,-2723294,12633320,105041500,26708980,2532959
2026-01-14 17:25:25.551,-48380540,7407787,-6558258,62588270,43426510,1328125,524292
2026-01-14 17:25:25.561,1578733,11227220,-2738831,12680790,-23361210,-10644530,8959961
2026-01-14 17:25:25.571,1584777,49399070,35415760,12692020,-9346008,-32128910,11633300
2026-01-14 17:25:25.581,-48406430,49373170,35389870,62700490,-13320920,-35742190,9539795
2026-01-14 17:25:25.591,-48423700,49338650,35355340,62735010,8506775,-28833010,64819340
2026-01-14 17:25:25.601,-48432330,11222900,-2760407,62778170,56671140,-11260990,26607510
2026-01-14 17:25:25.611,-48440960,11218580,-2764723,62821330,10211180,9063721,-59265140
2026-01-14 17:25:25.621,1641746,49217810,35234500,12773150,6317139,1550293,-79833980
2026-01-14 17:25:25.631,-48458220,11201320,-2764724,62924910,33935550,11303710,-5999756
2026-01-14 17:25:25.641,-48475480,49131490,35148180,62976700,-4131317,21606440,14877320
2026-01-14 17:25:25.651,1683178,49071070,35105020,12835300,21133420,-47973630,11482240
2026-01-14 17:25:25.661,-4852728,11186650,-2779399,6306302,9300232,-54992680,17501830
2026-01-14 17:25:25.671,-48561800,7033638,-6949670,63114800,-4663086,-61584470,30517580
2026-01-14 17:25:25.681,1688356,11184060,-2799252,12864650,-103759800,-13891600,368042
2026-01-14 17:25:25.691,-48648120,11178880,-2804429,63201120,-13145450,-1439209,89416500
2026-01-14 17:25:25.701,-4869991,11164210,-2801841,6323565,-13076780,-4736328,9643555
2026-01-14 17:25:25.711,-55284150,11149530,-2799250,56737720,-41229250,-49468990,87646480
2026-01-14 17:25:25.721,-4879486,11134860,-2796662,6333060,-58532720,-4977417,11779790
2026-01-14 17:25:25.731,-48846650,11128820,-2802702,63365120,-6628418,-57769780,1763916
2026-01-14 17:25:25.741,1635702,4851864,3462165,12865510,-11367800,-102005000,1998291
2026-01-14 17:25:25.751,1613260,11083070,-2779399,12853430,27404780,8251953,17712400
2026-01-14 17:25:25.761,-49019280,11068390,-2776808,63468700,4425049,57281500,19836430
2026-01-14 17:25:25.771,-49062440,11054580,-2773355,63494600,2453,327,619812,18383790
2026-01-14 17:25:25.781,1575282,48268320,34457640,12839620,-18951420,2848816,20373540
2026-01-14 17:25:25.791,1563196,11028690,-2764725,12834440,-2041626,-29392240,17260740
2026-01-14 17:25:25.801,-55672570,48156110,34379960,57108880,-16830440,-20202640,13012700
2026-01-14 17:25:25.811,-49252330,11001930,-2756955,63598170,37261960,-32714840,7409668
2026-01-14 17:25:25.821,1518314,41867940,40495500,12810270,39245600,-43640140,18966680
2026-01-14 17:25:25.831,1514859,10967410,-2739694,12813720,8648682,-5154419,-13132100
2026-01-14 17:25:25.841,1502775,10944960,-2727610,12808540,9820557,22735600,-5999756
2026-01-14 17:25:25.851,1498461,47871270,34215960,12812860,8642578,2279663,-75805660
2026-01-14 17:25:25.861,1486376,47802210,34164160,12807680,3225708,-26657100,-70251460
2026-01-14 17:25:25.871,-49502650,10903530,-2717250,63796700,-24505620,-9729004,-647583
2026-01-14 17:25:25.881,1468245,72104690,-63930500,12808550,-13893130,-59936520,-23361210
2026-01-14 17:25:25.891,-49614860,108655500,-27034400,63874400,-23208620,-12207030,54130550
2026-01-14 17:25:25.901,-49675290,71832780,-63684480,63917550,-27359010,19104000,-8285522
2026-01-14 17:25:25.911,6544102,71739580,-63605080,7680899,-51940920,418396,45051580
2026-01-14 17:25:25.921,1423363,108189400,-26982610,12801640,-5807495,690918,18356320
2026-01-14 17:25:25.931,-49830660,71639440,-63532570,64055660,-42053220,7501221,15304570
2026-01-14 17:25:25.941,-49891080,71546220,-63453160,64116080,-5710602,78125,18234250
2026-01-14 17:25:25.951,-49942880,67730940,-66923180,64167880,70251460,9954834,-19714360
2026-01-14 17:25:25.961,1401786,47033990,33585850,12823220,98083500,7043457,5607605
2026-01-14 17:25:25.971,1395742,10730030,-2683588,12829260,10192870,9320068,13320920
2026-01-14 17:25:25.981,1399195,10713630,-2682724,12843070,11791990,66833500,49804690
2026-01-14 17:25:25.991,1393153,10696370,-2682724,12849110,17089840,52734380,50933840
2026-01-14 17:25:26.001,1395743,46671460,33309630,12863790,14916990,24810790,59295660
2026-01-14 17:25:26.011,1399196,46576510,33231940,12877600,12963870,-30273440,58380130
2026-01-14 17:25:26.021,7141283,46472940,33162900,7152774,13928220,-6732178,4547119
2026-01-14 17:25:26.031,1404374,10620410,-2672367,12906940,17089840,-8850098,6488037
2026-01-14 17:25:26.041,6588557,7034297,-6241219,7740023,19116210,-5886841,5911255
2026-01-14 17:25:26.051,1401784,3964252,3950994,12926800,14453130,-58044430,5834961
2026-01-14 17:25:26.061,1396607,46119040,32878050,12931980,11621090,-12854000,8856201
2026-01-14 17:25:26.071,-50564340,10562580,-2678407,64892930,11016850,-90148930,10266110
2026-01-14 17:25:26.081,1386249,45963670,32739940,12942330,12487790,-75683590,16809080
2026-01-14 17:25:26.091,6586054,7004690,-6219036,7742527,8129883,-3414917,19213870
2026-01-14 17:25:26.101,1368984,10534100,-2689630,12942330,90270990,28362270,20092770
2026-01-14 17:25:26.111,1364668,7003481,-6220244,12946650,90026860,24902340,18408200
2026-01-14 17:25:26.121,6576214,10530640,-2710346,7735103,904541,30914310,14733890
2026-01-14 17:25:26.131,1357762,10525460,-2715525,12953550,7208252,33081060,13293460
2026-01-14 17:25:26.141,1362942,3906420,3893162,12965640,37506100,10574340,9741211
2026-01-14 17:25:26.151,-50883720,3902101,3888848,65212300,20935060,-44441220,54718020
2026-01-14 17:25:26.161,-50909620,10528050,-2747460,65238190,25024410,-1524353,4095459
2026-01-14 17:25:26.171,-50944140,45497550,32222040,65272720,-21865840,1008606,1838684
2026-01-14 17:25:26.181,-50961400,45471660,32178880,65307250,-30685420,806427,50201420
2026-01-14 17:25:26.191,-50987300,10524600,-2768176,65333140,-72631840,6385803,-14785770
2026-01-14 17:25:26.201,6591062,45393980,32101200,7754785,-43884280,-373,6019,-20248410
2026-01-14 17:25:26.211,1351722,45359450,32066670,12994120,-38146970,28335570,-2494812
2026-01-14 17:25:26.221,1349994,10505610,-2769904,12995850,-31707760,887,8708,-5203247
2026-01-14 17:25:26.231,-51082250,3871027,3857774,65428090,-55160520,-2029419,-47027590
2026-01-14 17:25:26.241,1337047,10481440,-2759547,12991530,9017944,-29693600,-4196167
2026-01-14 17:25:26.251,1334457,10470220,-2753504,12994120,29586790,-4812622,-22003170
2026-01-14 17:25:26.261,1323235,6988721,-6217741,12988080,32226560,-54382320,-62408450
2026-01-14 17:25:26.271,-51194460,10446910,-2742281,65488520,24917600,-10169980,748,1575
2026-01-14 17:25:26.281,1293888,10435690,-2736241,12965640,9239197,-14175420,23544310
2026-01-14 17:25:26.291,1282667,10423610,-2731062,12959600,932312,-18081660,3451538
2026-01-14 17:25:26.301,-51298040,10404620,-2715522,65505780,22918700,-3161621,49926760
2026-01-14 17:25:26.311,1244689,44971020,31868140,12928520,20935060,-13008120,51086420
2026-01-14 17:25:26.321,70195370,44927860,31859510,71364100,3543091,14892580,2394104
2026-01-14 17:25:26.331,12153390,69093100,-61417810,129060800,23590090,13114930,2381897
2026-01-14 17:25:26.341,64587360,68917870,-61247780,76281560,40740970,36239620,39611820
2026-01-14 17:25:26.351,11859920,103329800,-26663250,128836400,58044430,28152470,2041626
2026-01-14 17:25:26.361,64324960,68655470,-60992280,76026060,5001831,4046631,3149414
2026-01-14 17:25:26.371,11575080,65120540,-64354570,128603300,49468990,50323490,28381350
2026-01-14 17:25:26.381,1147148,102932700,-26369760,12853430,44189450,87646480,74646000
2026-01-14 17:25:26.391,-51548360,102837800,-26292080,65531680,206604,78430180,42053220
2026-01-14 17:25:26.401,1136792,10273420,-2622303,12846520,28778080,56427000,36315920
2026-01-14 17:25:26.411,6406085,44686180,31807720,7577231,-56152340,390625,362854
2026-01-14 17:25:26.421,1135065,10253570,-2607629,12848250,-724411,-3333,092,2507019
2026-01-14 17:25:26.431,-51582880,44643020,31799090,65566200,-16601560,-16586300,-30639650
2026-01-14 17:25:26.441,1133339,10234580,-2592092,12849970,15899660,-11386870,-15716550
2026-01-14 17:25:26.451,1132476,10225080,-2584324,12850840,23651120,-767,7078,-2394104
2026-01-14 17:25:26.461,-51608780,38834760,37555560,65592100,27175900,-15563970,-29708860
2026-01-14 17:25:26.471,-51608780,44573960,31799090,65592100,-12809750,-473938,-17456060
2026-01-14 17:25:26.481,1130749,6769218,-6005660,12852560,-2458191,-37902830,3232956
2026-01-14 17:25:26.491,1129886,10195730,-2561881,12853430,-3363037,-35125730,12237550
2026-01-14 17:25:26.501,1129886,10195730,-2561881,12853430,-21728520,24490360,10585790
2026-01-14 17:25:26.511,1129888,44530810,31790460,12853430,-44036860,17547610,-14022830
2026-01-14 17:25:26.521,-51626050,44530800,31790460,65626620,-41046140,793457,-22563930
2026-01-14 17:25:26.531,-51626050,10185370,-2554973,65626620,-36376950,13904570,16403200
2026-01-14 17:25:26.541,-51626050,10185370,-2554973,65626620,-49316410,23101810,1828003
2026-01-14 17:25:26.551,-51626050,10185370,-2554973,65626620,-45288090,395813,52223210
2026-01-14 17:25:26.561,-51626050,10185370,-2554973,65626620,570,7741,57006840,20568850
2026-01-14 17:25:26.571,11462860,10185370,-2554976,128715500,-18341060,44952390,-11451720
2026-01-14 17:25:26.581,11462860,10185370,-2554976,128715500,-554657,22827150,-11833190
2026-01-14 17:25:26.591,11462860,10185370,-2554976,128715500,2998352,27191160,-18249510
2026-01-14 17:25:26.601,11549180,10185370,-2554976,128801800,41046140,30197140,9811401
2026-01-14 17:25:26.611,64313740,44530800,31790450,76037280,18737790,51818850,76675420
2026-01-14 17:25:26.621,64313740,44530800,31790450,76037280,8018494,30456540,-4383087
2026-01-14 17:25:26.631,64400920,10187100,-2553252,76122740,28030400,27008060,-10635380
2026-01-14 17:25:26.641,64487240,6760583,-5997031,76209050,-9292603,4814148,-30029300
2026-01-14 17:25:26.651,11834020,6760581,-5997029,129034900,-27374270,844574,-33081060
2026-01-14 17:25:26.661,11920340,44565330,31807720,129121200,-39245600,-14095310,-77781680
2026-01-14 17:25:26.671,64747920,44573960,31816350,76466280,-74157710,154800400,-24978640
2026-01-14 17:25:26.681,64835100,10190550,-2549799,76551740,-70373540,15716550,6198883
2026-01-14 17:25:26.691,12205190,10191410,-2548934,129354300,-10284420,-20904540,-55236820
2026-01-14 17:25:26.701,1230015,44591230,31850880,12943200,-8380127,-86364740,-39916990
2026-01-14 17:25:26.711,1247277,10184510,-2538576,12960460,-848999,-122680700,-8319092
2026-01-14 17:25:26.721,6526929,44591230,31902670,7698075,-4611206,-1348877,-13439940
2026-01-14 17:25:26.731,1257636,10152580,-2501460,12967360,4722595,-982666,-13513180
2026-01-14 17:25:26.741,1257636,4457396,3195446,12967360,5041504,-6222534,-1204834
2026-01-14 17:25:26.751,-51427520,44582600,31980360,65652520,6903076,30612950,-8135986
2026-01-14 17:25:26.761,1259361,6666846,-5900872,12965640,10559080,42236330,-15174870
2026-01-14 17:25:26.771,-51401620,10106830,-2443625,65626620,109191900,7763672,42541500
2026-01-14 17:25:26.781,1262815,10109420,-2441038,12962190,119628900,12323000,13305660
2026-01-14 17:25:26.791,-51367100,10112870,-2437583,65592100,9552002,1439209,18103030
2026-01-14 17:25:26.801,-51332570,10116320,-2434130,65574830,121154800,17382810,16540530
2026-01-14 17:25:26.811,1287847,44737970,32170250,12971680,9790039,13708500,11621090
2026-01-14 17:25:26.821,1308562,10142220,-2442764,12985490,9222412,61645510,23132320
2026-01-14 17:25:26.831,1329278,6686613,-5915632,12999300,88378900,3717041,-27832030
2026-01-14 17:25:26.841,-57597440,10179330,-2457436,59033750,81970220,-26916500,-28640750
2026-01-14 17:25:26.851,1371573,10193140,-2460891,13026060,770874,-19042970,-52612300
2026-01-14 17:25:26.861,1401784,10216450,-2472112,13047640,72387700,-844574,-57678220
2026-01-14 17:25:26.871,1432858,6749451,-5973637,13068360,57281500,57434080,-5166626
2026-01-14 17:25:26.881,1463932,10263920,-2493691,13089070,5633545,9197998,-6689453
2026-01-14 17:25:26.891,15036380,10297580,-2511818,131184200,28018950,12646480,-8898926
2026-01-14 17:25:26.901,67654210,45437130,32575940,79256900,-57647700,1237793,-12561040
2026-01-14 17:25:26.911,1593405,68473340,-60656500,13184020,-7733154,49713140,-10888670
2026-01-14 17:25:26.921,1633973,65215500,-64432260,13212510,-10089110,617218,-16064450
2026-01-14 17:25:26.931,6888160,69007650,-61158000,8044638,-8093262,-4257202,-19091800
2026-01-14 17:25:26.941,-57013080,104581400,-25929550,58513270,-80200190,-10925290,-23132320
2026-01-14 17:25:26.951,-50167290,40066500,38757950,65238190,-47668460,-10443120,-29589840
2026-01-14 17:25:26.961,18057460,10509060,-2611082,133342100,-43945310,-11669920,-3618164
2026-01-14 17:25:26.971,18376840,10534090,-2620577,133540600,-44311520,-12683110,-42114260
2026-01-14 17:25:26.981,18782530,46239870,33050680,133825500,-14251710,-10064700,-42651370
2026-01-14 17:25:26.991,1910190,10584160,-2639566,13402400,19254680,-64697260,-41430660
2026-01-14 17:25:27.001,-49718450,46412510,33171530,65100090,19779200,-38116460,-39282230
2026-01-14 17:25:27.011,1980970,10623860,-2651650,13452460,5302429,-309906,-34228520
2026-01-14 17:25:27.021,2020677,46576520,33283740,13481810,-2835083,-17349240,-30004880
2026-01-14 17:25:27.031,2051749,10654940,-2655103,13502530,2954483,-38879400,-2824707
2026-01-14 17:25:27.041,-49399080,10669610,-2657690,65005140,51727300,59432980,-25024410
2026-01-14 17:25:27.051,-49321390,10685150,-2659416,64979240,20767210,20614620,-24047850
2026-01-14 17:25:27.061,72838390,46878620,33516790,84258100,4421997,30426020,-25878910
2026-01-14 17:25:27.071,73188830,7092212,-6286884,84598180,2255249,33302310,-25219730
2026-01-14 17:25:27.081,2224383,10731760,-2664597,13623370,23803710,-9117126,-21911620
2026-01-14 17:25:27.091,2264953,47103050,33689420,13651860,3378296,-50689700,-20507810
2026-01-14 17:25:27.101,-48889800,4718070,3374987,64875670,5581665,8041382,-2211914
2026-01-14 17:25:27.111,-48803490,10777510,-2670637,64858400,4006958,22232060,-22570800
2026-01-14 17:25:27.121,-48708540,108016800,-26809980,64832520,34820560,30975340,-2364502
2026-01-14 17:25:27.131,7537952,71566940,-63432450,8672332,33996580,43151860,-24926760
2026-01-14 17:25:27.141,24824690,71746470,-63598180,138141300,-1675415,34606940,-24829100
2026-01-14 17:25:27.151,-48406430,108741800,-27120720,64789350,-66223140,74279780,-27124020
2026-01-14 17:25:27.161,-48294220,7219185,-6401594,64780720,-1574707,8203125,-27905270
2026-01-14 17:25:27.171,-48182010,47784950,34112380,64772090,-23803710,7891846,-33081060
2026-01-14 17:25:27.181,-48069790,10956180,-2750912,64763450,-3388672,31341550,-38989260
2026-01-14 17:25:27.191,83422720,47974840,34215960,84549660,-39501950,23773190,-4375
2026-01-14 17:25:27.201,78875380,11013150,-2780266,90132800,-4375,27832030,-5004883
2026-01-14 17:25:27.211,7939932,11028690,-2781989,9064466,-42919920,7458496,-5493164
2026-01-14 17:25:27.221,2936497,48225160,34379960,14171490,-49780270,7879639,-640625
2026-01-14 17:25:27.231,-4750872,48294220,34431750,6472032,-59277340,13134770,-7026367
2026-01-14 17:25:27.241,-47413790,48354630,34474910,64728930,-5957031,758667,-7675781
2026-01-14 17:25:27.251,30970450,11085650,-2794074,143044100,-67285150,13153080,-83251950
2026-01-14 17:25:27.261,81752310,4843228,3453529,92952780,-7133789,-89782710,-8964844
2026-01-14 17:25:27.271,-47215260,48440950,34561230,64754830,-7011719,-12573240,-92529300
2026-01-14 17:25:27.281,8244546,48449580,34569860,9364074,-6347656,-11401370,-95410160
2026-01-14 17:25:27.291,-55984960,48440950,34561230,55985140,-68359380,-13647460,-9394531
2026-01-14 17:25:27.301,3256731,11077890,-2784578,14455470,-6821289,-23449710,-9296875
2026-01-14 17:25:27.311,3270541,11073570,-2788895,14476180,-7055664,-2763672,-95214850
2026-01-14 17:25:27.321,-47189360,48285580,34440380,64953350,-7636719,-36279300,-91308590
2026-01-14 17:25:27.331,-47258420,11042500,-2785439,65005140,-77197260,-43530270,-8911133
2026-01-14 17:25:27.341,3226521,48087060,34293640,14468410,-67285150,-5107422,-9116211
2026-01-14 17:25:27.351,3191993,10996750,-2779399,14451150,-5258789,-3293457,-8544922
2026-01-14 17:25:27.361,-47595050,47836740,34077860,65186410,-48046880,-13916020,-83984380
2026-01-14 17:25:27.371,-47741790,47681360,33939750,65264090,-3239746,-4067993,-7626953
2026-01-14 17:25:27.381,81604720,4751733,3379297,92927740,-25976560,15661620,-72021490
2026-01-14 17:25:27.391,30090020,41177400,39804960,143579300,-4345703,118652300,-6484375
2026-01-14 17:25:27.401,-48268320,10885400,-2821693,65497150,-57910160,-11828610,-48583980
2026-01-14 17:25:27.411,-4850138,7229114,-6426196,6554031,-5488281,-10357670,-4230957
2026-01-14 17:25:27.421,78355740,107895900,-27966630,89789260,-26660160,-15661620,-2607422
2026-01-14 17:25:27.431,7704458,71389980,-63436760,8851095,-52642820,-7501221,-7745361
2026-01-14 17:25:27.441,75820630,10654940,-2741423,87318020,4458618,-56243900,23391720
2026-01-14 17:25:27.451,2261500,46006820,32696780,13793420,-1616211,-35375980,2861023
2026-01-14 17:25:27.461,20966340,10490070,-2664599,136648000,-3982544,-5229492,4232788
2026-01-14 17:25:27.471,1913640,68799620,-61020760,13519800,2836914,-20593260,13562010
2026-01-14 17:25:27.481,17479140,45065970,32239300,133920400,50683590,-10498050,30541990
2026-01-14 17:25:27.491,1581324,44729340,32058040,13265160,64697260,1789,331,45776370
2026-01-14 17:25:27.501,67075880,44401330,31868140,78799420,7128906,27197270,6074219
2026-01-14 17:25:27.511,-5163470,65933910,-58362200,6599781,65234380,34375,63378900
2026-01-14 17:25:27.521,11773600,38198600,36966010,129785900,7734375,38720700,74121100
2026-01-14 17:25:27.531,64168740,43417320,31160340,76009660,8286133,5620117,94677740
2026-01-14 17:25:27.541,1034938,9818529,-2421185,12913850,5957031,58935550,11035160
2026-01-14 17:25:27.551,-52618690,9796947,-2460025,66550210,28076170,5908203,12792970
2026-01-14 17:25:27.561,-52799960,42536890,30245390,66731480,31585690,53222660,13720700
2026-01-14 17:25:27.571,981421,5,9782276,-2561018,12967360,-20080570,4020996,14775390
2026-01-14 17:25:27.581,-53093430,62247580,-61530630,67076740,-21582030,25708010,15068360
2026-01-14 17:25:27.591,64066880,97667390,-26456080,76111520,-109802200,14416500,16191410
2026-01-14 17:25:27.601,64226560,65772490,-58696250,76297100,-11230470,61767580,17119140
2026-01-14 17:25:27.611,9978216,97684650,-27301990,130890700,-13659670,137,3291,17509770
2026-01-14 17:25:27.621,9969592,41302560,28752110,131072000,-18237300,-8319092,17041020
2026-01-14 17:25:27.631,64457900,41181720,28579470,76583670,-22290040,-2397461,16191410
2026-01-14 17:25:27.641,9822852,41086760,28432730,131218700,-15722660,-35473630,15351560
2026-01-14 17:25:27.651,9598416,41017710,28311890,131097900,-9362793,-41430660,13769530
2026-01-14 17:25:27.661,64009050,40957290,28199680,76169350,26779180,-4555664,11923830
2026-01-14 17:25:27.671,-53861650,35140410,33861200,67827700,18463140,-45410160,10673830
2026-01-14 17:25:27.681,85972,69,40845080,28035680,1303730,8712769,-42089840,10048830
2026-01-14 17:25:27.691,-54008380,40784660,27975260,67836330,-14984130,-38183590,9580078
2026-01-14 17:25:27.701,-54077440,34967770,33688560,67836330,-20126340,-36450200,94189460
2026-01-14 17:25:27.711,-54137860,40672450,27897570,67827700,-55999760,-35327150,87158200
2026-01-14 17:25:27.721,-54206920,40612020,27871680,67827700,-769043,-33447270,8105469
2026-01-14 17:25:27.731,6801756,40551600,27845780,128888200,-9240723,-3076172,82910160
2026-01-14 17:25:27.741,6516912,9743428,-2910601,128655100,-14489750,-25024410,796875
2026-01-14 17:25:27.751,61303880,40430760,27828510,73522870,-1418457,-16101070,75878900
2026-01-14 17:25:27.761,61214980,40353070,27837140,73439150,-19140620,-5935669,66259770
2026-01-14 17:25:27.771,609395,96200020,-28096100,12838760,-19018560,38391110,5600586
2026-01-14 17:25:27.781,606808,34625100,33392490,12841340,-22961430,6829834,40966800
2026-01-14 17:25:27.791,603353,5,9498294,-2706893,12844790,-28173830,22781370,26098630
2026-01-14 17:25:27.801,6085332,9432688,-2651651,128568800,-34594730,-3277588,21252440
2026-01-14 17:25:27.811,6050808,39835170,27871680,128603300,-3935547,-39520260,2097168
2026-01-14 17:25:27.821,61281430,62505400,-55748530,73545320,-46801760,-859375,2590332
2026-01-14 17:25:27.831,6050804,3956754,2788030,128776000,-54345700,-15771480,2932129
2026-01-14 17:25:27.841,61359120,39420860,27888940,73640270,-62353520,-13220220,29492190
2026-01-14 17:25:27.851,61440260,90546260,-23391840,73731760,-67578130,-14929200,27539060
2026-01-14 17:25:27.861,66971000,39118740,27880310,68201020,-6611328,-1027832,27978520
2026-01-14 17:25:27.871,61430760,38963380,27880300,73741260,-6665039,-36987300,2705078
2026-01-14 17:25:27.881,61511900,38790740,27880310,73832750,-6508789,17303470,25683590
2026-01-14 17:25:27.891,61592170,87015910,-20534760,73925100,-74365230,26245120,26538090
2026-01-14 17:25:27.901,61672450,38436840,27837150,74017470,-8232422,10787960,2775879
2026-01-14 17:25:27.911,61839040,38246950,27802620,74196140,-87353520,4827881,29174800
2026-01-14 17:25:27.921,-55026920,84348720,-18540830,68682230,-9272461,10662840,31347660
2026-01-14 17:25:27.931,-5507010,83528710,-17979780,6879448,-10234380,1439209,37548830
2026-01-14 17:25:27.941,-55095980,37642730,27629990,68906660,-10703130,14282230,4020996
2026-01-14 17:25:27.951,-5513050,37435570,27543670,6902752,-11269530,12243650,44091800
2026-01-14 17:25:27.961,784620,5,32831430,31854330,13215960,-12353520,-68511960,47387700
2026-01-14 17:25:27.971,64384520,80455830,-16046290,76829670,-13222660,-6439209,53222660
2026-01-14 17:25:27.981,-55173660,7962717,-1549383,69415920,-13925780,-13439940,5517578
2026-01-14 17:25:27.991,94516,75,7888488,-1502775,1341794,-14677730,-20471190,5751953
2026-01-14 17:25:28.001,999548,5,36425670,27172510,13484400,-14726560,-2331543,54345700
2026-01-14 17:25:28.011,72485430,77331170,-13991950,73735130,-14326170,-21166990,48901370
2026-01-14 17:25:28.021,1134203,36054500,27060300,13643230,-14306640,-12548830,42236330
2026-01-14 17:25:28.031,-55130500,35899140,27008510,70046040,-13984380,78186030,26416020
2026-01-14 17:25:28.041,1263678,35743760,26956720,13789960,-13662110,21508790,45928960
2026-01-14 17:25:28.051,69776720,46629160,-40378110,82313370,-12558590,30981440,-20092770
2026-01-14 17:25:28.061,-55061450,74223770,-11920340,70391300,-10703130,29467770,-31689450
2026-01-14 17:25:28.071,-55035560,73878500,-11747710,70486260,-94140620,40039060,-38110350
2026-01-14 17:25:28.081,1488100,73619550,-11661390,14048920,-88183590,5341797,-4050293
2026-01-14 17:25:28.091,1527806,73533230,-11747710,14095530,-89746100,6904297,-42456060
2026-01-14 17:25:28.101,15675120,73541860,-11911710,141421400,-97998050,7290039,-46118160
2026-01-14 17:25:28.111,15985860,46144920,-39999180,141801200,-10058590,68847660,-5629883
2026-01-14 17:25:28.121,1638292,74223770,-12956140,14226730,-10078130,57714840,-67333980
2026-01-14 17:25:28.131,1685768,30522040,30521160,14282830,-10224610,50390620,-7631836
2026-01-14 17:25:28.141,1733242,34897860,25903660,14338940,-10253910,37109380,-74609380
2026-01-14 17:25:28.151,-54975140,48861320,-42807060,71185420,-10390630,24853520,-74902340
2026-01-14 17:25:28.161,18696210,34820170,25446170,144960300,-97998050,14355470,-7426758
2026-01-14 17:25:28.171,1942991,34777020,25213120,14578040,-91748050,13232420,-74658200
2026-01-14 17:25:28.181,-54897450,3474246,2497146,71556580,-8208008,15209960,-64208980
2026-01-14 17:25:28.191,77659180,7969621,-2025858,90313210,-6201172,40966800,-61621100
2026-01-14 17:25:28.201,78171890,80688890,-21510140,90836290,-36206060,6352539,-82421870
2026-01-14 17:25:28.211,-54897450,34699330,24237740,71832790,30593870,67285150,-9941406
2026-01-14 17:25:28.221,-54931980,56452870,-50579880,71867330,29296880,56396480,-10703130
2026-01-14 17:25:28.231,20992230,34751110,23823420,147843300,40673830,12561040,-10068360
2026-01-14 17:25:28.241,20707380,34785640,23668050,147610300,42700200,-3149414,-7734375
2026-01-14 17:25:28.251,2033623,34794280,23555840,14729090,42504880,-62353520,-46362300
2026-01-14 17:25:28.261,1997367,59536980,-53710600,14696290,60058590,-77490230,-51483150
2026-01-14 17:25:28.271,1968884,85971480,-27793990,14672990,8041992,-6972656,28027340
2026-01-14 17:25:28.281,1958528,34759750,23348680,14666080,10712890,-6245117,49194340
2026-01-14 17:25:28.291,-55242710,8616134,-2812197,71850060,13457030,-5292969,6948242
2026-01-14 17:25:28.301,1947306,8621316,-2824284,14660040,15273440,-30981440,7363281
2026-01-14 17:25:28.311,1954213,34664800,23219200,14670400,17392580,-8964539,69921870
2026-01-14 17:25:28.321,-55277250,34595750,23184680,71936380,20214840,45532230,44189450
2026-01-14 17:25:28.331,-55285880,59507630,-53739940,71979540,23867190,44604490,15441900
2026-01-14 17:25:28.341,1988739,34362700,23158780,14722190,25996090,5385742,-111816400
2026-01-14 17:25:28.351,200169,5,34198700,23167410,1474378,28378910,7080078,-27075200
2026-01-14 17:25:28.361,77523660,34017420,23158780,90276090,28925780,68310540,-36767580
2026-01-14 17:25:28.371,77777420,8181097,-2487652,90540220,27539060,47924800,-43432620
2026-01-14 17:25:28.381,78116650,33577210,23098360,90891530,2578125,36083980,-40795900
2026-01-14 17:25:28.391,2099223,79549510,-23167420,14887920,22949220,14794920,-3334961
2026-01-14 17:25:28.401,2134613,7843602,-2238193,14938840,20039060,48736570,-2890625
2026-01-14 17:25:28.411,-55510300,7731388,-2160506,72687330,18398440,-13745120,-18310550
2026-01-14 17:25:28.421,2231287,76174530,-20845490,15066590,17607420,-22851560,-12359620
2026-01-14 17:25:28.431,80667310,32222040,22709930,93519870,15683590,-31323240,-10797120
2026-01-14 17:25:28.441,2334869,31919930,22597720,15204700,15546880,-32202150,-46844480
2026-01-14 17:25:28.451,-64443990,72782270,-18713460,64444170,14882810,-3022461,-8166504
2026-01-14 17:25:28.461,-55622510,31281190,22321510,73438290,13085940,-3095703,-13635250
2026-01-14 17:25:28.471,-5564840,30961820,22157510,7361957,11611330,-34594730,-14746090
2026-01-14 17:25:28.481,2581734,69459090,-16857660,15527520,10869140,-31982420,-18151860
2026-01-14 17:25:28.491,-55682930,68423280,-16339760,73964820,9692383,-30639650,-14416500
2026-01-14 17:25:28.501,2717252,29951910,21613710,15702740,85595700,-3203125,-12219240
2026-01-14 17:25:28.511,-55751980,25916600,25096590,74310090,7363281,-42333980,-8416748
2026-01-14 17:25:28.521,2817378,65540300,-15079540,15844300,79589840,-38500980,12649540
2026-01-14 17:25:28.531,2850178,64659880,-14751530,15897820,74560540,-33862300,124694800
2026-01-14 17:25:28.541,-55924620,63857120,-14518470,74758930,6401367,-32104490,1875
2026-01-14 17:25:28.551,2915780,2826010,2052612,16004850,4699707,-32299800,26464840
2026-01-14 17:25:28.561,-56062720,27940730,20293070,75035140,42871100,-3996582,30493160
2026-01-14 17:25:28.571,2939084,40104490,-35336350,16067860,39453120,-43774420,3010254
2026-01-14 17:25:28.581,2928726,60689300,-13543100,16078220,41186520,-37231440,29736330
2026-01-14 17:25:28.591,-56338940,38929710,-34266880,75345890,40942380,-3227539,26171880
2026-01-14 17:25:28.601,2901106,5904928,-1293888,16088580,44384770,-30810550,22583010
2026-01-14 17:25:28.611,-5655473,2634387,1924864,7550989,5283203,-29345700,17346190
2026-01-14 17:25:28.621,2848452,57512840,-12403720,16072180,58740230,-1784668,11462400
2026-01-14 17:25:28.631,2822557,56753260,-12127500,16063550,46923830,-1895752,47454830
2026-01-14 17:25:28.641,9401895,56088620,-11928970,9415156,4128418,-1385498,43182370
2026-01-14 17:25:28.651,2744874,25204490,18489050,16020390,4296875,-8642578,45013430
2026-01-14 17:25:28.661,-57107160,21655490,21589200,75803370,39404300,-670166,-128479
2026-01-14 17:25:28.671,-57210740,5411193,-1131610,75855160,33325200,-10383610,-48583980
2026-01-14 17:25:28.681,2626619,53559540,-11178020,15948750,30688480,-21896360,-13415530
2026-01-14 17:25:28.691,-57417890,53007110,-11039910,75941470,19580080,10620120,-23510740
2026-01-14 17:25:28.701,-5753011,52558260,-10970860,7596739,21911620,4586792,-24108890
2026-01-14 17:25:28.711,2494554,52195740,-10988120,15856390,20336910,17492680,-18847660
2026-01-14 17:25:28.721,2453984,33547000,-29464220,15827900,12438970,28808590,-19885250
2026-01-14 17:25:28.731,2422047,51746890,-11264340,15808050,18291470,26367190,-2512207
2026-01-14 17:25:28.741,2399606,51660580,-11523290,15795970,-24856570,3112793,-31420900
2026-01-14 17:25:28.751,-57944430,33755890,-29773230,76122740,-6713867,2824707,-42089840
2026-01-14 17:25:28.761,2381479,51617410,-12084340,15796830,-13244630,26586910,-47827150
2026-01-14 17:25:28.771,2378026,51643310,-12403720,15800280,-7861328,25341800,-57666020
2026-01-14 17:25:28.781,-58065270,34144310,-30247980,76243580,-5645752,11590580,-7011719
2026-01-14 17:25:28.791,2370257,51634680,-12930250,15808050,-40252690,38604740,-7426758
2026-01-14 17:25:28.801,2375436,34377370,-30532820,15820130,680542,-24124150,-82470700
2026-01-14 17:25:28.811,2380616,51720990,-13534460,15832220,12780760,-12585450,-84277340
2026-01-14 17:25:28.821,2384932,22243820,15683750,15845170,24194340,-15734860,-8881836
2026-01-14 17:25:28.831,2381480,22131610,15537010,15848620,29125980,-18762210,-9482422
2026-01-14 17:25:28.841,2378026,5175552,-1436311,15852070,40161130,-2602539,-9057617
2026-01-14 17:25:28.851,-58315590,21881290,15234910,76511160,33764650,-2770996,-10087890
2026-01-14 17:25:28.861,-5837601,21751820,15088170,7651980,21435550,-12420650,-94140620
2026-01-14 17:25:28.871,2305521,21613710,14932800,15803730,1538086,-13781740,-8364258
2026-01-14 17:25:28.881,2275310,5160878,-1537301,15782150,-3540039,-3256836,-8911133
2026-01-14 17:25:28.891,2245098,35460650,-31866420,15760580,-23925780,-42016600,-765625
2026-01-14 17:25:28.901,2206255,51738260,-16106700,15730370,-19128420,-2939453,-75390620
2026-01-14 17:25:28.911,2184676,51919520,-16615970,15717420,-18774410,-17260740,-70458980
2026-01-14 17:25:28.921,-58755810,52014460,-17038920,76657900,-17028810,5053711,-7241211
2026-01-14 17:25:28.931,2184676,52187100,-17556830,15734680,-120788600,2788086,-7480469
2026-01-14 17:25:28.941,-58816230,52187100,-17902090,76770110,-10028080,3857422,-7871094
2026-01-14 17:25:28.951,2220067,52264790,-18342310,15785610,-12286380,43188480,-81347660
2026-01-14 17:25:28.961,-58824860,17134730,16425220,76916850,-15783690,45581060,-7836914
2026-01-14 17:25:28.971,-58798970,20163590,13033830,77011800,-21313480,3972168,-72998050
2026-01-14 17:25:28.981,2390111,20008220,12809410,15978090,-2854004,32128910,-8354492
2026-01-14 17:25:28.991,2490239,19835590,12584980,16085130,-33325200,18945310,-9189453
2026-01-14 17:25:29.001,2599859,52610060,-20586540,16199930,-40112300,11376950,-98828130
2026-01-14 17:25:29.011,-58496860,52748160,-21138970,77555600,-5,-29711910,-9609375
2026-01-14 17:25:29.021,2844136,52782690,-21622340,16456290,-6074219,-8955078,-10439450
2026-01-14 17:25:29.031,-58367380,52808580,-22114350,77840440,-72216800,-13046880,-9741211
2026-01-14 17:25:29.041,-5835013,52834480,-22606360,7794404,-72753900,-14560550,-71484380
2026-01-14 17:25:29.051,-58376010,52765420,-23020670,78004440,-8276367,-14960940,-4140625
2026-01-14 17:25:29.061,-58445060,52679100,-23452260,78056230,-72753900,-11982420,34179690
2026-01-14 17:25:29.071,-67333970,52394260,-23737100,69288180,-61279300,-50390620,46948240
2026-01-14 17:25:29.081,2889021,51919520,-23866580,16566780,-2783203,43823240,97509770
2026-01-14 17:25:29.091,-58755820,51228980,-23866580,78159820,13806150,13134770,14052730
2026-01-14 17:25:29.101,2848452,50089600,-23452260,16555550,4519043,14599610,14472660
2026-01-14 17:25:29.111,2840685,16503760,9356735,16563320,9033203,10888670,12910160
2026-01-14 17:25:29.121,2832051,35780020,-33273380,16571950,14521480,5102539,11210940
2026-01-14 17:25:29.131,-67806120,15459330,8761153,69748250,15517580,19006350,10546880
2026-01-14 17:25:29.141,2833777,44306380,-20949070,16604750,10830080,11315920,11025390
2026-01-14 17:25:29.151,-59178760,43365530,-20854120,78669080,45776370,25610350,11796880
2026-01-14 17:25:29.161,-68004650,42769940,-21104440,69964040,-18347170,49609380,12978520
2026-01-14 17:25:29.171,-59161500,42286570,-21415180,78910770,-82421870,5722656,12929690
2026-01-14 17:25:29.181,3053022,41915410,-21786350,16868880,-13759770,50683590,13330080
2026-01-14 17:25:29.191,9356130,41483830,-22045300,10738410,-18994140,5029297,14140630
2026-01-14 17:25:29.201,3228246,41104030,-22252460,17056190,-21191410,45043940,14619140
2026-01-14 17:25:29.211,3320604,32594060,-30762420,17153730,-21386720,5073242,14716800
2026-01-14 17:25:29.221,-58876650,40534340,-22649510,79489090,-2015625,47973630,13808590
2026-01-14 17:25:29.231,3437995,32467180,-30716680,17278030,-16503910,2824707,12558590
2026-01-14 17:25:29.241,-58842130,40102760,-22908460,79592670,-97802740,8312988,11289060
2026-01-14 17:25:29.251,9674297,115923400,52912160,11058990,-1821289,-9741211,92333980
2026-01-14 17:25:29.261,-5893709,32334250,-30676970,7958406,50097660,-30859380,76660160
2026-01-14 17:25:29.271,-59057910,112643400,49632140,79532250,11152340,-49902340,6977539
2026-01-14 17:25:29.281,-59204660,39524440,-23659420,79454560,15927730,-61328120,82177740
2026-01-14 17:25:29.291,3058201,31755580,-31600900,16932760,17978520,-5805664,9663086
2026-01-14 17:25:29.301,-68430190,39377700,-24324050,70401660,17460940,-53466800,10576170
2026-01-14 17:25:29.311,2747464,104874800,41000450,16639280,15107420,-51953120,11699220
2026-01-14 17:25:29.321,2578283,102544300,38669900,16480460,11914060,-46142580,13564450
2026-01-14 17:25:29.331,2392700,38842540,-25204490,16303510,7739258,-3149414,14707030
2026-01-14 17:25:29.341,8479411,38592220,-25454810,9871529,3930664,-29858400,14794920
2026-01-14 17:25:29.351,-60654780,38359160,-25687860,78643190,28858180,-18322750,16630860
2026-01-14 17:25:29.361,1860988,38126110,-25920920,15799420,-2553711,-5267334,17714840
2026-01-14 17:25:29.371,86137380,37910310,-26136720,87531910,-3605957,-9906006,17949220
2026-01-14 17:25:29.381,-61215830,88819930,24772910,78306550,-4519043,-12219240,1859375
2026-01-14 17:25:29.391,14449420,37418300,-26456080,154040900,-5239258,-10772710,18496090
2026-01-14 17:25:29.401,-61500670,37081670,-26447450,78142540,-5078125,21972660,19052730
2026-01-14 17:25:29.411,1250729,36839980,-26516500,15218510,-49121100,12902830,18457030
2026-01-14 17:25:29.421,11885810,36537870,-26473350,151598100,-5332031,15795900,16933590
2026-01-14 17:25:29.431,74323020,36175340,-26317980,88297710,-55078120,1928711,15917970
2026-01-14 17:25:29.441,-61785530,79411400,17263350,77978550,-54003900,2590332,14179690
2026-01-14 17:25:29.451,1072917,35666080,-26136710,15051050,-63183590,18261720,10859380
2026-01-14 17:25:29.461,1037527,7785769,1640018,15017390,-6621094,11682130,11416020
2026-01-14 17:25:29.471,-61915000,7742608,1614126,77900860,-5830078,38110350,11953130
2026-01-14 17:25:29.481,-61932260,7699450,1588231,77900860,-6035156,42822260,93066410
2026-01-14 17:25:29.491,-61940890,7673555,1579599,77892220,-65966800,17883300,7290039
2026-01-14 17:25:29.501,-61940890,7664924,1570968,77892220,-63964840,21447750,6723633
2026-01-14 17:25:29.511,-61940890,7656292,1562336,77892220,-5761719,11932370,60302740
2026-01-14 17:25:29.521,-61940890,7647660,1553704,77892220,-58935550,7757568,55566410
2026-01-14 17:25:29.531,-61940890,48967480,42873530,77892230,-5229492,-5419922,50390620
2026-01-14 17:25:29.541,-61940890,48794850,42700900,77892230,-5253906,49095150,5253906
2026-01-14 17:25:29.551,-61932260,48699900,42623220,77900860,-55029300,11054990,47265620
2026-01-14 17:25:29.561,-61932260,48527270,42450580,77900860,-54345700,11016850,44702150
2026-01-14 17:25:29.571,991781,5,48346000,42286570,14976820,-56396480,-6465912,43066410
2026-01-14 17:25:29.581,983148,7526819,1501911,14968190,-49438480,21469120,5625
2026-01-14 17:25:29.591,983148,4787989,4188951,14968190,-60546880,44647220,55371100
2026-01-14 17:25:29.601,983147,34250480,-25308070,14968190,-74121100,-10083010,49243160
2026-01-14 17:25:29.611,-6196681,33896580,-24971430,7790089,-7993164,-2705078,5644531
2026-01-14 17:25:29.621,-6196681,33620380,-24729750,7790089,-9003906,-3173828,609375
2026-01-14 17:25:29.631,-6196681,33180160,-24306800,7790089,-10761720,-42358400,61376950
2026-01-14 17:25:29.641,982283,5,32739940,-23883850,14969050,-11845700,-40722660,58447260
2026-01-14 17:25:29.651,-61958160,2788469,-2787586,77926750,-12861330,-41748050,34033200
2026-01-14 17:25:29.661,-61958160,7138391,1665916,77926750,-11503910,-32788090,44433590
2026-01-14 17:25:29.671,-61949520,31229400,-22459610,77935380,-10566410,-18737790,40600580
2026-01-14 17:25:29.681,-61940900,69916560,17090720,77944020,-94433590,-20959470,39233400
2026-01-14 17:25:29.691,1015086,68967080,17177030,15005310,-94384770,-18762210,4194336
2026-01-14 17:25:29.701,1023718,68103910,17349670,15013940,-9736328,-9460449,49145510
2026-01-14 17:25:29.711,1040119,44703440,39714340,15032060,-10839840,-58502200,51464840
2026-01-14 17:25:29.721,1048749,4422006,3933454,15040690,-12246090,-11328130,5307617
2026-01-14 17:25:29.731,1066011,27949360,-19697480,15057960,-13486330,-16772460,45239260
2026-01-14 17:25:29.741,-61897740,63960700,17522300,78038970,-13056640,-2553711,4658203
2026-01-14 17:25:29.751,-61889100,42476470,37970740,78047600,-12421880,-31079100,42211910
2026-01-14 17:25:29.761,7388110,61543840,17867570,8787651,-12314450,-36743160,3461914
2026-01-14 17:25:29.771,7396742,60335400,18040200,8796283,-11064450,-24658200,51171880
2026-01-14 17:25:29.781,74139180,20757450,-19984060,88136300,-10810550,-10687260,51123050
2026-01-14 17:25:29.791,74311810,57745900,18385460,88308930,-9819336,43914800,41748050
2026-01-14 17:25:29.801,74657080,56364830,18558100,88654200,-83935540,121154800,2944336
2026-01-14 17:25:29.811,-6178552,54811140,18385470,7818573,-63134770,2841797,20202640
2026-01-14 17:25:29.821,-61759630,21173490,-14043730,78228860,-35205080,9189453,-16674810
2026-01-14 17:25:29.831,-61716470,51790040,17435990,78272020,-49987790,15693360,-40014650
2026-01-14 17:25:29.841,-61681940,20362120,-13646670,78306550,3112793,19238280,-70458980
2026-01-14 17:25:29.851,-61664680,49632120,15623330,78323820,53125,16201170,-8383789
2026-01-14 17:25:29.861,-61673320,49286860,14587530,78332450,28076170,11328130,-6875
2026-01-14 17:25:29.871,-61699210,49200540,13465420,78306550,-1854248,66503900,-45166020
2026-01-14 17:25:29.881,-61725100,49545810,12429610,78280660,-7241211,28173830,-3486328
2026-01-14 17:25:29.891,1250732,32826260,28976530,15253030,-9267578,-2364502,-28173830
2026-01-14 17:25:29.901,1233467,50754240,11221180,15235770,-10009770,-6464844,-16186520
2026-01-14 17:25:29.911,-61768260,51358460,11134860,78237500,-91259770,-8833008,13134770
2026-01-14 17:25:29.921,-61751000,51790040,11048550,78254760,-87841800,-80810540,28686520
2026-01-14 17:25:29.931,-61699210,52135310,11048550,78289290,-7241211,-58447260,30517580
2026-01-14 17:25:29.941,1348268,52480580,11048540,15345390,-3059082,-27685550,19262700
2026-01-14 17:25:29.951,83459060,52739530,11134860,84858590,12756350,-95703130,11407470
2026-01-14 17:25:29.961,-61474780,53257430,11480130,78461920,16552730,848999,18310550
2026-01-14 17:25:29.971,1584774,24255000,-17694930,15574990,28759770,28759770,11035160
2026-01-14 17:25:29.981,16805870,24488060,-17807150,156690800,55908200,3828125,21459960
2026-01-14 17:25:29.991,1785894,55501660,12688560,15770940,7089844,4873047,26220700
2026-01-14 17:25:30.001,-61017300,56451140,13292780,78798550,82958980,6279297,31420900
2026-01-14 17:25:30.011,-60853310,25411650,-18264620,78910770,80371100,6533203,26538090
2026-01-14 17:25:30.021,-60680670,38885690,34483540,79031620,91015620,6357422,8135986
2026-01-14 17:25:30.031,2347817,39921500,35519340,16313870,9604492,45825200,-17736820
2026-01-14 17:25:30.041,2514407,6085330,1683176,16475280,11259770,13769530,-31762700
2026-01-14 17:25:30.051,-60110980,41993090,37590950,79428670,13535160,-10821530,-26245120
2026-01-14 17:25:30.061,2848455,42847630,38462740,16797240,15126950,-35424800,-20739750
2026-01-14 17:25:30.071,3015043,25972710,-17703560,16958650,16757810,-5283203,-91430660
2026-01-14 17:25:30.081,3173005,63615440,20284430,17111430,17285160,-64941410,-40626530
2026-01-14 17:25:30.091,-59385920,63788070,20802340,79963830,17636720,-6088867,15698240
2026-01-14 17:25:30.101,-59230550,63788070,21320240,80067420,16904300,-5151367,1928711
2026-01-14 17:25:30.111,3576104,63529120,21924450,17502450,16083980,-4765625,17370600
2026-01-14 17:25:30.121,-58988860,63011220,22614990,80257310,15302730,-45507810,11682130
2026-01-14 17:25:30.131,3750465,44832920,40965920,17673360,14482420,-43017580,18981930
2026-01-14 17:25:30.141,10059010,61284890,24513950,11451130,13134770,-2932129,2800293
2026-01-14 17:25:30.151,10093540,60076450,25722390,11485650,12109380,-16357420,36694340
2026-01-14 17:25:30.161,10110800,58954340,27017140,11502920,10800780,-52581790,4255371
2026-01-14 17:25:30.171,10128060,57745900,28398210,11520180,9946289,24612430,42382810
2026-01-14 17:25:30.181,10145330,56537470,29779280,11537440,10263670,103027300,41992190
2026-01-14 17:25:30.191,3898929,55415350,31074030,17818370,10439450,-60394290,38330080
2026-01-14 17:25:30.201,3907561,44617130,42390150,17827000,10761720,-234375,421875
2026-01-14 17:25:30.211,3924822,14656580,-5886802,17844260,11787110,-35473630,42504880
2026-01-14 17:25:30.221,3933454,14009210,-5153110,17852890,1265625,-4489746,39892580
2026-01-14 17:25:30.231,-68498380,13620780,-4678365,70678740,13359380,-4182129,51464840
2026-01-14 17:25:30.241,-58678120,13318670,-4289940,80499000,14267580,-2722168,6328125
2026-01-14 17:25:30.251,3978341,53861650,36770930,17894330,15175780,-10546880,68359380
2026-01-14 17:25:30.261,4012867,46067250,44392700,17928850,14775390,-9869385,63720700
2026-01-14 17:25:30.271,4048256,12602240,-3625303,17962510,14521480,-44891360,66845700
2026-01-14 17:25:30.281,4082783,12377820,-3504460,17997040,14814450,791626,7138672
2026-01-14 17:25:30.291,4117310,51272150,35907760,18031570,13779300,108947800,5751953
2026-01-14 17:25:30.301,4143205,50150030,35303550,18057460,12294920,-54870600,49975580
2026-01-14 17:25:30.311,4159603,11247070,-2908875,18075590,10273440,-10620120,5493164
2026-01-14 17:25:30.321,4168237,47560530,33922480,18084220,83251950,-84228510,6069336
2026-01-14 17:25:30.331,-68475070,46352090,33059320,70702050,51416020,19897460,5883789
2026-01-14 17:25:30.341,-58436440,6860451,-6087054,80740680,23669430,93933100,5805664
2026-01-14 17:25:30.351,-58419180,44107850,31505610,80757950,4220581,24523930,5625
2026-01-14 17:25:30.361,-68469030,43331000,30728770,70708090,-7373047,38012700,56884770
2026-01-14 17:25:30.371,-58358750,42726790,30124550,80818370,-11975100,44628900,5410156
2026-01-14 17:25:30.381,-58332860,9900527,-2701712,80844260,-51361080,5078125,56152340
2026-01-14 17:25:30.391,-5829833,10055900,-2891610,8086154,24154660,56884770,49804690
2026-01-14 17:25:30.401,4358132,10228530,-3064245,18274120,22644040,45385740,45776370
2026-01-14 17:25:30.411,4393523,10409800,-3228247,18307780,3984375,19458010,41796880
2026-01-14 17:25:30.421,-58177490,10599690,-3383614,80947840,5620117,-39154050,43041990
2026-01-14 17:25:30.431,4464302,10875910,-3625304,18375110,7211914,-2442627,40185550
2026-01-14 17:25:30.441,-5809979,43848910,29002430,8100829,75878900,-5,2890625
2026-01-14 17:25:30.451,4525586,112557000,-39360440,18434670,8017578,-6489258,3479004
2026-01-14 17:25:30.461,4542853,44539440,28829790,18451930,8359375,-7841797,3647461
2026-01-14 17:25:30.471,-68385300,44798380,28570850,70688230,8154297,-89941410,39257810
2026-01-14 17:25:30.481,-68385300,37435570,35761030,70688230,7915039,-85839840,53466800
2026-01-14 17:25:30.491,-58030740,45229970,27794000,81042790,79248050,-81396480,54785160
2026-01-14 17:25:30.501,4534220,45488930,27362410,18443300,7348633,-6767578,5449219
2026-01-14 17:25:30.511,4516956,13120140,-5869539,18426040,72021490,-34716800,5810547
2026-01-14 17:25:30.521,4491060,13638040,-6387439,18400140,5292969,12927250,4326172
2026-01-14 17:25:30.531,4481566,47042630,25808710,18392370,-46936040,5102539,45483400
2026-01-14 17:25:30.541,-5811705,37893050,35648820,8097376,-4987793,65185550,39331060
2026-01-14 17:25:30.551,4482429,49114230,25290800,18391510,-72265620,58496100,3803711
2026-01-14 17:25:30.561,-58099800,50150020,25118180,80973740,-7675781,64404300,3725586
2026-01-14 17:25:30.571,-58099800,51013190,25290810,80973740,-5883789,6879883,19384770
2026-01-14 17:25:30.581,-68393940,16805870,-9089151,70679600,-27526860,71533200,14282230
2026-01-14 17:25:30.591,-58117060,16667760,-8881991,80956470,59472660,7133789,657959
2026-01-14 17:25:30.601,-58117060,16149860,-8364090,80956470,9824219,81689460,-109558100
2026-01-14 17:25:30.611,-58099800,15623330,-7854821,80973740,10419920,8300781,-13378910
2026-01-14 17:25:30.621,-58048010,3860772,3838681,81008260,92822260,6665039,-26464840
2026-01-14 17:25:30.631,-58004850,48510010,27621360,81051420,7841797,47875980,-53466800
2026-01-14 17:25:30.641,4623126,47301580,27621360,18527030,63964840,18005370,-8300781
2026-01-14 17:25:30.651,4657653,46093140,27621360,18561550,5878906,-17602540,-86572260
2026-01-14 17:25:30.661,4692179,12248350,-5015003,18596080,5522461,-35473630,-8779297
2026-01-14 17:25:30.671,4718075,36209870,34569860,18621980,49975580,-6425781,-8666992
2026-01-14 17:25:30.681,4743970,42381520,26671870,18647870,29589840,-6826172,-7988281
2026-01-14 17:25:30.691,4778496,41345720,25981340,18682400,19250490,-7006836,-62939450
2026-01-14 17:25:30.701,4804389,108586500,-43331010,18708300,16555790,-5649414,-5366211
2026-01-14 17:25:30.711,4830284,107464400,-44453120,18734190,-14086910,-4008789,-41918940
2026-01-14 17:25:30.721,4864812,10720540,-4643841,18768710,-2788086,-17687990,-2697754
2026-01-14 17:25:30.731,4890708,36857250,21492870,18794610,-5307617,-48675540,-18310550
2026-01-14 17:25:30.741,4916602,10487480,-4876897,18820500,-6904297,12466430,-8795166
2026-01-14 17:25:30.751,4942498,34613020,19248630,18846400,-75146480,-1394043,-15917970
2026-01-14 17:25:30.761,4959759,101940100,-49977400,18863670,-7807617,-18005370,-1159668
2026-01-14 17:25:30.771,4985653,78470550,-73446920,18889560,-8071289,-11090090,-10583500
2026-01-14 17:25:30.781,5011550,10133590,-5230795,18915450,-8378906,-8605957,-125
2026-01-14 17:25:30.791,5046940,31937200,16054920,18949110,-9033203,13085940,-18173220
2026-01-14 17:25:30.801,-57461060,24652060,22994790,81543420,-97216800,33618160,-61279300
2026-01-14 17:25:30.811,-57417900,32455090,15019120,81586580,-8959961,27001950,-15612790
2026-01-14 17:25:30.821,5169511,33231950,14587530,19068230,-7290039,18139650,-34448240
2026-01-14 17:25:30.831,-573315,1,34095120,14414900,816385,3,-5004883,-4951477,-3684082
2026-01-14 17:25:30.841,-57305690,106040100,-101120100,81647020,-25439450,-21582030,-51464840
2026-01-14 17:25:30.851,-57305680,13379090,-8372722,81647010,-14862060,-44091800,-6948242
2026-01-14 17:25:30.861,-69354810,36770930,14155950,69597880,12390140,-75,-10214840
2026-01-14 17:25:30.871,-57348840,37461460,13983310,81603850,15014650,-10244140,-12431640
2026-01-14 17:25:30.881,11380860,37979370,13810680,12770560,15942380,-11796880,-14169920
2026-01-14 17:25:30.891,5065931,38238320,13551730,18964650,9631348,-10097660,-13955080
2026-01-14 17:25:30.901,4986520,38410950,13206460,18888690,6011963,-61572260,-12480470
2026-01-14 17:25:30.911,4916602,38497270,12774880,18820500,49560550,-28515620,-11640630
2026-01-14 17:25:30.921,-57754530,13286730,-12780920,81319010,12550350,34484860,-11152340
2026-01-14 17:25:30.931,4740515,15701020,-10711910,18651320,503,6592,43554690,-8769531
2026-01-14 17:25:30.941,-57935800,15847750,-10910430,81189530,-4623413,6723633,-7207031
2026-01-14 17:25:30.951,4608452,37806740,10875910,18524440,-9020996,6879883,-6567383
2026-01-14 17:25:30.961,-58082540,25359860,22632260,81094580,-11694340,5683594,-6699219
2026-01-14 17:25:30.971,-5814295,25126800,22347400,8105143,-13964840,5029297,-6928711
2026-01-14 17:25:30.981,10715020,37720420,9408525,12107130,-21118160,36645510,-70458980
2026-01-14 17:25:30.991,4397838,37893050,8890625,18320730,-24731440,1427002,-6567383
2026-01-14 17:25:31.001,4354680,38152000,8286408,18277570,-3659668,-647583,-7661133
2026-01-14 17:25:31.011,-58358750,38583580,7682194,80887420,-4260254,-30810550,-4128418
2026-01-14 17:25:31.021,4249374,39015170,7250608,18175720,-5029297,-3479004,-4230957
2026-01-14 17:25:31.031,4196721,39446750,6819025,18124790,-5390625,-6635742,-47631840
2026-01-14 17:25:31.041,-58540020,24807430,21458350,80757950,-44873050,-8613281,-41308590
2026-01-14 17:25:31.051,-6954712,40396240,6214805,6976811,-4477539,-88134770,-31079100
2026-01-14 17:25:31.061,4012866,40914140,6042173,17946120,-34814450,-7553711,-22766110
2026-01-14 17:25:31.071,-58764440,41518350,5955857,80585310,-3256836,-57714840,23132320
2026-01-14 17:25:31.081,-58842120,42122570,6214809,80524890,-30810550,-4267578,50390620
2026-01-14 17:25:31.091,3803116,20681490,-15744180,17741540,-3017578,-2487793,54248050
2026-01-14 17:25:31.101,3750462,18552060,-18046240,17690620,-3684082,-63964840,44604490
2026-01-14 17:25:31.111,3690041,44366810,7768507,17630200,-36035160,93688970,30639650
2026-01-14 17:25:31.121,-59109700,45057340,8459043,80309100,-28173830,28515620,16967770
2026-01-14 17:25:31.131,3576102,20957710,-15467960,17519710,-24389650,50390620,5695343
2026-01-14 17:25:31.141,9781587,46179460,10099060,11176120,-15771480,68359380,-61950680
2026-01-14 17:25:31.151,-68694320,46611040,10875920,70776280,-6652832,72216800,-23059080
2026-01-14 17:25:31.161,-5942044,47042620,11652760,8006744,1802063,6640625,-22570800
2026-01-14 17:25:31.171,3261909,17821820,-17222780,17212420,8311,271,6821289,-17370600
2026-01-14 17:25:31.181,-59610340,20577910,-14466680,79912040,17501830,76464850,-10974120
2026-01-14 17:25:31.191,-59696660,48855270,13465420,79842990,8972168,6088867,-120666500
2026-01-14 17:25:31.201,3017634,49891080,13810680,16973330,-12658690,3425293,-28857420
2026-01-14 17:25:31.211,2939086,51099510,14155940,16896500,-1842041,-62683100,-3828125
2026-01-14 17:25:31.221,-59972870,22425090,-15726910,79618570,-24938960,-31958010,-33544920
2026-01-14 17:25:31.231,2747463,54034280,14673850,16708340,-33129880,-5126953,-35986330
2026-01-14 17:25:31.241,-6018867,55415350,15019110,7943733,-40966800,-6538086,-45898440
2026-01-14 17:25:31.251,-60318140,24246370,-17013030,79325080,-41552740,-8339844,-53027340
2026-01-14 17:25:31.261,2373711,57918540,15968600,16339760,-3544922,-9926758,-40161130
2026-01-14 17:25:31.271,-60637520,58868020,16572820,79057510,-15710450,-9550781,-24169920
2026-01-14 17:25:31.281,2068149,24980070,-17315140,16041110,-6842041,-9296875,-22851560
2026-01-14 17:25:31.291,-60991420,24850590,-17099340,78772660,256958,-9291992,-9637451
2026-01-14 17:25:31.301,17185660,24608900,-16823130,157001500,13055800,-8178711,-25726320
2026-01-14 17:25:31.311,-6141437,24185950,-16382920,7845331,10858150,-60253900,23388670
2026-01-14 17:25:31.321,1324962,23659420,-15873650,15316910,12597660,-33129880,4519043
2026-01-14 17:25:31.331,74311810,5774587,1942124,88308930,8856201,7836914,80908200
2026-01-14 17:25:31.341,957254,56623790,19680220,14959560,25161740,39331060,10585940
2026-01-14 17:25:31.351,-62217110,55156400,19939170,77840440,-4171753,54589840,11572270
2026-01-14 17:25:31.361,-62381110,53689020,20025490,77728230,-7305908,72021490,12529300
2026-01-14 17:25:31.371,68606270,19576630,-12360560,82620660,-9346008,90966800,11992190
2026-01-14 17:25:31.381,-62631430,50495290,20111800,77546970,37109380,11699220,12539060
2026-01-14 17:25:31.391,6679105,49200540,19852850,8081063,-18722530,11328130,11474610
2026-01-14 17:25:31.401,66185960,47905790,19421260,80207250,-1307373,93066410,10917970
2026-01-14 17:25:31.411,-6285585,4669736,1890337,7739159,-36132810,8911133,11054690
2026-01-14 17:25:31.421,229604,33395950,30651080,14254350,-64746100,6489258,11445310
2026-01-14 17:25:31.431,220108,5,44712080,17608620,14246580,-89160160,5209961,11572270
2026-01-14 17:25:31.441,220107,16503760,-10427060,14246580,-10654300,46655270,12167970
2026-01-14 17:25:31.451,-62881740,43072050,16141230,77400220,-12011720,5473633,11660160
2026-01-14 17:25:31.461,65924410,42295200,15537010,79950880,-12919920,4934082,10244140
2026-01-14 17:25:31.471,66269680,41690980,14932800,80296150,-13779300,2709961,89160160
2026-01-14 17:25:31.481,66356000,16244810,-10686020,80382460,-13496090,22692870,87646480
2026-01-14 17:25:31.491,66442320,16287970,-10815490,80468780,-14179690,17419430,80078130
2026-01-14 17:25:31.501,3314568,28311880,25549760,143596500,-14228520,-7763672,7294922
2026-01-14 17:25:31.511,3314568,28070200,25273540,143596500,-13466800,-15637210,7729492
2026-01-14 17:25:31.521,3314568,40741500,12256980,143596500,-12900390,-24584960,66259770
2026-01-14 17:25:31.531,3314568,40914130,11911710,143596500,-12675780,-28051760,69433590
2026-01-14 17:25:31.541,3400880,41086760,11566440,143682800,-12607420,-21862790,5996094
2026-01-14 17:25:31.551,358215,41259400,11566440,14384690,-14296880,-33544920,5107422
2026-01-14 17:25:31.561,366847,41604670,11739080,14393320,-16396480,-50146480,5371094
2026-01-14 17:25:31.571,375478,5,42036260,12170660,14401950,-18427730,-5341797,6147461
2026-01-14 17:25:31.581,384972,5,17617250,-12075710,14409720,-20839840,-6196289,56884770
2026-01-14 17:25:31.591,367710,5,43331010,13810680,14392460,-21855470,-4921875,66015620
2026-01-14 17:25:31.601,66529490,44194170,14846480,80554240,-21210940,-22192380,5498047
2026-01-14 17:25:31.611,66011600,17746720,-11600970,80036340,-20390620,-23205570,48583980
2026-01-14 17:25:31.621,220972,46783680,17263350,14245720,-17421880,-21240230,5288086
2026-01-14 17:25:31.631,125159,18195570,-11497390,14151630,-13066410,-34179690,62158200
2026-01-14 17:25:31.641,63421230,50063710,20025480,77447700,-10341800,-1953125,8955078
2026-01-14 17:25:31.651,-56105,51617420,21406550,13970370,-10644530,9265137,9838867
2026-01-14 17:25:31.661,-107895,53084800,22873940,13918580,-10302730,43017580,87597660
2026-01-14 17:25:31.671,-124295,54379550,24168690,13900450,-7368164,7060547,70703130
2026-01-14 17:25:31.681,-63209750,55674300,25463450,77020430,-33813480,83691410,47021480
2026-01-14 17:25:31.691,6264782,19196840,-10841380,7666740,-8148193,11650390,24246220
2026-01-14 17:25:31.701,431584,57918520,27880310,140610000,88378900,14755860,-4404297
2026-01-14 17:25:31.711,122569,15192190,-15191310,14136960,4296875,13574220,-6738281
2026-01-14 17:25:31.721,-62855860,61025940,29951910,77253490,56152340,10585940,-78271490
2026-01-14 17:25:31.731,246865,5,20664230,-11272970,14254350,52490230,40185550,-7792969
2026-01-14 17:25:31.741,66021960,50244970,46947670,80025980,16772460,-89538580,-72753900
2026-01-14 17:25:31.751,3366352,22036660,-11972130,143372100,-1541748,-3737793,-7319336
2026-01-14 17:25:31.761,372888,22684040,-12187920,14370010,-65234380,-5629883,-66259770
2026-01-14 17:25:31.771,401372,5,23288260,-12274240,14393320,-11054690,-61279300,-55859380
2026-01-14 17:25:31.781,439351,5,23849320,-12231080,14424390,-12382810,-3527832,-22241210
2026-01-14 17:25:31.791,-6238975,24453530,-12144770,7739160,-13173830,14916990,52459720
2026-01-14 17:25:31.801,6197536,83899870,46438410,145892600,-10283200,7709961,37524420
2026-01-14 17:25:31.811,798429,5,8812939,4980477,14755850,-53515620,13574220,4645996
2026-01-14 17:25:31.821,1038393,92790500,53257430,14982000,-3251953,16464840,46905520
2026-01-14 17:25:31.831,1305108,20361780,-20207100,15233180,3677368,14160160,-2758789
2026-01-14 17:25:31.841,-68710720,102630600,61025940,70414620,5498047,1015625,-5292969
2026-01-14 17:25:31.851,-68601100,30046860,-12766240,70351600,10849610,5395508,-61572260
2026-01-14 17:25:31.861,-6039582,11290230,6888077,7836698,15097660,1541748,-6484375
2026-01-14 17:25:31.871,-68373220,32144350,-13085620,70216940,1640625,-66467280,-7001953
2026-01-14 17:25:31.881,2514406,33085210,-13180570,16354440,15634770,-40307620,-7973633
2026-01-14 17:25:31.891,8950441,33922480,-13206460,10332720,14677730,-5546875,-76171870
2026-01-14 17:25:31.901,2928727,34742490,-13249620,16734230,13681640,-65625,-67089840
2026-01-14 17:25:31.911,3127255,35458920,-13223730,16915490,13027340,-8935547,-56640620
2026-01-14 17:25:31.921,3308522,13940160,9002837,17079500,14101560,-12255860,-47924800
2026-01-14 17:25:31.931,3481156,14302690,9313577,17234870,17333980,-1234375,-6538086
2026-01-14 17:25:31.941,-58186120,14639320,9598425,79195620,22011720,-10175780,-8330078
2026-01-14 17:25:31.951,9948004,37780840,-12973410,11320440,23828120,-7338867,-8618164
2026-01-14 17:25:31.961,3908422,38126110,-12800770,17618980,24785160,-54003900,-7988281
2026-01-14 17:25:31.971,4043939,38359160,-12567720,17742410,234375,-4050293,-82910160
2026-01-14 17:25:31.981,-57426530,38566320,-12360560,79437300,19580080,-49169920,-72265620
2026-01-14 17:25:31.991,10416530,38669900,-12084340,11784140,17431640,-5678711,-58251950
2026-01-14 17:25:32.001,-57158950,13709690,13203880,79514980,15380860,-61035160,-4477539
2026-01-14 17:25:32.011,4417692,16132600,11091700,18076450,14267580,-5366211,-15612790
2026-01-14 17:25:32.021,-56960420,16253440,11229810,79558140,12958980,-5234375,13745120
2026-01-14 17:25:32.031,4518682,16374290,11350650,18165360,11533200,-57910160,21203610
2026-01-14 17:25:32.041,-67062060,16477860,11471500,69335650,11787110,-6386719,25830080
2026-01-14 17:25:32.051,4558388,16581450,11575080,18194710,1125,-59521480,34545900
2026-01-14 17:25:32.061,4560977,3922232,-1084138,18192120,10751950,-6015625,41308590
2026-01-14 17:25:32.071,-56787790,16814500,11808130,79489100,93408200,-52246100,5048828
2026-01-14 17:25:32.081,-56796420,16943970,11903080,79428670,83447260,-515625,6274414
2026-01-14 17:25:32.091,4463439,39930130,-10824120,18082500,6694336,-41870120,6435547
2026-01-14 17:25:32.101,-56865470,27190630,-24254140,79290560,44873050,-33691410,7265625
2026-01-14 17:25:32.111,-66938630,27550570,-24584730,69165610,40429690,-17358400,8173828
2026-01-14 17:25:32.121,-56969060,41578770,-11592340,79083410,43823240,-6311035,77734380
2026-01-14 17:25:32.131,4170825,42277940,-11928980,17770890,46313480,40893560,72314460
2026-01-14 17:25:32.141,4095730,18135150,12593610,17690620,5214844,-50933840,59814450
2026-01-14 17:25:32.151,-57124420,43874800,-12748980,78738140,6323242,-12487790,49169920
2026-01-14 17:25:32.161,-5716759,44867440,-13310040,7862595,6713867,-23046880,27075200
2026-01-14 17:25:32.171,3874759,45868720,-13862470,17445480,7158203,-43945310,16430660
2026-01-14 17:25:32.181,3793622,19309060,13163300,17353980,7182617,-5004883,54992680
2026-01-14 17:25:32.191,-57271160,48242420,-15286690,78246130,74853520,-5703125,-7720947
2026-01-14 17:25:32.201,-57314320,4951988,-1608078,78099390,76416020,-52685550,-58258060
2026-01-14 17:25:32.211,3514816,35706640,-32310950,17045830,7915039,-4501953,795,8412
2026-01-14 17:25:32.221,3399153,52532370,-18074730,16919810,60498050,-2602539,15853880
2026-01-14 17:25:32.231,-5751286,54267340,-19274530,7757289,5629883,-54740900,15722660
2026-01-14 17:25:32.241,3160920,21579190,13931520,16657410,33862300,4741211,-6561279
2026-01-14 17:25:32.251,3072012,41508000,-37903410,16556420,9442139,42944340,-52978520
2026-01-14 17:25:32.261,-66381890,22416460,14181840,68324020,2079773,19091800,-79248050
2026-01-14 17:25:32.271,2861398,44325370,-40610300,16318180,17532350,8251953,-9604492
2026-01-14 17:25:32.281,2729334,62527850,-24824700,16174030,5706787,14562990,-10351560
2026-01-14 17:25:32.291,-57832220,23599000,14639320,76476630,3829956,19335940,-11357420
2026-01-14 17:25:32.301,-57901280,65125980,-26369760,76286740,7525635,33642580,-11923830
2026-01-14 17:25:32.311,-66126400,24280900,14958700,67940780,18585200,20605470,-14648440
2026-01-14 17:25:32.321,2252868,20309470,19361710,15649230,-7312012,-103149400,-16103520
2026-01-14 17:25:32.331,2110444,68190220,-28139260,15498170,6512451,-47143560,-20117190
2026-01-14 17:25:32.341,7971266,25075010,15321220,9309348,5551758,-68359380,-22285160
2026-01-14 17:25:32.351,1779852,6955403,-2884706,15155490,91552740,-48828120,-20410160
2026-01-14 17:25:32.361,-58548650,25403020,15511120,75173260,10029300,-31298830,-20
2026-01-14 17:25:32.371,74970410,6998558,-2893341,88340870,93408200,-1784668,-18808590
2026-01-14 17:25:32.381,1323237,25489330,15631960,14697150,7290039,-11047360,-16425780
2026-01-14 17:25:32.391,11834020,25454800,15666490,145607700,5571289,2142334,-14091800
2026-01-14 17:25:32.401,-66835400,68872130,-27802620,66990080,3293457,22354130,-13242190
2026-01-14 17:25:32.411,9184100,25247640,15735540,143078600,5319214,12283330,-128125
2026-01-14 17:25:32.421,784620,20896420,19965930,14182710,-34521480,-23303220,-13574220
2026-01-14 17:25:32.431,6163016,4718153,-4310572,140230200,-6147461,-54248050,-13691410
2026-01-14 17:25:32.441,404824,45450080,-41384560,13820180,-40795900,-56396480,-10332030
2026-01-14 17:25:32.451,174360,24393110,16123970,13601790,-847168,-10986330,-72021490
2026-01-14 17:25:32.461,-47474,24073740,16253440,13392040,15783690,2397461,-36767580
2026-01-14 17:25:32.471,-2270132,39033290,-35026470,132263200,23510740,86621100,-51971440
2026-01-14 17:25:32.481,-346131,5,37117060,-33144770,13121010,34399420,14824220,24890140
2026-01-14 17:25:32.491,-387563,53326490,-14000580,13093390,3894043,19296880,56884770
2026-01-14 17:25:32.501,-66834190,51997200,-13085620,68113410,25097660,20410160,8149414
2026-01-14 17:25:32.511,-2701716,33603100,-29753380,132349500,40496820,14414060,9970703
2026-01-14 17:25:32.521,-196803,5,32808990,-28993790,13316950,-45562740,9658203,13232420
2026-01-14 17:25:32.531,-67605280,21933080,15890920,67618540,6185913,76171870,17958980
2026-01-14 17:25:32.541,-60956880,48553170,-11005380,74335980,-109939600,6508789,2125
2026-01-14 17:25:32.551,60731600,48087060,-10780960,74267790,-2626953,3215332,24589840
2026-01-14 17:25:32.561,233056,31116320,-27406430,135629500,-36791990,28979490,27167970
2026-01-14 17:25:32.571,73368,5,31194010,-27501380,13616470,-5698242,31079100,28808590
2026-01-14 17:25:32.581,-60844680,31533230,-27852690,74620830,-88378900,38452150,29375
2026-01-14 17:25:32.591,-60810150,21397920,15338490,74655360,-93652340,42626950,2953125
2026-01-14 17:25:32.601,-6077563,49355910,-12619510,7467264,-97753900,25927730,29355470
2026-01-14 17:25:32.611,194211,33774880,-30099510,13737310,-8129883,13977050,2875
2026-01-14 17:25:32.621,-60723830,5128938,-1448392,74689880,-57128900,12719730,27089840
2026-01-14 17:25:32.631,222696,5,52264780,-15407530,13760620,-29467770,18713380,24824220
2026-01-14 17:25:32.641,232190,36545650,-32853020,13768390,-8355713,2487793,22734380
2026-01-14 17:25:32.651,63322830,18852440,18142910,76855570,15159610,119628900,20058590
2026-01-14 17:25:32.661,2529080,22148870,14915530,137822000,-76660160,-17004400,17880860
2026-01-14 17:25:32.671,2710344,55329020,-18212830,137986000,-23718260,-4597168,16494140
2026-01-14 17:25:32.681,63757860,39146370,-35431300,77283700,-4086914,-7060547,15
2026-01-14 17:25:32.691,63931360,56321670,-19119170,77455470,-55322260,-88378900,12773440
2026-01-14 17:25:32.701,343540,56684210,-19447160,13864200,-57128900,-93847660,10927730
2026-01-14 17:25:32.711,378931,5,22468250,14786060,13897860,-6333008,-10048830,89746100
2026-01-14 17:25:32.721,-6041309,5721937,-1994780,7477620,-6699219,-10859380,72802740
2026-01-14 17:25:32.731,-60352660,5721934,-1994777,74819350,-5258789,-12070310,609375
2026-01-14 17:25:32.741,5265328,22476870,14760160,140437300,-4501953,-12363280,53125
2026-01-14 17:25:32.751,5869544,22442350,14760160,141041600,-5493164,-11210940,5810547
2026-01-14 17:25:32.761,-60180030,56632420,-19498950,74991980,-75,-10976560,6640625
2026-01-14 17:25:32.771,706933,5,56002300,-18920630,14225870,-77246100,-9604492,7631836
2026-01-14 17:25:32.781,793250,55285870,-18255990,14312180,-9379883,-78808590,6777344
2026-01-14 17:25:32.791,896832,22097090,14898270,14415760,-10380860,-9951172,57470700
2026-01-14 17:25:32.801,-59843400,36893500,-33195690,75328620,-12314450,-11005860,46557620
2026-01-14 17:25:32.811,-59808870,52506470,-15511120,75363140,-1140625,-10371090,7011719
2026-01-14 17:25:32.821,-59791610,5132390,-1427676,75380410,-11201170,-49975580,8276367
2026-01-14 17:25:32.831,1053926,33533190,-29823300,14569400,-9682617,22839360,71533200
2026-01-14 17:25:32.841,71791370,4930409,-1215343,85305110,-8251953,85498050,-5316162
2026-01-14 17:25:32.851,11419710,31726580,-28004610,146539900,-62939450,16757810,-11376950
2026-01-14 17:25:32.861,-59593080,47905790,-10616960,75509890,-982666,2640625,-19277340
2026-01-14 17:25:32.871,-59506770,30872040,-27132800,75544420,35888670,2234375,-20410160
2026-01-14 17:25:32.881,-59463610,47776320,-10228530,75535780,9682617,15878910,-1171875
2026-01-14 17:25:32.891,-59403180,30978210,-27199270,75527150,10839840,115625,-1875
2026-01-14 17:25:32.901,13724370,48406420,-10288960,148551100,5654297,18486330,9580078
2026-01-14 17:25:32.911,1517448,49019280,-10539270,14986320,16064450,30195310,20058590
2026-01-14 17:25:32.921,1776399,22459620,16400180,15228000,-875,33808590,25742190
2026-01-14 17:25:32.931,-67154340,50607500,-11367910,67154510,-15664060,35800780,23378910
2026-01-14 17:25:32.941,-57806320,51444780,-11739080,76260850,-23105470,29707030,17685550
2026-01-14 17:25:32.951,-57271160,34124460,-30095190,76502540,-24570310,19472660,10429690
2026-01-14 17:25:32.961,3323195,53102060,-12153400,16667770,-15361330,12275390,24780270
2026-01-14 17:25:32.971,3702126,2117694,2051404,17013890,-5205078,25097660,-41308590
2026-01-14 17:25:32.981,4056886,35872380,-31627320,17332400,4423828,-53564450,-11308590
2026-01-14 17:25:32.991,4394386,56062720,-12818040,17633650,14609380,-10283200,-17304690
2026-01-14 17:25:33.001,-64886890,57064000,-13025200,67143210,16259770,-13359380,-16884770
2026-01-14 17:25:33.011,-54345020,57797690,-12982040,77339810,19511720,-14003910,-12626950
2026-01-14 17:25:33.021,5109952,23125120,22415590,18247360,22265620,-14833980,-86279300
2026-01-14 17:25:33.031,-53732170,58401910,-12205180,77365700,22949220,-13242190,-48876950
2026-01-14 17:25:33.041,-64244690,37295740,-32620820,66628760,25371090,-92578130,-3166504
2026-01-14 17:25:33.051,-53343740,58117060,-10936330,77339800,27128910,-703125,-33251950
2026-01-14 17:25:33.061,5530313,36211600,-31460720,18586590,30039060,-83496100,-5678711
2026-01-14 17:25:33.071,5569158,2419803,2353512,18616800,31054690,-81347660,-78808590
2026-01-14 17:25:33.081,5589009,56373470,-8536728,18631470,29316410,-76220700,-8491211
2026-01-14 17:25:33.091,5597641,55613880,-7742612,18640100,26132810,-7910156,-7246094
2026-01-14 17:25:33.101,5579514,54819760,-6983024,18623700,21484380,-8569336,-46484380
2026-01-14 17:25:33.111,5559662,26904930,20845490,18609030,16503910,-88134770,-28466800
2026-01-14 17:25:33.121,5522546,53516380,-5869538,18577090,12119140,-86865230,-25
2026-01-14 17:25:33.131,-64115220,53007110,-5515635,66516550,8388672,-9682617,-28808590
2026-01-14 17:25:33.141,5418965,52748160,-5429324,18490780,5595703,-12167970,-46704100
2026-01-14 17:25:33.151,-53507750,31443460,-26734020,77296640,44482420,-16054690,-69091800
2026-01-14 17:25:33.161,-64279220,52765420,-5929957,66646020,3684082,-20058590,-1015625
2026-01-14 17:25:33.171,-53740800,2625752,2026720,77305280,17053220,-22285160,-13798830
2026-01-14 17:25:33.181,5179869,26145340,19999590,18298290,4547119,-25585940,-18730470
2026-01-14 17:25:33.191,-53991120,54543550,-8812935,77348430,-17196660,-28066410,-225
2026-01-14 17:25:33.201,-54120600,25912280,19352220,77391600,9361267,-27226560,-26699220
2026-01-14 17:25:33.211,-54258700,56382100,-11635490,77426120,-32287600,-26796880,-3015625
2026-01-14 17:25:33.221,4945948,35305760,-35301340,18135150,-2986145,-27226560,-31289060
2026-01-14 17:25:33.231,-54569440,58384650,-14811950,77529700,-15563970,-26933590,-28789060
2026-01-14 17:25:33.241,-54750710,40211520,-35919850,77572860,-5102539,-22714840,-26914060
2026-01-14 17:25:33.251,-54957870,60663400,-18402730,77590120,-79833980,-18417970,-24492190
2026-01-14 17:25:33.261,-5519094,61716470,-20111800,7758152,-8408203,-12128910,-19482420
2026-01-14 17:25:33.271,-55423980,20892970,20055700,77590120,-99072260,-90771490,-17949220
2026-01-14 17:25:33.281,4308931,62458790,-22131610,17632790,-12880860,-12363280,-14589840
2026-01-14 17:25:33.291,4168234,43936080,-39963790,17514530,-10996090,-84375,-8613281
2026-01-14 17:25:33.301,4062930,23693950,15424800,17429940,-5913086,5546875,-59814450
2026-01-14 17:25:33.311,4000781,59834770,-21302970,17388510,-6945801,21503910,-33813480
2026-01-14 17:25:33.321,10024390,59014760,-21087180,11364900,64404300,37519530,-12634280
2026-01-14 17:25:33.331,4036170,42000860,-38273710,17456700,98828130,56953120,40942380
2026-01-14 17:25:33.341,-56338940,41097040,-40731230,78021710,82714850,71914060,8178711
2026-01-14 17:25:33.351,-5628716,59877920,-24021950,7821163,15654300,78242190,13925780
2026-01-14 17:25:33.361,-56192200,60611620,-25532490,78444660,28105470,77460940,20195310
2026-01-14 17:25:33.371,454199,3,21501500,12731720,1802122,34023440,65859380,26816410
2026-01-14 17:25:33.381,4687862,6059435,-2727610,18186070,30019530,47890620,33320310
2026-01-14 17:25:33.391,4763820,44777670,-41539070,18282750,20761720,26171880,36894530
2026-01-14 17:25:33.401,-56149040,16145540,15308280,79264670,11308590,19375,45859380
2026-01-14 17:25:33.411,-56235360,55570720,-25049120,79402780,47460940,12519530,52773440
2026-01-14 17:25:33.421,4834601,18678940,10927700,18419130,-5961914,68066410,50820310
2026-01-14 17:25:33.431,-56364830,51582880,-22822150,79670350,-14501950,-87402340,44101560
2026-01-14 17:25:33.441,-56459780,17565450,10452960,79748040,-16113280,-61083980,39296880
2026-01-14 17:25:33.451,4800073,35288870,-32556090,18436400,-15273440,-14873050,33339840
2026-01-14 17:25:33.461,4731020,45204080,-18497680,18384610,-15136720,-24414060,29628910
2026-01-14 17:25:33.471,-56856840,42493730,-16374290,79834360,-10791020,-36484380,27304690
2026-01-14 17:25:33.481,-57046740,39438120,-13905620,79817090,-10947270,-46367190,22890620
2026-01-14 17:25:33.491,-57279790,36063130,-11065810,79756670,-13007810,-52929690,20820310
2026-01-14 17:25:33.501,4223478,32705410,-8208723,17942660,-15615230,-6015625,19619140
2026-01-14 17:25:33.511,-57711370,29537590,-5507004,79618560,-13505860,-64179690,178125
2026-01-14 17:25:33.521,3985244,26611450,-3081507,17732050,-10800780,-71328130,11132810
2026-01-14 17:25:33.531,3928275,13926340,-11623410,17685440,-1296875,-73671870,12158200
2026-01-14 17:25:33.541,3923959,22563200,-51789,7,17689750,-14648440,-80234380,-13662110
2026-01-14 17:25:33.551,3884254,21613710,379794,3,17660410,-6899414,-92109380,-17392580
2026-01-14 17:25:33.561,-58177480,21406550,3,01276,79670350,18908690,-88203130,-14570310
2026-01-14 17:25:33.571,-58229280,12428740,-10358870,79739410,13535160,-76367180,-14189450
2026-01-14 17:25:33.581,-58203380,13674300,-11702820,79868890,17089840,-50234380,-35800780
2026-01-14 17:25:33.591,-5812570,23624890,-5032266,8005016,18125,-25273440,-47421880
2026-01-14 17:25:33.601,4168239,103062200,71124990,17997910,23007810,-16083980,-36269530
2026-01-14 17:25:33.611,-6911554,9779686,6430598,6933652,3515625,-12851560,5566406
2026-01-14 17:25:33.621,3952443,23754370,-8873361,17816640,9555664,-36401370,33242190
2026-01-14 17:25:33.631,3665009,21199390,-7457767,17551650,-4411621,-6982422,5203125
2026-01-14 17:25:33.641,-59239180,17971140,-5161739,79817090,-26269530,21015620,72617180
2026-01-14 17:25:33.651,3113445,15286690,-3185087,17032880,-55820310,58007810,8046875
2026-01-14 17:25:33.661,3085824,13534460,-1829916,17008710,-99765620,7859375,60429690
2026-01-14 17:25:33.671,3199765,66291260,52135310,17119200,-130078100,89765620,26015620
2026-01-14 17:25:33.681,-59247810,14009200,-1355171,79825730,-1309375,9625,12607420
2026-01-14 17:25:33.691,-68409480,79756670,60939620,70491440,-98671870,105,14013670
2026-01-14 17:25:33.701,3527765,19913270,-3910149,17395410,-63867190,10984380,25546880
2026-01-14 17:25:33.711,-58721280,24021950,-5671007,79644460,-30214840,12546880,37148440
2026-01-14 17:25:33.721,9780290,19003490,-16904270,11160150,-16796880,12703130,37089840
2026-01-14 17:25:33.731,-58255170,22167000,-19782930,79230140,-14833980,1140625,28808590
2026-01-14 17:25:33.741,3702988,37159360,-10314850,17392830,-21933590,1034375,20722660
2026-01-14 17:25:33.751,3790168,41259400,-11221180,17409230,-24277340,97109380,16933590
2026-01-14 17:25:33.761,3917917,45359450,-11954870,17454110,-19443360,1003125,17001950
2026-01-14 17:25:33.771,4105223,32834020,-29141400,17543020,-91015620,100859400,15214840
2026-01-14 17:25:33.781,4334827,5352501,-1293888,17658680,6015625,9796875,96875
2026-01-14 17:25:33.791,4632620,2570512,1860989,17827000,19697270,90,-13452150
2026-01-14 17:25:33.801,-53792590,61604260,-13491310,76718320,33007810,73242190,-14296880
2026-01-14 17:25:33.811,-52756800,65566200,-13672570,76183160,41640620,45898440,-25078120
2026-01-14 17:25:33.821,-51669200,31954460,23668050,75596210,5296875,20117190,-33535160
2026-01-14 17:25:33.831,-50547090,72575120,-13396360,74974730,54960940,-94055180,-45429690
2026-01-14 17:25:33.841,-49390440,35648820,26827250,74387780,50664060,-20644530,-55859380
2026-01-14 17:25:33.851,6695592,37185260,28277370,18905960,3796875,-4390625,-73125
2026-01-14 17:25:33.861,12517400,38410950,29641170,13722900,26933590,-6953125,-975
2026-01-14 17:25:33.871,-4617947,77029060,-6870812,7304127,18027340,-9046875,-12015630
2026-01-14 17:25:33.881,7786636,39697070,31980350,19610300,27851560,-1090625,-1459375
2026-01-14 17:25:33.891,7956678,69882040,2554976,19733740,35,-128125,-16296880
2026-01-14 17:25:33.901,8011920,29943280,-22709940,19799340,56015620,-12328130,-17390620
2026-01-14 17:25:33.911,8365818,22035800,-14907770,20205020,139296900,-90390620,-17078120
2026-01-14 17:25:33.921,9081385,16087710,-9289408,21077690,1840625,-121875,-13984380
2026-01-14 17:25:33.931,-4488470,42174360,21113080,7709814,115703100,-88671870,45429690
2026-01-14 17:25:33.941,10925970,12181020,-6290764,23289980,34033200,-13125,135546900
2026-01-14 17:25:33.951,11368780,70399940,-14190470,23831190,-1115625,-101328100,18296880
2026-01-14 17:25:33.961,-44919230,-4160468,59713930,80015620,-23640620,-29042970,20328120
2026-01-14 17:25:33.971,-45419870,26904930,29701590,79342350,-1303125,-21953120,21640620
2026-01-14 17:25:33.981,15594070,10608330,46343460,16843760,-38476560,19501950,27125
2026-01-14 17:25:33.991,9884132,13862470,44763860,22312020,-903125,3765625,131796900
2026-01-14 17:25:34.001,9764150,-5823792,11784820,22155780,-80908200,-73320310,-3140625
2026-01-14 17:25:34.011,-46869990,-21159690,27177690,77184430,-328125,-140390600,-29160160
2026-01-14 17:25:34.021,7734842,21205430,-15047600,20128200,-63671880,-871875,-39472660
2026-01-14 17:25:34.031,-48708540,38644000,25005960,74603570,-12023930,-43320310,-18427730
2026-01-14 17:25:34.041,-49062440,45135020,20621070,73438290,43125,-13330080,-16591800
2026-01-14 17:25:34.051,5593324,18118830,-17443670,17763990,61992190,1116333,-40117190
2026-01-14 17:25:34.061,5279997,36632820,32196140,17386780,59921880,35703120,-5546875
2026-01-14 17:25:34.071,5052982,29038680,-22060830,17113160,44882810,86484380,-44140620
2026-01-14 17:25:34.081,-49209170,63425540,6974395,71064580,49023440,63867190,-5953125
2026-01-14 17:25:34.091,4777632,66653790,3815202,16801560,27167970,33007810,-77890620
2026-01-14 17:25:34.101,-59124380,38661260,31496980,61270220,9082031,26777340,-103671900
2026-01-14 17:25:34.111,4687863,75380420,-5757328,16753220,10244140,-57421880,-1146875
2026-01-14 17:25:34.121,-49908340,38859800,30038230,71142260,4203125,-21347660,-102265600
2026-01-14 17:25:34.131,4470346,38644000,29356320,16625470,52421880,20859380,-68671870
2026-01-14 17:25:34.141,4462575,8108594,-1403510,16667760,53789060,55898440,-31914060
2026-01-14 17:25:34.151,-60218010,37789470,28346420,62334500,43476560,709375,-12097170
2026-01-14 17:25:34.161,10010580,4927218,-4274147,11240600,3265625,71992190,7685547
2026-01-14 17:25:34.171,4516093,36701880,27828520,16855940,203125,66796880,70166020
2026-01-14 17:25:34.181,-51108150,46002500,-39623700,72670070,11181640,4984375,-107299800
2026-01-14 17:25:34.191,-51151300,35683340,27379670,72972180,-25650020,20898440,-10712890
2026-01-14 17:25:34.201,-51177200,71772370,-9365367,73239760,-7426758,-55908200,-18769530
2026-01-14 17:25:34.211,-51203090,70684780,-8899255,73507340,-71972660,-19267580,-25410160
2026-01-14 17:25:34.221,-51211720,34423120,26654610,73792180,-88183590,-27167970,-321875
2026-01-14 17:25:34.231,-51254880,40908090,-34878000,74094300,-11240230,-31484380,-33378910
2026-01-14 17:25:34.241,5254100,66584740,-7129766,17827000,-10429690,-36289060,-30351560
2026-01-14 17:25:34.251,5328334,32869420,25653340,17942660,-8574219,-40820310,-26640620
2026-01-14 17:25:34.261,-51548360,6457353,-706932,75026510,-8666992,-47773440,-27265620
2026-01-14 17:25:34.271,5438819,31790460,24626160,18142920,-75097660,-5625,-2703125
2026-01-14 17:25:34.281,-51979940,3866987,-3314561,75561670,8300781,-57929690,-23496090
2026-01-14 17:25:34.291,-5227342,6314933,-918409,8,7582063,49829100,-52578120,-15185550
2026-01-14 17:25:34.301,5322291,62786800,-10237170,18190390,93444820,-4609375,-796875
2026-01-14 17:25:34.311,-52938060,62389740,-11324760,76364420,-14038090,-37402340,-64697260
2026-01-14 17:25:34.321,5174688,39679800,-34725220,18165360,-46655270,-25566410,41625980
2026-01-14 17:25:34.331,5085782,61328050,-13249620,18133420,-88964850,-16875,12695310
2026-01-14 17:25:34.341,-53939330,60309510,-13577620,77037700,-16103520,-13476560,2109375
2026-01-14 17:25:34.351,-54275970,26404290,19170950,77167170,-18544920,-12099610,33085940
2026-01-14 17:25:34.361,4759505,57322950,-12766250,17941800,-20859380,-7305908,38398440
2026-01-14 17:25:34.371,4690452,55743350,-12101610,17907270,-178125,67285150,39570310
2026-01-14 17:25:34.381,4666284,24660700,18048830,17914180,-2390625,15224610,39902340
2026-01-14 17:25:34.391,4634346,53024380,-11195280,17911590,-26152340,32265620,47695310
2026-01-14 17:25:34.401,4647294,51651940,-10668750,17950430,-10732420,62773440,61679690
2026-01-14 17:25:34.411,-55182290,23106990,17030300,78073500,-47192380,85546870,6140625
2026-01-14 17:25:34.421,4947676,49330020,-9883266,18288790,12237550,83359380,46757810
2026-01-14 17:25:34.431,-55095980,48285580,-9373995,78453290,21425780,66445310,29003910
2026-01-14 17:25:34.441,-65700860,47543260,-9080521,68021050,45429690,6640625,24707030
2026-01-14 17:25:34.451,4795758,30474990,-26666700,18181760,540625,71914060,30898440
2026-01-14 17:25:34.461,-55605250,48371900,-10668750,78392860,48789060,63828120,36855470
2026-01-14 17:25:34.471,4628304,49554440,-12248340,18038480,35449220,51210940,44570310
2026-01-14 17:25:34.481,4613630,50788770,-13948790,18035890,19677730,428125,49414060
2026-01-14 17:25:34.491,4607587,33845230,-33481840,18041930,-4260254,29472660,49609380
2026-01-14 17:25:34.501,-55941880,52385630,-16495130,78522340,-19560550,18417970,5046875
2026-01-14 17:25:34.511,4499692,52532370,-17038930,17959930,-29550780,6533203,49023440
2026-01-14 17:25:34.521,4407332,52446060,-17297870,17879650,-26582030,-17370600,47617190
2026-01-14 17:25:34.531,4323605,52092160,-17306510,17808010,-25351560,-59716800,43632810
2026-01-14 17:25:34.541,-56485680,51513830,-17021660,78461920,-25976560,-11416020,40507810
2026-01-14 17:25:34.551,415011,6,20500230,13802050,1765351,-25585940,-15634770,37148440
2026-01-14 17:25:34.561,-5672737,49649390,-15433430,7835837,-24785160,-20566410,34023440
2026-01-14 17:25:34.571,-56813680,48527270,-14311310,78306540,-20820310,-28574220,30644530
2026-01-14 17:25:34.581,-56848200,20154960,14112790,78272020,-19296880,-35507810,28457030
2026-01-14 17:25:34.591,-56839570,46075880,-11756340,78280660,-15458980,-39101560,26738280
2026-01-14 17:25:34.601,-56779150,19921900,14363110,78341070,-10458980,-42148440,19902340
2026-01-14 17:25:34.611,4093140,43831640,-9684738,17606890,-12866210,-45585940,12089840
2026-01-14 17:25:34.621,4150109,42795840,-8994204,17670770,90185540,-4546875,8046875
2026-01-14 17:25:34.631,4221753,19153680,14112790,17754490,13378910,-4109375,42358400
2026-01-14 17:25:34.641,4291670,18765260,13810680,17839950,12412110,-39082030,-35009770
2026-01-14 17:25:34.651,-56718740,40085490,-8251877,78919410,13896480,-44179690,-4650879
2026-01-14 17:25:34.661,4308931,39092850,-8036091,17891740,13457030,-42539060,91,6481
2026-01-14 17:25:34.671,-56934520,38152000,-7941137,79100660,2487793,-44023440,7019043
2026-01-14 17:25:34.681,4227794,37349260,-8053353,17852030,-12861330,-440625,-29968260
2026-01-14 17:25:34.691,4121625,16417440,11980760,17768300,-21640620,-41054690,-40234380
2026-01-14 17:25:34.701,-67264050,35450280,-7880716,69427150,-19980470,-3109375,-3647461
2026-01-14 17:25:34.711,3910148,34552590,-7915245,17599980,-12949220,5161133,-25273440
2026-01-14 17:25:34.721,3971433,34466280,-8864728,17676810,-20253910,36796880,-71953130
2026-01-14 17:25:34.731,3844548,12578560,12574140,17562010,18886720,39770510,-42265620
2026-01-14 17:25:34.741,3700398,24198900,-21721610,17429940,44335940,29980470,91308590
2026-01-14 17:25:34.751,-58073900,35476180,-10962220,79256030,4897461,4140625,28710940
2026-01-14 17:25:34.761,3689178,35208600,-10711910,17423900,-453125,678125,18457030
2026-01-14 17:25:34.771,-58082540,24103950,-21643920,79230140,-20898440,118125,26855470
2026-01-14 17:25:34.781,10051580,35510710,-10755070,11424020,-27558590,14984380,23261720
2026-01-14 17:25:34.791,4150109,35916400,-10867280,17860660,-38925780,1434375,64941410
2026-01-14 17:25:34.801,-57158950,36149450,-10634220,79756680,-11210940,11015630,-79833980
2026-01-14 17:25:34.811,-56710100,36037240,-9883265,79981100,45996100,72578130,-17148440
2026-01-14 17:25:34.821,5141888,15640590,11238440,18785110,27421880,35878900,-25722660
2026-01-14 17:25:34.831,5456082,34336800,-6749969,19075140,3609375,7265625,-29101560
2026-01-14 17:25:34.841,-55467140,32670880,-4445310,80516260,31425780,-11015630,-28925780
2026-01-14 17:25:34.851,5950676,16029020,12748980,19530030,16015630,-26621090,-28203120
2026-01-14 17:25:34.861,6140574,28803900,492003,3,19702660,45043940,-36738280,-21601560
2026-01-14 17:25:34.871,6328743,26689140,3038348,19877020,-22106930,-44609380,-16484380
2026-01-14 17:25:34.881,-67671000,24608900,5446588,67673660,-50634770,-565625,-15683590
2026-01-14 17:25:34.891,6624810,22545930,7699454,20150640,-8325195,-6625,-15126950
2026-01-14 17:25:34.901,6756876,15169300,15058820,20277530,44213870,-69375,-14746090
2026-01-14 17:25:34.911,6912244,41205890,-38205520,20432900,8408203,-74179690,-20234380
2026-01-14 17:25:34.921,7065889,15053640,14501210,20590000,9536133,-79101560,-27011720
2026-01-14 17:25:34.931,-5367175,34319540,-5386166,8163840,14746090,-72734380,-30683590
2026-01-14 17:25:34.941,-53585440,15718280,12438250,81828280,17285160,-6296875,-32578120
2026-01-14 17:25:34.951,7464672,30892760,-3633935,21019860,17851560,-54570310,-28867190
2026-01-14 17:25:34.961,7551853,34699330,-8459042,21122570,13701170,-48164060,-21152340
2026-01-14 17:25:34.971,7638169,15614700,9572527,21226150,10898440,-41328120,-9189453
2026-01-14 17:25:34.981,-53473220,55173660,-31143080,82561970,6166992,-36875,-25854490
2026-01-14 17:25:34.991,7864318,17530930,5273953,21483370,-27416990,-3546875,-5444336
2026-01-14 17:25:35.001,7934235,18799790,2744872,21568830,-7421875,-39707030,-50683590
2026-01-14 17:25:35.011,-53447330,20077270,224425,83071230,-14433590,-39121100,-65478520
2026-01-14 17:25:35.021,7987752,20992230,-1795389,21653420,-12490230,-4953125,-35717770
2026-01-14 17:25:35.031,-66948990,21406550,-3280034,69897570,-12587890,-54414060,33129880
2026-01-14 17:25:35.041,-53939340,21328860,-4220887,83097130,-14013670,-55742190,17890620
2026-01-14 17:25:35.051,13711420,20638330,-4566157,15083850,-16572270,-50234380,25117190
2026-01-14 17:25:35.061,7273912,18929260,-3858359,21020720,-19248050,-4515625,23222660
2026-01-14 17:25:35.071,6951954,80015620,61371210,20721200,-16796880,-27558590,25761720
2026-01-14 17:25:35.081,6612727,13215090,94948,3,20404420,-10830080,-75878900,32519530
2026-01-14 17:25:35.091,6292492,10176740,2408237,20103170,-8676758,17675780,35507810
2026-01-14 17:25:35.101,-56183570,7362815,4600685,82078590,-10878910,340625,37695310
2026-01-14 17:25:35.111,-56407990,575211,3,576253,81957750,-14433590,45429690,40820310
2026-01-14 17:25:35.121,5688274,-15114060,26317980,19533480,-18066410,5578125,40117190
2026-01-14 17:25:35.131,5512189,-22934360,34034690,19364300,-29257810,6859375,453125
2026-01-14 17:25:35.141,-5697764,25290800,87438860,8157796,-4234375,74453130,4828125
2026-01-14 17:25:35.151,5242880,2865715,8907887,19098440,-53789060,725,48476560
2026-01-14 17:25:35.161,-57219370,-22200670,34768390,81319000,-546875,66953120,4984375
2026-01-14 17:25:35.171,11253890,-16469230,30141810,12638580,-50664060,66796880,50429690
2026-01-14 17:25:35.181,4942501,73973450,77253480,18777350,-534375,68867180,48164060
2026-01-14 17:25:35.191,4874311,84589800,84591020,18690170,-49257810,75976560,50429690
2026-01-14 17:25:35.201,4825970,17254720,1717702,18617660,-39199220,88046870,5015625
2026-01-14 17:25:35.211,4773315,24372390,-22238650,18532210,-33828120,10046880,48359380
2026-01-14 17:25:35.221,4716345,40906370,-38505040,18433810,-27539060,110859400,525
2026-01-14 17:25:35.231,-56770520,7046033,-4347772,79851620,-25136720,11171880,50507810
2026-01-14 17:25:35.241,4725840,91081430,-60836040,18320730,-2140625,11140630,47851560
2026-01-14 17:25:35.251,-56010930,11356690,-7978254,79092030,-22324220,11296880,45429690
2026-01-14 17:25:35.261,-55484400,30564760,7086608,78582770,-18789060,1125,47265620
2026-01-14 17:25:35.271,10910950,3469070,706933,8,12239200,-38989260,106875,48359380
2026-01-14 17:25:35.281,10961450,39006540,7069340,12275020,11386720,93671870,39980470
2026-01-14 17:25:35.291,5149658,43028900,7466399,18121340,30019530,77460940,34101560
2026-01-14 17:25:35.301,5275681,29382220,25532490,18064370,48007810,65,24121090
2026-01-14 17:25:35.311,5418966,50098240,9184102,18007400,57578120,5125,13144530
2026-01-14 17:25:35.321,-50089610,24494960,-18145500,73688610,59726560,28691410,-40942380
2026-01-14 17:25:35.331,-48924330,55242710,12256980,72695970,61015620,-27734380,-24589840
2026-01-14 17:25:35.341,-4774179,56321680,14889640,7170335,64765620,-20019530,-490625
2026-01-14 17:25:35.351,-5745414,39187800,35338070,5988485,5703125,-3484375,-7828125
2026-01-14 17:25:35.361,6626536,20960290,-13221140,18163630,48359380,-48828120,-10671880
2026-01-14 17:25:35.371,-4410785,54206920,25549760,6951953,5609375,-55507810,-1359375
2026-01-14 17:25:35.381,7503516,52748160,28579480,18736780,5265625,-56953120,-1628125
2026-01-14 17:25:35.391,-42131200,51859100,30279920,69372770,26757810,-67109380,-18203120
2026-01-14 17:25:35.401,8556579,13353200,-5118583,19669000,19501950,-82890620,-206875
2026-01-14 17:25:35.411,-41086770,10912160,-2725882,70175520,24960940,-106484400,-2109375
2026-01-14 17:25:35.421,9246248,42011220,-33947510,20446710,28066410,-12734380,-185
2026-01-14 17:25:35.431,-41544250,39291980,39290780,71772380,41015620,-123671900,-117578100
2026-01-14 17:25:35.441,9910026,-7421515,15020840,21388430,55507810,-14328130,-33515620
2026-01-14 17:25:35.451,-42062150,-25711170,32984220,74499980,28808590,-1725,23671880
2026-01-14 17:25:35.461,10696370,28277370,41052250,22535580,-47382810,-16359380,92890620
2026-01-14 17:25:35.471,-42830360,-11489020,12161770,76580210,-1340625,-940625,2025
2026-01-14 17:25:35.481,11596660,16771340,50434870,23499740,-13984380,-107734400,26203120
2026-01-14 17:25:35.491,11481850,395329,8,6402976,23338320,-19109380,-17765620,26625
2026-01-14 17:25:35.501,11188380,-466108,69277820,23010320,-13886720,-35449220,24046880
2026-01-14 17:25:35.511,11732170,30996340,37590940,23536850,-39863280,21132810,123984400
2026-01-14 17:25:35.521,-4085369,5990384,62786800,7689959,10117190,19287110,-421875
2026-01-14 17:25:35.531,-40819190,10850010,58151600,76847800,40703120,-58867190,-671875
2026-01-14 17:25:35.541,11389490,-16950880,23963250,23137200,-101867700,-6796875,-571875
2026-01-14 17:25:35.551,-42157100,20957700,50478040,75043780,-20605470,-6542969,-2359375
2026-01-14 17:25:35.561,-42744050,29226850,43728070,73990710,-15712890,-14365230,9897461
2026-01-14 17:25:35.571,8947593,3736306,3735270,20555470,-16367190,23671880,20917970
2026-01-14 17:25:35.581,-43598590,46990830,29554850,71634270,-4658203,59882810,18212890
2026-01-14 17:25:35.591,7670968,5562251,2264951,19104480,27988280,113515600,29174800
2026-01-14 17:25:35.601,7234207,27976980,-20015130,18591770,25703120,144375,-21523440
2026-01-14 17:25:35.611,-55197830,69286450,11454230,57704470,46757810,11578130,-59140620
2026-01-14 17:25:35.621,-43987010,72221220,9037364,68621820,70351560,965625,-9796875
2026-01-14 17:25:35.631,6624811,43909330,37297460,17889150,41640620,56640620,-1109375
2026-01-14 17:25:35.641,6648116,74439560,6421968,17934900,30878910,12841800,-106484400
2026-01-14 17:25:35.651,6691273,39232690,-31201780,18012580,8774414,-19873050,-76210940
2026-01-14 17:25:35.661,6750830,40585270,-32611330,18108390,-51953120,-19121090,-51445310
2026-01-14 17:25:35.671,-44513540,77167170,1898971,69493610,31030270,-11064450,-4375
2026-01-14 17:25:35.681,6869088,77124020,1165276,18318140,12285160,5942383,-42265620
2026-01-14 17:25:35.691,-56190470,76122740,1372443,58748900,9838867,54541020,-29394530
2026-01-14 17:25:35.701,7273914,41941300,34777020,18811010,14052730,-115600600,-23984380
2026-01-14 17:25:35.711,-44617130,7154792,439354,3,71185420,13964840,5410156,-14707030
2026-01-14 17:25:35.721,7646802,68794450,6473755,19266770,17109380,26914060,1427002
2026-01-14 17:25:35.731,-44668920,66696940,8001567,71841430,203125,38300780,10722660
2026-01-14 17:25:35.741,-44694810,31936330,-24514820,72091740,19013670,28632810,9194336
2026-01-14 17:25:35.751,-4471207,3962801,3410375,7233343,16533200,13925780,640625
2026-01-14 17:25:35.761,-44720700,39343170,33836170,72601020,12080080,48120120,59228520
2026-01-14 17:25:35.771,8239799,39049700,33490900,20003040,24646000,-87939460,24975590
2026-01-14 17:25:35.781,8421061,6396933,786345,5,20218830,17163090,-20371090,-79589840
2026-01-14 17:25:35.791,13926780,31692050,-24586460,15110180,31835940,-2703125,-18701170
2026-01-14 17:25:35.801,8736117,6291626,732828,8,20611580,7529297,-30058590,-24511720
2026-01-14 17:25:35.811,8817258,37426940,31971720,20737600,11201170,-24609380,-22011720
2026-01-14 17:25:35.821,-44971020,30185820,-23330550,74681250,12441410,-18876950,-16279300
2026-01-14 17:25:35.831,-45152290,60188660,7535457,74966090,11777340,-12675780,-10078130
2026-01-14 17:25:35.841,-45333550,29325250,-22637430,75233670,9404297,-64941410,-33544920
2026-01-14 17:25:35.851,-45532080,58902540,7112503,75501260,48535160,-3059082,9651184
2026-01-14 17:25:35.861,-45730620,58531380,6568709,75768840,-51345820,-6616211,-9208679
2026-01-14 17:25:35.871,-45963660,29364090,-22943850,76001890,-18518070,-12119140,70251460
2026-01-14 17:25:35.881,-4623126,29317480,-22990470,7623496,5343628,-10888670,19116210
2026-01-14 17:25:35.891,-59974600,29443500,-23209710,62974970,44921880,-7919922,-57800290
2026-01-14 17:25:35.901,-46688730,57184840,4186365,76726950,5517578,-96435540,-36547850
2026-01-14 17:25:35.911,-46913150,57046740,3357723,76968640,81640620,-1140625,-58447260
2026-01-14 17:25:35.921,-47137580,32446460,26973980,77210330,92626950,-93066410,-8828125
2026-01-14 17:25:35.931,8805172,32032140,26421560,21284850,75097660,-89990230,-13349610
2026-01-14 17:25:35.941,8774096,31791320,-26040900,21298660,6660156,-12822270,-14716800
2026-01-14 17:25:35.951,-4782810,28594150,27995110,7783182,27001950,-13447270,-11914060
2026-01-14 17:25:35.961,8620452,58850750,-3124666,21227880,17199710,-12255860,-7470703
2026-01-14 17:25:35.971,8522916,59800240,-4937320,21170050,-48632810,-88916020,-44140620
2026-01-14 17:25:35.981,-4866539,60922360,-6922604,7820300,-10439450,-10644530,-26000980
2026-01-14 17:25:35.991,8328704,26914420,26204900,21053520,-94140620,-12792970,-36328120
2026-01-14 17:25:36.001,-49226440,62786800,-10582430,78436020,-2998047,-19970700,-49926760
2026-01-14 17:25:36.011,8079246,62985330,-11764970,20888650,4194336,-14277340,-25805660
2026-01-14 17:25:36.021,-49882440,62993960,-12792140,78660450,80078130,-11914060,-6088867
2026-01-14 17:25:36.031,7808212,62622800,-13508570,20710840,12402340,-9663086,-45825200
