Timestamp,Rotation X,Rotation Y,Rotation Z,Rotation W,Acceleration X,Acceleration Y,Acceleration Z
2026-01-14 17:25:22.351,405686,3116901,-6792265,-66161780,-52886960,-9710693,28121950
2026-01-14 17:25:22.361,422950,3116901,-6792265,-66179050,-53619380,-97717290,56549070
2026-01-14 17:25:22.371,431582,-13414480,-23321920,-66187680,-29144290,-87402340,35491940
2026-01-14 17:25:22.381,-29546220,-13414480,-23321920,-36209880,-2659607,-725708,3439331
2026-01-14 17:25:22.391,448844,31168980,-67888120,-66204940,-33477780,-925293,45532230
2026-01-14 17:25:22.401,457476,31168980,-67888120,-66213570,-33447270,-8581543,38513180
2026-01-14 17:25:22.411,466106,-13407580,-23311560,-66222210,-30212400,-10772710,4864502
2026-01-14 17:25:22.421,-29542770,-13407580,-23311560,-36213330,-13055800,-13513180,33935550
2026-01-14 17:25:22.431,483370,-13408440,-23310700,-66239470,8804321,-15222170,64582820
2026-01-14 17:25:22.441,483370,-13408440,-23310700,-66239470,-72898860,-1262207,56762700
2026-01-14 17:25:22.451,492002,31143090,-67862220,-66248100,15459060,-12017820,6335449
2026-01-14 17:25:22.461,-29540180,-13418800,-23317600,-36215920,15106200,-7269287,3439331
2026-01-14 17:25:22.471,-29531550,-13418800,-23317600,-36207280,3503418,-53741460,-9155273
2026-01-14 17:25:22.481,517900,3110859,-6786223,-66256730,40222170,-3427124,-8544922
2026-01-14 17:25:22.491,526530,31091300,-67862220,-66265360,27359010,-9423828,11787420
2026-01-14 17:25:22.501,-29528960,31074030,-67862220,-36209870,-1468,658,-11706540,20263670
2026-01-14 17:25:22.511,543794,3105680,-6786223,-66282620,-64964300,-1463623,17822270
2026-01-14 17:25:22.521,543792,3104816,-6785359,-66299890,-12466430,-19897460,-54512020
2026-01-14 17:25:22.531,543790,31030870,-67853580,-66299890,11558530,-19458010,-3463745
2026-01-14 17:25:22.541,30124540,31030870,-67853590,-36701880,8182,525,-19519040,-47943120
2026-01-14 17:25:22.551,517896,31030870,-67853580,-66308520,21652220,-14672850,-60577390
2026-01-14 17:25:22.561,-29554860,31030870,-67853580,-36235760,42053220,-112854000,-53985600
2026-01-14 17:25:22.571,500634,-13474900,-23365080,-66291260,6286621,-103881800,-54748540
2026-01-14 17:25:22.581,500634,-13474900,-23365080,-66291260,6185913,-7702637,-4473877
2026-01-14 17:25:22.591,500634,-13483540,-23373710,-66291260,44525140,-9210205,-11054990
2026-01-14 17:25:22.601,51787,31013600,-67870860,-6629125,5621338,-9088135,110321000
2026-01-14 17:25:22.611,51787,75,47598500,-51285950,-6629124,6982422,-9674072,3668213
2026-01-14 17:25:22.621,30124540,-13502530,-23389250,-36701880,44677740,-9454346,4522705
2026-01-14 17:25:22.631,30124540,-13512020,-23397020,-36701880,3744507,-9185791,25817870
2026-01-14 17:25:22.641,30124540,-13529290,-23414280,-36701880,18081660,-107666000,10818480
2026-01-14 17:25:22.651,517896,30935920,-67896750,-66308520,11192320,-12646480,-1399231
2026-01-14 17:25:22.661,-29554860,30910030,-67905380,-36235760,1713562,-1328125,-15060430
2026-01-14 17:25:22.671,492002,30892770,-67922640,-66299890,30975340,-12011720,-13175960
2026-01-14 17:25:22.681,492002,47555350,-51260060,-66299890,11039730,-94177250,-3842163
2026-01-14 17:25:22.691,46608,30875500,-67939900,-6629125,56671140,-7623291,-7336426
2026-01-14 17:25:22.701,30078790,30875500,-67957180,-36661310,7421875,-6390381,-61187740
2026-01-14 17:25:22.711,457476,47561390,-51271280,-66265360,59692380,-55023190,-6713867
2026-01-14 17:25:22.721,457476,30858240,-67974430,-66265360,5947876,-66223140,-3668213
2026-01-14 17:25:22.731,466108,30858240,-67974430,-66256730,40496820,-6652832,-26412960
2026-01-14 17:25:22.741,466108,30849610,-67983060,-66256730,24414060,-9185791,-34885410
2026-01-14 17:25:22.751,30081380,47558800,-51273870,-36658720,-19805910,-97717290,-4173279
2026-01-14 17:25:22.761,30081380,47550170,-51265240,-36658720,-19515990,-10418700,-36102300
2026-01-14 17:25:22.771,49197,5,30823710,-67991700,-6626535,-3955078,-8856201,-26565550
2026-01-14 17:25:22.781,49197,5,30823710,-67991700,-6626535,-27450560,-7348633,-29937740
2026-01-14 17:25:22.791,30081380,30815080,-68000330,-36658720,-46691900,-6762695,-42510980
2026-01-14 17:25:22.801,30081380,30806450,-68008960,-36658720,-49865720,-72021490,-1914978
2026-01-14 17:25:22.811,30072750,47546720,-51268690,-36650080,-33447270,-6695557,-27709960
2026-01-14 17:25:22.821,30072750,30789180,-68026220,-36650090,-27786260,-8544922,5584717
2026-01-14 17:25:22.831,46608,30789180,-68026220,-6623946,-2444458,-6982422,-3277588
2026-01-14 17:25:22.841,30055490,30797820,-68034860,-36632820,-2468872,-6488037,-6097412
2026-01-14 17:25:22.851,448844,30797820,-68034860,-66239470,-46813960,-50689700,-31585690
2026-01-14 17:25:22.861,440214,30789190,-68043490,-66230840,-72265620,-5267334,-38513180
2026-01-14 17:25:22.871,440214,30780560,-68034860,-66230840,-84106450,-58258060,-30822750
2026-01-14 17:25:22.881,431582,47544130,-51271280,-66239470,-7897949,-55511480,10597230
2026-01-14 17:25:22.891,422950,47544130,-51271280,-66230840,-10119630,-83496100,236969
2026-01-14 17:25:22.901,30035640,-13713140,-23592960,-36618160,-115234400,-8282471,4626465
2026-01-14 17:25:22.911,-29589380,-13721770,-23601590,-36253030,-105896000,-9765625,4837036
2026-01-14 17:25:22.921,379796,3072016,-6806076,-66239470,-10437010,-62683100,33569340
2026-01-14 17:25:22.931,35389,-13739900,-23617990,-6623084,-1083374,-6524658,-9971619
2026-01-14 17:25:22.941,328002,30694240,-68069380,-66239460,-11505130,-58624270,-49438480
2026-01-14 17:25:22.951,29977800,-13767520,-23642160,-36572400,-105651900,-8770752,30841830
2026-01-14 17:25:22.961,284844,-13776150,-23650790,-66248100,-1071167,-95581060,1626587
2026-01-14 17:25:22.971,29949320,-13794280,-23667190,-36549100,-10595700,-9301758,3036499
2026-01-14 17:25:22.981,224420,30616560,-68095280,-66256730,-12017820,-84106450,15853880
2026-01-14 17:25:22.991,-29718860,-13814130,-23681860,-36365240,-8618164,-66833500,24536130
2026-01-14 17:25:23.001,29917380,30564760,-68095280,-36529240,-113220200,-6976318,3857422
2026-01-14 17:25:23.011,138106,-13842610,-23705170,-66291260,-8581543,-83496100,1902771
2026-01-14 17:25:23.021,-29781870,-13860740,-23721570,-36423080,-7110596,-6008911,3137207
2026-01-14 17:25:23.031,29885440,3047846,-6809529,-36509390,-6945801,-5947876,31555180
2026-01-14 17:25:23.041,60418,30443920,-68095280,-66334410,-3265381,-5545044,33359530
2026-01-14 17:25:23.051,25894,3040942,-6809528,-66351680,-4171753,-48187260,-15670780
2026-01-14 17:25:23.061,29871630,30383490,-68086640,-36505940,-15525820,-390625,-32440190
2026-01-14 17:25:23.071,0,-18367940,-19352470,-66377580,-17471310,-6088257,-23223880
2026-01-14 17:25:23.081,-8630,3034900,-6808665,-66386210,73013300,-59326170,-30914310
2026-01-14 17:25:23.091,29876810,-13966050,-23806160,-36518020,54016110,-62438960,81,24113
2026-01-14 17:25:23.101,-0,25,3029718,-6808664,-6641211,1977539,-8441162,25604250
2026-01-14 17:25:23.111,-3,30271280,-68095280,-6641209,4559326,-8831787,32806400
2026-01-14 17:25:23.121,-29894080,-14003160,-23838090,-36535290,30517580,-86120610,19195560
2026-01-14 17:25:23.131,-8632,3022815,-6808665,-66438000,20885470,-9613037,1033783
2026-01-14 17:25:23.141,29891490,30202230,-68095280,-36537880,1939392,-9362793,12788770
2026-01-14 17:25:23.151,-25896,-14049770,-23877800,-66455260,5493164,-7611084,9246826
2026-01-14 17:25:23.161,-29928610,-14059270,-23885570,-36569820,5001831,-8190918,-23651120
2026-01-14 17:25:23.171,29871630,47223890,-51021830,-36523200,8270264,-8679199,-53344730
2026-01-14 17:25:23.181,29871630,30124550,-68121180,-36523200,77941900,-8062744,-46325680
2026-01-14 17:25:23.191,29871630,3009867,-6812983,-36523200,11224370,-6616211,-18554690
2026-01-14 17:25:23.201,29871630,-14112790,-23935630,-36523200,105407700,-7952881,-55236820
2026-01-14 17:25:23.211,29871630,-18541780,-19523900,-36523200,92041020,-11010740,-5670166
2026-01-14 17:25:23.221,-51792,-1413088,-2395203,-66446630,99975580,-11883550,-3491211
2026-01-14 17:25:23.231,-29919970,-18559050,-19541160,-36561180,10699460,-10089110,-70152280
2026-01-14 17:25:23.241,-29919970,-18567680,-19549790,-36561180,10876470,-6317139,-20187380
2026-01-14 17:25:23.251,29874220,-14155940,-23978790,-36520610,8483887,-5368042,-4107666
2026-01-14 17:25:23.261,29874220,3003825,-6819025,-36520610,108947800,-3390503,-49804690
2026-01-14 17:25:23.271,-25898,-18593570,-19575690,-66420740,9686279,-33111570,-5343628
2026-01-14 17:25:23.281,-25898,-18602200,-19584320,-66420740,89416500,-46539310,-4776001
2026-01-14 17:25:23.291,-25898,-18619470,-19601580,-66420740,569458,-6149292,-83618160
2026-01-14 17:25:23.301,-34528,-18628100,-19610210,-66412100,46905520,-6222534,-87402340
2026-01-14 17:25:23.311,-43160,-1421720,-2403835,-66403470,38238520,-8917236,-11987310
2026-01-14 17:25:23.321,-43160,-18645360,-19627480,-66403470,56427000,-10272220,-14416500
2026-01-14 17:25:23.331,-29906160,-18654000,-19636110,-36540470,55236820,-89782710,-1439209
2026-01-14 17:25:23.341,-51792,-14233630,-24056480,-66377580,47210690,-62438960,-15588380
2026-01-14 17:25:23.351,-60424,29969180,-68276540,-66368940,5227661,-68115230,-14758300
2026-01-14 17:25:23.361,-3287461,-14231910,-24058200,-3353752,43945310,-39031980,-16101070
2026-01-14 17:25:23.371,-60422,-14231040,-24059070,-66334420,21270750,-20706180,-13879400
2026-01-14 17:25:23.381,-51792,30012330,-68285170,-66325780,-5317688,-27496340,-1373291
2026-01-14 17:25:23.391,-60422,3003826,-6829381,-66317150,-25604250,-4196167,-13928220
2026-01-14 17:25:23.401,-51790,3003826,-6829381,-66308520,-7763672,-23880000,-15014650
2026-01-14 17:25:23.411,-51792,-14201690,-24036620,-66308520,-1126709,-30181880,-17456060
2026-01-14 17:25:23.421,-29868190,30064120,-68302430,-36492120,-10839840,62,46567,-2043457
2026-01-14 17:25:23.431,-69054,30064130,-68302430,-66291260,-11065670,-36144260,-2088623
2026-01-14 17:25:23.441,-77688,-14199960,-24038350,-66282620,-12158200,188,7083,-24414060
2026-01-14 17:25:23.451,-86316,-14199960,-24038350,-66274000,-12927250,-7663727,-25048830
2026-01-14 17:25:23.461,-29880270,-14190470,-24030580,-36497310,-13500980,-13412480,-2626953
2026-01-14 17:25:23.471,-29880270,30115910,-68302440,-36497300,-1381836,18310550,-29516600
2026-01-14 17:25:23.481,-120842,3014184,-6829381,-66273990,-14672850,24429320,-31640620
2026-01-14 17:25:23.491,-120844,-14136950,-23980520,-66273990,-15783690,10217290,-3215332
2026-01-14 17:25:23.501,-120842,-18540570,-19525110,-66273990,-16760250,13635250,-32617190
2026-01-14 17:25:23.511,-29888900,30236750,-68233380,-36505940,-16223150,17114260,-31762700
2026-01-14 17:25:23.521,-103578,30279920,-68207490,-66291260,-18457030,15258790,-29101560
2026-01-14 17:25:23.531,-86314,3032310,-6818160,-66308520,-15319820,12927250,-22497560
2026-01-14 17:25:23.541,-69054,-13951370,-23803570,-66325780,-14428710,10418700,-19421390
2026-01-14 17:25:23.551,-33155640,-13908220,-23760410,-33221930,-1307373,6567383,-14221190
2026-01-14 17:25:23.561,-25896,49081780,-49457420,-66351680,-13391110,19073490,-13000490
2026-01-14 17:25:23.571,-29880270,-13802910,-23658560,-36514570,-1274414,43144220,-10949710
2026-01-14 17:25:23.581,29859550,-13758890,-23616260,-36500760,-11663820,-6237793,-41534420
2026-01-14 17:25:23.591,29868180,47431920,-51159070,-36509390,-83618160,-11645510,-13694760
2026-01-14 17:25:23.601,-34530,-13662210,-23523040,-66412100,-7293701,-1739502,32226560
2026-01-14 17:25:23.611,29865590,-13626820,-23489380,-36511980,-76538090,-12854000,10571290
2026-01-14 17:25:23.621,29863000,3078920,-6783635,-36514570,-7470703,-12097170,10723880
2026-01-14 17:25:23.631,-94948,3082374,-6780180,-66455260,-7312012,-77697750,13134770
2026-01-14 17:25:23.641,29833660,30849610,-67793170,-36492130,-45654300,-57128900,2265625
2026-01-14 17:25:23.651,-33293750,-13523240,-23385790,-33360040,77209470,-10095220,3005371
2026-01-14 17:25:23.661,29793080,-13514610,-23377170,-36463640,24276730,-13256840,36694340
2026-01-14 17:25:23.671,-276212,3086690,-6774139,-66498420,4486084,-78186030,42456060
2026-01-14 17:25:23.681,-30113320,-13498210,-23359040,-36730360,53710940,-5392456,43408200
2026-01-14 17:25:23.691,29704180,30866870,-67724120,-36397180,54504400,-8404541,3486328
2026-01-14 17:25:23.701,-45750,5,30875500,-67715490,-6652430,15159610,-16088870,32836910
2026-01-14 17:25:23.711,-509270,30875500,-67715480,-66524310,44036860,-20263670,3334961
2026-01-14 17:25:23.721,-543798,30884130,-67706850,-66524310,49072260,-15930180,42407230
2026-01-14 17:25:23.731,29609230,-13480950,-23341780,-36319500,26855470,-12390140,49926760
2026-01-14 17:25:23.741,-604218,-13480950,-23341770,-66515680,-36071780,-1282959,52734380
2026-01-14 17:25:23.751,-30266100,-13480080,-23342640,-36853800,-647583,-13891600,5957031
2026-01-14 17:25:23.761,-638744,-13488710,-23351270,-66498420,-1126709,-8843994,6689453
2026-01-14 17:25:23.771,-67327,25,3086687,-6774138,-6649842,-20874020,-93444820,7060547
2026-01-14 17:25:23.781,-690538,47449180,-51141800,-66498420,-30859380,-103881800,6816406
2026-01-14 17:25:23.791,-72506,25,3078919,-6776728,-6649842,-38720700,-14501950,6870117
2026-01-14 17:25:23.801,-776854,-13606100,-23458300,-66515680,-43652340,-16833500,66503900
2026-01-14 17:25:23.811,-82001,75,-18091730,-19076260,-6652432,-5239258,-17358400,62890620
2026-01-14 17:25:23.821,-30432700,-13725230,-23563610,-36997940,-6308594,-2064209,50439450
2026-01-14 17:25:23.831,-958114,30443920,-67853580,-66576100,-8232422,-1640625,37963870
2026-01-14 17:25:23.841,-1027170,48909140,-49284790,-66610630,-9550781,-12915040,2355957
2026-01-14 17:25:23.851,29387400,-13947060,-23756100,-36161540,-10693360,-10241700,6933594
2026-01-14 17:25:23.861,-1182542,47083200,-50869040,-66696940,-11103520,-3326416,-38391110
2026-01-14 17:25:23.871,-1251592,2989152,-6792265,-66748740,-12734380,7678223,-19189450
2026-01-14 17:25:23.881,-133793,8,29736120,-67922650,-6681778,-14970700,17858890,-3557129
2026-01-14 17:25:23.891,-30881540,46826830,-50659300,-37429530,-16806640,25830080,-5966797
2026-01-14 17:25:23.901,-1484654,46734480,-50579020,-66981790,-178125,36083980,-8066406
2026-01-14 17:25:23.911,-1545072,29304540,-67836340,-67094000,-19423830,47924800,-10253910
2026-01-14 17:25:23.921,29377900,-14453740,-24147110,-36257350,-21308590,53222660,-13105470
2026-01-14 17:25:23.931,-1596862,29054220,-67689580,-67335700,-24023440,7338867,-15371090
2026-01-14 17:25:23.941,-1579596,28959270,-67594640,-67473800,-26386720,10332030,-17255860
2026-01-14 17:25:23.951,-153645,8,46259740,-50121540,-6760326,-2921875,9975586,-2015625
2026-01-14 17:25:23.961,-1476020,28821160,-67387480,-67750020,-28125,15986330,-18427730
2026-01-14 17:25:23.971,-31339020,-14430430,-24032310,-37990590,-29707030,14433590,-20605470
2026-01-14 17:25:23.981,29924290,28743480,-67050850,-36867600,-2984375,13886720,-2046875
2026-01-14 17:25:23.991,-1251596,45877360,-49692550,-68319700,-30449220,14580080,-20566410
2026-01-14 17:25:24.001,-1182536,-14206870,-23737970,-68561390,-31933590,16738280,-20742190
2026-01-14 17:25:24.011,-31582440,28665790,-66386200,-38351390,-33339840,19150390,-20371090
2026-01-14 17:25:24.021,-1087596,28648530,-66109990,-69087920,-33808590,21308590,-20371090
2026-01-14 17:25:24.031,-1070328,-13862460,-23305520,-69381400,-34414060,23886720,-19589840
2026-01-14 17:25:24.041,-107033,5,-13715730,-23124250,-6969215,-33261720,25917970,-1796875
2026-01-14 17:25:24.051,-1096228,28614010,-65091460,-70046040,-31621090,2875,-15966800
2026-01-14 17:25:24.061,-116530,5,28605370,-64685770,-7042582,-30214840,30859380,-14003910
2026-01-14 17:25:24.071,-1268856,-1736034,-1828845,-70857420,-29257810,321875,-12841800
2026-01-14 17:25:24.081,31303630,-12969090,-22196350,-38578410,-2828125,33007810,-1046875
2026-01-14 17:25:24.091,31404620,28510420,-63157960,-38753620,-26894530,33085940,-7783203
2026-01-14 17:25:24.101,-1976656,-12496940,-21598180,-72376590,-25175780,3265625,-51416020
2026-01-14 17:25:24.111,-2382344,-12241440,-21266720,-72954910,-22519530,31835940,-22192380
2026-01-14 17:25:24.121,31522880,-11979900,-20924040,-39170540,-20917970,30957030,-2671814
2026-01-14 17:25:24.131,-38885690,28130630,-60413090,-38885700,-18535160,30351560,19848630
2026-01-14 17:25:24.141,31352830,-11452500,-20208480,-39271530,-16660160,31367190,3857422
2026-01-14 17:25:24.151,-36849480,-11192690,-19846810,-43891200,-13457030,321875,56884770
2026-01-14 17:25:24.161,-616304,27517780,-57935800,-7623494,-8852539,32480470,734375
2026-01-14 17:25:24.171,30603600,-10691190,-19122610,-39019490,-34204100,32539060,72314460
2026-01-14 17:25:24.181,-39560690,26948090,-56174940,-46462580,8532715,31542970,61621100
2026-01-14 17:25:24.191,-984876,3,26628720,-55268610,-7812527,5136719,30390620,59814450
2026-01-14 17:25:24.201,29180240,-10003250,-18066960,-38181350,92285150,29199220,66552740
2026-01-14 17:25:24.211,28531140,-9784002,-17716510,-37742860,14482420,26054690,78466800
2026-01-14 17:25:24.221,-43924000,-9565619,-17365200,-50420200,20859380,21582030,89160160
2026-01-14 17:25:24.231,26871260,25126810,-51487940,-36537010,265625,16425780,9213867
2026-01-14 17:25:24.241,-46449630,24712490,-50503930,-52607470,30839840,10712890,89404300
2026-01-14 17:25:24.251,-2101815,24332690,-49485390,-8050762,35078120,54785160,89501950
2026-01-14 17:25:24.261,23343500,23970160,-48466850,-33746400,36738280,17102050,7949219
2026-01-14 17:25:24.271,-26041760,-8338194,-15450700,-80455840,34140620,5731,583,45996100
2026-01-14 17:25:24.281,20267170,33806820,-36109740,-31160340,32382810,-2565918,19238280
2026-01-14 17:25:24.291,-53223770,23305520,-45523450,-58038520,32597660,-37524420,21325680
2026-01-14 17:25:24.301,16611660,32855610,-34989360,-27962310,35390620,-6958008,66101070
2026-01-14 17:25:24.311,-37470100,-6853546,-13551730,-78159810,36328120,-9760742,-4050293
2026-01-14 17:25:24.321,-40542980,32131410,-34073530,-77072220,38457030,-13681640,-6821289
2026-01-14 17:25:24.331,10065390,23547210,-41949940,-22009910,40078120,-159375,-11816410
2026-01-14 17:25:24.341,7616586,-54396820,-119272500,-19728560,42617190,-16210940,-15888670
2026-01-14 17:25:24.351,5048661,-49148750,-113472000,-17307370,45429690,-16123050,-14316410
2026-01-14 17:25:24.361,2387518,-72424060,-78802860,-14772250,4515625,-15400390,-18466800
2026-01-14 17:25:24.371,-365122,30948870,-32338570,-12121460,44414060,-12363280,-22753910
2026-01-14 17:25:24.381,-31652350,25083650,-37737680,-93973040,44921880,-76660160,-21914060
2026-01-14 17:25:24.391,24767720,-25610180,-87982660,-37380330,45351560,-46606440,-20175780
2026-01-14 17:25:24.401,-8804310,25938180,-36002710,-3832463,43710940,-6689453,-19150390
2026-01-14 17:25:24.411,-11615650,-1308561,-7461219,-1015948,41171880,49975580,-19482420
2026-01-14 17:25:24.421,-87695220,-6801762,-67948540,75098150,38847660,9716797,-18203120
2026-01-14 17:25:24.431,-63770810,-27860450,-33942330,-61578360,38164060,13203130,-16201170
2026-01-14 17:25:24.441,-19971970,567100,8,-5487155,7528546,36230470,15585940,-10273440
2026-01-14 17:25:24.451,-22615850,-15370420,-21400510,10288090,33222660,13603520,-28295900
2026-01-14 17:25:24.461,-25162190,-9166839,-15174480,12972540,27382810,11289060,19152830
2026-01-14 17:25:24.471,-27578200,23996060,-35907770,15545650,24921880,77001950,66748050
2026-01-14 17:25:24.481,-24528540,29903570,-29896670,23342720,23769530,30859380,7421875
2026-01-14 17:25:24.491,-84512720,9804720,3833331,-32222040,22792970,-32318120,1203125
2026-01-14 17:25:24.501,-85617580,43115220,-16529650,-29200960,2265625,-7709961,12705080
2026-01-14 17:25:24.511,-35756710,49416330,-10228530,24475120,20585940,-75,16367190
2026-01-14 17:25:24.521,-8727486,55657030,-4039622,-2348676,24570310,-10664060,14990230
2026-01-14 17:25:24.531,-87887710,34667390,28689100,-20819600,26386720,-15683590,1390625
2026-01-14 17:25:24.541,-88353820,67171700,7233348,-18264620,2890625,-19169920,8208008
2026-01-14 17:25:24.551,-41668550,45131570,39113570,31217320,26210940,-18330080,8100586
2026-01-14 17:25:24.561,-42817420,34932380,-25558390,32571620,22851560,-24570310,18896480
2026-01-14 17:25:24.571,-8902708,81905950,20983600,-1141104,16269530,-24667970,39013670
2026-01-14 17:25:24.581,-89001200,36347980,-25144060,-9417155,17246090,-23710940,-23413090
2026-01-14 17:25:24.591,-45487200,37116200,-25031850,35840440,2078125,-25078120,-13745120
2026-01-14 17:25:24.601,-51411110,96010120,33119740,-43122980,26875,-22304690,-6977539
2026-01-14 17:25:24.611,-50547090,38695800,-25005960,-42122570,33378910,-18857420,-859375
2026-01-14 17:25:24.621,-88129390,39498540,-25083640,-2675819,390625,-19179690,-71728510
2026-01-14 17:25:24.631,-8777550,40275390,-25221750,-119978,6,38300780,-19238280,-59228520
2026-01-14 17:25:24.641,-8736981,11108970,4462575,25895,64,37695310,-18867190,-44921880
2026-01-14 17:25:24.651,-47045220,41734150,-25765550,-38183940,35644530,-21464840,-5126953
2026-01-14 17:25:24.661,-4611987,84651700,77796420,-3715846,37519530,-19042970,-70947260
2026-01-14 17:25:24.671,-85919680,116648400,47008100,4712898,45039060,-16708980,-62646480
2026-01-14 17:25:24.681,-8537588,117114600,46369350,634433,6,5015625,-11201170,-1138916
2026-01-14 17:25:24.691,-43000410,44012910,-27837150,-33717910,52421880,-7890625,7011719
2026-01-14 17:25:24.701,-50714540,11579390,4285628,43284400,50390620,-55566410,11552730
2026-01-14 17:25:24.711,-40650870,11415390,4018046,-31130140,53320310,-30444340,13818360
2026-01-14 17:25:24.721,-8280367,44927860,-30046860,1366396,56914060,-43603520,20683590
2026-01-14 17:25:24.731,-82078590,10906980,3318020,15701020,66953120,-14904790,23554690
2026-01-14 17:25:24.741,-8131902,45057340,-31660980,1782443,79804690,18579100,303125
2026-01-14 17:25:24.751,-8050760,65937360,58186120,2003414,875,4663086,3703125
2026-01-14 17:25:24.761,-33704960,9532823,1705621,-23505780,96328130,29003910,4265625
2026-01-14 17:25:24.771,-78591390,8870770,969340,5,24833330,10421880,68115230,50585940
2026-01-14 17:25:24.781,-3027387,8114637,137243,8,-1978984,114921900,10957030,64296880
2026-01-14 17:25:24.791,-28413750,72885860,-7630398,-17800240,11875,86083980,75507810
2026-01-14 17:25:24.801,-7480208,27801760,19672450,3247237,117890600,73535150,915625
2026-01-14 17:25:24.811,-24647750,18865390,10654940,-13832260,1125,89160160,95703130
2026-01-14 17:25:24.821,-71720580,47551890,-35467540,37055780,11375,10214840,104453100
2026-01-14 17:25:24.831,-20931810,18722100,-65333140,-10021370,122109400,13603520,120859400
2026-01-14 17:25:24.841,-19083770,31790460,-53542280,-8175057,12984380,5800781,12546880
2026-01-14 17:25:24.851,-17189980,-15335900,-24024540,-6322703,124140600,22583010,1340625
2026-01-14 17:25:24.861,-15166720,-24470800,-33361420,-4392660,120,-7421875,1365625
2026-01-14 17:25:24.871,-12945790,41915410,-49580340,-2332277,1046875,-30722660,145546900
2026-01-14 17:25:24.881,-10529780,29348,-9437873,-156232,8,65585940,-6046875,1546875
2026-01-14 17:25:24.891,-50501340,-4626584,-103096700,49902300,12304690,-106484400,151796900
2026-01-14 17:25:24.901,-11796910,-611122,5,-10886270,-2186403,-35878900,-1378125,13125
2026-01-14 17:25:24.911,-30443920,-51515560,-62249910,60482140,-8109375,-1703125,10859380
2026-01-14 17:25:24.921,-1375026,-1372437,-12300140,7434461,-773125,-3209375,-480
2026-01-14 17:25:24.931,-34250490,-14881000,-120636300,58246540,-128375,38046880,-1078125
2026-01-14 17:25:24.941,16836940,47940320,-56295780,26321430,2690625,-2853125,5928125
2026-01-14 17:25:24.951,-54232820,-634430,-10932010,41630570,72625,21125,-9390625
2026-01-14 17:25:24.961,-22476880,-51514700,-61732870,74266920,-41171880,-803125,15263670
2026-01-14 17:25:24.971,40008670,-494597,-10640270,49760740,-875,30800780,-14640630
2026-01-14 17:25:24.981,5470926,46360720,-55786520,6440785,-13375,15258790,99072260
2026-01-14 17:25:24.991,-22036670,-28838430,-39179160,73826710,-16005860,-12099610,15234380
2026-01-14 17:25:25.001,-42704350,34190060,-70615730,-33254390,-80703130,-2849121,-6109375
2026-01-14 17:25:25.011,-17001810,53015230,-53016260,-7684778,-49296880,5966797,-35019530
2026-01-14 17:25:25.021,-66981790,21487690,10794780,25031860,-39394530,-11289060,6713867
2026-01-14 17:25:25.031,-33299280,8388263,-2363351,-24187680,-50078120,-13220220,9210205
2026-01-14 17:25:25.041,-8082701,94370100,-13404990,970204,1,-34199220,23486330,41918940
2026-01-14 17:25:25.051,-8635992,58574540,-49148750,401375,3,-21328120,121521000,14814450
2026-01-14 17:25:25.061,-9159933,104590000,-2736240,-93217,66,-26679690,-16223150,21640620
2026-01-14 17:25:25.071,-55923760,10648900,-14671,3,-46793170,-34628900,-10947270,24277340
2026-01-14 17:25:25.081,-61493780,10767150,195078,7,-52271700,-38945310,-20429690,2046875
2026-01-14 17:25:25.091,-52972580,109000800,4419422,40318560,-37734380,-28066410,16972660
2026-01-14 17:25:25.101,-117839600,64463070,54136140,-23374570,-27382810,-32363280,20429690
2026-01-14 17:25:25.111,-83592580,57167580,-44634380,-74021780,-15292970,-32753910,33164060
2026-01-14 17:25:25.121,-57288420,11708000,1688358,39679810,-48413090,-32246090,41484380
2026-01-14 17:25:25.131,-14722190,56451150,-42036250,-4906242,40112300,-36933590,42460940
2026-01-14 17:25:25.141,-60525300,48440620,-48285930,38756220,12089840,-35097660,36015620
2026-01-14 17:25:25.151,-62156690,12990670,3495831,38177900,26074220,-33964840,25273440
2026-01-14 17:25:25.161,-63701750,91752100,82435080,37616840,35351560,-32695310,15908200
2026-01-14 17:25:25.171,-19145920,13669120,4526451,-8924288,42578120,-28222660,11162110
2026-01-14 17:25:25.181,-20102310,13906490,4927824,-9797814,50234380,-23359380,13759770
2026-01-14 17:25:25.191,-21000000,53827120,-34423120,-10626450,59492190,-14394530,18486330
2026-01-14 17:25:25.201,-68794450,14321670,5634761,35493440,615625,-12646480,20527340
2026-01-14 17:25:25.211,-6981298,14553870,5989519,3480292,58320310,-17392580,18632810
2026-01-14 17:25:25.221,-23655970,43353450,-41236960,-13184020,48867190,-22695310,10058590
2026-01-14 17:25:25.231,-716948,2,52774060,-30935920,329041,7,45546880,-23378910,25604250
2026-01-14 17:25:25.241,-7254924,52765430,-30236760,3166964,46601560,-21367190,-54541020
2026-01-14 17:25:25.251,-22045470,15732950,7486252,-21009320,4859375,-22089840,-9526367
2026-01-14 17:25:25.261,-7403387,16016940,7806487,2878664,51484380,-21425780,-95458980
2026-01-14 17:25:25.271,-28802170,16276750,8081837,-18620250,54804690,-15302730,-5888672
2026-01-14 17:25:25.281,-75121460,12822350,12002350,25506600,56015620,-14160160,-47607420
2026-01-14 17:25:25.291,-75509890,53732170,-28510420,23719840,52851560,-19287110,-828125
2026-01-14 17:25:25.301,-7579473,16874060,8606642,2182951,45742190,-22929690,-9604492
2026-01-14 17:25:25.311,-32846970,16946570,8620454,-23258910,4203125,-25566410,-121875
2026-01-14 17:25:25.321,-29550280,5471620,-2930452,-28609940,4296875,-22949220,-15712890
2026-01-14 17:25:25.331,-76096850,54975140,-29943280,15985860,45195310,-23789060,-15996090
2026-01-14 17:25:25.341,-35456330,16502900,7907478,-26450040,47460940,-2453125,-15351560
2026-01-14 17:25:25.351,-75794740,5532040,-3177316,12213820,46210940,-24179690,-15732420
2026-01-14 17:25:25.361,-7551852,15654400,6822476,1038391,41289060,-26289060,-14833980
2026-01-14 17:25:25.371,-7516462,15131330,6171648,852810,4,34199220,-28359380,-11386720
2026-01-14 17:25:25.381,-38105390,55449880,-35476180,-29963990,31972660,-26464840,3945923
2026-01-14 17:25:25.391,-74249660,55406720,-36848620,4799210,27363280,-24941410,13452150
2026-01-14 17:25:25.401,-35755590,5532905,-3829009,-34989620,23320310,-24707030,40600580
2026-01-14 17:25:25.411,-40629290,55216820,-39766130,33430480,17294920,-23007810,69433590
2026-01-14 17:25:25.421,-40163180,11738220,2106993,-33016150,10957030,-26953120,29174800
2026-01-14 17:25:25.431,-7154795,10982080,1223109,-275349,8,52001950,-259375,81933590
2026-01-14 17:25:25.441,-36812370,54690290,-44125120,29271740,61572260,-12910160,23710940
2026-01-14 17:25:25.451,-69873410,9469810,-527393,1,-6568706,13564450,-5332031,25390620
2026-01-14 17:25:25.461,-34115830,41653870,31542730,26374950,15322270,-49804690,26054690
2026-01-14 17:25:25.471,-42028480,33766250,23548070,-36260800,8413086,-61865230,24121090
2026-01-14 17:25:25.481,-66981790,26133260,15816680,-12136140,4296875,-11191410,17431640
2026-01-14 17:25:25.491,-29993340,6585104,-3822967,22003860,-6816406,-16113280,13583980
2026-01-14 17:25:25.501,-42795840,12497800,2003414,-37893050,-91845700,-98583980,18115230
2026-01-14 17:25:25.511,-27034410,67542850,-38195160,18886110,34057620,10400390,31191410
2026-01-14 17:25:25.521,-25457400,49364540,-57133050,17234870,19335940,28574220,41796880
2026-01-14 17:25:25.531,-23839820,-8785751,-9858667,15555140,25761720,21796880,38046880
2026-01-14 17:25:25.541,-22237780,-9787458,-20596040,13911670,14990230,16074220,334375
2026-01-14 17:25:25.551,-20678900,-15619020,-26503560,12328620,-11383060,7402344,25546880
2026-01-14 17:25:25.561,-19200300,-21365980,-32323030,10837930,-11328130,-10308840,16787110
2026-01-14 17:25:25.571,-17783840,-26942050,-37968150,9423197,-15175780,-14562990,14042970
2026-01-14 17:25:25.581,-53947960,-32260020,-43353450,-29520330,-14501950,6020508,13427730
2026-01-14 17:25:25.591,-52394260,-36799420,-47963620,-30849600,-6074219,22734380,14082030
2026-01-14 17:25:25.601,-13373920,10522010,-101845100,5080604,1772461,40703120,15341800
2026-01-14 17:25:25.611,-79739410,875248,-10439140,71487520,14816280,33710940,17431640
2026-01-14 17:25:25.621,-46835470,52031740,-61854580,-35182700,21508790,32949220,21503910
2026-01-14 17:25:25.631,-44383210,52377000,-62217110,36236640,51708980,38496100,15712890
2026-01-14 17:25:25.641,-62243010,-42315060,-53841800,-18566740,-28442380,32402340,9975586
2026-01-14 17:25:25.651,-35937110,1179085,-10414980,27937280,-12607420,30957030,49267580
2026-01-14 17:25:25.661,11412800,14889640,-101724300,-19315960,-18554690,2859375,-41455080
2026-01-14 17:25:25.671,-4937324,18929260,-98340670,-72954910,-17236330,21523440,-7783203
2026-01-14 17:25:25.681,-33050680,-29234620,-41027210,-43512270,-11494140,23046880,-66503900
2026-01-14 17:25:25.691,3244644,58974180,-59573220,-10755930,-31689450,25527340,-25463870
2026-01-14 17:25:25.701,50210450,3494971,-8415022,-123804100,-13671880,2640625,16833500
2026-01-14 17:25:25.711,6766367,40715610,-78867610,-13966910,-22070310,25449220,20874020
2026-01-14 17:25:25.721,-33976000,-7552714,-19550740,-36372150,-65625,26660160,-40942380
2026-01-14 17:25:25.731,-20802340,51626050,-68716760,-47836740,-12958980,26933590,-11210940
2026-01-14 17:25:25.741,-18428630,-31945830,-44012910,-48415060,-14980470,23886720,-14414060
2026-01-14 17:25:25.751,-16080810,14679030,2584323,-48898440,-13378910,1640625,-11074220
2026-01-14 17:25:25.761,17431240,60438980,48320110,-18062210,-71435540,13066410,-29638670
2026-01-14 17:25:25.771,-28697730,70874680,-50503930,-32500840,9118652,12763670,828125
2026-01-14 17:25:25.781,-9399896,76114110,-45385340,-49899710,-32592770,11513670,15683590
2026-01-14 17:25:25.791,-7319660,26707270,14552140,-50150030,-9589844,10820310,16464840
2026-01-14 17:25:25.801,19708700,31713640,19558510,-25279580,-18222660,86279300,82714850
2026-01-14 17:25:25.811,-3556250,63788070,-57780420,-50443500,-23984380,7597656,-12231450
2026-01-14 17:25:25.821,21672410,9428378,-2730200,-26906650,-25722660,7109375,-67285150
2026-01-14 17:25:25.831,-345266,9672656,-2491101,-50391710,-23730470,7260742,-48168940
2026-01-14 17:25:25.841,23219210,43546800,31376140,-28139260,-19462890,9003906,16772460
2026-01-14 17:25:25.851,2373710,9929018,-2246825,-50158660,-1703125,10390630,88964850
2026-01-14 17:25:25.861,3504456,64754820,-57038100,-50063710,-16464840,94140620,12792970
2026-01-14 17:25:25.871,447985,8,38760880,37543120,-5000327,-17578120,73876950,10957030
2026-01-14 17:25:25.881,25405600,97900450,-23840690,-29871630,-19179690,6645508,47436520
2026-01-14 17:25:25.891,6007646,41303420,29131040,-49960130,-19501950,76416020,-1940918
2026-01-14 17:25:25.901,-18845540,64133340,-57556000,-24502730,-18222660,91552740,-578125
2026-01-14 17:25:25.911,7138392,9094334,-3069423,-49986020,-16748050,11962890,-47485350
2026-01-14 17:25:25.921,-18326770,87801390,-33767100,-24089270,-18447270,11455080,-36865230
2026-01-14 17:25:25.931,-18139460,84400510,-37098940,-23948580,-14765630,9482422,-61828610
2026-01-14 17:25:25.941,27170780,26182460,14041150,-31351970,-10732420,9741211,16015630
2026-01-14 17:25:25.951,-17845120,17438230,16225310,-23742280,-86572260,11083980,27026370
2026-01-14 17:25:25.961,8985572,74128820,-47025360,-50400340,-7866211,11005860,3942871
2026-01-14 17:25:25.971,-17649180,16581450,4479840,-23627480,-6870117,10761720,36645510
2026-01-14 17:25:25.981,28022730,13898720,1810924,-32140040,-6953125,1109375,95581060
2026-01-14 17:25:25.991,9719268,59552510,47480250,-50806030,-71728510,11376950,-24890140
2026-01-14 17:25:26.001,9943692,37967280,25907110,-50926880,-7182617,1078125,-46166990
2026-01-14 17:25:26.011,10168110,71453000,-49010650,-51030460,-68408200,10039060,-43701170
2026-01-14 17:25:26.021,10383900,6017488,-6018522,-51125410,-6723633,9086914,-28076170
2026-01-14 17:25:26.031,-17210700,-15567230,-27591150,-23392700,-62597660,81103520,-110839800
2026-01-14 17:25:26.041,10806850,56433890,-63684490,-51306670,-4658203,7109375,4071045
2026-01-14 17:25:26.051,29191460,11661390,-108336100,-33232810,-5205078,6464844,14318850
2026-01-14 17:25:26.061,11195280,123435,5,-11862510,-51539730,-6376953,58935550,16796880
2026-01-14 17:25:26.071,29508240,53205640,-66498420,-33537510,-77441410,52978520,121154800
2026-01-14 17:25:26.081,29654980,-1445804,-13400680,-33684250,-8178711,43286130,33813480
2026-01-14 17:25:26.091,-16974190,5141026,-6798306,-23335730,-7807617,29614260,8300781
2026-01-14 17:25:26.101,-16979370,50296770,-68941180,-23365080,-69873050,18017580,12634280
2026-01-14 17:25:26.111,-19894970,-4575650,-16485630,-20535790,-6069336,12805180,24414060
2026-01-14 17:25:26.121,30117630,47560530,-71383950,-34171070,-55566410,14001470,27514650
2026-01-14 17:25:26.131,-17111440,45920510,-72851330,-23561020,-5654297,18908690,2121582
2026-01-14 17:25:26.141,11937600,-9174604,-21036250,-52748160,-5776367,16992190,12902830
2026-01-14 17:25:26.151,11954870,-10909570,-22753960,-52920790,-46118160,13574220,14013670
2026-01-14 17:25:26.161,11963500,-12643670,-24472530,-53084800,-44311520,18652340,22009280
2026-01-14 17:25:26.171,11980760,38782110,-79350980,-53240160,-31396480,19311520,3269043
2026-01-14 17:25:26.181,30626900,-15939250,-27737020,-34766660,-23962400,1854248,43066410
2026-01-14 17:25:26.191,12023920,-17414400,-29196640,-53559540,-15673830,16430660,45654300
2026-01-14 17:25:26.201,12041190,56382100,-61284890,-53714910,-14404300,23937990,43969730
2026-01-14 17:25:26.211,12067080,-19760490,-31511660,-53861650,-11895750,25561520,3935547
2026-01-14 17:25:26.221,12118870,-26085090,-27258660,-54017020,-949707,27563480,38549800
2026-01-14 17:25:26.231,3107228,55846940,-61353940,-3527073,-8428955,24084470,35058590
2026-01-14 17:25:26.241,12231080,-22459620,-34164170,-54301860,-9240723,16223150,3671875
2026-01-14 17:25:26.251,12308760,29364960,-87542450,-54431340,-7110596,11053470,39038090
2026-01-14 17:25:26.261,-17740680,-23854500,-35531420,-24433680,-20217900,51239020,44970700
2026-01-14 17:25:26.271,12446870,55285880,-61345310,-54673020,-12123110,17623900,4477539
2026-01-14 17:25:26.281,12515930,5518232,-6134532,-54776610,-11672970,569458,4802246
2026-01-14 17:25:26.291,-17783840,-25426320,-37067000,-24528630,-10131840,115600600,3959961
2026-01-14 17:25:26.301,12619510,-25776770,-37407090,-54966500,-1574707,15185550,2541504
2026-01-14 17:25:26.311,12671300,26257560,-89959310,-55052820,-5581665,10650640,1340332
2026-01-14 17:25:26.321,12723080,25964080,-90183730,-55104600,56732180,10498050,13305660
2026-01-14 17:25:26.331,12774880,-26564840,-38172720,-55156400,9490967,17614750,19958500
2026-01-14 17:25:26.341,12826660,25480710,-90563530,-55190920,44311520,2770996,16894530
2026-01-14 17:25:26.351,12878460,-26828100,-38427350,-55225460,3955078,29296880,13549810
2026-01-14 17:25:26.361,12930250,2526494,-9069301,-55242720,16748050,19836430,16845700
2026-01-14 17:25:26.371,32007120,2525629,-9068438,-36234910,21826170,12030030,26049800
2026-01-14 17:25:26.381,13016570,-26832420,-38423040,-55277240,24499510,703125,2788086
2026-01-14 17:25:26.391,13059720,-31961970,-33120860,-55285880,17175290,48828120,26757810
2026-01-14 17:25:26.401,1308561,-31875650,-33034540,-5529452,11798100,33168790,18603520
2026-01-14 17:25:26.411,13111510,25653340,-90218260,-55303130,9637451,-23544310,14758300
2026-01-14 17:25:26.421,13128770,25653340,-90218260,-55303130,1361084,-99731450,16235350
2026-01-14 17:25:26.431,13120140,25653340,-90218260,-55294500,16552730,-19616700,22668460
2026-01-14 17:25:26.441,13120140,-31789330,-32948230,-55294500,16394040,-22460940,26342770
2026-01-14 17:25:26.451,-17676810,-31789340,-32948220,-24514820,8850098,-1517334,21203610
2026-01-14 17:25:26.461,32070990,-31875650,-33034540,-36291880,-26794430,-14562990,17285160
2026-01-14 17:25:26.471,-17705290,-26746110,-38336720,-24538120,48095700,-24658200,26123050
2026-01-14 17:25:26.481,32015740,54690290,-61233100,-36243530,14978030,-28125,39135740
2026-01-14 17:25:26.491,12938880,2500599,-9095196,-55251340,13427730,-2298584,4416504
2026-01-14 17:25:26.501,12887090,54655760,-61319410,-55234080,97473140,-18347170,4519043
2026-01-14 17:25:26.511,1281803,2442764,-9158206,-5521682,6958008,-18969730,48950200
2026-01-14 17:25:26.521,31851740,24185960,-91858270,-36096800,3503418,-19714360,49169920
2026-01-14 17:25:26.531,31797360,-28377490,-39985370,-36047600,41778560,-18933100,5522461
2026-01-14 17:25:26.541,-17881380,-28634720,-40246040,-24655520,3253174,-19030760,5888672
2026-01-14 17:25:26.551,12524560,23383200,-92781870,-55113240,-27297970,-13269040,53271480
2026-01-14 17:25:26.561,31635950,-29148300,-40768260,-35898270,-14025880,-105529800,49951170
2026-01-14 17:25:26.571,12386450,-29318350,-40943480,-55026930,-1809082,-10760500,51171880
2026-01-14 17:25:26.581,12317400,22770360,-93550080,-54975130,-13549810,-17858890,5654297
2026-01-14 17:25:26.591,-17970290,54621240,-61768260,-24687450,-15466310,-2265625,62841800
2026-01-14 17:25:26.601,12187920,2214890,-9430967,-54845660,-20141600,-23657230,6743164
2026-01-14 17:25:26.611,12136130,5462989,-6189774,-54776610,-28808590,-23718260,68847660
2026-01-14 17:25:26.621,31256150,21622340,-94991580,-35518480,-33642580,-21057130,7080078
2026-01-14 17:25:26.631,-17962520,-31194870,-42864900,-24626170,-3161621,-30566410,76464850
2026-01-14 17:25:26.641,-17951300,20931810,-95854750,-24602860,-33789060,-38720700,80615230
2026-01-14 17:25:26.651,11928970,-37222370,-38391100,-54448600,-38354490,-44482420,78125
2026-01-14 17:25:26.661,-17921940,2014634,-9679559,-24545890,-42211910,-43432620,75683590
2026-01-14 17:25:26.671,-17910730,54629870,-62398370,-24522590,-47998050,-37890620,7109375
2026-01-14 17:25:26.681,-17890870,-38774860,-39946010,-24490650,-5214844,-34106440,68408200
2026-01-14 17:25:26.691,30830610,-34019160,-45737520,-35063590,-5527344,-25756840,6772461
2026-01-14 17:25:26.701,30781410,18057460,-99195210,-35009210,-5996094,-20996090,7207031
2026-01-14 17:25:26.711,11730440,1739285,-9991163,-53956600,-6694336,-18725590,6972656
2026-01-14 17:25:26.721,-17807150,16736820,-100636700,-24367220,-79052740,-7800293,68847660
2026-01-14 17:25:26.731,11687280,-36856380,-48597190,-53827120,-92089840,26382450,671875
2026-01-14 17:25:26.741,11661390,-37544330,-49290320,-53783970,-10048830,13342290,6611328
2026-01-14 17:25:26.751,1162684,58746740,-58747620,-5373215,-10517580,16027830,6254883
2026-01-14 17:25:26.761,30531090,1379344,-10373550,-34741620,-10917970,14196780,6303711
2026-01-14 17:25:26.771,11514650,-39869700,-51626040,-53654490,-11513670,6335449,6958008
2026-01-14 17:25:26.781,-20761850,54155120,-63442800,-21412510,-12226560,-44067380,75878900
2026-01-14 17:25:26.791,11333390,1177363,-10585890,-53594060,-13554690,-13574220,83984380
2026-01-14 17:25:26.801,-17952160,54068810,-63598180,-24429360,-14462890,-18371580,86328130
2026-01-14 17:25:26.811,-18038480,-42452300,-54222450,-24498420,-15234380,-25048830,82421870
2026-01-14 17:25:26.821,10832750,53947970,-63770810,-53559540,-15654300,-27490230,7128906
2026-01-14 17:25:26.831,10616960,881296,5,-10894040,-53568170,-16103520,-3256836,5913086
2026-01-14 17:25:26.841,10375270,-45298160,-57073490,-53568180,-15351560,-3930664,5078125
2026-01-14 17:25:26.851,10124950,631841,5,-11145220,-53594060,-14804690,-41210940,45507810
2026-01-14 17:25:26.861,-18697930,-48232940,-60008260,-25047390,-14882810,-47875980,37304690
2026-01-14 17:25:26.871,29442640,53283330,-64452710,-33844790,-13857420,-60791020,3408203
2026-01-14 17:25:26.881,-1900264,5309343,-6460808,-2531239,-13095700,-73876950,36157230
2026-01-14 17:25:26.891,-19140740,-53503430,-65268410,-25433230,-13447270,-7446289,3161621
2026-01-14 17:25:26.901,8968310,-240821,-11998890,-53818490,-13212890,-7133789,28466800
2026-01-14 17:25:26.911,29079250,-416909,-12168070,-33586710,-12167970,-7211914,28833010
2026-01-14 17:25:26.921,29033490,-5938592,-123363900,-33563400,-10800780,-6982422,33007810
2026-01-14 17:25:26.931,8545356,52014470,-65307250,-54034280,-9423828,-6582031,38452150
2026-01-14 17:25:26.941,8467670,51772790,-65428090,-54129230,-82714850,-5595703,4506836
2026-01-14 17:25:26.951,8415878,-64322370,-76028650,-54250080,-7817383,-4326172,47338870
2026-01-14 17:25:26.961,8389988,-1354307,-13043320,-54396810,-8071289,-34765620,4013672
2026-01-14 17:25:26.971,8398620,-1536436,-13206460,-54543550,-8989258,-36743160,3059082
2026-01-14 17:25:26.981,29251880,50711090,-65799260,-33880180,-86328130,-37695310,34106440
2026-01-14 17:25:26.991,31437600,-1884293,-13514610,-31901640,-84033200,-3251953,37939450
2026-01-14 17:25:27.001,-20075550,-20500230,-136596300,-26431910,-83154300,-2446289,48608400
2026-01-14 17:25:27.011,8605782,-7422115,-8581006,-55199560,-79833980,-19311520,58935550
2026-01-14 17:25:27.021,29697270,-75786100,-87352550,-34367020,-6977539,-16540530,6977539
2026-01-14 17:25:27.031,8761150,-2531668,-14075670,-55562090,-69384770,-8581543,8022461
2026-01-14 17:25:27.041,29945000,-78744170,-90264010,-34637190,-7055664,-647583,7680664
2026-01-14 17:25:27.051,-20296520,48872540,-66066840,-26780630,-73535150,-19500730,71240230
2026-01-14 17:25:27.061,8916518,48587700,-66110000,-56166300,-76708980,-519104,57373050
2026-01-14 17:25:27.071,-23384670,4829423,-6614451,-24037750,-68115230,-105407700,5649414
2026-01-14 17:25:27.081,8942414,-3387931,-14807640,-56554730,-5932617,-13146970,5048828
2026-01-14 17:25:27.091,8925148,47698640,-66239470,-56761880,-5102539,-14660650,38842770
2026-01-14 17:25:27.101,8890624,-8874654,-10011450,-56969050,-50390620,-13269040,23803710
2026-01-14 17:25:27.111,30591520,-9048497,-10182870,-35423530,-5053711,-10760500,10180660
2026-01-14 17:25:27.121,30648480,46800940,-66377580,-35504660,-4621582,-11968990,78063970
2026-01-14 17:25:27.131,-24368600,-9387636,-10517000,-24434890,-36328120,-117492700,63964840
2026-01-14 17:25:27.141,-21210620,-9561477,-10688430,-27851830,-32617190,-50231940,-19836430
2026-01-14 17:25:27.151,8605778,-9718055,-10842590,-57927170,-3984375,10055540,-8831787
2026-01-14 17:25:27.161,8536726,45678820,-66532940,-58117060,-43359380,62561040,-18322750
2026-01-14 17:25:27.171,33138120,-4965801,-16164540,-33636510,-47338870,7867432,-25048830
2026-01-14 17:25:27.181,-21696580,-5115129,-16291420,-28384400,-37451170,7714844,-2956543
2026-01-14 17:25:27.191,833818,8,-5264458,-16418310,-5864360,-21191410,29815670,-33154300
2026-01-14 17:25:27.201,828640,-5413786,-16545190,-5881623,-12768560,49346920,-36499020
2026-01-14 17:25:27.211,8234614,44418600,-66671060,-58971600,-9588623,91308590,-4104004
2026-01-14 17:25:27.221,31116320,44159650,-66705580,-36210740,-11651610,1784668,-4633789
2026-01-14 17:25:27.231,8148296,43900700,-66740100,-59282340,-9716797,23095700,-49194340
2026-01-14 17:25:27.241,8113772,-6044760,-17088130,-59437710,-3567505,28686520,-58984380
2026-01-14 17:25:27.251,808787,3,-6194089,-17215010,-5960172,-9100342,4182129,-7001953
2026-01-14 17:25:27.261,8079242,43175640,-66826420,-59748440,-15527340,5185547,-7895508
2026-01-14 17:25:27.271,3140116,-6447861,-17427350,-3658190,-11254880,49169920,-8203125
2026-01-14 17:25:27.281,8113770,42761320,-66826420,-60024660,-9979248,42456060,-8901367
2026-01-14 17:25:27.291,31556540,42588680,-66826420,-36754530,8178711,40527340,-8857422
2026-01-14 17:25:27.301,-2256493,-11650260,-12742860,-2941502,18017580,43017580,-8149414
2026-01-14 17:25:27.311,8381352,42303840,-66817790,-60326770,50097660,28759770,-7841797
2026-01-14 17:25:27.321,8545356,-684920,8,-1775104,-60387200,5019531,37646480,-7089844
2026-01-14 17:25:27.331,-22383660,4213122,-6678326,-29302810,59375,2614746,-6347656
2026-01-14 17:25:27.341,8985574,-6892390,-17776930,-60464880,7241211,8453369,-57128900
2026-01-14 17:25:27.351,9244520,-6877716,-17757080,-60464880,74902340,35614020,-52685550
2026-01-14 17:25:27.361,9555264,-6843188,-17722550,-60447620,69384770,4449463,-53564450
2026-01-14 17:25:27.371,9883270,-6781904,-17663000,-60395820,6904297,29556270,-61572260
2026-01-14 17:25:27.381,32783100,-6701629,-17587900,-37789470,7314453,17745970,-71435540
2026-01-14 17:25:27.391,-21219250,-6611862,-17505040,-28309300,80908200,-31921390,-6542969
2026-01-14 17:25:27.401,-20900740,-6494472,-17398000,-28023590,90625,-58807370,-55078120
2026-01-14 17:25:27.411,1165275,-6350323,-17265940,-5992109,97998050,-15441900,-41430660
2026-01-14 17:25:27.421,-23411950,-6195815,-17126970,-24131310,10273440,-20715330,-29125980
2026-01-14 17:25:27.431,12748980,43236060,-66230840,-59549920,10019530,-2376709,-19165040
2026-01-14 17:25:27.441,13327300,43503640,-66135890,-59334130,9453125,-31103520,-1340332
2026-01-14 17:25:27.451,13905630,-5617491,-16600440,-59101080,8769531,-35888670,-8862305
2026-01-14 17:25:27.461,-18508040,-5391343,-16395000,-25841510,7993164,-44458010,52452090
2026-01-14 17:25:27.471,34647540,4446178,-6579927,-38997900,7705078,-45166020,117248500
2026-01-14 17:25:27.481,1562333,-10380450,-10490940,-5829834,72558590,-4494629,3178711
2026-01-14 17:25:27.491,16167130,-9649000,-10756280,-58013480,6640625,-44799800,48535160
2026-01-14 17:25:27.501,-20162820,-4422006,-15517160,-20906690,6303711,-4855957,68603520
2026-01-14 17:25:27.511,-16435570,-4185498,-15304820,-23891610,5625,-4802246,8154297
2026-01-14 17:25:27.521,17530930,-3958483,-15100250,-57167580,44018560,-40820310,9404297
2026-01-14 17:25:27.531,17884820,46472940,-65151880,-56917260,421875,-29614260,10722660
2026-01-14 17:25:27.541,1817831,4675779,-6507420,-5667558,40771480,-18640140,11865230
2026-01-14 17:25:27.551,-18649770,55109790,-56912080,-19398650,41333010,-1725769,12636720
2026-01-14 17:25:27.561,-1509853,-3273131,-14490860,-2258737,3623047,21594240,13642580
2026-01-14 17:25:27.571,-1495182,47370630,-64944720,-2244061,28881840,37329100,14824220
2026-01-14 17:25:27.581,1881701,-81472650,-92714540,-5603687,28466800,4519043,16621090
2026-01-14 17:25:27.591,-14818860,-81123060,-92373590,-22297350,33422850,47485350,18740230
2026-01-14 17:25:27.601,18791150,-81033300,-92290720,-55907360,31103520,5004883,19970700
2026-01-14 17:25:27.611,-14873240,-30616550,-143225400,-22329280,265625,51708980,20117190
2026-01-14 17:25:27.621,18514940,-3111716,-14376050,-55890090,25830080,41259770,19746090
2026-01-14 17:25:27.631,1829051,-3187678,-14455460,-5590736,2722168,26733400,19355470
2026-01-14 17:25:27.641,18005680,-3298160,-14569400,-55933250,27075200,17114260,19550780
2026-01-14 17:25:27.651,-15455010,-3425047,-14701470,-22817830,29418940,9161377,19306640
2026-01-14 17:25:27.661,1729787,4718074,-6561799,-5596778,2434082,89538580,1859375
2026-01-14 17:25:27.671,1688355,4704263,-6582515,-5596778,21704100,7104492,17587890
2026-01-14 17:25:27.681,-16137780,46887260,-66066840,-23378030,21313480,5130005,17216800
2026-01-14 17:25:27.691,15985860,4673191,-6632579,-55915990,25732420,53222660,16972660
2026-01-14 17:25:27.701,-16603890,-4354679,-15670800,-23740560,23059080,8416748,17099610
2026-01-14 17:25:27.711,-16821410,46421140,-66878210,-23902830,24475100,1352539,16484380
2026-01-14 17:25:27.721,14578900,-4771587,-16117060,-55648410,21496580,20874020,15673830
2026-01-14 17:25:27.731,-17207240,-4970118,-16332850,-24173000,16052250,2980957,14248050
2026-01-14 17:25:27.741,-17356570,-5141887,-16523610,-24265360,6890869,3022461,12861330
2026-01-14 17:25:27.751,13370460,-5295530,-16697970,-55165030,4336548,2619629,12197270
2026-01-14 17:25:27.761,13059720,-5413784,-16838670,-54957870,-14534000,24401860,11269530
2026-01-14 17:25:27.771,31653210,4602411,-6846646,-35846480,-7519531,27026370,10458980
2026-01-14 17:25:27.781,12576350,56255220,-58511530,-54457230,-21691900,30029300,10117190
2026-01-14 17:25:27.791,12412340,46213990,-68828980,-54189650,-27294920,28979490,10361330
2026-01-14 17:25:27.801,31020510,-5541535,-17073450,-35184430,-35302740,27978520,11884770
2026-01-14 17:25:27.811,12179290,-5492333,-17053600,-53663120,-5317383,26879880,11865230
2026-01-14 17:25:27.821,30692500,46723250,-69148340,-34821900,-66748050,19836430,11923830
2026-01-14 17:25:27.831,1206708,-532833,-1694139,-5317112,-7988281,637207,10996090
2026-01-14 17:25:27.841,12041180,58183700,-58205800,-52938050,-9008789,-7598877,10380860
2026-01-14 17:25:27.851,30342060,47353370,-69260550,-34412760,-10039060,-18798830,103125
2026-01-14 17:25:27.861,1200665,-5026224,-16708330,-5254101,-11220700,-25219730,10488280
2026-01-14 17:25:27.871,30160800,-4930411,-16631510,-34196970,-11914060,-33618160,98291020
2026-01-14 17:25:27.881,11980760,-4862221,-16578860,-52204370,-12353520,-43725580,9345703
2026-01-14 17:25:27.891,30017510,4798350,-6932100,-34029520,-12431640,-5288086,8676758
2026-01-14 17:25:27.901,-16830040,57648360,-59776930,-23220930,-13134770,-5761719,77783200
2026-01-14 17:25:27.911,29902710,57682890,-59811460,-33902620,-13339840,-5800781,6923828
2026-01-14 17:25:27.921,11859920,48121590,-69424560,-51841830,-13261720,-60595700,63134770
2026-01-14 17:25:27.931,-16810190,-4806979,-16565050,-23171730,-12714840,-6020508,52978520
2026-01-14 17:25:27.941,29773230,48061160,-69536770,-33773150,-11943360,-59033200,49853520
2026-01-14 17:25:27.951,11747700,48009370,-69588560,-51764150,-11298830,-54589840,43139650
2026-01-14 17:25:27.961,-16850760,-4963212,-16719550,-23200210,-10449220,-55371100,32739260
2026-01-14 17:25:27.971,1171318,4786264,-6966625,-5178141,-9248047,-5698242,1673584
2026-01-14 17:25:27.981,29769780,47793580,-69700770,-33776600,-8251953,-5263672,1538086
2026-01-14 17:25:27.991,1177357,47724530,-69718030,-5184182,-73291020,-43481440,1295166
2026-01-14 17:25:28.001,11842650,47655480,-69718030,-51876360,-63916020,-3256836,171875
2026-01-14 17:25:28.011,29937240,5854176,-5876273,-33937160,-58154300,-24023440,21276860
2026-01-14 17:25:28.021,30034770,-5179004,-16900820,-34029510,-50927740,-1550293,21191410
2026-01-14 17:25:28.031,1220518,-10428440,-11599590,-5210079,-50878900,-22949220,35229490
2026-01-14 17:25:28.041,30299770,4754328,-6946773,-34282420,-46606440,13623050,36816410
2026-01-14 17:25:28.051,-16625470,-5040033,-16729050,-23114760,-51123050,37158200,3659668
2026-01-14 17:25:28.061,30627770,-4951128,-16628060,-34593160,-5888672,5830078,34716800
2026-01-14 17:25:28.071,1302519,-4844960,-16509800,-5257553,-5942383,7680664,45043940
2026-01-14 17:25:28.081,13266880,47698640,-68811710,-52713630,-5683594,93359380,5498047
2026-01-14 17:25:28.091,13508570,-9853832,-11017560,-52851740,-51953120,11025390,73535150
2026-01-14 17:25:28.101,13750260,-4503143,-16126560,-52989850,-4711914,11953130,9477539
2026-01-14 17:25:28.111,13983310,-4390068,-15997950,-53136580,-43652340,11777340,9980469
2026-01-14 17:25:28.121,14181840,-4284761,-15878830,-53283330,-4423828,10390630,10732420
2026-01-14 17:25:28.131,14345840,-4187224,-15769210,-53412800,-46655270,8696289,11484380
2026-01-14 17:25:28.141,14475310,47957580,-67741380,-53525010,-48095700,6621094,11669920
2026-01-14 17:25:28.151,32140900,-4033581,-15594850,-36049320,-5263672,48706060,99560540
2026-01-14 17:25:28.161,14587530,-3967115,-15523200,-53706280,-5800781,2927246,7939453
2026-01-14 17:25:28.171,-16168850,-3916190,-15470550,-23001690,-50439450,2142334,6665039
2026-01-14 17:25:28.181,14553000,-3890294,-15444660,-53758070,-3708496,22668460,61865230
2026-01-14 17:25:28.191,32158170,48138850,-67439270,-36083850,-29907230,39135740,5996094
2026-01-14 17:25:28.201,14449420,-3860946,-15422210,-53723540,-23791500,59277340,5595703
2026-01-14 17:25:28.211,32089110,-3858357,-15424800,-36014800,-11987310,76416020,5107422
2026-01-14 17:25:28.221,14432160,48216530,-67482430,-53637220,-13456350,9067383,4248047
2026-01-14 17:25:28.231,32077890,-3829010,-15402360,-35991490,8795166,9213867,29370120
2026-01-14 17:25:28.241,32101190,48285590,-67465170,-36002710,17565920,72021490,23461910
2026-01-14 17:25:28.251,-16028160,4834602,-6742200,-22848900,19677730,43896480,20349120
2026-01-14 17:25:28.261,-15935800,-3671913,-15248720,-22768630,18615720,39855960,11254880
2026-01-14 17:25:28.271,-18914760,-3576965,-15153770,-19599770,1027832,-33081060,-49041750
2026-01-14 17:25:28.281,15191750,-3447487,-15024290,-53499120,-3004074,-69873050,-18200680
2026-01-14 17:25:28.291,15407540,-3308518,-14887050,-53473220,-6124878,-9326172,-3881836
2026-01-14 17:25:28.301,32645850,48941600,-66860950,-36424800,-21911620,-11171880,-4584961
2026-01-14 17:25:28.311,-15267710,-3021086,-14604790,-22193760,-2482605,-10927730,-49902340
2026-01-14 17:25:28.321,-1507528,-28821160,-144675500,-2202373,-2017212,-95458980,-57910160
2026-01-14 17:25:28.331,33037730,49407700,-66463890,-36706190,11077880,-7260742,-60498050
2026-01-14 17:25:28.341,16909450,-83320420,-84479320,-53127960,11187740,-49023440,-67089840
2026-01-14 17:25:28.351,33414930,49683920,-66187680,-36985000,16503910,-28100590,-7104492
2026-01-14 17:25:28.361,-14024750,-2313288,-13896990,-21106170,2692871,-14001470,-7260742
2026-01-14 17:25:28.371,-13699330,-2170002,-13746800,-20827370,29882810,-26626590,-8300781
2026-01-14 17:25:28.381,-13345440,50037820,-65643880,-20525260,36132810,4815674,-8486328
2026-01-14 17:25:28.391,19585270,-70525970,-82082050,-52782690,34570310,6842041,-86328130
2026-01-14 17:25:28.401,2023264,-1668503,-13212500,-5273953,3215332,-4385376,-87597660
2026-01-14 17:25:28.411,20888650,50417610,-64867030,-52705000,28295900,-2220459,-8642578
2026-01-14 17:25:28.421,-11852150,-6424555,-7576020,-19273660,16430660,-4362793,-7861328
2026-01-14 17:25:28.431,22183400,-10090430,-125081600,-52635950,7775879,-69628900,-7631836
2026-01-14 17:25:28.441,22796250,-59427360,-70910940,-52592790,36315920,-9506836,-80859380
2026-01-14 17:25:28.451,36502480,51073620,-63624080,-39421720,3225708,-11933590,-9370117
2026-01-14 17:25:28.461,-10482310,-331456,-11787410,-18123060,61401370,-12597660,-10625
2026-01-14 17:25:28.471,24401740,-147599,5,-11591480,-52454690,10797120,-12792970,-12646480
2026-01-14 17:25:28.481,24859220,2591,5,-11430930,-52394260,20288090,-12128910,-13427730
2026-01-14 17:25:28.491,-9635540,117391,5,-11304040,-17398870,32470700,-11123050,-14746090
2026-01-14 17:25:28.501,-9376590,51557000,-62553750,-17174440,5385742,-98095700,-15566410
2026-01-14 17:25:28.511,26119440,56459780,-57547370,-52187100,83251950,-8066406,-15693360
2026-01-14 17:25:28.521,2652512,-48252780,-59643140,-5210945,10634770,-5517578,-15761720
2026-01-14 17:25:28.531,-8593698,-47826380,-59206380,-16489950,12460940,-27001950,-15625
2026-01-14 17:25:28.541,-11877700,-4731452,-5868243,-12670780,14257810,-60455320,-16152340
2026-01-14 17:25:28.551,2782852,464384,-10891450,-5184184,15878910,993042,-17744140
2026-01-14 17:25:28.561,28294630,-50359690,-51494070,-51755520,16806640,21643070,-18818360
2026-01-14 17:25:28.571,2878661,51720990,-61595630,-5164329,17851560,22216800,-18447270
2026-01-14 17:25:28.581,-7067618,56124010,-57071770,-15150310,19160160,18164060,-17246090
2026-01-14 17:25:28.591,29839700,1157511,-10151710,-51367100,19746090,15222170,-15556640
2026-01-14 17:25:28.601,-6322706,14380370,-98625510,-14479630,20527340,14697270,-13955080
2026-01-14 17:25:28.611,30944550,52592800,-60361300,-50970040,21308590,113586400,-11953130
2026-01-14 17:25:28.621,-5469894,-29657570,-40949530,-13692430,22480470,2243042,-8745117
2026-01-14 17:25:28.631,-5015006,25031860,-87870450,-13266880,22070310,-28152470,-6088867
2026-01-14 17:25:28.641,-82610300,2918373,-8373584,-90886350,21621090,22338870,-39575200
2026-01-14 17:25:28.651,-4044807,33430480,-79523620,-12338120,21347660,7159424,-18225100
2026-01-14 17:25:28.661,33827530,-12906080,-24210120,-49243700,20703120,1463623,-44647220
2026-01-14 17:25:28.671,-3059066,4258868,-7055530,-11373090,19697270,2746582,15307620
2026-01-14 17:25:28.681,3485469,-3658104,-14986310,-4828559,18427730,34643560,3486328
2026-01-14 17:25:28.691,-20526120,-39211960,-50557440,-103597400,17900390,4338379,52246100
2026-01-14 17:25:28.701,-1558883,56833540,-56828360,-9852192,16933590,5415039,65625
2026-01-14 17:25:28.711,-106771,8,57485230,46094870,-934203,6,1609375,6347656,7573242
2026-01-14 17:25:28.721,36537880,10669870,9528244,-45946400,14941410,70703130,87646480
2026-01-14 17:25:28.731,-37842120,20741920,9296314,-46057750,13828130,76708980,96435540
2026-01-14 17:25:28.741,-32768430,77236220,-37530520,-40946070,12314450,82714850,10566410
2026-01-14 17:25:28.751,9071886,60033290,-55078710,-72255750,10380860,81640620,11816410
2026-01-14 17:25:28.761,14078260,35380370,23832910,-66731470,8754883,8149414,128125
2026-01-14 17:25:28.771,-16876650,92376180,-23495420,-24900650,72802740,77441410,13574220
2026-01-14 17:25:28.781,-11384310,45088420,33459820,-19344440,5830078,80371100,14082030
2026-01-14 17:25:28.791,-5808254,10238030,-1433721,-13699330,43164060,8359375,14384770
2026-01-14 17:25:28.801,-35797280,63451440,-53697640,-43614120,2614746,85498050,15283200
2026-01-14 17:25:28.811,55950510,112315300,-5282586,-21423810,7287598,88134770,16357420
2026-01-14 17:25:28.821,45955040,11719230,-83729,17,-30590650,-1652832,8808594,17041020
2026-01-14 17:25:28.831,5155697,65540300,-52938060,-2410824,-3894043,87890620,18085940
2026-01-14 17:25:28.841,57228000,73705000,61812280,-17522290,-6953125,88623050,18701170
2026-01-14 17:25:28.851,29671380,66938640,-52420160,22291300,-10058590,9550781,18955080
2026-01-14 17:25:28.861,35749800,6065994,-5911317,28469850,-12929690,10654300,18457030
2026-01-14 17:25:28.871,39722970,14218100,2199350,-32058040,-15126950,12236330,16708980
2026-01-14 17:25:28.881,39826550,92864740,80804560,-30918660,-175,12568360,14394530
2026-01-14 17:25:28.891,8549670,61406590,-59574950,1583915,-20117190,11464840,13154300
2026-01-14 17:25:28.901,60137740,15683750,3547616,53282460,-23105470,9453125,13232420
2026-01-14 17:25:28.911,39973280,70926470,-50814670,-27457350,-26152340,671875,13212890
2026-01-14 17:25:28.921,39947390,16576270,4364173,-26326610,-28769530,48608400,12529300
2026-01-14 17:25:28.931,105919300,72109010,-50391720,40819190,-30742190,30981440,10566410
2026-01-14 17:25:28.941,110407700,17355710,5069378,46516090,-31386720,23156740,7597656
2026-01-14 17:25:28.951,11455090,73153450,-50089610,5186776,-31679690,12634280,5078125
2026-01-14 17:25:28.961,39515810,17997900,5635619,-21958980,-31835940,-10217290,33666990
2026-01-14 17:25:28.971,31063670,1826636,586779,9,-29219940,-3109375,-4362793,21801760
2026-01-14 17:25:28.981,39196430,74465460,-49882450,-19896010,-28886720,-73779300,2180481
2026-01-14 17:25:28.991,12969090,18715200,6247607,7177239,-27695310,-9213867,-7287598
2026-01-14 17:25:29.001,38902950,75147360,-49839280,-17893460,-26757810,-10058590,-2208252
2026-01-14 17:25:29.011,38790740,19081180,6554892,-16900820,-25117190,-11337890,-28222660
2026-01-14 17:25:29.021,38713060,19257270,6706811,-15908180,-2421875,-12939450,-30004880
2026-01-14 17:25:29.031,38678530,76010530,-49683920,-14924160,-240625,-14238280,-22546390
2026-01-14 17:25:29.041,14982860,19645690,7060707,9720993,-2421875,-16425780,-12286380
2026-01-14 17:25:29.051,38678540,19865800,7272183,-13007930,-24980470,-19238280,-73890690
2026-01-14 17:25:29.061,38721690,76813270,-49174650,-12084340,-25820310,-20917970,-59509280
2026-01-14 17:25:29.071,38790740,77080860,-48907070,-11186650,-27597660,-21640620,-33798220
2026-01-14 17:25:29.081,38894330,15001510,13741970,-10323480,-30058590,-21074220,-56121820
2026-01-14 17:25:29.091,39023800,20983600,8398617,-9503471,-32167970,-19902340,-118652300
2026-01-14 17:25:29.101,25493650,77866340,-47828110,-22446670,-32675780,-19365230,-1751709
2026-01-14 17:25:29.111,18065230,21638740,9090016,13319540,-31113280,-2015625,-21044920
2026-01-14 17:25:29.121,39679800,64184270,-61044070,-7397343,-29199220,-22578120,-17944340
2026-01-14 17:25:29.131,39964650,78505080,-46429780,-6836284,-27226560,-27089840,-18457030
2026-01-14 17:25:29.141,25020630,22596860,10134450,-21624930,-25390620,-32441410,-22033690
2026-01-14 17:25:29.151,40646560,7879856,-4548031,-5912696,-24550780,-37578120,-2763672
2026-01-14 17:25:29.161,41017720,23122530,10730900,-5524272,-23769530,-40390620,-40429690
2026-01-14 17:25:29.171,20429450,23338320,10981220,15771790,-23886720,-40625,-4814453
2026-01-14 17:25:29.181,41785940,23510960,11188380,-4894160,-25195310,-38046880,-50439450
2026-01-14 17:25:29.191,42182990,7894530,-4393524,-4652472,-26875,-34101560,-45703120
2026-01-14 17:25:29.201,21413460,23752640,11499120,16704020,-28769530,-2921875,-41137700
2026-01-14 17:25:29.211,21690540,23829460,11612190,16944840,-30351560,-24355470,-31640620
2026-01-14 17:25:29.221,25924370,7869499,-4311523,-22015950,-32558590,-19306640,-27978520
2026-01-14 17:25:29.231,26243740,23904560,11761520,-22300790,-35332030,-14443360,-27197270
2026-01-14 17:25:29.241,44479020,78366980,-42683630,-4807838,-37949220,-103125,-30786130
2026-01-14 17:25:29.251,4497966,23874350,11809000,-515310,-39257810,-71972660,-35668940
2026-01-14 17:25:29.261,45471660,23811340,11785690,-5593326,-39960940,-46044920,-41259770
2026-01-14 17:25:29.271,22526940,7766780,-4219163,17316860,-4015625,-23095700,-46069340
2026-01-14 17:25:29.281,22530390,77374330,-42105310,17209830,-39375,-7513428,-46801760
2026-01-14 17:25:29.291,4695632,23442760,11532780,-740596,5,-384375,6488037,-42700200
2026-01-14 17:25:29.301,22422500,23244240,11368780,16868880,-37617190,15161130,-46875
2026-01-14 17:25:29.311,30311850,76295370,-42131200,-26415510,-3546875,-2255249,-35620120
2026-01-14 17:25:29.321,22187720,60747140,-57385960,16395870,-35332030,-94177250,-33496090
2026-01-14 17:25:29.331,22021120,60594350,-57297060,16113610,-35136720,-19946290,-3100586
2026-01-14 17:25:29.341,31988120,7494884,-4273544,-28226440,-34199220,-25830080,-34814450
2026-01-14 17:25:29.351,49183280,21551560,9798674,-12118870,-32285160,-2479248,-3466797
2026-01-14 17:25:29.361,49424970,21062150,9321344,-12947510,-29160160,-15515140,-36132810
2026-01-14 17:25:29.371,49632120,73317440,-44004280,-13776150,-24980470,53466800,-32836910
2026-01-14 17:25:29.381,49822020,19931400,8207857,-14622060,-21035160,2668457,-24316410
2026-01-14 17:25:29.391,20554600,72014060,-45135020,14006620,-17763670,453125,-12695310
2026-01-14 17:25:29.401,34961730,18635780,6931233,-31571210,-1546875,6801758,59021000
2026-01-14 17:25:29.411,50426240,17963380,6274362,-17177030,-12841800,8745117,23742680
2026-01-14 17:25:29.421,50650660,17297880,5627850,-18057460,-10048830,10458980,39990230
2026-01-14 17:25:29.431,50883720,16647910,5000327,-18929260,-7475586,12861330,55810550
2026-01-14 17:25:29.441,19213240,68319700,-47845370,12119740,-43896480,14824220,6196289
2026-01-14 17:25:29.451,18975870,15484360,3902379,11770150,-11468510,17226560,6875
2026-01-14 17:25:29.461,18756630,58624600,-56780880,11436970,2479248,19648440,68847660
2026-01-14 17:25:29.471,52014470,14559050,3066831,-22338780,6772461,20820310,64160160
2026-01-14 17:25:29.481,18389780,14204280,2765587,10837070,10644530,22265620,6489258
2026-01-14 17:25:29.491,18258580,65108720,-48656750,10588480,14160160,23378910,61572260
2026-01-14 17:25:29.501,18155000,64573560,-48501380,10364050,16748050,25820310,6455078
2026-01-14 17:25:29.511,5369765,13531880,2298615,-2543754,18935550,27988280,60595700
2026-01-14 17:25:29.521,18035890,84124300,72972180,9999798,21054690,28417970,6533203
2026-01-14 17:25:29.531,18010850,83995690,72928150,9852196,22792970,26621090,6459961
2026-01-14 17:25:29.541,18002220,84296930,73317440,9722721,24707030,24257810,65966800
2026-01-14 17:25:29.551,13844030,13386860,2495417,13760060,26503910,20996090,64746100
2026-01-14 17:25:29.561,56304410,8567629,7487285,-28803900,27636720,1765625,61621100
2026-01-14 17:25:29.571,14129360,86582600,75865510,13267580,28046880,15947270,5756836
2026-01-14 17:25:29.581,44962390,13535330,2899378,-42234780,28730470,13427730,5908203
2026-01-14 17:25:29.591,57633690,13583670,3023674,-30495710,2875,12099610,4880371
2026-01-14 17:25:29.601,17922810,13625960,3136750,9025279,28964840,10292970,41796880
2026-01-14 17:25:29.611,58237910,89544980,79117930,-31514240,29550780,82714850,38110350
2026-01-14 17:25:29.621,58462340,89777180,79403630,-31997610,30761720,53564450,40014650
2026-01-14 17:25:29.631,17612940,89582100,79253450,8506518,31367190,26879880,47631840
2026-01-14 17:25:29.641,58678120,135439600,32532780,-32938460,32148440,41137700,58496100
2026-01-14 17:25:29.651,17259030,59636240,-42977110,8049039,33828120,-13537600,6621094
2026-01-14 17:25:29.661,17038060,8737930,7714041,7786635,35957030,-32641600,7216797
2026-01-14 17:25:29.671,4764512,13216820,2993464,-4521443,37480470,-41479490,82910160
2026-01-14 17:25:29.681,16535700,13081300,2870031,7218670,38613280,-35620120,9321289
2026-01-14 17:25:29.691,5832426,83564100,73359740,-3512225,40117190,-3803711,10185550
2026-01-14 17:25:29.701,15999670,12824940,2625755,6632579,41289060,-40698240,11289060
2026-01-14 17:25:29.711,15732950,127282700,25325340,6346876,42304690,-43676760,12109380
2026-01-14 17:25:29.721,11251130,58531390,-43425960,10310800,434375,-47607420,1375
2026-01-14 17:25:29.731,57616430,12606560,2412550,-36555140,43867190,-4892578,15390630
2026-01-14 17:25:29.741,10760330,12606560,2412552,9817580,44257810,-42822260,16621090
2026-01-14 17:25:29.751,14782610,12640220,2447942,5346459,4484375,-34301760,17519530
2026-01-14 17:25:29.761,14588400,81313830,71121540,5143618,446875,-33203120,18300780
2026-01-14 17:25:29.771,14401080,58695380,-43210160,4951131,4421875,-37109380,19345700
2026-01-14 17:25:29.781,56779160,79489260,78470380,-37754940,425,-3569336,20488280
2026-01-14 17:25:29.791,56623780,8597321,7578435,-37893050,409375,-27978520,21582030
2026-01-14 17:25:29.801,13951370,59256440,-42649100,4503147,39238280,-24023440,22617190
2026-01-14 17:25:29.811,56295780,13625100,3431088,-38117480,36875,-13415530,23789060
2026-01-14 17:25:29.821,56105880,59774340,-42252040,-38186520,34375,715332,25761720
2026-01-14 17:25:29.831,13537050,60059190,-42070780,4123353,31660160,4819336,26640620
2026-01-14 17:25:29.841,91617460,14325120,4094861,82224460,296875,9277344,28242190
2026-01-14 17:25:29.851,13221130,60663410,-41829100,3852318,28535160,13251950,29511720
2026-01-14 17:25:29.861,47543260,14743770,4470343,-45868720,27441410,14775390,29609380
2026-01-14 17:25:29.871,5475069,52482300,-50528100,-3835051,26035160,13769530,29257810
2026-01-14 17:25:29.881,12647990,15067450,4733611,3372396,24433590,1046875,28476560
2026-01-14 17:25:29.891,82993540,61837320,-41863630,73757660,23183590,6923828,27949220
2026-01-14 17:25:29.901,53619960,15245270,4832009,-38290100,21601560,32299800,26445310
2026-01-14 17:25:29.911,53222900,15295330,4833736,-38169260,20976560,-13964840,25019530
2026-01-14 17:25:29.921,46144070,15313460,4798345,-44661150,20585940,-6118164,23886720
2026-01-14 17:25:29.931,118625100,62890380,-42847630,28458630,20527340,-97998050,22871090
2026-01-14 17:25:29.941,77841300,63157960,-43218800,68897160,20859380,-11660160,21796880
2026-01-14 17:25:29.951,11813310,63416910,-43615850,2946857,22148440,-12109380,18535160
2026-01-14 17:25:29.961,11874590,63693120,-44030170,3092731,22539060,-10390630,14033200
2026-01-14 17:25:29.971,119755900,15184840,4340001,32852160,20820310,-6933594,11318360
2026-01-14 17:25:29.981,50771510,15153770,4232971,-35148180,17158200,-37695310,10429690
2026-01-14 17:25:29.991,50417610,15116650,4114717,-34449010,11337890,-10638430,11152340
2026-01-14 17:25:30.001,123165400,64961980,-45903250,39455380,60595700,66833500,10439450
2026-01-14 17:25:30.011,8638494,15014800,3836779,7813479,20980840,4309082,93603520
2026-01-14 17:25:30.021,12313080,6567841,-4706853,4190679,-6694336,80566410,90771490
2026-01-14 17:25:30.031,121680700,14838710,3460433,41803190,-13740230,88720700,10830080
2026-01-14 17:25:30.041,47241150,14702330,3217023,-31238030,-17089840,83251950,94921870
2026-01-14 17:25:30.051,3929657,145167500,29192320,-3774970,-16660160,5917969,6425781
2026-01-14 17:25:30.061,11185790,89927370,78217640,3626171,-14082030,34277340,3227539
2026-01-14 17:25:30.071,70805190,13946190,2125979,70063740,-11953130,33618160,-20202640
2026-01-14 17:25:30.081,43046160,135689900,16400180,-29667060,-10498050,51660160,-34301760
2026-01-14 17:25:30.091,9935057,13146040,1113485,2805295,-10136720,6777344,-5209961
2026-01-14 17:25:30.101,41069500,12677340,546383,-28847050,-10039060,7973633,-71972660
2026-01-14 17:25:30.111,93593250,6718895,-5503560,25005960,-10107420,88671870,-8354492
2026-01-14 17:25:30.121,39472650,11685560,-619756,-27819890,-10410160,95751950,-8364258
2026-01-14 17:25:30.131,38851170,11205640,-1175637,-27198410,-11767580,11201170,-70166020
2026-01-14 17:25:30.141,91556170,46025030,44780180,26697770,-14619140,14150390,-50634770
2026-01-14 17:25:30.151,9280776,10406350,-2102677,2907148,-1734375,17412110,-30249020
2026-01-14 17:25:30.161,37677260,63199400,-62426000,-24988700,-18222660,20175780,-36816410
2026-01-14 17:25:30.171,9754656,43333600,30726170,3589915,-17832030,22265620,-55859380
2026-01-14 17:25:30.181,101120100,100084300,-26369770,40439400,-17001950,20546880,-10
2026-01-14 17:25:30.191,105487700,44145830,31467620,45739240,-17197270,18095700,-14287110
2026-01-14 17:25:30.201,110632200,46316700,33612600,51815940,-203125,15039060,-15058590
2026-01-14 17:25:30.211,37694520,106963700,-20301700,-20206750,-23300780,12119140,-14160160
2026-01-14 17:25:30.221,29415020,68500970,-58937070,-27536770,-24511720,8642578,-15400390
2026-01-14 17:25:30.231,38057050,11704550,-1053066,-17927990,-25605470,5332031,-17167970
2026-01-14 17:25:30.241,38246950,123312100,-4367621,-16719550,-28320310,2512207,-18857420
2026-01-14 17:25:30.251,38419580,13033830,258948,8,-15459330,-32714840,99,8497,-20195310
2026-01-14 17:25:30.261,14850790,13770110,990052,9,9576842,-37539060,-20141600,-21484380
2026-01-14 17:25:30.271,15540470,88046530,75264750,10389090,-41796880,-3154297,-22792970
2026-01-14 17:25:30.281,38833900,15358340,2578279,-11367920,-44960940,-33447270,-24199220
2026-01-14 17:25:30.291,16969010,73654080,-54077440,12085210,-46992190,-31274410,-25839840
2026-01-14 17:25:30.301,39058330,74430930,-53179750,-8381353,-47226560,-34716800,-27441410
2026-01-14 17:25:30.311,24628760,12099970,10825760,-21395330,-47265620,-42456060,-27871090
2026-01-14 17:25:30.321,39334540,12927400,11655610,-5308478,-49179690,-6123047,-26914060
2026-01-14 17:25:30.331,23433270,19437670,6750832,-19863210,-52421880,-91064460,-2546875
2026-01-14 17:25:30.341,22867900,20195530,7546672,-19133830,-53359380,-12666020,-25585940
2026-01-14 17:25:30.351,39843810,20925770,8318343,-932221,8,-51601560,-15449220,-27617190
2026-01-14 17:25:30.361,21830360,64353450,-61289210,-17789010,-48320310,-17763670,-30351560
2026-01-14 17:25:30.371,40197700,78565500,-46611040,1631389,-44570310,-20390620,-32246090
2026-01-14 17:25:30.381,40378970,78945300,-45765140,2779403,-43632810,-23984380,-32519530
2026-01-14 17:25:30.391,20586540,79264660,-44979660,-16149860,-44257810,-278125,-315625
2026-01-14 17:25:30.401,18206880,23824280,11444740,-17752680,-4421875,-31503910,-30898440
2026-01-14 17:25:30.411,40819190,24244640,11904800,5498377,-44375,-35371100,-303125
2026-01-14 17:25:30.421,40914140,79981100,-43089320,6111227,-42539060,-38925780,-29941410
2026-01-14 17:25:30.431,19598210,80127830,-42649100,-14842160,-3921875,-41210940,-30390620
2026-01-14 17:25:30.441,41086770,25075010,12818040,6870813,-35253900,-428125,-31152340
2026-01-14 17:25:30.451,19500680,25187220,12947510,-14680750,-31132810,-44335940,-31894530
2026-01-14 17:25:30.461,41337090,8024867,-4204491,7017555,-26875,-4515625,-32695310
2026-01-14 17:25:30.471,41526980,63007770,-59199480,6896713,-23046880,-45,-33027340
2026-01-14 17:25:30.481,41760040,62967200,-59188260,6663655,-18378910,-43007810,-34414060
2026-01-14 17:25:30.491,42053520,79730780,-42407420,6318391,-16748050,-42734380,-34394530
2026-01-14 17:25:30.501,42390150,79428660,-42709530,5860911,-18330080,-4296875,-33320310
2026-01-14 17:25:30.511,42752680,62877430,-59278020,5291219,-21464840,-41640620,-32128910
2026-01-14 17:25:30.521,43123840,7868635,-4350366,4592049,-23476560,-40078120,-30292970
2026-01-14 17:25:30.531,43495010,23262360,11039910,3754778,-24160160,-36464840,-28710940
2026-01-14 17:25:30.541,43857540,17305040,16082280,2788030,-25253910,-31347660,-27558590
2026-01-14 17:25:30.551,44211430,77365700,-44945130,1657283,-26503910,-24121090,-2671875
2026-01-14 17:25:30.561,44582600,76890960,-45437130,353900,7,-26386720,-15917970,-25839840
2026-01-14 17:25:30.571,44945130,7638169,-4591190,-1130750,-26679690,-78271490,-240625
2026-01-14 17:25:30.581,45316290,20845490,8623041,-2796662,-26582030,-8465576,-21933590
2026-01-14 17:25:30.591,23024130,75276830,-46809570,17993590,-2671875,4555664,-20097660
2026-01-14 17:25:30.601,45998190,19826960,7639031,-6655020,-26601560,8276367,-17402340
2026-01-14 17:25:30.611,46300300,19295240,7134940,-8804308,-27128910,11923830,-14316410
2026-01-14 17:25:30.621,46533360,13286390,12073470,-11074440,-28183590,16464840,-11582030
2026-01-14 17:25:30.631,46680100,72592380,-48337380,-13430880,-29179690,20957030,-9199219
2026-01-14 17:25:30.641,46731880,71806900,-48708540,-15847750,-30585940,24296880,-7714844
2026-01-14 17:25:30.651,17421300,71004150,-49114220,10925110,-31464840,27890620,-4423828
2026-01-14 17:25:30.661,46447040,16273300,4304614,-20793700,-31035160,32070310,13801580
2026-01-14 17:25:30.671,46119040,15552550,3627028,-23296890,-28144530,37578120,6899414
2026-01-14 17:25:30.681,13491310,5940407,-5940231,6344282,-22148440,43515620,14375
2026-01-14 17:25:30.691,4506598,8636422,7453019,-2832052,-14482420,46914060,2078125
2026-01-14 17:25:30.701,71602330,7796730,6618161,64087590,-6772461,46875,24433590
2026-01-14 17:25:30.711,9008879,12219860,485963,3,1331868,90148930,46601560,26699220
2026-01-14 17:25:30.721,7492291,63883020,-52920800,-328000,7,9248047,45507810,27460940
2026-01-14 17:25:30.731,24172140,10421020,-1202393,16224100,18134770,45429690,26464840
2026-01-14 17:25:30.741,57546510,38212330,37055860,49486250,26777340,45703120,24726560
2026-01-14 17:25:30.751,32265200,35271620,23769040,-49355910,35234380,4328125,21640620
2026-01-14 17:25:30.761,19775170,7910932,-3526040,-62760900,44101560,34472660,22148440
2026-01-14 17:25:30.771,38359160,20703940,9334290,-45005550,49609380,23417970,24804690
2026-01-14 17:25:30.781,-1622760,65574830,-47448310,-85729790,5125,12451170,28105470
2026-01-14 17:25:30.791,-1043570,96761070,-15623330,-9521596,50664060,71728510,30136720
2026-01-14 17:25:30.801,36606930,5588148,-5588148,-48777590,49453120,45947260,28339840
2026-01-14 17:25:30.811,-24453530,-23788030,-34907350,-110373200,50195310,32885740,22792970
2026-01-14 17:25:30.821,42492000,-46257140,-57322950,-43945580,54023440,21179200,1515625
2026-01-14 17:25:30.831,35821450,-1139379,-12153400,-51134040,58320310,-24093630,8798828
2026-01-14 17:25:30.841,-74603570,-2028440,-12990670,-83356080,62773440,-29663090,5917969
2026-01-14 17:25:30.851,-7560830,-2227835,-13136550,-8442296,671875,-7236328,4465332
2026-01-14 17:25:30.861,3646017,47189370,-61345310,-5239425,69765620,-10966800,52685550
2026-01-14 17:25:30.871,-3314568,-397056,-108362000,-12274240,7046875,-13896480,8569336
2026-01-14 17:25:30.881,44445360,5093553,-5645980,-45945540,6921875,-1921875,11533200
2026-01-14 17:25:30.891,-2528220,63779440,-43063420,-11644990,67421870,-25449220,13720700
2026-01-14 17:25:30.901,-1972340,59032020,-47292940,-11165070,6375,-32402340,15585940
2026-01-14 17:25:30.911,-13258250,64668510,-41190360,-105858800,58203120,-37695310,17109380
2026-01-14 17:25:30.921,41337090,71116370,-34345440,-51850460,52421880,-4015625,17128910
2026-01-14 17:25:30.931,42329730,78108020,-27008510,-51323930,47617190,-41835940,1609375
2026-01-14 17:25:30.941,-32330800,8548812,-1936947,-41728970,43359380,-43320310,15927730
2026-01-14 17:25:30.951,-24120350,45888570,35421800,-33539230,39121100,-43984380,165625
2026-01-14 17:25:30.961,-20244640,53219460,42764770,-21187390,35742190,-44375,17519530
2026-01-14 17:25:30.971,34259120,10714500,264990,9,-59981500,32734380,-44335940,18085940
2026-01-14 17:25:30.981,-48811260,11336840,885611,8,-58221500,30507810,-43242190,18544920
2026-01-14 17:25:30.991,19366890,7178014,6132028,9980804,29082030,-39960940,18964840
2026-01-14 17:25:31.001,8236258,12349340,1875663,7300757,28710940,-35703120,19277340
2026-01-14 17:25:31.011,60059190,12730860,2236465,-33128370,2859375,-30039060,19921880
2026-01-14 17:25:31.021,64858400,13037280,2516993,-27914830,28789060,-22480470,21289060
2026-01-14 17:25:31.031,27661060,60758360,-44755240,18432080,29296880,-11708980,2390625
2026-01-14 17:25:31.041,48613590,87035760,76448140,-43175630,29628910,9686279,27773440
2026-01-14 17:25:31.051,45917920,13625100,2999505,-45301620,29667970,14853520,33320310
2026-01-14 17:25:31.061,38627600,137761500,31074030,29562630,29902340,27265620,38417970
2026-01-14 17:25:31.071,41272350,62130790,-45005550,32269520,29453120,3859375,43007810
2026-01-14 17:25:31.081,39634660,140635900,33033420,38740950,27421880,48242190,44296880
2026-01-14 17:25:31.091,8550537,14226730,3416416,-315918,5,228125,525,45585940
2026-01-14 17:25:31.101,86765580,55226320,-53429200,-1139382,17626950,48828120,43164060
2026-01-14 17:25:31.111,8754244,9695874,8603276,50064,52,11992190,41640620,39101560
2026-01-14 17:25:31.121,8800853,64280080,-45704710,193351,9,5620117,33574220,35429690
2026-01-14 17:25:31.131,88129390,64789350,-46024090,3193727,-7183838,28261720,3109375
2026-01-14 17:25:31.141,46447040,14996670,3820377,-37211140,-53466800,25703120,25683590
2026-01-14 17:25:31.151,8772369,65756090,-47077150,549840,9,-9111328,24082030,20800780
2026-01-14 17:25:31.161,8737844,6615316,-4783675,670681,-1125,23105470,18144530
2026-01-14 17:25:31.171,8707631,66489790,-48743070,804475,-12021480,22285160,16523440
2026-01-14 17:25:31.181,86990020,66731480,-49761610,9684739,-11894530,22050780,15175780
2026-01-14 17:25:31.191,8722307,13907350,2130297,1169593,-11787110,21835940,15458980
2026-01-14 17:25:31.201,54700640,66990420,-52005840,47325740,-11464840,21679690,14736330
2026-01-14 17:25:31.211,41302560,6704223,-5314524,-30651070,-11083980,21015620,13876950
2026-01-14 17:25:31.221,9128859,7011164,5798241,2109582,-11064450,20664060,13691410
2026-01-14 17:25:31.231,93964420,120196100,-2114762,25497970,-12128910,19716800,13994140
2026-01-14 17:25:31.241,34035560,11616510,-706072,4,-32756340,-12548830,19326170,13427730
2026-01-14 17:25:31.251,10147400,57215050,44811340,3628758,-12998050,19033200,1203125
2026-01-14 17:25:31.261,10621280,110718500,-14043740,4259736,-12998050,19765620,92285150
2026-01-14 17:25:31.271,11166800,67378850,-58022110,4957174,-13662110,19775390,6435547
2026-01-14 17:25:31.281,39049700,5273609,4014072,-21561920,-14833980,18466800,3383789
2026-01-14 17:25:31.291,39049700,11042500,-1599451,-20077270,-17871090,15605470,21447750
2026-01-14 17:25:31.301,39101480,11235850,-1447534,-18558100,-22792970,12128910,13110350
2026-01-14 17:25:31.311,39153270,68751290,-58445070,-17004400,-27675780,8149414,95336910
2026-01-14 17:25:31.321,39196430,11856470,-894242,7,-15424800,-30898440,45410160,-58654780
2026-01-14 17:25:31.331,39222330,12225040,-555018,2,-13845210,-33339840,21618650,-3737793
2026-01-14 17:25:31.341,39213700,68292080,55486130,-12265610,-35703120,9893799,-5600586
2026-01-14 17:25:31.351,16719550,70684780,-57616430,11730450,-38222660,35858150,-7583008
2026-01-14 17:25:31.361,17348800,13270340,419498,9,12516790,-40234380,-115478500,-921875
2026-01-14 17:25:31.371,17934890,65067290,-63648240,13259980,-42617190,-30322270,-10419920
2026-01-14 17:25:31.381,38808010,13722640,830365,5,-6404703,-4578125,-4987793,-10322270
2026-01-14 17:25:31.391,23529940,8034450,6742977,-20180850,-48476560,-5732422,-10664060
2026-01-14 17:25:31.401,38350530,13891820,954661,6,-3892884,-4921875,-55371100,-11337890
2026-01-14 17:25:31.411,38048420,13852110,890787,1,-2762136,-48242190,-5673828,-12460940
2026-01-14 17:25:31.421,19977150,72178060,-57694120,16034200,-45742190,-5830078,-11708980
2026-01-14 17:25:31.431,20881750,76855560,63840720,-17218460,-440625,-68359380,-10039060
2026-01-14 17:25:31.441,37003990,132617000,2209707,181268,8,-41484380,-6464844,-90185540
2026-01-14 17:25:31.451,36624190,71737840,-58962970,1027173,-38945310,-5932617,-8613281
2026-01-14 17:25:31.461,36227140,125047100,-5929961,1838551,-38125,-6743164,-7583008
2026-01-14 17:25:31.471,35821450,12052410,-1072919,2606766,-35449220,-77197260,-7163086
2026-01-14 17:25:31.481,35407130,11591470,-1561472,3400880,-31875,-90527340,-6010742
2026-01-14 17:25:31.491,17349670,51904840,38727730,-13430880,-27851560,-9267578,-49243160
2026-01-14 17:25:31.501,34543960,47341280,34141730,5040902,-27910160,-11308590,-21594240
2026-01-14 17:25:31.511,16078220,43554570,30332570,-12078300,-28359380,-13212890,14208980
2026-01-14 17:25:31.521,21532570,100222400,-32204780,18863670,-26484380,-14951170,6171875
2026-01-14 17:25:31.531,32973000,38568910,25305480,7803037,-17617190,-7314453,828125
2026-01-14 17:25:31.541,32386040,3702470,2374227,8752518,-60302740,48461910,61816410
2026-01-14 17:25:31.551,31842240,96174110,-36788200,9641586,53271480,16523440,5987549
2026-01-14 17:25:31.561,12572040,36431710,23126840,-8385671,12636720,18417970,-5776367
2026-01-14 17:25:31.571,31065400,69597190,-63485960,11229810,16572270,8173828,-8754883
2026-01-14 17:25:31.581,11556950,38071720,24766860,-7277364,16611330,-3930664,-75439460
2026-01-14 17:25:31.591,30616550,38932300,25632620,12731720,13369140,-11005860,-61328120
2026-01-14 17:25:31.601,30452540,69743930,-63166600,13482680,8232422,-11074220,-328125
2026-01-14 17:25:31.611,10263060,3995948,2667705,-5809117,17578120,-9448242,-16296390
2026-01-14 17:25:31.621,98590980,69709410,-63028490,-53499110,-18066410,-5961914,8651733
2026-01-14 17:25:31.631,2997778,69657610,-63011220,1561473,-34570310,-22375490,6402588
2026-01-14 17:25:31.641,90762050,69588560,-63028490,-44755220,-34545900,-14709470,2973938
2026-01-14 17:25:31.651,8696414,32116460,32103200,-4061201,-38671880,-2998047,-14404300
2026-01-14 17:25:31.661,29321800,97606980,-34941020,17323770,-5161133,-3815918,-49560550
2026-01-14 17:25:31.671,29062840,69303710,-63244280,17824410,-47094730,-25390620,-52001950
2026-01-14 17:25:31.681,7602777,95276420,-37271570,-2893333,-65966800,-15917970,4827881
2026-01-14 17:25:31.691,24122070,69010230,-63537760,23144970,-8701172,7476807,24047850
2026-01-14 17:25:31.701,69018860,32091700,18835170,-21613710,-11396480,68359380,20874020
2026-01-14 17:25:31.711,6553168,29935510,16675530,-1802292,-14189450,-1484375,20812990
2026-01-14 17:25:31.721,27604100,27347730,14084300,19939170,-13564450,-25317380,36157230
2026-01-14 17:25:31.731,58816230,24070290,10801670,-11272970,-10625,-22058100,23571780
2026-01-14 17:25:31.741,55700190,20189490,6913970,-8174198,-8618164,-17749020,16503910
2026-01-14 17:25:31.751,52825850,15789920,2509226,-5351640,-4296875,-16736980,10688780
2026-01-14 17:25:31.761,50046450,49801310,36515440,-2606762,14428710,8984375,-17745970
2026-01-14 17:25:31.771,23801410,66446120,-66447150,-23327530,39111330,16723630,-16174320
2026-01-14 17:25:31.781,44565340,6085331,-7207451,2788032,75390620,-51116940,-18603520
2026-01-14 17:25:31.791,20493320,-4056886,-17349670,-15759710,90185540,11102300,-32177730
2026-01-14 17:25:31.801,17558550,-8976942,-22269720,-12824940,10810550,2512207,-49169920
2026-01-14 17:25:31.811,14537460,46257140,-86653380,-9803854,9238281,38330080,-5131836
2026-01-14 17:25:31.821,32403300,42364260,-90529010,14967320,8876953,84472660,-16442870
2026-01-14 17:25:31.831,28622630,3923958,-9361915,18782520,7597656,15390630,-21044920
2026-01-14 17:25:31.841,32342880,37245670,-95595790,15079540,7675781,21386720,-66015620
2026-01-14 17:25:31.851,-3388367,66121210,-66720250,3862246,6074219,23886720,-12949220
2026-01-14 17:25:31.861,15105430,-23136340,-36422220,32196140,9316406,24492190,-16992190
2026-01-14 17:25:31.871,22192030,37530520,-95362740,24988700,9868164,24335940,-19677730
2026-01-14 17:25:31.881,3737516,3859220,-9435283,43270580,7915039,26074220,-21074220
2026-01-14 17:25:31.891,-2408238,-20195530,-33493490,49209180,50927740,25703120,-21269530
2026-01-14 17:25:31.901,-29869910,-19157140,-32460270,34522380,3474121,24023440,-19658200
2026-01-14 17:25:31.911,19205470,64038390,-69044760,26991250,16821290,23925780,-17666020
2026-01-14 17:25:31.921,-23020680,42312460,-90822480,68820340,24887080,22910160,-18486330
2026-01-14 17:25:31.931,-3066838,43028900,-90157840,7601917,15771480,23300780,-19697270
2026-01-14 17:25:31.941,16305230,-16212870,-29535000,28544950,5957031,24453120,-19433590
2026-01-14 17:25:31.951,15243540,4443585,-8880268,29106010,6699219,26464840,-18203120
2026-01-14 17:25:31.961,14147310,45195450,-88008550,29718860,22167970,28164060,-16533200
2026-01-14 17:25:31.971,-65065560,-13539650,-26856590,108431100,-50634770,29238280,-13583980
2026-01-14 17:25:31.981,11825390,-11730450,-25040490,31004970,-11142580,31738280,-13056640
2026-01-14 17:25:31.991,10591060,50883720,-82130380,31652350,-16220700,29121090,-11875
2026-01-14 17:25:32.001,9304941,54448600,-78444660,32316990,-18505860,24199220,-95410160
2026-01-14 17:25:32.011,-10469360,-699166,5,-13974680,14562500,-20410160,16835940,-11230470
2026-01-14 17:25:32.021,6551439,-18119890,-18133150,33654900,-22246090,12900390,-11845700
2026-01-14 17:25:32.031,5144476,47186780,33950970,34319540,-25488280,86621100,-765625
2026-01-14 17:25:32.041,-13669980,76321260,-55777880,17542150,-30058590,3713379,-23059080
2026-01-14 17:25:32.051,2356445,67577380,-64228290,35588400,-33535160,-3413086,8508301
2026-01-14 17:25:32.061,932222,29966580,16817090,36149460,-33554690,-97998050,97717290
2026-01-14 17:25:32.071,-526534,68604550,-62562380,36658720,-303125,-15136720,18249510
2026-01-14 17:25:32.081,-197664,43482920,30404210,3715938,-27050780,-17666020,37017820
2026-01-14 17:25:32.091,-340086,44155500,42851780,3765138,-26582030,-19970700,14916990
2026-01-14 17:25:32.101,-4790581,6992518,-5998151,38143370,-28925780,-22460940,28759770
2026-01-14 17:25:32.111,-6145754,70279100,-59144240,38583590,-30839840,-27226560,27368160
2026-01-14 17:25:32.121,-7492296,70615730,-58324230,38997910,-30039060,-34179690,2902832
2026-01-14 17:25:32.131,-8812938,13102880,258951,39351800,-26269530,-37773440,54296880
2026-01-14 17:25:32.141,-10107690,13543960,750093,1,39697070,-23320310,-40351560,7861328
2026-01-14 17:25:32.151,11775330,8189819,6915611,16916360,-21796880,-42695310,8100586
2026-01-14 17:25:32.161,-12550450,85151460,72462900,40396240,-22128910,-43320310,73583980
2026-01-14 17:25:32.171,10804270,87801390,75164620,16247410,-2296875,-41601560,5620117
2026-01-14 17:25:32.181,-1474290,14656580,2071602,4108678,-22949220,-40703120,43554690
2026-01-14 17:25:32.191,-15752810,71194050,-54137860,41423410,-21699220,-40039060,2849121
2026-01-14 17:25:32.201,961137,14900000,2415142,1545502,-19365230,-4015625,18725590
2026-01-14 17:25:32.211,-17565460,70935100,-53412800,42079420,-17070310,-40976560,9899902
2026-01-14 17:25:32.221,-18394100,70771100,-53110700,42390160,-13554690,-41484380,56488040
2026-01-14 17:25:32.231,11761880,70581200,-52834480,11768070,-10292970,-39199220,2027893
2026-01-14 17:25:32.241,-19896010,70382670,-52584160,43011640,-9003906,-36132810,-17028810
2026-01-14 17:25:32.251,8192322,15017390,2763863,14578030,-8535156,-33691410,-34106440
2026-01-14 17:25:32.261,-21130340,69942460,-52195740,43607220,-7631836,-3203125,-5498047
2026-01-14 17:25:32.271,-21639610,608964,8,-608789,43874800,-5517578,-29082030,-71240230
2026-01-14 17:25:32.281,-22071190,14860290,2713801,44116490,-3088379,-24550780,-75439460
2026-01-14 17:25:32.291,-2241643,93411980,81293110,4434096,-7598877,-21855470,-83251950
2026-01-14 17:25:32.301,-22692670,92709360,80614660,44548080,19384770,-19726560,-9501953
2026-01-14 17:25:32.311,7529408,68975710,-51781420,14291470,44995120,-16513670,-10742190
2026-01-14 17:25:32.321,-23037940,14558180,2498008,44893340,6982422,-12626950,-11445310
2026-01-14 17:25:32.331,-23115630,68708130,-51755520,45057350,10,-8413086,-11455080
2026-01-14 17:25:32.341,-23132880,90263140,78227140,45212720,11982420,-4868164,-1125
2026-01-14 17:25:32.351,-23098360,89912700,77887050,45385350,13574220,-17053220,-11865230
2026-01-14 17:25:32.361,-23029310,14389000,2373711,45557980,14462890,24841310,-13037110
2026-01-14 17:25:32.371,-22942990,90074100,78070900,45747880,15136720,6904297,-13310550
2026-01-14 17:25:32.381,8109459,14471000,2481607,14988900,15537110,10087890,-10498050
2026-01-14 17:25:32.391,-33297550,14566810,2592956,35635000,16552730,13779300,-56103520
2026-01-14 17:25:32.401,8336475,87777740,86582080,15245270,17216800,16669920,19283300
2026-01-14 17:25:32.411,-22787620,14859430,2921823,46490200,16835940,18496090,43603520
2026-01-14 17:25:32.421,-22899840,68682230,-50486660,46619680,17011720,17734380,7265625
2026-01-14 17:25:32.431,-23081100,68803080,-50141400,46731880,17568360,15048830,859375
2026-01-14 17:25:32.441,-23340050,68932540,-49770230,46818200,165625,11425780,8354492
2026-01-14 17:25:32.451,8091330,69044760,-49381810,15145140,15087890,84814460,7182617
2026-01-14 17:25:32.461,-24013320,15980680,4165647,46956310,13876950,63183590,60791020
2026-01-14 17:25:32.471,-24410370,10895500,9716937,47025360,13984380,43579100,6274414
2026-01-14 17:25:32.481,10766540,69286460,-48259700,11485910,14433590,3408203,6347656
2026-01-14 17:25:32.491,7330018,16546920,4825106,14577170,14443360,24157720,74072260
2026-01-14 17:25:32.501,-25713760,16668630,4979615,47292940,13076170,2168274,9824219
2026-01-14 17:25:32.511,6956267,16739410,5081468,14312180,12675780,-42651370,12128910
2026-01-14 17:25:32.521,6775002,16759260,5130668,14182700,12158200,-69628900,14726560
2026-01-14 17:25:32.531,6612726,16720420,5117720,14068770,11435550,-7763672,16757810
2026-01-14 17:25:32.541,6452177,16632370,5050393,13953100,10292970,-7583008,18583980
2026-01-14 17:25:32.551,6302849,16495130,4928686,13843480,8876953,-80029300,19267580
2026-01-14 17:25:32.561,-27923470,16325080,4770728,47828110,87890620,-8730469,18886720
2026-01-14 17:25:32.571,-28173790,16114470,4567021,47854000,89697260,-9707031,17421880
2026-01-14 17:25:32.581,5932549,6783633,-4760369,13557770,87353520,-95947260,15976560
2026-01-14 17:25:32.591,5847096,15638010,4094003,13487850,88720700,-10498050,15556640
2026-01-14 17:25:32.601,-28639890,15381640,3832465,47854000,73876950,-10244140,14287110
2026-01-14 17:25:32.611,5746106,15126150,3570061,13398950,4658203,-88427740,13232420
2026-01-14 17:25:32.621,5731430,66947260,-48734430,13379100,21496580,-7714844,12119140
2026-01-14 17:25:32.631,-28639900,14682480,3098773,47733160,10272220,-6660156,12255860
2026-01-14 17:25:32.641,-37146410,92806900,81207660,39054020,18920900,-7836914,11591800
2026-01-14 17:25:32.651,-28493160,66636520,-49511280,47534640,30126950,-88378900,98779300
2026-01-14 17:25:32.661,-28424100,14282830,2652516,47431050,43823240,-92871100,8178711
2026-01-14 17:25:32.671,5702948,142465800,26024500,13269480,54248050,-89941410,5708008
2026-01-14 17:25:32.681,-2826007,89901470,78243540,4721530,6791992,-8027344,35791020
2026-01-14 17:25:32.691,-36694980,142672900,25989970,38590500,75,-66064450,24719240
2026-01-14 17:25:32.701,-28061580,66886850,-49899710,47034000,7529297,-54833980,17980960
2026-01-14 17:25:32.711,5766821,14424390,2735377,13257390,77685540,-58691410,21875
2026-01-14 17:25:32.721,5793581,145314200,28355050,13265160,81591800,-6689453,3540039
2026-01-14 17:25:32.731,-27716300,14656580,2952035,46809570,8852539,-7529297,4765625
2026-01-14 17:25:32.741,-27612720,9527985,8356843,46723250,87402340,-69189460,6826172
2026-01-14 17:25:32.751,9184531,59507630,-57693250,9925997,78222660,-72998050,7661133
2026-01-14 17:25:32.761,5848823,15074360,3345637,13244440,6298828,-7729492,7602539
2026-01-14 17:25:32.771,-27371040,68034860,-49338650,46395250,54785160,-75097660,77685540
2026-01-14 17:25:32.781,5764233,15367830,3621851,13121870,44213870,-6923828,90478510
2026-01-14 17:25:32.791,5696043,15511120,3754779,13034690,3293457,-7636719,10634770
2026-01-14 17:25:32.801,5601094,15662170,3897201,12922480,26391600,-98828130,11982420
2026-01-14 17:25:32.811,-27405560,15805460,4030131,45652920,22912600,-10966800,12070310
2026-01-14 17:25:32.821,-27465990,10645180,9466618,45419870,28515620,-10380860,12509770
2026-01-14 17:25:32.831,5169510,6916560,-4881212,12439110,3227539,-9838867,13798830
2026-01-14 17:25:32.841,4997740,16194750,4383164,12248350,3076172,-8540039,14941410
2026-01-14 17:25:32.851,80717380,16306090,4478972,87945540,29248050,-57910160,15869140
2026-01-14 17:25:32.861,-27793990,16409670,4565294,44228700,3154297,-13745120,15488280
2026-01-14 17:25:32.871,-27854420,69899300,-48751700,43874810,29541020,3623047,1484375
2026-01-14 17:25:32.881,-27888940,70106460,-48786220,43495010,2644043,8935547,11074220
2026-01-14 17:25:32.891,40646560,16704010,4788852,111616200,3564453,15322270,7973633
2026-01-14 17:25:32.901,-27819890,16830040,4887256,42700900,64697260,22226560,46704100
2026-01-14 17:25:32.911,37893050,16988860,5021907,107982200,10087890,29765620,17626950
2026-01-14 17:25:32.921,-27664510,17196880,5210944,42010360,12255860,38066410,35064700
2026-01-14 17:25:32.931,67314110,71461630,-48535910,74245340,11416020,47148440,-1307373
2026-01-14 17:25:32.941,66810890,71824160,-48225170,73712780,99560540,53789060,-33203120
2026-01-14 17:25:32.951,-27405570,72247110,-47750420,41406150,6640625,58164060,-6040039
2026-01-14 17:25:32.961,-27345140,7271321,-4712893,41345720,23937990,60078120,-89697260
2026-01-14 17:25:32.971,35933660,14020080,12824420,104590000,-36157230,5734375,-10039060
2026-01-14 17:25:32.981,67343460,20072960,8152614,74216000,-11269530,515625,-8798828
2026-01-14 17:25:32.991,3696084,20784210,8908751,10580710,-16601560,44257810,-6347656
2026-01-14 17:25:33.001,3747871,74715780,-43538160,10649760,-2078125,36738280,-42041020
2026-01-14 17:25:33.011,-27371040,75173250,-42545520,41872260,-23867190,29804690,-27539060
2026-01-14 17:25:33.021,38272850,75596190,-41552880,107775100,-26132810,22929690,-10217290
2026-01-14 17:25:33.031,38462740,75975990,-40586140,108275700,-29316410,17294920,4446411
2026-01-14 17:25:33.041,3853179,7628673,-3965391,10872460,-32402340,12041020,19787600
2026-01-14 17:25:33.051,-27923470,24652060,13120150,42683630,-34707030,6772461,28320310
2026-01-14 17:25:33.061,-2811338,76735580,-37962110,4294262,-36425780,40374760,2734375
2026-01-14 17:25:33.071,3881662,76873700,-37237050,11033870,-36835940,-55029300,26831060
2026-01-14 17:25:33.081,3918778,58788610,-54752440,11117600,-3609375,-13369140,35888670
2026-01-14 17:25:33.091,72336020,76977260,-36028610,79581450,-34902340,-23125,55126950
2026-01-14 17:25:33.101,-28795270,76951380,-35536610,44159650,-33828120,-32871090,6738281
2026-01-14 17:25:33.111,4104360,76882330,-35139540,11449920,-32207030,-40234380,60595700
2026-01-14 17:25:33.121,74936740,26562250,15404950,82332360,-30175780,-44453120,37646480
2026-01-14 17:25:33.131,-36431710,26594190,15476600,38025120,-27832030,-4703125,10687260
2026-01-14 17:25:33.141,-29356330,76450740,-34362700,45566620,-24511720,-5078125,-43640140
2026-01-14 17:25:33.151,4510051,26526000,15475730,12045500,-20878910,-55703120,-12548830
2026-01-14 17:25:33.161,4679232,21465760,20363330,12256120,-17802730,-59257810,-6335449
2026-01-14 17:25:33.171,48674010,26277400,15275470,124822600,-15517580,-60585940,4142761
2026-01-14 17:25:33.181,5066794,26096140,15111470,12714460,-13232420,-6140625,-7220459
2026-01-14 17:25:33.191,5285173,75250940,-34457640,12962190,-11044920,-60195310,-22583010
2026-01-14 17:25:33.201,5495789,25644700,14682480,13200420,-74658200,-57851560,-46655270
2026-01-14 17:25:33.211,5716759,25382300,14426980,13445560,-30322270,-553125,-71240230
2026-01-14 17:25:33.221,5938590,56722190,-52796500,13689840,47058100,-50507810,-7631836
2026-01-14 17:25:33.231,-28803900,2478411,1383400,48915700,56347660,-43164060,-72509770
2026-01-14 17:25:33.241,-28665790,19511290,18416280,49278230,12460940,-32988280,-7270508
2026-01-14 17:25:33.251,6656747,24066830,13118420,14473590,19375,-20859380,-5366211
2026-01-14 17:25:33.261,6920014,23693950,12748980,14762750,23339840,-66064450,-38012700
2026-01-14 17:25:33.271,-2823423,56458060,-52887990,5050396,2640625,13779300,-20861820
2026-01-14 17:25:33.281,-2811336,22973200,12054130,5097005,32675780,40351560,15783690
2026-01-14 17:25:33.291,-2799254,71711950,-37237050,5148797,37832030,66210940,5625
2026-01-14 17:25:33.301,8106870,22461340,11599240,16096350,37851560,853125,10263670
2026-01-14 17:25:33.311,845815,6,55809820,-52431380,1648739,32890620,93125,14443360
2026-01-14 17:25:33.321,8810350,22231740,11449050,16877510,25097660,8859375,16025390
2026-01-14 17:25:33.331,-27327880,70555300,-36822720,53706280,18554690,79804690,15869140
2026-01-14 17:25:33.341,-27207040,22331870,11642410,54172390,15224610,71367180,13574220
2026-01-14 17:25:33.351,9628633,22495010,11859060,17802830,15664060,6234375,10068360
2026-01-14 17:25:33.361,9796950,70313620,-35441660,18014310,171875,52929690,78515620
2026-01-14 17:25:33.371,9935919,70270460,-34828810,18203340,18701170,43164060,80029300
2026-01-14 17:25:33.381,-27422830,7021002,-3416416,55821040,20019530,32949220,9111328
2026-01-14 17:25:33.391,10127540,23489370,13126190,18512350,20507810,20996090,11933590
2026-01-14 17:25:33.401,10210410,70002880,-32886680,18653910,19316410,8129883,14052730
2026-01-14 17:25:33.411,10320030,52975180,-49223850,18820500,17109380,-4350586,15292970
2026-01-14 17:25:33.421,10432240,23982240,13824490,18984500,15019530,-16875,16826170
2026-01-14 17:25:33.431,10574660,52422740,-48619630,19170090,10996090,-26894530,17353520
2026-01-14 17:25:33.441,10738670,6937276,-3122077,19368610,70458980,-33300780,17041020
2026-01-14 17:25:33.451,-28027050,69226030,-31004970,58531390,43310550,-36621100,16298830
2026-01-14 17:25:33.461,11141770,6910518,-3084961,19811420,17016600,-41484380,14990230
2026-01-14 17:25:33.471,11389490,69018860,-30728760,20064330,-8071899,-50546880,14335940
2026-01-14 17:25:33.481,-27396930,68958450,-30616550,59334140,-62164310,-63164060,16455080
2026-01-14 17:25:33.491,-27146610,6894980,-3050433,59515390,-23413090,-74492190,16962890
2026-01-14 17:25:33.501,12027370,68975710,-30374860,20686670,-47314450,-81640620,14306640
2026-01-14 17:25:33.511,-26766820,69027500,-30254020,59722560,-7661133,-84921870,83447260
2026-01-14 17:25:33.521,-43027170,69105180,-30124540,43358630,-9550781,-84609380,1730957
2026-01-14 17:25:33.531,12327760,69200140,-29977800,20955980,-10966800,-83984380,-3864746
2026-01-14 17:25:33.541,12392490,51528510,-47580380,21012090,-12207030,-8109375,-10126950
2026-01-14 17:25:33.551,-26274820,24848000,14944020,59817500,-14599610,-78320310,-14462890
2026-01-14 17:25:33.561,-41339680,25022360,15132190,44700850,-15996090,-77148440,-14267580
2026-01-14 17:25:33.571,12485720,69657620,-29054220,21091500,-19501950,-76171870,-15957030
2026-01-14 17:25:33.581,-26421550,25482430,15638870,59791610,-23671880,-6953125,-18408200
2026-01-14 17:25:33.591,-26792720,6989064,-2819967,59713920,-26914060,-5296875,-18076170
2026-01-14 17:25:33.601,15689360,26032270,16262940,16558570,-26464840,-30214840,-14199220
2026-01-14 17:25:33.611,11323030,26305890,16576270,20061740,-23007810,-57666020,-11464840
2026-01-14 17:25:33.621,10827570,2656656,1686801,19607710,-21601560,21640620,-9794922
2026-01-14 17:25:33.631,-42561920,26782360,17101070,45515680,-23144530,46015620,-8911133
2026-01-14 17:25:33.641,9980805,26954990,17273710,18797200,-2375,65351560,-12880860
2026-01-14 17:25:33.651,9682148,50682600,-46233840,18491640,-17294920,81015620,-19619140
2026-01-14 17:25:33.661,9437012,27225160,17521440,18236140,-10439450,946875,-25996090
2026-01-14 17:25:33.671,9233301,71055940,-26033130,18025530,-51220700,10875,-30527340
2026-01-14 17:25:33.681,9059806,5077237,-4623039,17853760,-9033203,12140630,-36054690
2026-01-14 17:25:33.691,8902708,50694690,-46100910,17700110,-153125,13265630,-42695310
2026-01-14 17:25:33.701,8762014,7155658,-2498007,17564590,-18925780,140,-4546875
2026-01-14 17:25:33.711,-30961820,28496610,18874020,57046740,-20976560,1425,-4296875
2026-01-14 17:25:33.721,-42649970,50373580,-45541580,45237750,-26582030,142578100,-3875
2026-01-14 17:25:33.731,12379800,50282090,-45339600,13256270,-33476560,1378125,-36386720
2026-01-14 17:25:33.741,-31022240,73041220,-22304240,56295780,-409375,131015600,-36171880
2026-01-14 17:25:33.751,8033498,50139670,-44912320,16722150,-496875,119609400,-33203120
2026-01-14 17:25:33.761,7705498,31728310,22254180,16342350,-59453120,10359380,-30253910
2026-01-14 17:25:33.771,7305849,75155990,-19309060,15878830,-67617180,91328130,-24765620
2026-01-14 17:25:33.781,-31393400,33599660,24180780,53594070,-69179690,77109380,-14179690
2026-01-14 17:25:33.791,6383986,7684779,-1713388,14798140,-66679690,59257810,14562990
2026-01-14 17:25:33.801,-31471090,77710960,-16115340,51721000,-64296880,45234380,22539060
2026-01-14 17:25:33.811,5596777,78591400,-15114060,13807230,-671875,37265620,39570310
2026-01-14 17:25:33.821,-31082660,3741743,2806245,49778870,-68125,33359380,57695310
2026-01-14 17:25:33.831,5062478,38524890,29199230,13012250,-63984380,14121090,73164060
2026-01-14 17:25:33.841,83361260,81465740,-11255710,91171200,-56835940,-18710940,91171870
2026-01-14 17:25:33.851,-30020960,49604500,-42305560,46645570,-33730470,-4890625,11421880
2026-01-14 17:25:33.861,-29839700,83416500,-7440499,45376720,18969730,-70820310,1271875
2026-01-14 17:25:33.871,-29744750,84374620,-5256687,43969750,37734380,-88984380,12953130
2026-01-14 17:25:33.881,-29615270,45601130,36779560,42459210,55234380,-9015625,12109380
2026-01-14 17:25:33.891,-29416750,47617490,-39044520,40845080,75351560,-102265600,82890620
2026-01-14 17:25:33.901,1613262,48701630,40187350,8451274,7125,-111640600,55429690
2026-01-14 17:25:33.911,-28778010,46497100,-37316460,37547780,55429690,-137890600,16552730
2026-01-14 17:25:33.921,5489744,8852642,566237,6,69778460,29160160,-1646875,-44648440
2026-01-14 17:25:33.931,716430,89147940,6715446,63157960,8457031,-17578120,-88046870
2026-01-14 17:25:33.941,-27768100,46115580,-36437750,33206050,50097660,-18046880,-94296870
2026-01-14 17:25:33.951,20570140,9007151,681038,1,26558800,10488280,-156640600,-86875
2026-01-14 17:25:33.961,-8269142,52385630,43943850,50909620,9370117,-11984380,-80703130
2026-01-14 17:25:33.971,17600850,90563540,4712892,23485930,9560547,-94609380,-75820310
2026-01-14 17:25:33.981,18029840,48353780,-38964240,23920100,1046875,-8015625,-58789060
2026-01-14 17:25:33.991,-8001562,46631240,45744940,51332570,12519530,-5578125,-37050780
2026-01-14 17:25:34.001,-27854410,9027003,60422,81,32239300,16425780,-28300780,-19833980
2026-01-14 17:25:34.011,-9330840,8992476,-44884,66,51798680,23632810,-14824220,-11962890
2026-01-14 17:25:34.021,-29244110,8949318,-132926,6,33128370,39453120,-6298828,-14677730
2026-01-14 17:25:34.031,-1512270,89001200,-2201076,4861363,58476560,115625,-14697270
2026-01-14 17:25:34.041,-31203500,88474660,-3141927,33948380,7578125,43828120,-6640625
2026-01-14 17:25:34.051,-2201078,87948140,-4238152,4445316,7484375,7359375,41381840
2026-01-14 17:25:34.061,6459082,8743886,-548974,9,13221140,4875,9421875,16748050
2026-01-14 17:25:34.071,-24539850,50864730,-42840730,44047440,15576170,93515620,23300780
2026-01-14 17:25:34.081,-24177320,8655841,-776849,8,45238610,-17060550,79765620,25253910
2026-01-14 17:25:34.091,7970488,8617863,-847630,6,14989770,-428125,59726560,28476560
2026-01-14 17:25:34.101,11643260,8582473,-883020,8,12352790,-57539060,44257810,30800780
2026-01-14 17:25:34.111,11639550,51029600,-43366400,12356500,-5453125,30820310,28320310
2026-01-14 17:25:34.121,-24643430,38665330,37724990,47776320,-48046880,15644530,16826170
2026-01-14 17:25:34.131,-3644466,84927050,-8778416,3666567,-43007810,58740230,66308590
2026-01-14 17:25:34.141,-3676403,8464220,-887335,8,3698501,-37792970,45196530,1829834
2026-01-14 17:25:34.151,-25687860,84357350,-9071886,48648120,-3234375,-9145508,56427000
2026-01-14 17:25:34.161,-25092280,8408975,-937398,9,49778870,-27910160,-18808590,9613037
2026-01-14 17:25:34.171,-2384931,41710840,32348930,5147069,-19589840,-28027340,45581060
2026-01-14 17:25:34.181,-21958980,41344860,31955330,53723540,-14082030,-4046875,11142580
2026-01-14 17:25:34.191,14674710,50771510,-43520900,22268860,-8574219,-553125,17021480
2026-01-14 17:25:34.201,-16641870,83217970,-11540550,59454980,-4946289,-67421870,19130860
2026-01-14 17:25:34.211,-1323236,8307123,-1223971,6295081,-50439450,-74570310,15029300
2026-01-14 17:25:34.221,-9270420,8292447,-1297340,66930000,-6640625,-77695310,9399414
2026-01-14 17:25:34.231,-3776013,82777760,-13724360,3842307,-8540039,-7765625,3647461
2026-01-14 17:25:34.241,-353896,8263099,-1447532,75794740,-11123050,-73242190,-122802700
2026-01-14 17:25:34.251,4505736,82458380,-15252170,80602580,-11533200,-69726560,-51464840
2026-01-14 17:25:34.261,-33257840,38028570,28193640,42769950,-94970700,-68320310,-54052740
2026-01-14 17:25:34.271,-32739940,82078590,-16926710,43236060,-6821289,-67734380,-5546875
2026-01-14 17:25:34.281,-32230670,36989310,27023180,43693540,-43798830,-6609375,-6982422
2026-01-14 17:25:34.291,23927000,36402360,26367180,99851220,-3930664,-61015620,-7236328
2026-01-14 17:25:34.301,2813927,35747220,25641250,10409800,-26757810,-51796880,-73779300
2026-01-14 17:25:34.311,3189403,80852900,-20931810,10793910,13745120,-35878900,-31103520
2026-01-14 17:25:34.321,69301980,34309180,24058200,76918580,7241211,-13115230,4013672
2026-01-14 17:25:34.331,37996630,79989720,-23245100,114266100,11708980,14970700,10859380
2026-01-14 17:25:34.341,4100044,79558140,-24453530,11730450,96435540,44765620,12773440
2026-01-14 17:25:34.351,-37314730,31997610,21518770,38954750,49365230,7296875,11054690
2026-01-14 17:25:34.361,4684409,78772660,-26689140,12302730,6586914,93671870,49316410
2026-01-14 17:25:34.371,4961488,30744300,20148050,12578080,13515630,108828100,-45581060
2026-01-14 17:25:34.381,-29080110,7809937,-2815652,47189360,21523440,1240625,-88671870
2026-01-14 17:25:34.391,-28933370,2991564,1928490,47612320,25136720,140703100,-93896480
2026-01-14 17:25:34.401,-28812530,7741746,-2875209,48095690,23808590,1525,-52734380
2026-01-14 17:25:34.411,9565620,55377370,-50550540,10339020,20097660,15296880,-10559080
2026-01-14 17:25:34.421,-37885280,55184020,-50381360,39937900,15595700,13859380,-9692383
2026-01-14 17:25:34.431,-28639900,76502530,-28614000,49718450,16376950,1171875,-2232666
2026-01-14 17:25:34.441,6830245,29146580,18690160,14731680,20429690,95703130,13208010
2026-01-14 17:25:34.451,-28924740,29103410,18716060,50883720,21660160,746875,8564453
2026-01-14 17:25:34.461,7073658,29099100,18789430,15144270,19990230,54726560,17714840
2026-01-14 17:25:34.471,7067615,7513009,-2710346,15236630,16181640,36914060,22890620
2026-01-14 17:25:34.481,6992520,29175920,19040610,15259940,128125,20527340,23769530
2026-01-14 17:25:34.491,-30763280,29236340,19187350,52877640,12822270,60009770,22871090
2026-01-14 17:25:34.501,6762916,74146080,-25549760,15213330,14609380,-8378906,20722660
2026-01-14 17:25:34.511,-41544250,73852610,-25152700,43736700,16796880,-23027340,17548830
2026-01-14 17:25:34.521,-31971720,29280360,19436810,53947970,18808590,-34101560,14511720
2026-01-14 17:25:34.531,10668230,4923645,-4875032,11532440,19277340,-44140620,13183590
2026-01-14 17:25:34.541,6949362,29093920,19329770,15631100,19462890,-56171880,12910160
2026-01-14 17:25:34.551,7203134,28935960,19194250,15912490,18496090,-6859375,14326170
2026-01-14 17:25:34.561,7513875,28724480,18991410,16240500,17255860,-7875,16435550
2026-01-14 17:25:34.571,-31453820,28483660,18748860,55864200,12998050,-85,18310550
2026-01-14 17:25:34.581,-3110855,23827390,22852700,5617495,95166020,-87265620,19384770
2026-01-14 17:25:34.591,-30728760,71901850,-25808710,56416630,7553711,-8828125,19335940
2026-01-14 17:25:34.601,8790496,71763740,-26257550,17484320,5161133,-8984375,17011720
2026-01-14 17:25:34.611,-2991741,51453410,-46964940,5672739,22570800,-89453130,11787110
2026-01-14 17:25:34.621,-29511700,27082740,17197750,56805050,-61767580,-8625,69091800
2026-01-14 17:25:34.631,-29149160,71504790,-27793990,56822320,-14074710,-8234375,2578125
2026-01-14 17:25:34.641,9692508,26582970,16609930,18256860,-20166020,-7609375,9851074
2026-01-14 17:25:34.651,-2863126,26362000,16347530,5671874,-6939697,-70898440,12646480
2026-01-14 17:25:34.661,9803854,71383940,-29123270,18318140,23339840,-66640620,17211910
2026-01-14 17:25:34.671,9784866,25939040,15855520,18285340,58984380,-57578120,-7531738
2026-01-14 17:25:34.681,-28527690,52611780,-48482390,56459790,12558590,-41796880,-2927246
2026-01-14 17:25:34.691,9606190,5266270,-4858684,18118750,23554690,-24863280,10028080
2026-01-14 17:25:34.701,945253,3,70727940,-30590650,1799621,33730470,3408203,12988280
2026-01-14 17:25:34.711,9294586,70382670,-30935920,17877930,38808590,48554690,30019530
2026-01-14 17:25:34.721,-29632540,52604010,-48731840,56580630,36835940,9609375,44570310
2026-01-14 17:25:34.731,13033310,24053890,13908220,13897520,28417970,126953100,47617190
2026-01-14 17:25:34.741,-41835140,23687040,13515480,44550660,18144530,13359380,34121100
2026-01-14 17:25:34.751,-2924413,69277820,-32800360,5686550,19091800,12421880,10693360
2026-01-14 17:25:34.761,-41460520,69122450,-33318260,44286540,25078120,11203130,-45947260
2026-01-14 17:25:34.771,-2819970,53117600,-49599330,5721939,26289060,100078100,-9003906
2026-01-14 17:25:34.781,-41114390,68742660,-34095120,44097500,18662110,87890620,-7285156
2026-01-14 17:25:34.791,-27250200,53131410,-49706360,57858120,-15930180,821875,-4375
2026-01-14 17:25:34.801,11407620,22160100,11883230,19908100,-196875,81015620,-36157230
2026-01-14 17:25:34.811,11708870,6838875,-3431091,20193800,-3265625,73554690,-6894531
2026-01-14 17:25:34.821,-26119450,22300790,12036010,58522750,-37402340,55546880,-11826170
2026-01-14 17:25:34.831,-2579146,68682230,-33913850,5859184,-34707030,33085940,-14941410
2026-01-14 17:25:34.841,-25497960,22769490,12516790,58609070,-27636720,953125,-16328130
2026-01-14 17:25:34.851,12507290,69131090,-33292370,20897290,-20996090,-11367190,-17763670
2026-01-14 17:25:34.861,12644540,23292570,13064040,21018990,-16757810,-29238280,-15966800
2026-01-14 17:25:34.871,-40122610,23499730,13288460,43518310,-15458980,-41601560,-12587890
2026-01-14 17:25:34.881,12964780,23663740,13469730,21320240,-17851560,-48515620,-9707031
2026-01-14 17:25:34.891,13152080,69614460,-32187510,21495460,-22753910,-52890620,-8442383
2026-01-14 17:25:34.901,-39894740,6969212,-3200623,43400920,-26640620,-58320310,-93066410
2026-01-14 17:25:34.911,-23806160,24051300,13893550,59316860,-31640620,-63242190,-11826170
2026-01-14 17:25:34.921,-39678080,24183360,14037700,43272310,-32773440,-6984375,-1640625
2026-01-14 17:25:34.931,-39594350,24305070,14174940,43235190,-33710940,-74921870,-18349610
2026-01-14 17:25:34.941,-39519260,24408650,14295780,43206710,-34003900,-80859380,-18662110
2026-01-14 17:25:34.951,14546960,24511370,14417490,22810930,-40039060,-8328125,-17011720
2026-01-14 17:25:34.961,-22416460,24638250,14566820,60188660,-43085940,-86953130,-17431640
2026-01-14 17:25:34.971,14918990,69976980,-30478440,23181230,-43554690,-90859380,-178125
2026-01-14 17:25:34.981,-22217930,52072300,-48089640,60508040,-41289060,-92890620,-18916020
2026-01-14 17:25:34.991,-22269720,70011510,-29856960,60628880,-36464840,-92109380,-18740230
2026-01-14 17:25:35.001,14988040,7001150,-2954623,23302070,-29824220,-865625,-18632810
2026-01-14 17:25:35.011,-2264087,25325330,15398910,6079289,-22929690,-7859375,-17255860
2026-01-14 17:25:35.021,18553780,51549220,-47456090,19391060,-16503910,-71992190,-16044920
2026-01-14 17:25:35.031,14659170,69916560,-28898850,23061250,-11083980,-653125,-12773440
2026-01-14 17:25:35.041,-23409100,698472,4,-288469,5,60870570,-72998050,-578125,-7636719
2026-01-14 17:25:35.051,-2366804,20924650,19937700,6081879,-5024414,-46875,-26367190
2026-01-14 17:25:35.061,-23927000,25241600,15361790,60715200,-5541992,-31015620,3696289
2026-01-14 17:25:35.071,13941880,6965761,-2936496,22414730,-81884770,-8510742,94873050
2026-01-14 17:25:35.081,13720040,51672650,-47677920,22187720,-12255860,16083980,13544920
2026-01-14 17:25:35.091,13505120,24808300,14828350,21953800,-16113280,37441410,12470700
2026-01-14 17:25:35.101,13314350,52135310,-48199270,21730240,-15292970,51054690,8378906
2026-01-14 17:25:35.111,-24531220,24623580,14529700,59178760,-80371100,609375,13146970
2026-01-14 17:25:35.121,12982040,24567470,14413170,21302970,7696533,72265620,-3659668
2026-01-14 17:25:35.131,-39656500,24509640,14298370,43052200,91308590,84296870,-6542969
2026-01-14 17:25:35.141,12717050,70650260,-31945830,20946490,15830080,96484380,-765625
2026-01-14 17:25:35.151,12578940,7082288,-3215299,20773850,17919920,110859400,-7709961
2026-01-14 17:25:35.161,12444280,70995530,-32256570,20615030,17119140,125703100,-6142578
2026-01-14 17:25:35.171,-24384480,71185420,-32239300,57115800,15449220,137734400,-62402340
2026-01-14 17:25:35.181,-39044520,53729580,-49798720,42283130,13417970,146875,-9580078
2026-01-14 17:25:35.191,-24539850,25100910,14742900,56597890,97753900,15234380,-15820310
2026-01-14 17:25:35.201,-38869300,7205721,-3152286,42044020,41674800,155234400,-22207030
2026-01-14 17:25:35.211,11695060,72488800,-31056760,19758770,-34301760,15703130,-2453125
2026-01-14 17:25:35.221,-38607760,53840930,-49583790,41718610,-11953130,155078100,-22324220
2026-01-14 17:25:35.231,11374820,7359365,-2962391,19371200,-23984380,147109400,-19570310
2026-01-14 17:25:35.241,-24634800,27951950,17657820,54949240,-425,13875,-18779300
2026-01-14 17:25:35.251,10915620,75043780,-27552300,18829140,-63125,128515600,-17910160
2026-01-14 17:25:35.261,10561710,75915580,-26283450,18423450,-77617180,11125,-15166020
2026-01-14 17:25:35.271,-24988700,53488760,-48295940,53024380,-84375,88125,-10166020
2026-01-14 17:25:35.281,9601012,27653640,26639590,17329810,-8390625,675,-19628910
2026-01-14 17:25:35.291,-2533397,7885034,-2220929,5109089,-78476560,53945310,99658200
2026-01-14 17:25:35.301,11975070,34509430,24427640,12728790,-75039060,46601560,16386720
2026-01-14 17:25:35.311,-25092280,8091330,-1973199,48967490,-75546870,40390620,16679690
2026-01-14 17:25:35.321,8017964,36730360,26677910,15270300,-7890625,29316410,1328125
2026-01-14 17:25:35.331,7941140,8301944,-1741873,15019110,-78476560,93652340,17675780
2026-01-14 17:25:35.341,7956678,8404660,-1630523,14848210,-65664060,-20957030,2703125
2026-01-14 17:25:35.351,-22114350,85047890,-15234910,44832920,-41445310,-48632810,415625
2026-01-14 17:25:35.361,-21199390,86031900,-14130050,43745330,-14541020,-64570310,62304690
2026-01-14 17:25:35.371,-20284440,8701589,-1299066,42588680,7104492,-7265625,878125
2026-01-14 17:25:35.381,-29244110,8799991,-1178223,31436560,20410160,-78515620,107578100
2026-01-14 17:25:35.391,-18471780,89035720,-10435700,39826550,28789060,-79960940,120859400
2026-01-14 17:25:35.401,7520779,45554520,35652270,13091660,41601560,-7828125,1315625
2026-01-14 17:25:35.411,7182416,9119364,-712113,4,12480540,571875,-90859380,133046900
2026-01-14 17:25:35.421,6758602,4366446,4356723,11782240,64804690,-120859400,113046900
2026-01-14 17:25:35.431,-15191750,9316164,-254633,5,32351520,7203125,-15953130,77851560
2026-01-14 17:25:35.441,-14717000,51728760,42339220,30254020,68710940,-19015620,39394530
2026-01-14 17:25:35.451,-1438902,50848330,-41113530,2811339,54648440,-200625,39648440
2026-01-14 17:25:35.461,39144640,9519870,504951,4,79281930,34003900,-1865625,-29140620
2026-01-14 17:25:35.471,-13931520,95656220,6957129,23892480,11826170,-157421900,-60195310
2026-01-14 17:25:35.481,-13715730,49108180,-38675940,21950350,-13349610,-128984400,-79921870
2026-01-14 17:25:35.491,16883560,9640715,889925,3,50616140,-39257810,-119609400,-99375
2026-01-14 17:25:35.501,-15813230,9670928,889062,7,16365660,-58359380,-125,-11859380
2026-01-14 17:25:35.511,7017553,9695095,828640,2,38212420,-621875,-130546900,-140234400
2026-01-14 17:25:35.521,3280039,56661760,47677920,34181430,-44960940,-12140630,-148671900
2026-01-14 17:25:35.531,509268,97140860,5921329,31773200,-13476560,-10109380,-128984400
2026-01-14 17:25:35.541,-1303381,97080440,4358993,30823710,17041020,-81640620,-84140620
2026-01-14 17:25:35.551,-15286700,9693370,262403,7,18083360,37402340,-5640625,-465625
2026-01-14 17:25:35.561,-3866990,52832750,-43082410,30970450,56445310,-25742190,-18916020
2026-01-14 17:25:35.571,-4799208,52545320,42800160,31730040,621875,-5131836,-8491211
2026-01-14 17:25:35.581,-17902090,95966960,-2848451,20629710,59140620,-47265620,-5996094
2026-01-14 17:25:35.591,-19067370,50448860,-49540460,21794980,64023440,-17851560,67993170
2026-01-14 17:25:35.601,-8735256,54912120,-46061200,34802920,77539060,-20019530,16279300
2026-01-14 17:25:35.611,11334420,55196100,-46588600,11798470,96953130,11523440,41523440
2026-01-14 17:25:35.621,-15088170,9307533,-945167,7,34077850,10328130,77226560,66679690
2026-01-14 17:25:35.631,-18066100,92263970,-11108960,33430480,821875,13609380,88515620
2026-01-14 17:25:35.641,-20120430,91556170,-12904350,33067950,4421875,1615625,853125
2026-01-14 17:25:35.651,-26499240,56689380,-49065890,27621360,2703125,17453120,5984375
2026-01-14 17:25:35.661,-21069920,4229088,3156173,33326890,23554690,16453130,17626950
2026-01-14 17:25:35.671,8446697,9022689,-1868758,8989285,246875,1346875,-24394530
2026-01-14 17:25:35.681,-25661970,40218420,29180240,28389580,32734380,109921900,-48320310
2026-01-14 17:25:35.691,-6085328,39311240,28153930,47862640,31835940,890625,-475
2026-01-14 17:25:35.701,-24030580,38541290,27301130,30038230,1546875,6265625,-27597660
2026-01-14 17:25:35.711,12774880,8871632,-2416870,67154420,-58496100,39824220,-40722660
2026-01-14 17:25:35.721,2204530,8832792,-2471249,7687369,-23769530,271875,140625
2026-01-14 17:25:35.731,3015043,88008550,-24893750,8551404,-3796875,18232420,25917970
2026-01-14 17:25:35.741,36926300,59395410,-53092570,92894080,-48828120,4506836,31015620
2026-01-14 17:25:35.751,42277940,8757692,-2430681,98936260,-5765625,-12871090,3203125
2026-01-14 17:25:35.761,4605000,37432980,26320560,10345060,-59101560,-30761720,29785160
2026-01-14 17:25:35.771,-21328870,37676400,26646850,36848620,-55039060,-44648440,26933590
2026-01-14 17:25:35.781,-21561920,37936210,26991250,37444200,-46835940,-54960940,21640620
2026-01-14 17:25:35.791,-21898560,38163220,27299400,37970740,-3796875,-62539060,13505860
2026-01-14 17:25:35.801,5058162,38323770,27535900,11134860,-296875,-68398440,65722660
2026-01-14 17:25:35.811,78225410,38377280,27655020,84395330,-22597660,-721875,3684082
2026-01-14 17:25:35.821,50322660,8632533,-2037940,112988600,-16591800,-73984380,40039060
2026-01-14 17:25:35.831,-23590370,38109700,27473760,40007820,-13115230,-72773440,55810550
2026-01-14 17:25:35.841,5044350,8557442,-2061244,11493940,-12744140,-66054690,7890625
2026-01-14 17:25:35.851,8028922,53422470,-52781650,8681999,-14589840,-57539060,97216800
2026-01-14 17:25:35.861,-24548480,8466808,-2169139,41501090,-16337890,-50585940,96435540
2026-01-14 17:25:35.871,5287765,36198650,25535080,11958320,-18427730,-4765625,8725586
2026-01-14 17:25:35.881,-24876490,8367543,-2332278,42433310,-20117190,-44765620,88427740
2026-01-14 17:25:35.891,-24980070,56657440,-50772370,42864900,-20292970,-38925780,11083980
2026-01-14 17:25:35.901,-25049120,56837850,-51109870,43261960,-21289060,-31835940,12353520
2026-01-14 17:25:35.911,5828108,28353840,27268670,12695470,-24394530,-25488280,11318360
