Timestamp,Rotation X,Rotation Y,Rotation Z,Rotation W,Acceleration X,Acceleration Y,Acceleration Z
2026-01-14 17:25:22.311,-98159400,5702085,2463485,-12015290,76408380,27618410,12664800
2026-01-14 17:25:22.321,-98073090,57012210,24660700,-12101600,17967220,55480960,9880066
2026-01-14 17:25:22.331,-98073090,42453170,39219740,-12101600,10536190,43945310,20828250
2026-01-14 17:25:22.341,-97986770,20234370,-12065350,-12187920,8171082,8679199,5142212
2026-01-14 17:25:22.351,-97900450,20217110,-12048090,-12274240,13259890,60394290,40161130
2026-01-14 17:25:22.361,-48236380,20200710,-12029960,37217190,19821170,7788086,50842280
2026-01-14 17:25:22.371,-48150070,20183440,-12012700,37130870,11005400,6982422,21408080
2026-01-14 17:25:22.381,-48063750,56943160,24781540,37044560,-17519000,5166626,23269650
2026-01-14 17:25:22.391,-47977430,20159270,-11985080,36958240,7205963,39001460,2494812
2026-01-14 17:25:22.401,-47891120,20150640,-11976450,36871920,920105,47058100,3479004
2026-01-14 17:25:22.411,-47891120,20142010,-11967810,36871920,25482180,51940920,45959470
2026-01-14 17:25:22.421,-47718490,16455080,-15637490,36699290,4306793,6304932,7849121
2026-01-14 17:25:22.431,-47718490,16446450,-15628850,36699290,25299070,7208252,77941900
2026-01-14 17:25:22.441,-47545850,20117840,-11940190,36526660,2432251,33325200,10437010
2026-01-14 17:25:22.451,-47459540,5690862,2486788,36440340,2557373,30258180,98083500
2026-01-14 17:25:22.461,-5929096,56900000,24893750,-5091823,40283200,20507810,7244873
2026-01-14 17:25:22.471,-9679559,56891360,24902380,-1341360,20462040,13679500,38757320
2026-01-14 17:25:22.481,-9670928,20076410,-11895310,-1349993,-447,9885,256958,2015686
2026-01-14 17:25:22.491,-9662297,20068640,-11885820,-1358625,1416,206,5380249,3491211
2026-01-14 17:25:22.501,-9645034,20060010,-11877180,-1375888,2116394,4864502,15640260
2026-01-14 17:25:22.511,-9636402,20060010,-11877180,-1384520,27053830,5105591,23254400
2026-01-14 17:25:22.521,-9618276,20060010,-11877180,-1400920,16998290,435791,519104
2026-01-14 17:25:22.531,-5919602,56891370,24954170,-5099591,28915400,5218506,34942630
2026-01-14 17:25:22.541,-46423740,56900000,24945540,35404540,11810300,55114740,3253174
2026-01-14 17:25:22.551,-46337420,56900000,24945540,35318220,35217280,52825930,26885990
2026-01-14 17:25:22.561,-46337420,56900000,24945540,35318220,27862550,3805542,-2180481
2026-01-14 17:25:22.571,-46251100,56891370,24954170,35231910,33569340,45806880,-24795530
2026-01-14 17:25:22.581,-46251100,56891370,24954170,35231910,5770874,54626460,-50476070
2026-01-14 17:25:22.591,-46251960,56891370,24954170,35231040,60699460,72143550,-657959
2026-01-14 17:25:22.601,-46251960,20051380,-11868550,35231040,6414795,473938,-50689700
2026-01-14 17:25:22.611,-46251960,20051380,-11868550,35231040,41229250,6085205,-52978520
2026-01-14 17:25:22.621,-95854750,20042750,-11859920,-14371740,5444336,36895750,-33111570
2026-01-14 17:25:22.631,-95768430,20042750,-11859920,-14458060,4321289,29937740,-5899048
2026-01-14 17:25:22.641,-95768430,20042750,-11859920,-14458060,5239868,29785160,-10827640
2026-01-14 17:25:22.651,-95768430,20034120,-11851290,-14458060,34973140,40283200,-8728027
2026-01-14 17:25:22.661,-95768430,20034120,-11851290,-14458060,39978030,22460940,-8642578
2026-01-14 17:25:22.671,-95768430,56865480,24980070,-14458060,1235199,17852780,-47607420
2026-01-14 17:25:22.681,-46165640,56865470,24980070,35144720,4261017,-44021610,-4055786
2026-01-14 17:25:22.691,-46165640,42516180,39329360,35144720,-6832123,-4863739,-7086182
2026-01-14 17:25:22.701,-46251960,42516180,39329360,35231040,-16067510,-27980800,-93444820
2026-01-14 17:25:22.711,-46251960,42516180,39329360,35231040,21469120,1687622,-8654785
2026-01-14 17:25:22.721,-46251960,42516180,39329360,35231040,-3993988,5419922,-8483887
2026-01-14 17:25:22.731,-95941060,56848210,24997330,-14285420,75950620,48339840,-10272220
2026-01-14 17:25:22.741,-95941060,56848210,24997330,-14285420,3390503,6756592,-9643555
2026-01-14 17:25:22.751,-95941060,56848210,24997330,-14285420,32234190,5935669,-7861328
2026-01-14 17:25:22.761,-46338280,20009950,-11823670,35317360,-22399900,51116940,-75927740
2026-01-14 17:25:22.771,-46338280,20009950,-11823670,35317360,-15930180,31219480,-947876
2026-01-14 17:25:22.781,-46423740,20010810,-11822800,35404540,-59051510,41008000,-111572300
2026-01-14 17:25:22.791,-5919603,20019440,-11831440,-5099593,-5871582,73051460,-7891846
2026-01-14 17:25:22.801,-9618275,5687411,2500597,-1400921,-53466800,14976500,-99853520
2026-01-14 17:25:22.811,-59204650,20036710,-11848700,-50970040,-32684330,40016180,-79711910
2026-01-14 17:25:22.821,-59213280,20045340,-11857330,-50961400,-19973760,17944340,-7611084
2026-01-14 17:25:22.831,-59213280,20053970,-11865960,-50944140,-5267334,16189580,-24414060
2026-01-14 17:25:22.841,-59230550,20062600,-11874590,-50926880,-28289800,9918213,-36743160
2026-01-14 17:25:22.851,-9667476,20071230,-11883230,-1346541,-12123110,-9361267,-56732180
2026-01-14 17:25:22.861,-9684739,20079860,-11891860,-1329278,-20309450,19561770,-52948000
2026-01-14 17:25:22.871,-5924780,56943160,24954170,-5087507,-10559080,15363690,-3918457
2026-01-14 17:25:22.881,-47456080,56951790,24945540,36443790,4749298,16021730,-52001950
2026-01-14 17:25:22.891,-97089070,56969060,24945550,-13016570,-24108890,1576233,-6958008
2026-01-14 17:25:22.901,-47540670,20108350,-11915160,36531830,-38757320,22659300,-569,8204
2026-01-14 17:25:22.911,-47626130,5699493,2495419,36619020,-38391110,53710940,15960690
2026-01-14 17:25:22.921,-97149500,57012210,24954170,-12904350,-4257202,-66375730,77552790
2026-01-14 17:25:22.931,-47709860,16447650,-15627640,36707920,-4434204,-12023930,74157710
2026-01-14 17:25:22.941,-97296230,57055370,24962810,-12705820,-20263670,-40664670,23406980
2026-01-14 17:25:22.951,-97373920,20156690,-11953140,-12610880,-32348630,16159060,11505130
2026-01-14 17:25:22.961,-47965350,20174810,-11969540,36970320,-13298040,15335080,20095820
2026-01-14 17:25:22.971,-97434340,57124420,24962810,-12498670,9101868,5215454,32073980
2026-01-14 17:25:22.981,-48049080,20203290,-11992850,37059230,14923100,6173706,3857422
2026-01-14 17:25:22.991,-97581080,20220560,-12010110,-12300140,6384277,6817627,30212400
2026-01-14 17:25:23.001,-97658770,20230060,-12017880,-12205190,597229,6903076,23452760
2026-01-14 17:25:23.011,-48305440,57210740,24928280,37320770,59021000,66467280,28778080
2026-01-14 17:25:23.021,-48390890,57219370,24919650,37407950,7647705,6506348,33203120
2026-01-14 17:25:23.031,-97805500,5724527,2491106,-12006660,4675293,62286380,64575200
2026-01-14 17:25:23.041,-48389160,20284430,-12067080,37409680,60272220,6286621,44158940
2026-01-14 17:25:23.051,-48474620,57279790,24911020,37496860,7232666,64941410,46569820
2026-01-14 17:25:23.061,-97865920,57297060,24893760,-11894440,6011963,42114260,44830320
2026-01-14 17:25:23.071,-97865920,20320690,-12099880,-11894440,71899420,4788208,48675540
2026-01-14 17:25:23.081,-43534460,20329320,-12108510,42437020,8001709,34484860,39123540
2026-01-14 17:25:23.091,-48558350,20346580,-12125770,37585760,74523930,24795530,11711120
2026-01-14 17:25:23.101,-48558350,20355210,-12134410,37585760,8074951,52375790,20507810
2026-01-14 17:25:23.111,-98012660,20373340,-12150800,-11695920,10089110,19989010,-15808110
2026-01-14 17:25:23.121,-98098980,20389740,-12168930,-11609600,10168460,24414060,44403080
2026-01-14 17:25:23.131,-98176660,20407010,-12186190,-11514660,12634280,31555180,45776370
2026-01-14 17:25:23.141,-48901030,20424270,-12203460,37933620,13891600,4925537,3932953
2026-01-14 17:25:23.151,-48987340,20441530,-12220720,38019940,14233400,39398190,-9269714
2026-01-14 17:25:23.161,-49072800,5744378,2476430,38107120,15759280,39520260,75569150
2026-01-14 17:25:23.171,-49072800,20467420,-12246620,38107120,16125490,12924190,-16677860
2026-01-14 17:25:23.181,-49159110,20476060,-12255250,38193430,18798830,-6000519,-21011350
2026-01-14 17:25:23.191,-9859098,57469690,24721120,-1106578,19250490,19454960,-29525760
2026-01-14 17:25:23.201,-59204650,57478320,24712490,-50434870,17102050,3353882,-64201360
2026-01-14 17:25:23.211,-59204650,57486960,24703860,-50434870,18200680,4937744,12031560
2026-01-14 17:25:23.221,-59213290,20500230,-12282870,-50426240,17956540,23223880,-56037900
2026-01-14 17:25:23.231,-9876362,20500230,-12282870,-1089316,16687010,21362300,14022830
2026-01-14 17:25:23.241,-9876362,20500230,-12282870,-1089316,13867190,-24780270,5092621
2026-01-14 17:25:23.251,-9876362,20500230,-12282870,-1089316,11663820,-24215700,-41122440
2026-01-14 17:25:23.261,-9868594,20490730,-12275100,-1098812,10638430,-17059330,-23223880
2026-01-14 17:25:23.271,-9868592,57452420,24686590,-1098810,9503174,-12458800,56266780
2026-01-14 17:25:23.281,-59230550,20489010,-12276830,-50460770,10235600,-68626400,4169464
2026-01-14 17:25:23.291,-59239180,20489010,-12276830,-50452140,10949710,-1612854,-8392334
2026-01-14 17:25:23.301,-59247810,20496780,-12286320,-50460760,13635250,-36449430,-59547420
2026-01-14 17:25:23.311,-59256440,20496780,-12286320,-50452140,15588380,10238650,11444090
2026-01-14 17:25:23.321,-59256440,20496780,-12286320,-50452140,15478520,30776980,8453369
2026-01-14 17:25:23.331,-59265070,20496780,-12286320,-50443500,12188720,35339360,9727478
2026-01-14 17:25:23.341,-59265070,20496780,-12286320,-50443500,12817380,3515625,-18310550
2026-01-14 17:25:23.351,-59265070,57435160,24652070,-50443500,11193850,58166500,-13900760
2026-01-14 17:25:23.361,-5486733,57426530,24643430,-5485848,12426760,68237300,-10803220
2026-01-14 17:25:23.371,-549158,1,20485550,-12280280,-548272,8,10852050,10632320,-64849860
2026-01-14 17:25:23.381,-54880630,20485550,-12280280,-54879740,10571290,15515140,40771480
2026-01-14 17:25:23.391,-59290970,20476060,-12272510,-50469400,68115230,18518070,8703613
2026-01-14 17:25:23.401,-9891034,57383370,24634800,-1086725,32470700,17248540,13305660
2026-01-14 17:25:23.411,-9891034,57383370,24634800,-1086725,16296390,15551760,19543460
2026-01-14 17:25:23.421,-9883266,57374740,24643430,-1096220,-26672360,13952640,21032720
2026-01-14 17:25:23.431,-59290980,16767030,-15947020,-50521190,-3579712,11151120,28710940
2026-01-14 17:25:23.441,-98582350,20447570,-12249200,-11229810,-58410640,13122560,35620120
2026-01-14 17:25:23.451,-49081430,5733156,2465208,38098480,-12005620,19104000,4416504
2026-01-14 17:25:23.461,-48823340,57314320,24652060,37838670,-99243170,22241210,49609380
2026-01-14 17:25:23.471,-98004030,57305690,24660700,-11859920,-10870360,24853520,5239258
2026-01-14 17:25:23.481,-97667390,57297060,24669330,-12213820,-15368650,29248050,5053711
2026-01-14 17:25:23.491,-97235810,57288420,24677960,-12645400,-1640625,28295900,42944340
2026-01-14 17:25:23.501,-9672653,57288420,24677960,-1317191,-18359380,26660160,4020996
2026-01-14 17:25:23.511,-59066550,20404420,-12206050,-50814670,-20227050,25097660,3701172
2026-01-14 17:25:23.521,-95682110,16723870,-15903860,-14199100,-21105960,24829100,35595700
2026-01-14 17:25:23.531,-95069260,42643060,39375110,-14794690,-20373540,19958500,30932620
2026-01-14 17:25:23.541,-45111720,20467420,-12263880,34127050,-18884280,15637210,29370120
2026-01-14 17:25:23.551,-94093890,20494180,-12288910,-15718280,-18859860,16479490,2454834
2026-01-14 17:25:23.561,-5876444,5745243,2460028,-5103046,-1850586,12402340,20690920
2026-01-14 17:25:23.571,-9321344,57504220,24565740,-1656415,-17578120,121276900,16125490
2026-01-14 17:25:23.581,-92773230,20615030,-12409750,-16987130,-13867190,13342290,6213379
2026-01-14 17:25:23.591,-38096500,20657320,-12453780,36999070,-10449220,11376950,19500730
2026-01-14 17:25:23.601,-37751230,57599160,24419010,36653800,-6384277,49468990,-7543945
2026-01-14 17:25:23.611,-37492280,17043240,-16223230,36394850,-39794920,8392334,-15808110
2026-01-14 17:25:23.621,-37147020,57668220,24298160,36049590,-30578610,25283810,-21521000
2026-01-14 17:25:23.631,-5849686,20825640,-12630730,-5122898,-1701355,31661990,-22009280
2026-01-14 17:25:23.641,-9094332,20867940,-12674750,-1878252,-34118650,2041626,-20593260
2026-01-14 17:25:23.651,-58436430,57771800,24142800,-51272140,-4196167,19165040,-19897460
2026-01-14 17:25:23.661,-58401910,57806330,24091010,-51289410,-4763794,-22201540,-24206540
2026-01-14 17:25:23.671,-40873570,42637880,39259440,29906160,-4135132,-10467530,-33374020
2026-01-14 17:25:23.681,-40700070,57884010,24013320,29734390,-3149414,-16125490,-45385740
2026-01-14 17:25:23.691,-89950680,57935800,23961530,-19688850,-18493650,-16638180,-50390620
2026-01-14 17:25:23.701,-40524850,57978960,23918370,29564350,-37750240,-17321780,-45361330
2026-01-14 17:25:23.711,-40523120,58030750,23866580,29566080,-7122803,-17810060,-35424800
2026-01-14 17:25:23.721,-89976580,58091180,23823430,-19542110,-8312988,-12249760,-35766600
2026-01-14 17:25:23.731,-40864070,58151590,23763000,29915660,-10803220,43060300,-40673830
2026-01-14 17:25:23.741,-9027868,58203380,23711210,-1915366,-1484375,37017820,-38623050
2026-01-14 17:25:23.751,-9052038,21403100,-13209920,-1887747,-21435550,27557370,-34985350
2026-01-14 17:25:23.761,-58289700,58332860,23581740,-51056350,-33618160,76049810,-33325200
2026-01-14 17:25:23.771,-42063880,58401910,23495420,31132730,-45629880,59509280,-3244629
2026-01-14 17:25:23.781,-37576180,21633560,-13445560,36483580,-57714840,23788450,-25390620
2026-01-14 17:25:23.791,-92160380,21743190,-13560360,-17064820,-7265625,395813,-16430660
2026-01-14 17:25:23.801,-58419170,21870080,-13692420,-50754240,-8647461,78552250,3668213
2026-01-14 17:25:23.811,-58470960,22012500,-13843480,-50650670,-97265620,40222170,2709961
2026-01-14 17:25:23.821,-94577260,58902550,22718570,-14475320,-11533200,79956060,59765620
2026-01-14 17:25:23.831,-9557854,22349990,-14196510,-1340498,-13388670,8758545,90527340
2026-01-14 17:25:23.841,-96657490,42570560,38877930,-12239710,-14423830,15722660,10839840
2026-01-14 17:25:23.851,-48685230,22721160,-14584940,37804140,-159375,25024410,12285160
2026-01-14 17:25:23.861,-58781700,5952405,2178638,-49925610,-16640630,29345700,14111330
2026-01-14 17:25:23.871,-50658440,23155330,-15031200,39801520,-17558590,609375,15185550
2026-01-14 17:25:23.881,-10029140,23404780,-15282380,-810513,1,-184375,75878900,16679690
2026-01-14 17:25:23.891,-58790340,23672370,-15549960,-49399070,-17958980,7583008,1765625
2026-01-14 17:25:23.901,-58755800,40649180,40609410,-49191910,-1890625,95654300,20371090
2026-01-14 17:25:23.911,-102259500,60836040,20491600,-5412059,-19794920,11435550,23964840
2026-01-14 17:25:23.921,-58583180,61164050,20267180,-48794860,-20644530,13183590,27558590
2026-01-14 17:25:23.931,-10264790,24794490,-16637550,-441940,6,-215625,15556640,29570310
2026-01-14 17:25:23.941,-10230260,25070700,-16896500,-441941,1,-22597660,18027340,31582030
2026-01-14 17:25:23.951,-101698400,25331370,-17136460,-4678367,-22128910,18984380,32402340
2026-01-14 17:25:23.961,-10074030,41310250,40880560,-527393,5,-21816410,20507810,32050780
2026-01-14 17:25:23.971,-9941963,6295080,1951622,-619753,9,-22246090,234375,29980470
2026-01-14 17:25:23.981,-50490120,43583920,39193840,39969840,-22382810,27246090,28359380
2026-01-14 17:25:23.991,-95880640,63753550,19369480,-8873359,-23261720,29707030,28242190
2026-01-14 17:25:24.001,-9365366,64202400,19283160,-1061693,-24667970,31445310,28359380
2026-01-14 17:25:24.011,-91072800,6465988,1918825,-12697200,-25546880,33808590,27695310
2026-01-14 17:25:24.021,-88215710,65151880,19076010,-15019110,-26132810,37382810,24648440
2026-01-14 17:25:24.031,-38970280,65669780,18903370,28702040,-26171880,40273440,20917970
2026-01-14 17:25:24.041,-81940490,66230840,18687580,-20137700,-26230470,41328120,17138670
2026-01-14 17:25:24.051,-53507740,45028000,40183900,-47931680,-25820310,415625,13857420
2026-01-14 17:25:24.061,-7516463,25165560,-24311200,-2561880,-26132810,4140625,11220700
2026-01-14 17:25:24.071,-26756460,6812116,1747052,16747180,-26367190,42148440,92578130
2026-01-14 17:25:24.081,-23612810,6882033,1684041,13676030,-25722660,41132810,64746100
2026-01-14 17:25:24.091,-64858400,31012740,-22451850,-33784380,-25195310,4015625,29492190
2026-01-14 17:25:24.101,-61552470,70279100,15174490,-36347980,-22675780,37929690,-17297360
2026-01-14 17:25:24.111,-14696290,71038680,14121420,4983932,-19042970,37226560,-65966800
2026-01-14 17:25:24.121,-12238850,7181553,1291299,2607629,-15439450,37988280,-10908200
2026-01-14 17:25:24.131,-101240900,34731270,-26311930,5791858,-10478520,38789060,-128125
2026-01-14 17:25:24.141,-85246420,73438290,10099060,-9287679,-43798830,4046875,-13007810
2026-01-14 17:25:24.151,-30573390,7426692,849358,4,21216660,11248780,41328120,-14775390
2026-01-14 17:25:24.161,-65264090,7507832,674999,8,-27284720,68847660,39589840,-15644530
2026-01-14 17:25:24.171,-6213944,39554650,-31484030,-2933905,14492190,32949220,-18916020
2026-01-14 17:25:24.181,-21782030,4338366,3599323,12744670,19511720,25117190,-24179690
2026-01-14 17:25:24.191,-25178600,7733980,44885,41,16253440,23808590,19384770,-28144530
2026-01-14 17:25:24.201,-46567880,77952660,-2028444,-41561520,24824220,14697270,-30019530
2026-01-14 17:25:24.211,-7373176,7845329,-470425,6,-1331004,26015620,94628900,-30273440
2026-01-14 17:25:24.221,-38826130,7879855,-756996,5,30227260,28320310,45922850,-30917970
2026-01-14 17:25:24.231,-43956800,38652640,29692960,35454610,32597660,-75927740,-315625
2026-01-14 17:25:24.241,-8609230,32596450,32503640,195077,5,38476560,-8334961,-30488280
2026-01-14 17:25:24.251,-52503880,35534880,25939910,44170870,4234375,-11923830,-30019530
2026-01-14 17:25:24.261,-9394716,78246140,-20759180,1135932,45703120,-16035160,-27792970
2026-01-14 17:25:24.271,-41518360,7754698,-2439310,-40396240,484375,-21503910,-25839840
2026-01-14 17:25:24.281,-46619680,76588850,-28113360,-34707960,5078125,-27578120,-23320310
2026-01-14 17:25:24.291,-102552900,27089650,16362210,21743190,52929690,-34160160,-20996090
2026-01-14 17:25:24.301,-46472940,73869870,-35769660,-33870680,55742190,-41835940,-16660160
2026-01-14 17:25:24.311,-46093140,7205724,-3972295,-33836160,57617190,-465625,-11923830
2026-01-14 17:25:24.321,-45713350,13619490,12482700,-33801640,59882810,-42578120,-1665039
2026-01-14 17:25:24.331,-9997208,67396110,-47888530,2087142,65117190,-32285160,12480470
2026-01-14 17:25:24.341,-10925980,64582190,-51928160,3057342,68359380,-13310550,16328130
2026-01-14 17:25:24.351,-12628140,34095120,22356040,4807845,684375,25268560,90771490
2026-01-14 17:25:24.361,-5003782,-1011632,-12799050,-2759546,6609375,6826172,81152340
2026-01-14 17:25:24.371,-5250650,54819760,-63140700,-2453983,56328120,9506836,57958980
2026-01-14 17:25:24.381,-39869710,-16779970,-134447000,-36572410,43984380,89697260,5644531
2026-01-14 17:25:24.391,-18764830,-4973572,-16674670,18006100,33964840,8276367,4309082
2026-01-14 17:25:24.401,-39636650,4410787,-7190183,-35752390,24628910,60839840,-8415222
2026-01-14 17:25:24.411,-5681372,40612030,-74154720,-1814376,21367190,78222660,4714966
2026-01-14 17:25:24.421,-55786510,54707550,-58591800,-18842940,25214840,10117190,-41992190
2026-01-14 17:25:24.431,-3886846,53654490,-58022120,-3555384,2765625,14833980,-12128910
2026-01-14 17:25:24.441,-51211730,-18540840,-29537590,-23072470,28085940,165625,-18496090
2026-01-14 17:25:24.451,-14588390,5148362,-5668852,7163427,30078120,12529300,-25078120
2026-01-14 17:25:24.461,-10790460,25385760,-81008270,3365492,31953120,-18041990,-31523440
2026-01-14 17:25:24.471,-40818320,-24221340,-34698470,33414070,25761720,-56152340,-21464840
2026-01-14 17:25:24.481,-36934940,48428870,-54633320,-36934930,259375,-13681640,-20566410
2026-01-14 17:25:24.491,-33456370,4742330,-5392982,-40189080,24960940,-11132810,-15107420
2026-01-14 17:25:24.501,2714660,-29023140,-38977190,-10060220,33300780,-1359375,-17861330
2026-01-14 17:25:24.511,5057296,-30539730,-40309060,-12378690,33945310,-17519530,-17988280
2026-01-14 17:25:24.521,6534178,-3202610,-4160209,-13836570,28925780,-23203120,-14873050
2026-01-14 17:25:24.531,-3635835,871799,5,-8500472,-3657931,21269530,-29667970,-93603520
2026-01-14 17:25:24.541,-25049120,-34829670,-43994780,-47836740,17548830,-39609380,-78515620
2026-01-14 17:25:24.551,8093921,418637,-8535863,-15384230,98095700,-24667970,34472660
2026-01-14 17:25:24.561,-23469520,203709,8,-8531547,-49709810,17226560,-18095700,7949219
2026-01-14 17:25:24.571,-21665500,42154080,-43006020,-51876360,30097660,-28671880,16067510
2026-01-14 17:25:24.581,-2017223,-198528,5,-8502200,-5366312,32285160,-24003910,-3366089
2026-01-14 17:25:24.591,14420070,36019980,-44893340,-21832950,31640620,-24882810,37451170
2026-01-14 17:25:24.601,15265980,-41258540,-49132360,-22713390,32910160,-2828125,43945310
2026-01-14 17:25:24.611,-18497680,-7759876,-84253780,-56304420,3703125,-23652340,5239258
2026-01-14 17:25:24.621,14280240,-975378,8,-8388262,-21800160,40703120,-22324220,8857422
2026-01-14 17:25:24.631,-21674140,-44031040,-51193600,-53956600,43203120,-23945310,14746090
2026-01-14 17:25:24.641,9230712,-1389699,-8291587,-16836940,44921880,-14042970,-4572754
2026-01-14 17:25:24.651,-29218220,28220400,-38053600,-47344740,48007810,-12734380,-12011720
2026-01-14 17:25:24.661,39302600,-1816966,-8161250,-47014140,4953125,-12226560,-15673830
2026-01-14 17:25:24.671,-50055080,25194990,-35313040,-27612730,5109375,-6611328,-22578120
2026-01-14 17:25:24.681,-46283040,23637840,-33883640,-31954460,51171880,-27856440,-30917970
2026-01-14 17:25:24.691,-17493820,26732120,-27768270,9609645,50195310,-39526370,-42617190
2026-01-14 17:25:24.701,-60102350,-26576930,-78056230,-19360850,49882810,-10280610,-44882810
2026-01-14 17:25:24.711,-42804480,-50337340,-55176260,-37349260,52539060,20239260,-41367190
2026-01-14 17:25:24.721,-74784830,-50874220,-55398940,-6076704,64648440,27734380,-41953120
2026-01-14 17:25:24.731,-44962390,15663040,-26355950,-36641460,8046875,35302740,-61015620
2026-01-14 17:25:24.741,-46144930,-3439721,-7306711,-36218500,92890620,16638180,-8421875
2026-01-14 17:25:24.751,-10026550,12223310,-23011180,1712525,94609380,54541020,-10203130
2026-01-14 17:25:24.761,-11068400,-38246950,-69873410,2673228,93359380,71875,-110234400
2026-01-14 17:25:24.771,-50365820,-40189080,-68000340,-34449020,98359380,-17663570,-114453100
2026-01-14 17:25:24.781,-13417940,-42122570,-65946000,4846683,10625,-1303711,-126875
2026-01-14 17:25:24.791,-14701470,4429775,-15198650,6031815,109140600,-28100590,-154453100
2026-01-14 17:25:24.801,-55562090,2289985,-12988080,-32222040,107734400,-60302740,-1784375
2026-01-14 17:25:24.811,-57521480,53332530,-54390770,-31591930,97109380,-16796880,-1940625
2026-01-14 17:25:24.821,-46821660,-21069920,-83045340,-43983560,87109380,-34648440,-196875
2026-01-14 17:25:24.831,-19909820,3027991,-13199560,10611780,78554690,-528125,-1975
2026-01-14 17:25:24.841,-63977970,-63796700,-34794280,-31712780,575,-6921875,-20515620
2026-01-14 17:25:24.851,-66222210,-42366840,32901360,-32714050,86621100,-93984380,-219375
2026-01-14 17:25:24.861,-17603870,-51082250,-38790740,16577560,-49921880,-13421880,-2196875
2026-01-14 17:25:24.871,-22437180,-50754250,-33525420,11778780,-118515600,-16265630,-19515620
2026-01-14 17:25:24.881,-22221380,-15155500,7355914,11165930,-1940625,-1934375,-138984400
2026-01-14 17:25:24.891,-58562460,-49752960,-22200660,-55392910,-470,-14515630,131953100
2026-01-14 17:25:24.901,-72782280,-51125400,-23521310,-38721690,-585625,-70703130,1825
2026-01-14 17:25:24.911,-2385105,-5271364,-2538576,1302347,-725625,-15546880,711875
2026-01-14 17:25:24.921,-55621650,-51617410,-28553580,-51859960,-16296880,-1728125,-18765620
2026-01-14 17:25:24.931,-25295120,-13242720,5211806,14548690,785625,28015620,-580
2026-01-14 17:25:24.941,-24330100,-14075670,5880761,13666530,16578130,-52617190,123203100
2026-01-14 17:25:24.951,-55354060,-50555710,-31704140,-51678700,-208125,-22363280,29578120
2026-01-14 17:25:24.961,-71099100,-12690290,4504011,-37556420,-1096875,55585940,-51640620
2026-01-14 17:25:24.971,-15141170,-8389384,7579215,14033900,-11005860,8807373,-39765620
2026-01-14 17:25:24.981,-18080770,-11124500,3117762,6812981,-16113280,-16074220,5875
2026-01-14 17:25:24.991,-16261210,-66366350,58447660,4834598,53466800,-1307373,33632810
2026-01-14 17:25:25.001,-66705580,-9412839,1566652,-48751700,-43710940,-56396480,27484890
2026-01-14 17:25:25.011,-137027800,-52319170,44528230,20759180,-61484380,-74658200,8774414
2026-01-14 17:25:25.021,-65592090,-80921940,3323200,-51142670,-52304690,-29589840,7553711
2026-01-14 17:25:25.031,-12715320,-7480209,-281391,9,1026306,-50234380,-48413090,9790039
2026-01-14 17:25:25.041,-65082830,-68069380,-9891892,-51703730,-60117190,-37963870,26489260
2026-01-14 17:25:25.051,-64789350,-25164780,17303060,-51651940,-5453125,4020996,-13613280
2026-01-14 17:25:25.061,-6434915,-52273420,-27241560,-5155702,-53867190,-265625,-16748050
2026-01-14 17:25:25.071,-119505500,-4306343,-3753910,4272680,-45273440,-10732420,-16367190
2026-01-14 17:25:25.081,-65021540,71869910,-80047560,53577670,-31660160,-20351560,-16298830
2026-01-14 17:25:25.091,-113074900,18143180,-18973020,-517899,2,-21347660,-29882810,-16748050
2026-01-14 17:25:25.101,-5871956,-1203255,-7210901,4745004,-13203130,-33496090,-17646480
2026-01-14 17:25:25.111,-60879200,-38436840,-46775040,-50918250,-6425781,-33339840,-2765625
2026-01-14 17:25:25.121,-10180200,53258120,-54119910,-909775,6,33642580,-28984380,-41640620
2026-01-14 17:25:25.131,-48142300,-36917670,-50106870,37138640,14589840,-25390620,-49140620
2026-01-14 17:25:25.141,-9335156,3441449,-12216410,-1583912,18505860,-29023440,-44882810
2026-01-14 17:25:25.151,-40463560,4637798,-13471450,29625640,22539060,-28066410,-41640620
2026-01-14 17:25:25.161,-85505370,5834149,-14709230,-22148880,28457030,-16572270,-37128900
2026-01-14 17:25:25.171,-81741960,-33119730,-55890090,-25290800,35429690,-34824220,-25292970
2026-01-14 17:25:25.181,-30872910,8006740,-16921530,20226600,38671880,-284375,-26757810
2026-01-14 17:25:25.191,-75777470,9025281,-17940070,-30202230,39472660,-20566410,-35097660
2026-01-14 17:25:25.201,-25219160,-30012330,-58997490,14659170,4109375,-15693360,-47148440
2026-01-14 17:25:25.211,-54310500,11048550,-19921900,-50978670,4359375,-13291020,-49609380
2026-01-14 17:25:25.221,-65471250,12061900,-20893830,-39576230,38496100,-18330080,-43828120
2026-01-14 17:25:25.231,-95014020,13091660,-21866620,84524810,35351560,-18095700,-3359375
2026-01-14 17:25:25.241,-100748900,-2505775,-6198401,-4074152,35800780,-18320310,-27753910
2026-01-14 17:25:25.251,-524805,9,1511234,-2373020,-523597,3,38847660,-20644530,-23476560
2026-01-14 17:25:25.261,-1708209,19910250,-20762200,-8786180,37480470,-24199220,-20683590
2026-01-14 17:25:25.271,70702050,-2081093,-6326158,-81215420,34824220,-23457030,-21386720
2026-01-14 17:25:25.281,6123310,-4138404,-4142824,-16664310,39160160,-171875,-24589840
2026-01-14 17:25:25.291,-37685890,-17781250,-63649960,-68069380,47578120,-8989258,-28730470
2026-01-14 17:25:25.301,13594020,-37591800,-42337500,-24212710,48867190,-97509770,-26074220
2026-01-14 17:25:25.311,-3105678,20553740,-28387850,-7559620,40859380,-14707030,-19589840
2026-01-14 17:25:25.321,-5106501,-35815400,-40851120,-5612317,32109380,-15253910,-10966800
2026-01-14 17:25:25.331,-51082250,22089320,-29579880,-56692840,27089840,-15585940,-30664060
2026-01-14 17:25:25.341,-51151310,22784170,-30093470,-57262530,23417970,-17490230,9680176
2026-01-14 17:25:25.351,-21984880,23437590,-30562170,-87067700,25371090,-13066410,-6817627
2026-01-14 17:25:25.361,33805350,24031450,-30969590,-34902780,27753910,-10019530,-60791020
2026-01-14 17:25:25.371,-51626050,-5791850,-61690580,-58824860,29707030,-78808590,-11914060
2026-01-14 17:25:25.381,31902670,25087100,-31640270,-43020260,24648440,-5366211,-14570310
2026-01-14 17:25:25.391,-52083520,-3003820,-60525300,-59834760,17304690,-5678711,-12646480
2026-01-14 17:25:25.401,-16279340,-159681,8,-5986066,-96381280,90234380,-56591800,-9868164
2026-01-14 17:25:25.411,-1560608,-26744380,-32641540,-9777962,73046870,-5439453,-6484375
2026-01-14 17:25:25.421,-15105440,-25676640,-31637680,-99005310,63916020,-22827150,-72216800
2026-01-14 17:25:25.431,37073040,29822440,-30374870,-48553170,19226070,-22290040,-61035160
2026-01-14 17:25:25.441,37816220,3789308,-56960420,-49363680,2578125,-26098630,-5732422
2026-01-14 17:25:25.451,-1368986,5066792,-56200830,-10242350,34814450,-16577150,-7133789
2026-01-14 17:25:25.461,-13111520,6335652,-55449870,-103571500,13891600,-21801760,-94433590
2026-01-14 17:25:25.471,-1243827,7595874,-54707550,-10479720,15159610,-27441410,-8754883
2026-01-14 17:25:25.481,-54137860,-19388460,-25668870,-63598180,20751950,-3805542,-10576170
2026-01-14 17:25:25.491,-10530650,10124960,-53127960,-107723300,875,28344730,-20351560
2026-01-14 17:25:25.501,-984876,5,11324760,-52273420,-10894040,30664060,-46557620,-24414060
2026-01-14 17:25:25.511,-54664390,29997660,-33894000,-64625340,-42358400,-6635742,-178125
2026-01-14 17:25:25.521,-54923340,13543100,-50607500,-64832500,-9536133,-2758789,-7441406
2026-01-14 17:25:25.531,-1116078,14535740,-49804760,-10904400,-12041020,14135740,-35742190
2026-01-14 17:25:25.541,-5542401,15519750,-48993380,-6519503,-9379883,14111330,-73828130
2026-01-14 17:25:25.551,-1034940,16615970,-48138850,-11064940,-32177730,23027340,-8652344
2026-01-14 17:25:25.561,-5538085,17781250,-47215260,-6596325,7824707,28261720,-7758789
2026-01-14 17:25:25.571,-55130500,18989690,-46213980,-66541580,-26342770,32109380,-6933594
2026-01-14 17:25:25.581,160547,20275800,-45152290,-12355380,-7553711,39140620,-48095700
2026-01-14 17:25:25.591,-5413787,-7921288,-14486540,-6803486,-68310540,39121100,-28344730
2026-01-14 17:25:25.601,1653827,23029310,-42830370,-13883190,-46289060,32890620,-17858890
2026-01-14 17:25:25.611,80716520,24427640,-41604680,-92952780,5419922,28691410,-80566410
2026-01-14 17:25:25.621,-51470680,-39783390,-105919300,-70857420,6542969,27382810,-4050293
2026-01-14 17:25:25.631,4721523,-56336350,-62953390,-16943980,12822270,29121090,-53466800
2026-01-14 17:25:25.641,-49019280,28372320,-37660000,-73067130,14560550,32832030,-45996100
2026-01-14 17:25:25.651,-47715900,29511700,-36227140,-74197870,95947260,34667970,-828125
2026-01-14 17:25:25.661,-46403880,11695920,-53645850,-75285460,6972656,34140620,-34179690
2026-01-14 17:25:25.671,9578568,23624890,-41233510,-21719880,4440918,35644530,-30981440
2026-01-14 17:25:25.681,10812040,61483420,-2788031,-22920550,46850580,3609375,-6972656
2026-01-14 17:25:25.691,12058450,45885980,-17746720,-24125530,6196289,3140625,-6176758
2026-01-14 17:25:25.701,-40698340,33948380,-28959270,-79471820,98339840,30507810,-9663086
2026-01-14 17:25:25.711,14816270,6661065,451436,1,-26771140,12558590,31972660,-11269530
2026-01-14 17:25:25.721,-3709893,76493900,15347120,-8170740,15,34042970,-13730470
2026-01-14 17:25:25.731,-35035970,35648820,-24444900,-82872700,17021480,33085940,-11816410
2026-01-14 17:25:25.741,25043080,9565623,3675366,-26211810,11601560,33242190,-14609380
2026-01-14 17:25:25.751,-30348960,79101530,73333850,-85229150,99365230,33027340,-14853520
2026-01-14 17:25:25.761,23671500,11449050,5814294,-35075670,12460940,26914060,-1015625
2026-01-14 17:25:25.771,-2472113,37107570,-17772620,-8752517,11455080,21171880,-13203130
2026-01-14 17:25:25.781,-21639610,37314730,-15959960,-88586880,11494140,14677730,-14648440
2026-01-14 17:25:25.791,30172020,14240540,9082246,-40970240,9355469,5229492,-14052730
2026-01-14 17:25:25.801,-1512270,37504620,-12317400,-9042541,44873050,-8557129,-13691410
2026-01-14 17:25:25.811,34522380,15823590,11020920,-44819970,-40130620,-32348630,-10292970
2026-01-14 17:25:25.821,-8579884,16493410,11870280,-91754700,-45776370,-5463867,-86621100
2026-01-14 17:25:25.831,-5498376,37064410,-7388711,-92229440,-10449220,-72314460,-21276860
2026-01-14 17:25:25.841,-261541,22901560,-19825230,-9257470,-14169920,-72753900,-5041504
2026-01-14 17:25:25.851,1726,36365240,-4721525,-9284227,-21542970,-9433594,8129883
2026-01-14 17:25:25.861,43136790,35925030,-3608042,-52208680,-23671880,-67089840,10283200
2026-01-14 17:25:25.871,-39599530,35450290,-2684449,-49341240,-25429690,-28808590,12607420
2026-01-14 17:25:25.881,5809120,34958290,-1898970,-93299770,-23945310,-23266600,13134770
2026-01-14 17:25:25.891,7095236,18383740,14813680,-93411980,-22324220,-9283447,12460940
2026-01-14 17:25:25.901,-42641440,33957010,-742322,-42743080,-24121090,-2166748,91015620
2026-01-14 17:25:25.911,47066790,33482270,-371164,3,-55529290,-19824220,-53222660,70996100
2026-01-14 17:25:25.921,968474,33007520,-103580,2,-9370545,-16210940,-63720700,45507810
2026-01-14 17:25:25.931,-3654651,32567310,94948,98,-4695630,-11162110,-5048828,83984380
2026-01-14 17:25:25.941,-36273750,32152990,250319,8,-46745690,-77685540,-32202150,-2685547
2026-01-14 17:25:25.951,-40750050,17642280,14502080,-41803290,-6538086,-22509770,-37817380
2026-01-14 17:25:25.961,48861320,15966810,15935870,-57066590,-43798830,-28198240,-2722168
2026-01-14 17:25:25.971,12524560,16828320,-13658760,-94024830,-4765625,-39282230,-1508789
2026-01-14 17:25:25.981,1313741,30789180,716428,8,-9403345,-5644531,-43847660,-44433590
2026-01-14 17:25:25.991,-34746810,30512970,820010,8,-45527770,-49926760,-5390625,16625980
2026-01-14 17:25:26.001,50225990,30271280,923586,6,-58187850,-56103520,-4753418,17651370
2026-01-14 17:25:26.011,50551400,16988000,14086030,-58449380,-64990230,-43237300,27856440
2026-01-14 17:25:26.021,1558880,14387210,-14356270,-9396439,-6513672,-58496100,38964840
2026-01-14 17:25:26.031,51136630,29649800,1165275,-58917220,-6533203,-5229492,34423830
2026-01-14 17:25:26.041,51395580,29468540,1225695,-59124380,-62646480,-5419922,38110350
2026-01-14 17:25:26.051,17038920,15556010,-12496940,-93878100,-5991211,-5649414,38891600
2026-01-14 17:25:26.061,51818530,15455020,-12408030,-59461020,-5957031,-53027340,38183590
2026-01-14 17:25:26.071,-32468910,29011060,1337910,-43627940,-56152340,-5786133,3022461
2026-01-14 17:25:26.081,-32308360,28855690,1355175,-43495000,-5239258,-41503900,9686279
2026-01-14 17:25:26.091,1828189,28700320,1389700,-9382629,-40307620,-28295900,-24169920
2026-01-14 17:25:26.101,1851494,28544950,1406965,-9383492,-2734375,-13696290,-5727539
2026-01-14 17:25:26.111,1873073,14965600,-11982490,-9384355,-14794920,-16870120,-65234380
2026-01-14 17:25:26.121,56016280,28234210,1476014,-56765170,-10681150,-20361330,-5629883
2026-01-14 17:25:26.131,52769740,28078840,1510542,-60236140,-11291500,-20751950,-56103520
2026-01-14 17:25:26.141,52902670,27914840,1553700,-60344900,-105285600,-20922850,-58203120
2026-01-14 17:25:26.151,19654320,27750840,1596859,-93834930,5596924,-24328610,-49853520
2026-01-14 17:25:26.161,-31282920,27578200,1648653,-42656010,3756714,-15515140,-6015625
2026-01-14 17:25:26.171,2014633,15838260,13267750,-9382630,79833980,-36071780,-73291020
2026-01-14 17:25:26.181,53443880,27224300,1743596,-60787700,5947876,20117190,-8442383
2026-01-14 17:25:26.191,20646960,15676850,13152940,-93826300,26107790,33740230,-9038086
2026-01-14 17:25:26.201,5372009,26835880,1838548,-6101212,10321050,25976560,-86328130
2026-01-14 17:25:26.211,57132190,26611450,1890335,-57858970,8660889,1048584,-8339844
2026-01-14 17:25:26.221,2143245,26395660,1950757,-9383492,-21224980,-11553960,-98046870
2026-01-14 17:25:26.231,2171729,26162600,1993917,-9382629,-4888916,-18908690,-99316410
2026-01-14 17:25:26.241,54337250,13344570,-10547910,-61517080,137786900,-80444340,-10322270
2026-01-14 17:25:26.251,54509020,25679230,2080231,-61656050,-29006960,25732420,-11279300
2026-01-14 17:25:26.261,-29747340,25411650,2106131,-41394920,-63591000,45751950,-10595700
2026-01-14 17:25:26.271,54851700,25126810,2132021,-61934860,30975340,5410156,-10742190
2026-01-14 17:25:26.281,-34666190,24833330,2132026,-35837330,6829834,52490230,-10742190
2026-01-14 17:25:26.291,55203010,14446840,12207770,-62222290,5911255,6611328,-10751950
2026-01-14 17:25:26.301,23901110,13165730,13143620,-93817660,6137085,5102539,-9584961
2026-01-14 17:25:26.311,55523240,14063590,11883220,-62489000,52642820,37426760,-7602539
2026-01-14 17:25:26.321,24453530,12034280,-9475853,-93852190,-25482180,26049800,-65771480
2026-01-14 17:25:26.331,-2864076,23210570,1976655,-4049894,-2027893,2097168,-5571289
2026-01-14 17:25:26.341,55974680,13444700,11345470,-62866210,-13969420,16589360,-57373050
2026-01-14 17:25:26.351,-33758650,22571830,1821286,-34949480,15037540,9259033,-4963379
2026-01-14 17:25:26.361,2537712,11469770,-9073615,-9392988,7562256,9918213,-40527340
2026-01-14 17:25:26.371,-28222980,12782650,10747300,-40174400,15777590,8544922,-34716800
2026-01-14 17:25:26.381,-28126310,21639610,1476018,-40098440,3475952,-43396000,-32983400
2026-01-14 17:25:26.391,2591229,21337500,1346541,-9399893,3604126,-19274900,-23730470
2026-01-14 17:25:26.401,26084920,11031280,-8804309,-94016200,-8239746,-23657230,-74401860
2026-01-14 17:25:26.411,26257560,11922070,9950593,-94033460,-2947998,-3852539,3491211
2026-01-14 17:25:26.421,-27796580,11717500,9758109,-39841220,-4925537,-5292969,1583252
2026-01-14 17:25:26.431,26525140,20301700,776848,4,-94059350,-43701170,-6347656,3310547
2026-01-14 17:25:26.441,26602820,10771470,-8701593,-94085250,-9802246,-44702150,45947260
2026-01-14 17:25:26.451,26602820,19887380,431582,4,-94137040,-70007330,-35791020,60253900
2026-01-14 17:25:26.461,56988900,19732010,258947,4,-63750960,60455320,-54003900,6015625
2026-01-14 17:25:26.471,26456080,19585270,94947,36,-94231980,13146970,-8183594,45581060
2026-01-14 17:25:26.481,2631797,10733490,-8791360,-9430104,1282959,-10048830,47314450
2026-01-14 17:25:26.491,-28096100,10560860,8601465,-40145920,13586430,-12597660,66064450
2026-01-14 17:25:26.501,5676361,10770600,-8875088,-6361371,14819340,-14091800,7207031
2026-01-14 17:25:26.511,25705130,1924868,-46612,19,-94516840,13427730,-14521480,62158200
2026-01-14 17:25:26.521,2541165,19205480,-578322,3,-9460314,11444090,-15625,7246094
2026-01-14 17:25:26.531,-28850510,9369858,9170984,-40824360,59539800,-15751950,9277344
2026-01-14 17:25:26.541,24591640,10911300,-9062396,-94818940,415802,-17353520,11875
2026-01-14 17:25:26.551,2403921,10971720,-9122817,-9493979,-26351930,-20,134375
2026-01-14 17:25:26.561,55625100,19378110,-837274,6,-62801470,-22628780,-22910160,1546875
2026-01-14 17:25:26.571,22416460,1948173,-87180,95,-95302320,-8074951,-25332030,19042970
2026-01-14 17:25:26.581,54688560,10391680,8339059,-62115260,-11553960,-30019530,23808590
2026-01-14 17:25:26.591,19887380,10478000,8408113,-95794320,-21118160,-35664060,28789060
2026-01-14 17:25:26.601,53285920,19990960,-880433,5,-61066510,-3034668,-4125,31347660
2026-01-14 17:25:26.611,52393400,20198120,-845906,4,-60388060,-4482422,-47109380,31660160
2026-01-14 17:25:26.621,14268160,20457070,-794114,4,-96648860,-5517578,-50976560,31875
2026-01-14 17:25:26.631,1188582,20759180,-716429,3,-9690780,-63378900,-52109380,30605470
2026-01-14 17:25:26.641,48804350,21104440,-612851,3,-57589670,-7246094,-51875,26171880
2026-01-14 17:25:26.651,-40244320,21492870,-483372,2,-50612680,-81396480,-50546880,21855470
2026-01-14 17:25:26.661,45613220,21933090,-319374,2,-55014840,-9433594,-48671880,17207030
2026-01-14 17:25:26.671,1726,5,12280280,10023960,-9726170,-11669920,-45703120,8461914
2026-01-14 17:25:26.681,-45543300,23012050,86318,8,-54912120,-1421875,-40234380,-8526611
2026-01-14 17:25:26.691,39822230,23624890,319370,-50171610,-1578125,-31152340,-14511720
2026-01-14 17:25:26.701,37843850,24306800,604215,1,-48472890,-16894530,-22871090,-24023440
2026-01-14 17:25:26.711,35888780,14197380,11783960,-46768140,-14580080,-24121090,-30039060
2026-01-14 17:25:26.721,-51533690,13623380,-10907850,-59452380,-13876950,-29179690,-35703120
2026-01-14 17:25:26.731,-1835958,26680510,1804020,-9440461,-17529300,-33671880,-440625
2026-01-14 17:25:26.741,-53388640,27543680,2339186,-60722110,-19511720,-35566410,-51054690
2026-01-14 17:25:26.751,29791360,28398210,2900243,-41299110,-16650390,-35449220,-53554690
2026-01-14 17:25:26.761,-23184670,17662140,15086440,-92514290,-99072260,-23125,-5921875
2026-01-14 17:25:26.771,28181550,30081390,4117306,-39784250,-49365230,-5571289,-57070310
2026-01-14 17:25:26.781,-2456574,30935920,4799212,-9154751,-14208980,8647461,-46328120
2026-01-14 17:25:26.791,-24859220,31824990,5584694,-91115950,38549800,17753910,-365625
2026-01-14 17:25:26.801,27049080,32722680,6516914,-38620700,5083008,20878910,-27167970
2026-01-14 17:25:26.811,26808260,33646270,7561347,-38343620,24316410,19042970,-19238280
2026-01-14 17:25:26.821,-2512681,15076080,-10749890,-8979530,7849121,11845700,-14541020
2026-01-14 17:25:26.831,-25152700,35433030,9952322,-89320570,-16149900,5205078,-12314450
2026-01-14 17:25:26.841,-2523039,3628757,1122118,-8879404,-48168940,-15332030,-10869140
2026-01-14 17:25:26.851,-25359860,14792110,-9825435,-88232980,-9243164,-53466800,-8432617
2026-01-14 17:25:26.861,-2561882,14680750,-9505201,-8761149,-11123050,-12512210,-7973633
2026-01-14 17:25:26.871,24786720,38790750,14984590,-36083850,-14853520,27734380,-6933594
2026-01-14 17:25:26.881,-26671870,29020560,26671010,-86178630,-16064450,6826172,-6040039
2026-01-14 17:25:26.891,-53523280,14510710,-8760284,-59309960,-15009770,10976560,-5029297
2026-01-14 17:25:26.901,-53651040,14502940,-8578156,-59251270,-14101560,13066410,-5776367
2026-01-14 17:25:26.911,-29511700,4192408,1901559,-83511450,-12773440,14482420,-69091800
2026-01-14 17:25:26.921,-3056475,42631840,19965060,-8254468,-84716800,16552730,-11162110
2026-01-14 17:25:26.931,-3154014,14388140,-7967898,-8160384,-14892580,20371090,-15585940
2026-01-14 17:25:26.941,18470920,43892070,21898560,-29780140,24536130,21152340,-18359380
2026-01-14 17:25:26.951,-33145630,14142140,-7402523,-79756670,6098633,24707030,-19824220
2026-01-14 17:25:26.961,-3366352,35576310,33477080,-7891076,10195310,278125,-19941410
2026-01-14 17:25:26.971,-33965640,13687250,-6614450,-78125290,10742190,26816410,-15546880
2026-01-14 17:25:26.981,-34060580,13376510,-6131077,-77391590,121875,27128910,-14345700
2026-01-14 17:25:26.991,-53215140,13034690,-5609724,-57477460,10556640,25136720,-1296875
2026-01-14 17:25:27.001,-33896580,46913160,29166440,-75915580,6269531,24140620,-12470700
2026-01-14 17:25:27.011,15298780,88141480,-80348810,-26185040,21813960,24882810,-12333980
2026-01-14 17:25:27.021,-33439110,8383258,-7585342,-74405030,-2121582,25722660,-11953130
2026-01-14 17:25:27.031,-33180160,116415400,-34811540,-73610920,-67822260,26269530,-11425780
2026-01-14 17:25:27.041,-32955730,4887257,3450945,-72799540,-9667969,24921880,-12587890
2026-01-14 17:25:27.051,-50420200,11097750,-2592090,-54333800,-12265630,25234380,-13310550
2026-01-14 17:25:27.061,-32765840,10918210,-2253728,-71055940,-13916020,26386720,-14208980
2026-01-14 17:25:27.071,13494760,10827570,-2016359,-23794080,-15253910,26894530,-13984380
2026-01-14 17:25:27.081,-3312837,10850880,-1906737,-6917424,-14501950,27167970,-13291020
2026-01-14 17:25:27.091,-49173790,69266600,-60208520,-52628180,-15478520,26269530,-11875
2026-01-14 17:25:27.101,-34328160,52489220,39075600,-67111260,-16054690,24765620,-11542970
2026-01-14 17:25:27.111,-35174080,74795180,-65555840,-66040940,-14472660,24453120,-11816410
2026-01-14 17:25:27.121,9350694,12057590,-2754369,-19461840,-9145508,26855470,-1171875
2026-01-14 17:25:27.131,8236341,83741910,-74390360,-18349210,-5126953,28925780,-11181640
2026-01-14 17:25:27.141,7047762,13218550,-3837643,-17172720,48461910,27109380,-10429690
2026-01-14 17:25:27.151,-39861070,56244000,37703160,-61578360,6816864,25859380,-9628906
2026-01-14 17:25:27.161,4472071,14794690,-5403429,-14638460,4584961,22519530,-10429690
2026-01-14 17:25:27.171,3120350,15674260,-6301987,-13314360,7265625,20371090,-10634770
2026-01-14 17:25:27.181,1778990,47906660,45522580,-11997160,10966800,18486330,-11748050
2026-01-14 17:25:27.191,473015,17495540,-8192322,-10713630,17050780,17392580,-10517580
2026-01-14 17:25:27.201,-7967036,60076460,32472360,-94629040,1953125,17363280,-8027344
2026-01-14 17:25:27.211,26280860,60741100,31220770,-36557730,21503910,15605470,-40039060
2026-01-14 17:25:27.221,-31332970,47231660,44091460,-71556580,22363280,14150390,3111267
2026-01-14 17:25:27.231,4605000,61940890,28691680,-14902580,228125,12861330,58935550
2026-01-14 17:25:27.241,-5148793,62458800,27465990,-5155696,21621090,12353520,11269530
2026-01-14 17:25:27.251,-59567180,6292493,2629211,-43512270,21230470,11328130,15664060
2026-01-14 17:25:27.261,-66904110,63347860,25178600,-36175350,21171880,10849610,18720700
2026-01-14 17:25:27.271,-73282910,6373630,2413420,-29779280,2046875,10791020,20625
2026-01-14 17:25:27.281,-78608660,64081560,23167420,-24401740,19648440,10273440,21816410
2026-01-14 17:25:27.291,-82812290,25379710,-16708330,-20146330,19003910,93408200,22558590
2026-01-14 17:25:27.301,-35041060,25865670,-17240900,34012340,20039060,9013672,23984380
2026-01-14 17:25:27.311,-87930870,26285180,-17701830,-14906900,13964840,11054690,22265620
2026-01-14 17:25:27.321,-88768140,6510010,2038806,-14017840,14355470,12255860,22675780
2026-01-14 17:25:27.331,-42426410,44870900,40340990,32151270,1296875,13857420,20136720
2026-01-14 17:25:27.341,-8753380,6538494,1961980,-1520037,99316410,14785160,16523440
2026-01-14 17:25:27.351,-39318140,6547987,1936949,29044720,8095703,14736330,14033200
2026-01-14 17:25:27.361,-36470550,44699120,40063920,26195410,5839844,14853520,11347660
2026-01-14 17:25:27.371,-7934236,23677290,-22830170,-2340909,4399414,14492190,87353520
2026-01-14 17:25:27.381,-75475360,44675820,40018180,-27310620,27539060,14433590,5541992
2026-01-14 17:25:27.391,-24906700,65643880,19050110,14626380,8355713,13955080,3017578
2026-01-14 17:25:27.401,-20246460,6565251,1907601,9964404,-12771610,1265625,69885260
2026-01-14 17:25:27.411,-61690580,27492750,-19014710,-41147200,-107421900,10839840,-21447750
2026-01-14 17:25:27.421,-10408070,65617990,19196840,122573,-18127440,7402344,-46289060
2026-01-14 17:25:27.431,-516950,2,65583460,19283160,-511769,2,-10546880,29907230,-67529300
2026-01-14 17:25:27.441,-3116036,44764740,40153690,-99790780,21606440,-23849490,-8286133
2026-01-14 17:25:27.451,-41293930,27182870,-18685840,-61664680,74401860,-14819340,-80859380
2026-01-14 17:25:27.461,-35795550,6530728,1971476,-67214850,6262207,-31518560,-6958008
2026-01-14 17:25:27.471,-30297180,6516918,1992192,-72765020,-10467530,-45922850,-4975586
2026-01-14 17:25:27.481,-24634800,6501381,2012908,-78496450,-64453120,-6489258,-34301760
2026-01-14 17:25:27.491,27467710,22661170,-21809220,-37787740,-1496582,-7314453,-39208980
2026-01-14 17:25:27.501,-1340498,64633980,20595180,-8988160,-22363280,-8276367,-47558590
2026-01-14 17:25:27.511,-47301580,26049530,-17523160,-56054100,-29858400,-94873050,-59277340
2026-01-14 17:25:27.521,-46800940,6420242,2111310,-56623780,-41455080,-10234380,-7602539
2026-01-14 17:25:27.531,2382344,6398665,2136339,-105858900,-5131836,-10771480,-8935547
2026-01-14 17:25:27.541,-45885980,63796710,21605080,-57642320,-6142578,-10957030,-10576170
2026-01-14 17:25:27.551,-45480290,44817380,40636200,-58065280,-7861328,-11054690,-11074220
2026-01-14 17:25:27.561,-45109130,25016320,-16467510,-58436440,-9091797,-11123050,-11123050
2026-01-14 17:25:27.571,-44789760,24898070,-16344070,-58738540,-10449220,-11279300,-10595700
2026-01-14 17:25:27.581,2050024,63321970,22252460,-12399400,-11669920,-11357420,-10097660
2026-01-14 17:25:27.591,-44315020,63270180,22304250,-59161500,-12822270,-11328130,-9736328
2026-01-14 17:25:27.601,70441370,63261540,22295610,-80785560,-13369140,-11806640,-9667969
2026-01-14 17:25:27.611,2466934,63270180,22235190,-12811130,-13925780,-12548830,-93115230
2026-01-14 17:25:27.621,2501460,6329608,2212298,-12845660,-13642580,-13671880,-8886719
2026-01-14 17:25:27.631,-4408197,24955030,-16425210,-5937728,-12773440,-14736330,-88134770
2026-01-14 17:25:27.641,70697740,25085380,-16571090,-81047110,-11943360,-15712890,-8125
2026-01-14 17:25:27.651,-44289120,4458436,4038591,-59256440,-10849610,-16845700,-6699219
2026-01-14 17:25:27.661,21656880,25412520,-16934480,-125254200,-99609380,-17255860,-5541992
2026-01-14 17:25:27.671,2006866,63649970,20923180,-12373500,-8901367,-16972660,-42773440
2026-01-14 17:25:27.681,-44858810,63727660,20621080,-58859380,-8383789,-15859380,-33984380
2026-01-14 17:25:27.691,62828230,25950270,-17536110,-73206950,-7211914,-15214840,-27148440
2026-01-14 17:25:27.701,1394016,6390029,2005138,-11777920,-6347656,-14482420,-23852540
2026-01-14 17:25:27.711,-45583870,4191164,4186744,-58306960,-52783200,-13222660,-21569820
2026-01-14 17:25:27.721,940853,5,64072920,19568000,-11333390,-47070310,-11972660,-20544430
2026-01-14 17:25:27.731,7155656,44007740,39529620,-111098300,-40112300,-10869140,-20507810
2026-01-14 17:25:27.741,4997740,64245560,19222740,-108940400,-37939450,-93847660,-19580080
2026-01-14 17:25:27.751,-46481570,26778050,-18434670,-57461060,-39404300,-7753906,-14428710
2026-01-14 17:25:27.761,104443,6440093,1905011,-10495250,-40185550,-57714840,-16577150
2026-01-14 17:25:27.771,50666550,44016370,39469190,-51705110,-41503900,-38671880,-18676760
2026-01-14 17:25:27.781,-235646,26948090,-18592630,-10144810,-46044920,-3005371,-2097168
2026-01-14 17:25:27.791,-3866984,44108720,39549470,-99851210,-5209961,-1817627,-21948240
2026-01-14 17:25:27.801,-47154840,6468579,1909328,-56494310,-57958980,-9472656,-20458980
2026-01-14 17:25:27.811,40224470,6475484,1916230,-50580750,-6660156,39215090,-22790530
2026-01-14 17:25:27.821,-746638,5,64806620,19248630,-9602735,-7675781,23718260,-19750980
2026-01-14 17:25:27.831,-8467672,44364220,39811880,-94957050,-87060540,3701172,-21203610
2026-01-14 17:25:27.841,-9382632,64884300,19395380,-93973040,-9394531,43945310,-2607422
2026-01-14 17:25:27.851,-47508730,26946360,-18508030,-55795140,-98291020,43164060,-31884770
2026-01-14 17:25:27.861,35491720,42453250,41999050,-45818650,-103125,46679690,-30908200
2026-01-14 17:25:27.871,-11661400,4452309,3998107,-91590700,-10751950,4753418,-2919922
2026-01-14 17:25:27.881,-12351930,4452309,3998107,-90900170,-11269530,46142580,-3005371
2026-01-14 17:25:27.891,-1305110,26951540,-18502860,-9021825,-11630860,44921880,-26293940
2026-01-14 17:25:27.901,-13758880,26974850,-18531340,-89544990,-11884770,47216800,-30078120
2026-01-14 17:25:27.911,32035600,44453990,39894740,-42369440,-12197270,5205078,-32592770
2026-01-14 17:25:27.921,-15174480,6497929,1926590,-88198450,-12480470,60791020,-33935550
2026-01-14 17:25:27.931,-48138840,44347820,39759220,-55285870,-12734380,6479492,-29956060
2026-01-14 17:25:27.941,-16693660,27244160,-18848990,-86782860,-12792970,62060550,-27001950
2026-01-14 17:25:27.951,29092200,27348600,-18968970,-39443300,-1265625,5126953,-23498540
2026-01-14 17:25:27.961,-1829052,6509146,1851494,-8527231,-12441410,38427740,-20129400
2026-01-14 17:25:27.971,2761963,27587690,-19247770,-3798108,-12519530,2944336,-18151860
2026-01-14 17:25:27.981,26840190,65151880,18040200,-37206830,-12480470,2088623,-15820310
2026-01-14 17:25:27.991,26232520,27833700,-19536930,-36606070,-12607420,18493650,-14038090
2026-01-14 17:25:28.001,-4881213,24237140,-23409710,-5497513,-12451170,19555660,-16113280
2026-01-14 17:25:28.011,2510436,28078840,-19826960,-3548998,-12333980,25170900,-19848630
2026-01-14 17:25:28.021,24669330,43563200,38748450,-35061860,-11904300,34936520,-25805660
2026-01-14 17:25:28.031,24235150,28291180,-20080730,-34632870,-11611330,45166020,-35668940
2026-01-14 17:25:28.041,23887300,28386120,-20192940,-34290190,-11171880,52246100,-48168940
2026-01-14 17:25:28.051,23627480,65281350,16512390,-34032100,-10625,5698242,-5917969
2026-01-14 17:25:28.061,-23460890,28555310,-20386290,-80602580,-10341800,5527344,-6777344
2026-01-14 17:25:28.071,23109580,65359040,16244810,-33514200,-10273440,50146480,-71875
2026-01-14 17:25:28.081,-23866580,65410840,16141240,-80145100,-9707031,37670900,-73095700
2026-01-14 17:25:28.091,-2401333,28780590,-20627110,-7994656,-93066410,23535160,-7294922
2026-01-14 17:25:28.101,-49166020,43253330,38298740,-54724820,-8623047,-17868040,-78271490
2026-01-14 17:25:28.111,-49166020,6561801,1595135,-54655760,-8095703,-21801760,-84277340
2026-01-14 17:25:28.121,21916690,43299070,38322040,-32290230,-7133789,-31274410,-97021490
2026-01-14 17:25:28.131,21576600,43331010,38341900,-31939780,-6435547,-32983400,-10859380
2026-01-14 17:25:28.141,-25523860,29101690,-20927490,-78004440,-5605469,-34692380,-1203125
2026-01-14 17:25:28.151,-26162600,65971890,15821860,-77262110,-5029297,-30004880,-13886720
2026-01-14 17:25:28.161,-49174650,29238070,-21050060,-54129230,-37426760,-21081540,-15556640
2026-01-14 17:25:28.171,18924080,29295040,-21096680,-29240660,-20800780,-70373540,-1765625
2026-01-14 17:25:28.181,18499400,29304540,-21087180,-28802170,2800293,18041990,-18964840
2026-01-14 17:25:28.191,22877480,29282090,-21040570,-23906200,6645508,5732422,-17558590
2026-01-14 17:25:28.201,18344030,66463900,16244810,-28612270,9448242,5703125,-15742190
2026-01-14 17:25:28.211,-27422830,29166430,-20862760,-75069670,1109375,37939450,-14667970
2026-01-14 17:25:28.221,19226190,29065440,-20722060,-29456450,11210940,15563970,-14472660
2026-01-14 17:25:28.231,-2592954,66671060,17159770,-7616586,10517580,-21704100,-14589840
2026-01-14 17:25:28.241,-24971430,28803900,-20379380,-76934110,9121094,-63671880,-15400390
2026-01-14 17:25:28.251,-24108270,6674877,1791073,-77624650,6586914,-10263670,-17080080
2026-01-14 17:25:28.261,-2342637,28506110,-20003910,-7815117,45507810,-12587890,-19638670
2026-01-14 17:25:28.271,-2293434,45076330,40256400,-7852232,21203610,-14306640,-21992190
2026-01-14 17:25:28.281,-2279626,28249750,-19690580,-7855686,8557129,-14277340,-24160160
2026-01-14 17:25:28.291,-2319330,66774630,19024210,-7809073,-30044560,-13525390,-25996090
2026-01-14 17:25:28.301,-24108270,24253110,-23393740,-77106750,-6567383,-1171875,-27050780
2026-01-14 17:25:28.311,-48104320,45404340,40636200,-53041640,-10154720,-9375,-28378910
2026-01-14 17:25:28.321,-2834640,45436270,40656050,-7271320,8703613,-68359380,-29277340
2026-01-14 17:25:28.331,13769250,28327430,-19716470,-23864850,21813960,-43188480,-29589840
2026-01-14 17:25:28.341,9632950,67249380,18842940,-19714740,37182620,-3557129,-2953125
2026-01-14 17:25:28.351,4635208,28747790,-20142010,-14699740,5605469,-36938480,-29199220
2026-01-14 17:25:28.361,39203600,29030050,-20429450,-40207810,74658200,-4177246,-28710940
2026-01-14 17:25:28.371,-28312750,2936322,-2076952,18298290,86816410,-51660160,-27558590
2026-01-14 17:25:28.381,-14227590,29737840,-21154510,4244195,10126950,-64208980,-26347660
2026-01-14 17:25:28.391,-6640347,68716760,16978500,-3308518,12167970,-7133789,-25175780
2026-01-14 17:25:28.401,-5197996,30611370,-22059110,-4709441,13798830,-7578125,-23886720
2026-01-14 17:25:28.411,-81776490,31093020,-22561470,-16866290,15986330,-7636719,-22246090
2026-01-14 17:25:28.421,-45649470,31606600,-23100950,35833540,17324220,-80566410,-20761720
2026-01-14 17:25:28.431,-9793498,70270460,14492580,29351,22,19257810,-7558594,-19736330
2026-01-14 17:25:28.441,-54293230,70667520,13784790,-42795840,20722660,-6767578,-18300780
2026-01-14 17:25:28.451,-54854290,71064580,13042460,-41647830,21953120,-4741211,-16572270
2026-01-14 17:25:28.461,-12234540,7144437,1230014,2646472,22890620,-3671875,-14990230
2026-01-14 17:25:28.471,-1304936,71815530,11549180,352348,1,23183590,-1381836,-13164060
2026-01-14 17:25:28.481,-13837440,72143540,10806860,4375400,22890620,16503910,-11308590
2026-01-14 17:25:28.491,-14616010,72462910,10090430,5219577,24023440,25610350,-93603520
2026-01-14 17:25:28.501,-57348840,44239060,37899960,-35942290,23691410,54248050,-8120117
2026-01-14 17:25:28.511,-57771800,32587680,-31770080,-34828800,24707030,67529300,-6801758
2026-01-14 17:25:28.521,-16817090,73334700,8044721,7627814,25429690,74365230,-53515620
2026-01-14 17:25:28.531,-17505900,33498930,-32688760,8389126,25449220,7739258,-41333010
2026-01-14 17:25:28.541,-58876650,73861240,6827657,-31566030,25488280,7651367,-22302250
2026-01-14 17:25:28.551,-59187390,37931890,-29895800,-30512970,23847660,8334961,-12841800
2026-01-14 17:25:28.561,-19441120,38297020,-30290270,10545320,23222660,7919922,32226560
2026-01-14 17:25:28.571,-20042750,7454314,523080,4,11221180,22695310,70214850,14916990
2026-01-14 17:25:28.581,-59990140,38967700,-31017920,-27500510,21484380,72509770,21398930
2026-01-14 17:25:28.591,-60223190,74931570,4289941,-26559660,203125,7348633,33276370
2026-01-14 17:25:28.601,-60430350,75095570,3832465,-25661970,18994140,60009770,4206543
2026-01-14 17:25:28.611,-22190310,75250940,3400881,13648410,18378910,40625,5239258
2026-01-14 17:25:28.621,-44225250,40126930,-32292820,-40537800,18242190,24194340,5776367
2026-01-14 17:25:28.631,-6100869,40378970,-32575940,-2315014,18378910,11859130,6479492
2026-01-14 17:25:28.641,-23590360,7559620,210614,1,15234900,17822270,5984497,7397461
2026-01-14 17:25:28.651,-20293670,75682520,1691809,19463830,16777340,40496820,88916020
2026-01-14 17:25:28.661,-61552470,42229600,34782200,-20880020,15966800,7458496,10117190
2026-01-14 17:25:28.671,-61725100,42081140,34585390,-20172220,14599610,13269040,11123050
2026-01-14 17:25:28.681,-25276130,7585515,43159,43,17139920,13876950,18688960,12421880
2026-01-14 17:25:28.691,-6205309,38341470,37582740,-1879114,13496090,17687990,13115230
2026-01-14 17:25:28.701,-42366840,41596040,33965640,-37959510,13671880,15319820,13632810
2026-01-14 17:25:28.711,-26425010,42127750,-34607840,18442440,13623050,14221190,14355470
2026-01-14 17:25:28.721,-23210060,7600188,-116526,8,22416980,13027340,15222170,15439450
2026-01-14 17:25:28.731,-27132800,4112474,3336661,19253810,12070310,19641110,16318360
2026-01-14 17:25:28.741,-62700480,7606232,-193347,2,-15588800,11328130,26953120,16884770
2026-01-14 17:25:28.751,-27799170,42894240,-35515890,20020310,10537110,3305664,17216800
2026-01-14 17:25:28.761,-6288175,76122740,-2701712,-1438897,99902340,31591800,17382810
2026-01-14 17:25:28.771,-62976700,76148620,-3090139,-13810680,89160160,34643560,17382810
2026-01-14 17:25:28.781,-28716720,4346047,-3619260,21088040,7739258,4169922,17539060
2026-01-14 17:25:28.791,-63114800,7618317,-390149,2,-12688560,7109375,44091800,17558590
2026-01-14 17:25:28.801,-40221020,76183150,-4333100,-35116240,64501950,44335940,18173830
2026-01-14 17:25:28.811,-40017310,44053480,-36911630,-34853840,4580078,5410156,17705080
2026-01-14 17:25:28.821,-29823300,4425459,-3715935,22381070,26049800,56103520,18730470
2026-01-14 17:25:28.831,-6337375,7617453,-568826,6,-1063422,1418457,63378900,19306640
2026-01-14 17:25:28.841,-30300630,76148630,-6163015,22939540,3332138,79003900,19589840
2026-01-14 17:25:28.851,-63477330,35164840,34337400,-9771054,-13598630,8339844,19833980
2026-01-14 17:25:28.861,-30707180,76088210,-7086603,23413420,-21386720,85009770,20527340
2026-01-14 17:25:28.871,-30865140,38439440,30078800,23600730,-29711910,7890625,20332030
2026-01-14 17:25:28.881,-30990300,7603641,-800154,6,23751780,-36523440,71728510,20449220
2026-01-14 17:25:28.891,-27844140,76019150,-8433147,27122370,-45385740,67529300,20195310
2026-01-14 17:25:28.901,-31152570,37811050,29326110,23952030,-43310550,75341800,19033200
2026-01-14 17:25:28.911,-31180200,37623740,29099100,23993470,-42993160,84716800,17314450
2026-01-14 17:25:28.921,-63468700,37445070,28880720,-8312304,-48266600,9453125,16513670
2026-01-14 17:25:28.931,-38618110,46308930,-39714330,-33111100,-5942383,10615230,15527340
2026-01-14 17:25:28.941,-27824460,37129150,28488850,27107520,-67578130,11464840,14492190
2026-01-14 17:25:28.951,-30939370,4664815,-4011742,23768180,-7607422,11806640,13203130
2026-01-14 17:25:28.961,-30812490,7606231,-1104853,23636110,-7680664,11494140,11416020
2026-01-14 17:25:28.971,-30651940,76096840,-11342020,23468660,-76708980,1078125,93603520
2026-01-14 17:25:28.981,-27230090,47108220,-40658640,26510720,-77001950,97216800,72216800
2026-01-14 17:25:28.991,-6269185,7617453,-1192034,-936536,3,-7578125,8540039,55566410
2026-01-14 17:25:29.001,-6253648,7623495,-1220518,-967610,1,-7519531,7104492,39697260
2026-01-14 17:25:29.011,-62363850,47573480,-41194670,-10004110,-7314453,5786133,25708010
2026-01-14 17:25:29.021,-36529340,47734890,-41378520,-36011260,-70996100,48046880,8721924
2026-01-14 17:25:29.031,-6198404,36141690,27197550,-1074642,-67578130,44848630,-59417720
2026-01-14 17:25:29.041,-6179415,36045870,27068930,-1114348,-58935550,5366211,-24536130
2026-01-14 17:25:29.051,-25380400,76493900,-13603520,24648790,-35302740,80859380,-47729490
2026-01-14 17:25:29.061,-61397100,48329610,-42061280,-12006660,-11828610,11259770,-7661133
2026-01-14 17:25:29.071,-28057260,76588850,-14095530,20694440,50994870,13544920,-9477539
2026-01-14 17:25:29.081,-27749110,7664927,-1431131,20363850,-48942570,13388670,-10195310
2026-01-14 17:25:29.091,-27439230,48720620,-42498910,20034980,-16491700,10859380,-9169922
2026-01-14 17:25:29.101,-27138850,76787380,-14656580,19713890,-4128418,67333980,-8535156
2026-01-14 17:25:29.111,-26854870,76847790,-14768800,19410910,-60546880,2244873,-7324219
2026-01-14 17:25:29.121,-60154140,7689960,-1485509,-14475320,-7114258,-24951170,-72802740
2026-01-14 17:25:29.131,-5998151,7696001,-1491553,-1485511,-78125,-69189460,-7788086
2026-01-14 17:25:29.141,-26040040,77011800,-14950060,18533940,-69091800,-10722660,-87402340
2026-01-14 17:25:29.151,-39843810,77046330,-14984590,-35441650,-5727539,-12578130,-10214840
2026-01-14 17:25:29.161,-25502280,35644500,26434500,17949570,-40698240,-13300780,-11787110
2026-01-14 17:25:29.171,-40012990,77132650,-15053640,-35721320,-22998050,-12685550,-13466800
2026-01-14 17:25:29.181,-40073410,7718445,-1508815,-35833530,-39001460,-11035160,-15332030
2026-01-14 17:25:29.191,-40110530,35674710,26438820,-35917260,11657720,-77685540,-17158200
2026-01-14 17:25:29.201,-21148380,35688520,26442270,20387240,16577150,-36499020,-18818360
2026-01-14 17:25:29.211,-24427640,77365700,-15183120,16814500,21179200,1586914,-20039060
2026-01-14 17:25:29.221,-40101030,35756710,26494930,-35995810,19458010,36987300,-20195310
2026-01-14 17:25:29.231,-4005529,77486540,-15165850,-3595521,11883550,47705080,-19746090
2026-01-14 17:25:29.241,-5849686,77538330,-15114060,-1739279,-18603520,81689460,-1875
2026-01-14 17:25:29.251,-58496860,35904310,26640800,-17185660,-52001950,7939453,-16826170
2026-01-14 17:25:29.261,-24573510,35981130,26719350,17031160,-8354492,59375,-14179690
2026-01-14 17:25:29.271,-58548650,36065730,26807390,-16546920,-11357420,27563480,-12099610
2026-01-14 17:25:29.281,-58591800,77797290,-14751530,-16158490,-13447270,-16189580,-10556640
2026-01-14 17:25:29.291,-21813020,77866340,-14630690,21069140,-15166020,-2232666,-10068360
2026-01-14 17:25:29.301,-25367630,36335030,27090510,17963380,-16787110,-23388670,-10048830
2026-01-14 17:25:29.311,-58721280,36436020,27196680,-14975950,-18759770,18676760,-11074220
2026-01-14 17:25:29.321,-25731020,78073500,-14250890,18394100,-19980470,40600580,-11748050
2026-01-14 17:25:29.331,-58764440,78151180,-14104150,-14294050,-19765620,6640625,-13291020
2026-01-14 17:25:29.341,-26019320,78237500,-13966050,18744550,-20,7060547,-13789060
2026-01-14 17:25:29.351,-38460150,78349710,-13836570,-33959600,-18828120,3876953,-12558590
2026-01-14 17:25:29.361,-26199720,78479180,-13724360,18995730,-14892580,-3371582,-12177730
2026-01-14 17:25:29.371,-3806654,37104120,27875130,-3352455,-9375,-1046875,-11259770
2026-01-14 17:25:29.381,-58393280,78798560,-13629410,-12697190,-46728520,-16025390,-11230470
2026-01-14 17:25:29.391,-58263810,46626840,-45973760,-12239710,-27001950,-18544920,-10507810
2026-01-14 17:25:29.401,-58134330,37338030,28055530,-11713180,-33007810,-18603520,-93652340
2026-01-14 17:25:29.411,-57996220,37377740,28067620,-11108960,-5957031,-16455080,-84814460
2026-01-14 17:25:29.421,-57858110,79445930,-13983310,-10435690,-92285150,-12080080,-75146480
2026-01-14 17:25:29.431,-27374490,33191630,32253720,20634880,-11318360,-9238281,-5698242
2026-01-14 17:25:29.441,-35647950,37406220,27987340,-30781410,-12021480,-8774414,-31323240
2026-01-14 17:25:29.451,-35182700,37390690,27933830,-30245380,-1171875,-8227539,-55267340
2026-01-14 17:25:29.461,-28302400,80076040,-14855110,21864900,-11953130,-57128900,12548830
2026-01-14 17:25:29.471,-28670110,50894940,-44381480,22343090,-121875,-42895510,34155270
2026-01-14 17:25:29.481,-5704673,37294880,27736160,-511856,5,-11582030,-31298830,56591800
2026-01-14 17:25:29.491,-56969050,37256030,27671430,-4074150,-9555664,-49957280,7915039
2026-01-14 17:25:29.501,-56899990,37232730,27625680,-3021082,-76708980,28442380,10410160
2026-01-14 17:25:29.511,-56839570,37214600,27592010,-1959388,-6376953,6435547,12861330
2026-01-14 17:25:29.521,-56779150,80568050,-15761430,-914951,9,-63183590,8754883,15322270
2026-01-14 17:25:29.531,-56718730,37256030,27619630,112216,2,-71875,91845700,18291020
2026-01-14 17:25:29.541,-30672650,37306960,27672290,-24898060,-7792969,8623047,20898440
2026-01-14 17:25:29.551,-32026100,80714790,-15562910,26565710,-7753906,7631836,23027340
2026-01-14 17:25:29.561,-29821570,80766580,-15390270,-23884700,-7446289,58154300,25097660
2026-01-14 17:25:29.571,-32675210,51274740,-44709490,27383990,-75927740,33911130,27148440
2026-01-14 17:25:29.581,-26405420,80878790,-14863740,-25798950,-8496094,9765625,28515620
2026-01-14 17:25:29.591,-56373460,8093921,-1452708,4756052,-9760742,-2619629,30292970
2026-01-14 17:25:29.601,-56330310,50921700,-44233880,5179008,-10224610,-54541020,31484380
2026-01-14 17:25:29.611,-56304410,38429080,28949780,5498378,-9868164,-72558590,32402340
2026-01-14 17:25:29.621,-56295780,50602330,-43810930,5714172,-85791020,-78564460,32695310
2026-01-14 17:25:29.631,-56278510,38934030,29532420,5852278,-67822260,-984375,33203120
2026-01-14 17:25:29.641,-28280820,81301740,-12300140,-22059100,-48535160,-12548830,34160160
2026-01-14 17:25:29.651,-56295780,81362160,-11825400,5973122,-2993164,-15771480,35058590
2026-01-14 17:25:29.661,-33669570,39665140,30389540,28633860,-24365230,-17470700,3640625
2026-01-14 17:25:29.671,-33684240,39892140,30663160,28636450,-5888672,-16367190,37167970
2026-01-14 17:25:29.681,-33692880,4011915,3093680,28627810,-98876950,-14111330,38652340
2026-01-14 17:25:29.691,-28577750,8142259,-988325,4,-22349130,-13408200,-11015630,39257810
2026-01-14 17:25:29.701,-5675328,49002020,-41803200,546387,3,-11503910,-9111328,39199220
2026-01-14 17:25:29.711,-28965310,81353540,-8933780,-22755680,-47045900,-80615230,38925780
2026-01-14 17:25:29.721,-57072630,40906370,31927700,4868266,21472170,-71240230,38671880
2026-01-14 17:25:29.731,-57219370,48328740,-41009080,4514370,6279297,-66015620,37773440
2026-01-14 17:25:29.741,-57331580,81241310,-7699451,4143208,6381836,-58447260,36386720
2026-01-14 17:25:29.751,-29903570,41339680,32478400,-23785440,40478520,-53564450,34863280
2026-01-14 17:25:29.761,-33136140,47878170,-40475650,27717170,22619630,-5332031,32871090
2026-01-14 17:25:29.771,-32981630,44461320,-43719860,27509150,16882320,-58251950,30957030
2026-01-14 17:25:29.781,-57702740,81120470,-6939863,2390978,15039060,-6230469,29667970
2026-01-14 17:25:29.791,-28273570,47710720,-40297830,-27676940,19494630,-5366211,29003910
2026-01-14 17:25:29.801,-31288960,8098238,-700890,6,-25369350,27978520,-37036130,29472660
2026-01-14 17:25:29.811,-58065270,8087879,-714699,9,630112,2,34472660,26123050,27988280
2026-01-14 17:25:29.821,-32047680,80749310,-7328288,-26233380,43041990,79833980,28046880
2026-01-14 17:25:29.831,-58367380,40946080,32129690,-811377,8,59277340,11855470,27402340
2026-01-14 17:25:29.841,-31465040,80473100,-7759875,25452220,76708980,14140630,26796880
2026-01-14 17:25:29.851,-58669490,8032636,-799290,5,-2477288,9980469,14746090,25214840
2026-01-14 17:25:29.861,-33870690,35977260,35976380,-28329150,12646480,14541020,22929690
2026-01-14 17:25:29.871,-30433560,8000698,-843313,1,24101360,14091800,13486330,20273440
2026-01-14 17:25:29.881,-59023390,40021620,31172430,-5455220,14667970,11210940,17207030
2026-01-14 17:25:29.891,-59109710,7967036,-883880,9,-6611860,14951170,8847656,14394530
2026-01-14 17:25:29.901,-36083850,39651320,30800400,-30949730,14658200,7910156,10996090
2026-01-14 17:25:29.911,-59247810,39467470,30621730,-9149574,14189450,6386719,859375
2026-01-14 17:25:29.921,-37345800,4767189,-4069919,-32467180,13671880,6850586,59472660
2026-01-14 17:25:29.931,-3800960,47585560,-40647420,-3327077,13466800,71728510,27392580
2026-01-14 17:25:29.941,-38688030,38928850,30124540,-34094250,13310550,8520508,-41259770
2026-01-14 17:25:29.951,-5936866,7826339,-953799,6,-1495006,12529300,11113280,-39794920
2026-01-14 17:25:29.961,-25215710,47167780,-40322860,17631920,12783200,13642580,-7626953
2026-01-14 17:25:29.971,-24488920,77659180,-9486211,16753220,13701170,15439450,-11503910
2026-01-14 17:25:29.981,-59221920,77357060,-9425783,-19602530,15048830,16357420,-15820310
2026-01-14 17:25:29.991,-23018950,38171860,29535000,14994950,165625,17509770,-20332030
2026-01-14 17:25:30.001,-22291300,76735580,-9235891,14134370,17148440,18652340,-24980470
2026-01-14 17:25:30.011,-21576600,76442110,-9115047,13295370,16367190,18808590,-28339840
2026-01-14 17:25:30.021,-20882610,7617452,-900282,5,12487440,15380860,16855470,-30820310
2026-01-14 17:25:30.031,-20234370,37749760,29266560,11737350,14423830,13701170,-3265625
2026-01-14 17:25:30.041,-44466070,37672950,29222540,-41401820,13076170,97998050,-34042970
2026-01-14 17:25:30.051,-58056640,45451810,-38776070,-28622630,11796880,5234375,-35
2026-01-14 17:25:30.061,-18533930,37500310,29101690,9795226,97509770,109436000,-35742190
2026-01-14 17:25:30.071,-57676850,37413130,29033500,-30331700,6386719,-24926760,-36054690
2026-01-14 17:25:30.081,-17669900,7493157,-869208,9,8812076,32299800,-5419922,-35507810
2026-01-14 17:25:30.091,-17316000,7475030,-875251,2,8406386,12390140,-72998050,-35390620
2026-01-14 17:25:30.101,-17021660,74551780,-8864731,8061988,4663086,-78271490,-35566410
2026-01-14 17:25:30.111,-57297060,7434463,-898554,7,-32748580,8013916,-7890625,-35703120
2026-01-14 17:25:30.121,-16582310,7414608,-913230,5,7534590,13879400,-7416992,-35332030
2026-01-14 17:25:30.131,-57322950,7393894,-927039,3,-33534050,17944340,-6645508,-3453125
2026-01-14 17:25:30.141,-57366110,36328130,28012370,-33836160,20422360,-6298828,-33515620
2026-01-14 17:25:30.151,-16254300,36177940,27869090,7103006,25952150,-6044922,-32402340
2026-01-14 17:25:30.161,-16206830,73421020,-9598417,7029639,28198240,-6455078,-31464840
2026-01-14 17:25:30.171,-57590530,35963010,27669700,-34423120,31835940,-7451172,-30527340
2026-01-14 17:25:30.181,-57650950,73170700,-9658839,-34552590,34887700,-9472656,-29570310
2026-01-14 17:25:30.191,-16141230,44535120,-38190840,6905342,43579100,-11894530,-29238280
2026-01-14 17:25:30.201,-57745900,73015340,-9589785,-34733860,49536130,-13857420,-29550780
2026-01-14 17:25:30.211,-11951590,72972180,-9512103,11025930,51416020,-14648440,-30136720
2026-01-14 17:25:30.221,-16111880,72946280,-9417153,6848374,4350586,-14589840,-30585940
2026-01-14 17:25:30.231,-57806320,72946280,-9313573,-34846070,17333980,-13369140,-30546880
2026-01-14 17:25:30.241,-57823590,72954910,-9184101,-34828800,-4156494,-12734380,-2953125
2026-01-14 17:25:30.251,-16180070,36064860,27861320,6918290,-1430664,-12451170,-29472660
2026-01-14 17:25:30.261,-57918540,36146000,27952820,-34630280,-769043,-12431640,-29765620
2026-01-14 17:25:30.271,-57996220,73067130,-8778409,-34431750,51696780,-12460940,-30878910
2026-01-14 17:25:30.281,-16583170,73136180,-8657565,7361095,12207030,-12402340,-31757810
2026-01-14 17:25:30.291,-16819680,7323976,-857124,4,7625221,8666992,-11416020,-31621090
2026-01-14 17:25:30.301,-17121790,36522340,28336060,7961858,35369870,-11259770,-30917970
2026-01-14 17:25:30.311,-17471370,73498700,-8467669,8354603,-10900500,-10595700,-29824220
2026-01-14 17:25:30.321,-46676640,36707060,28496610,-44007730,-6462097,-88183590,-28691410
2026-01-14 17:25:30.331,-58893910,36784740,28557030,-31220760,-4949951,-62939450,-26972660
2026-01-14 17:25:30.341,-18855030,73990710,-8493567,9905714,42938230,-4338379,-24882810
2026-01-14 17:25:30.351,-19416090,36952200,28683050,10535820,1784668,-2364502,-22753910
2026-01-14 17:25:30.361,-59653500,37039380,28751250,-28406840,29833980,9399414,-21503910
2026-01-14 17:25:30.371,-20659910,37142960,28837560,11933290,32739260,49609380,-19833980
2026-01-14 17:25:30.381,-17427870,37254310,28933380,16563670,36694340,80908200,-16591800
2026-01-14 17:25:30.391,-21988330,37389820,29056810,13436070,40844730,10273440,-13212890
2026-01-14 17:25:30.401,-22659010,7506967,-831229,2,14198240,50878900,12080080,-95703130
2026-01-14 17:25:30.411,-23321060,37729050,29390850,14951790,5678711,13085940,-6118164
2026-01-14 17:25:30.421,-23947720,37942250,29609230,15671670,61035160,13828130,-28637700
2026-01-14 17:25:30.431,-42966750,34442190,33609930,-38878790,5605469,15751950,10772710
2026-01-14 17:25:30.441,-61500680,38454980,30149580,-19481690,47265620,14277340,3466797
2026-01-14 17:25:30.451,-61578370,76036420,-6793127,-18575360,40307620,14199220,72998050
2026-01-14 17:25:30.461,-41889520,76234940,-6301124,-37504630,40063480,11894530,9707031
2026-01-14 17:25:30.471,-26212670,76433470,-5757331,18344040,4091797,10087890,12138670
2026-01-14 17:25:30.481,-2646731,7662338,-515311,2,1865909,46142580,10175780,13798830
2026-01-14 17:25:30.491,-26655480,7681326,-453161,8,18902500,56640620,11113280,13867190
2026-01-14 17:25:30.501,-26786670,76994540,-3866991,19082050,64501950,13398440,13027340
2026-01-14 17:25:30.511,-61353940,7717581,-320232,5,-15260800,66748050,18242190,11826170
2026-01-14 17:25:30.521,-6123309,41395780,33406300,-1500183,78808590,22773440,10166020
2026-01-14 17:25:30.531,-23529510,41779030,33834440,22770790,8569336,25878910,8544922
2026-01-14 17:25:30.541,-40072550,4333361,-3569800,-35437340,8544922,27207030,68310540
2026-01-14 17:25:30.551,-269584,4,7788360,-83726,99,194454,7,76708980,26542970,5258789
2026-01-14 17:25:30.561,-60594360,7805624,-44018,73,-14104160,6040039,23574220,43237300
2026-01-14 17:25:30.571,-27018000,4309190,-3528368,19593040,3334961,18623050,3737793
2026-01-14 17:25:30.581,-60283620,7841014,1728,523,-13482670,8026123,15380860,35888670
2026-01-14 17:25:30.591,-38970280,43227420,35372600,-34260840,-13366700,13476560,34326170
2026-01-14 17:25:30.601,-6005056,7873814,-10357,15,-1259361,-25024410,10185550,39135740
2026-01-14 17:25:30.611,-5996425,7888488,-38842,39,-1204118,-28125,6801758,54345700
2026-01-14 17:25:30.621,-27796580,79022980,-785478,9,20661640,-25390620,6123047,7368164
2026-01-14 17:25:30.631,-59826140,44116490,-36330720,-10815490,-2364502,6743164,10166020
2026-01-14 17:25:30.641,-59757080,7929057,-188167,7,-10176740,-2052002,6557617,13007810
2026-01-14 17:25:30.651,-28508690,42551560,34356650,21589540,-59906010,40673830,14462890
2026-01-14 17:25:30.661,-28713260,79575410,-3202351,21868350,90026860,1184082,15224610
2026-01-14 17:25:30.671,-59368660,7971352,-389285,9,-8355464,18115230,8929443,15859380
2026-01-14 17:25:30.681,-59187390,79860260,-4592051,-7828924,20373540,41479490,15908200
2026-01-14 17:25:30.691,-29143120,41638330,33111970,22508820,12817380,8652344,16748050
2026-01-14 17:25:30.701,-29197500,41444980,32839210,22627070,4724121,12773440,17509770
2026-01-14 17:25:30.711,-35155080,80334990,-6465124,-29962260,48431400,18369140,18398440
2026-01-14 17:25:30.721,-29208720,80516260,-6974391,22753960,7897949,20019530,19189450
2026-01-14 17:25:30.731,-34585390,41055700,32244480,-29392570,29800420,13017580,21171880
2026-01-14 17:25:30.741,-29093060,4799038,-4067416,22748780,-4928589,24401860,22949220
2026-01-14 17:25:30.751,-29015370,8112910,-801880,9,22722880,231781,-58251950,22695310
2026-01-14 17:25:30.761,-57029470,8132764,-823459,6,-5412060,-1993,179,-12246090,21074220
2026-01-14 17:25:30.771,-28847920,41059150,32068400,22648650,-11883550,-15634770,18154300
2026-01-14 17:25:30.781,-56502940,41099720,32079620,-5127216,-36083980,-17617190,16367190
2026-01-14 17:25:30.791,-5629577,41136840,32094290,-505814,6,-71728510,-18466800,159375
2026-01-14 17:25:30.801,-56174940,8190596,-864028,6,-5023638,-9892578,-19492190,17666020
2026-01-14 17:25:30.811,-56105890,48948500,-41615030,-5040894,-13320310,-2078125,20878910
2026-01-14 17:25:30.821,-5611452,8195775,-851945,9,-511858,1,-15361330,-24863280,25175780
2026-01-14 17:25:30.831,-33267340,48789680,-41428580,-28172920,-15800780,-26347660,2984375
2026-01-14 17:25:30.841,-56356200,41424270,32445600,-5446584,-14287110,-24863280,33691410
2026-01-14 17:25:30.851,-3368427,48295950,-40869250,-2860190,-12050780,-23769530,37324220
2026-01-14 17:25:30.861,-33969090,47918740,-40435080,-28904020,-10263670,-24804690,4078125
2026-01-14 17:25:30.871,-56951780,8149164,-589540,6,-6629126,-7236328,-28457030,42578120
2026-01-14 17:25:30.881,-32445340,46958900,-39306050,-31946950,-3935547,-33652340,425
2026-01-14 17:25:30.891,-35087750,43049610,34549140,-30167700,4171753,-39121100,39941410
2026-01-14 17:25:30.901,-57288420,45759960,-37880960,-8916514,49243160,-446875,35800780
2026-01-14 17:25:30.911,-3598112,44126850,35906040,-3124233,7636719,-47382810,30351560
2026-01-14 17:25:30.921,-26538080,44699130,36628510,19710430,91796870,-48476560,24648440
2026-01-14 17:25:30.931,-36929760,43740150,-35481360,-32434380,9428711,-48945310,18984380
2026-01-14 17:25:30.941,-56986320,8077522,302110,9,-13465410,9614258,-50,13974610
2026-01-14 17:25:30.951,-5680503,46276140,38642280,-1476877,8930664,-48632810,10732420
2026-01-14 17:25:30.961,-20621930,80447200,5472485,19895150,9008789,-47265620,7783203
2026-01-14 17:25:30.971,-56433890,4706594,3969968,-17384190,890625,-4609375,54833980
2026-01-14 17:25:30.981,-39368200,7992932,752683,3,-35606520,73291020,-38789060,6166992
2026-01-14 17:25:30.991,-56183570,39998320,-31195730,-19965060,6347656,-27871090,67822260
2026-01-14 17:25:31.001,-21293480,79256030,9218629,13561230,6557617,-14414060,7060547
2026-01-14 17:25:31.011,-20697030,47855730,40964200,12845660,9370117,22558590,72998050
2026-01-14 17:25:31.021,-20133380,38367790,-29459900,12166350,14228520,22207030,73339840
2026-01-14 17:25:31.031,-19618070,37852480,-28922150,11542280,19951170,44296880,8613281
2026-01-14 17:25:31.041,-55941880,77641910,11885820,-25782810,26308590,63515620,12490230
2026-01-14 17:25:31.051,-18728140,7733980,1249867,10481440,34746100,77070310,15673830
2026-01-14 17:25:31.061,-18325910,77167170,13120140,10037780,446875,75195310,12939450
2026-01-14 17:25:31.071,-1795994,36256480,-27169060,966144,9,50234380,6375,91748050
2026-01-14 17:25:31.081,-5489746,36056230,-26903200,-2791482,47460940,4546875,3251953
2026-01-14 17:25:31.091,-17329810,49227300,42958980,9083113,39472660,34296880,-38989260
2026-01-14 17:25:31.101,-17032020,35962140,-26686550,8828478,29492190,30351560,-11240230
2026-01-14 17:25:31.111,-42063880,78013070,15122690,-39539970,17490230,28613280,-18808590
2026-01-14 17:25:31.121,-16322500,7832381,1493280,8191459,5673828,25800780,-23457030
2026-01-14 17:25:31.131,-52446060,36703610,-27395210,-28760740,-32885740,22460940,-25058590
2026-01-14 17:25:31.141,-15441200,78798560,13853840,7311895,-8359375,19785160,-22421880
2026-01-14 17:25:31.151,-51695100,37561600,-28367130,-29856960,-8095703,16542970,-16025390
2026-01-14 17:25:31.161,-5147067,79005710,11972130,-3047841,-63916020,15654300,-10390630
2026-01-14 17:25:31.171,-14247440,79022980,10780960,6002470,-44360350,15537110,-7133789
2026-01-14 17:25:31.181,-51306680,39173990,-30328250,-31695510,-30004880,16669920,-4621582
2026-01-14 17:25:31.191,-13726950,78876240,8079249,5366316,-41992190,171875,-30200200
2026-01-14 17:25:31.201,-13552590,40304740,-31769740,5126353,23278810,190625,-29052730
2026-01-14 17:25:31.211,-9565709,40834730,-32465460,8716180,49951170,23144530,-24243160
2026-01-14 17:25:31.221,-43731520,37638420,-36818400,-41946480,71191410,26347660,-29882810
2026-01-14 17:25:31.231,-90985620,38156400,-37353480,82338400,7705078,30175780,-38916020
2026-01-14 17:25:31.241,-51979940,7754698,107034,9,-35338070,97558590,33203120,-421875
2026-01-14 17:25:31.251,-122897800,7714990,-20710,55,34716590,13232420,33046880,-6538086
2026-01-14 17:25:31.261,-117986400,7672694,-142417,5,28924740,16416020,33535160,-94189460
2026-01-14 17:25:31.271,-51686470,43125580,-35750670,-38238320,16845700,31503910,-13125
2026-01-14 17:25:31.281,-10546180,43370710,-36144270,1469113,13720700,29101560,-14755860
2026-01-14 17:25:31.291,-50987300,39430360,31418440,-40560240,9404297,24863280,-15644530
2026-01-14 17:25:31.301,-48204450,4380142,-3685291,38975460,44335940,19267580,-16796880
2026-01-14 17:25:31.311,-39434670,43979240,-37158500,30136630,15289310,13300780,-17490230
2026-01-14 17:25:31.321,-30663160,74258300,-7293767,21299520,-39208980,69970700,-184375
2026-01-14 17:25:31.331,-64288710,7385262,-807922,-29934650,-8510742,15734860,-1875
2026-01-14 17:25:31.341,-9278187,73438290,-8821570,8330433,-11376950,-32373050,-18789060
2026-01-14 17:25:31.351,-12533190,35867200,27610140,3003825,-13261720,-7128906,-18476560
2026-01-14 17:25:31.361,1857536,72601010,-10228530,-11435240,-13945310,-10419920,-19707030
2026-01-14 17:25:31.371,882588,8,7218669,-1090181,-1845020,-14492190,-13027340,-20742190
2026-01-14 17:25:31.381,-28311890,34272930,25941640,-68362860,-14736330,-15898440,-20429690
2026-01-14 17:25:31.391,21042300,71358060,-12179290,-30747750,-15078130,-17792970,-19912110
2026-01-14 17:25:31.401,26289490,44788030,-38973740,-36031200,-14833980,-184375,-18681640
2026-01-14 17:25:31.411,-1280077,32761520,24362900,-8496156,-14511720,-1828125,-1859375
2026-01-14 17:25:31.421,35578040,3227213,2385103,-45387070,-14648440,-17568360,-18945310
2026-01-14 17:25:31.431,-456616,69778460,-14673850,-9381764,-15537110,-16064450,-19023440
2026-01-14 17:25:31.441,-906324,27475230,26628110,-97753710,-15302730,-13945310,-18828120
2026-01-14 17:25:31.451,251181,5,69027500,-15959970,-10141350,-14169920,-12451170,-20703120
2026-01-14 17:25:31.461,-44038800,30272150,21742330,-55070080,-13027340,-12978520,-22519530
2026-01-14 17:25:31.471,-43840280,29763740,21197670,-55458510,-11796880,-15087890,-22890620
2026-01-14 17:25:31.481,110486,3,29231160,20625380,-1104853,-11845700,-15195310,-22714840
2026-01-14 17:25:31.491,1323237,28677010,20022900,-11279010,-12958980,-14550780,-21914060
2026-01-14 17:25:31.501,59669900,28074520,19365160,-69632580,-13925780,-11962890,-20527340
2026-01-14 17:25:31.511,6078941,46163060,-41552020,-7075727,-13515630,-79833980,-19287110
2026-01-14 17:25:31.521,-43201530,66558840,-21794970,-56494310,-12421880,-4958496,-19013670
2026-01-14 17:25:31.531,-43184270,46676640,-42333180,-56511570,-1140625,-3659668,-18144530
2026-01-14 17:25:31.541,6173891,6589421,-2378890,-7170677,-9897461,-5136719,-16621090
2026-01-14 17:25:31.551,1673681,65566200,-24772900,-11636360,-9477539,-84033200,-153125
2026-01-14 17:25:31.561,-43158370,24297300,15201240,-56433880,-10546880,-12568360,-14238280
2026-01-14 17:25:31.571,1643472,23664600,14504670,-11597520,-11318360,-12646480,-12314450
2026-01-14 17:25:31.581,1637429,23005140,13783060,-11586300,-12783200,-12236330,-10898440
2026-01-14 17:25:31.591,1640882,1816761,1723953,-11582840,-13974610,-12197270,-93310540
2026-01-14 17:25:31.601,1652104,21700030,12360560,-11588890,-14980470,-11367190,-74316410
2026-01-14 17:25:31.611,-43028900,21062150,11669160,-56269890,-14658200,-98095700,-5205078
2026-01-14 17:25:31.621,-42994370,20465700,11022650,-56235360,-14990230,-10058590,-46606440
2026-01-14 17:25:31.631,1662459,62596900,-32282460,-11578530,-16318360,-87353520,-34887700
2026-01-14 17:25:31.641,1657282,19344450,9813350,-11566440,-16748050,-98291020,-13513180
2026-01-14 17:25:31.651,1633975,61871840,-33818900,-11537960,-17265620,-8901367,3567505
2026-01-14 17:25:31.661,1617577,18309510,8707634,-11519830,-18916020,-6713867,-53527830
2026-01-14 17:25:31.671,1600313,17832180,8200954,-11502570,-19970700,-4909668,-27490230
2026-01-14 17:25:31.681,1608945,17403180,7749516,-11511200,-22246090,-3251953,-6254883
2026-01-14 17:25:31.691,1651238,60508040,-36218510,-11555220,-22421880,27612300,-54248050
2026-01-14 17:25:31.701,-42873530,60154140,-36745040,-56183560,-20078120,12724610,13293460
2026-01-14 17:25:31.711,-48891530,59800240,-37219780,-50234620,-16669920,20664060,40405270
2026-01-14 17:25:31.721,67435300,59489500,-37599580,-68427260,-14716800,21347660,19665530
2026-01-14 17:25:31.731,1934359,15541330,5830696,-11859060,-13427730,19003910,-1706543
2026-01-14 17:25:31.741,20785070,49594150,-47494930,-120083900,-7661133,18046880,2541504
2026-01-14 17:25:31.751,-48948500,15235770,5532043,-50402070,-41259770,16171880,4309082
2026-01-14 17:25:31.761,70644210,49493160,-47423290,-80582720,-30078120,13779300,32543940
2026-01-14 17:25:31.771,-41777310,15205560,5527726,-57625060,-23095700,9394531,5390625
2026-01-14 17:25:31.781,-41345720,58704020,-37918940,-58056640,-19213870,10488280,8183594
2026-01-14 17:25:31.791,3859220,58643600,-37789470,-13801180,-23937990,12822270,11220700
2026-01-14 17:25:31.801,4342596,15264250,5641663,-14284560,-2602539,12470700,14287110
2026-01-14 17:25:31.811,479919,5,58470960,-37565050,-1474287,-43396000,1140625,19335940
2026-01-14 17:25:31.821,-3956761,58350120,-37461460,-5992106,203125,9995117,22109380
2026-01-14 17:25:31.831,-39205060,15233180,5672738,-60318140,23693850,70947260,19550780
2026-01-14 17:25:31.841,-38808010,58203380,-37193880,-60715200,14880370,70214850,15546880
2026-01-14 17:25:31.851,-38341900,58177490,-37047140,-61129520,-3463745,13916020,13789060
2026-01-14 17:25:31.861,6907930,5812571,-3696084,-16846440,-2980957,20742190,13056640
2026-01-14 17:25:31.871,7440503,15278070,5783222,-17366930,-47583010,27792970,13652340
2026-01-14 17:25:31.881,8015371,48446140,-46364180,-17931440,-41381840,30722660,12871090
2026-01-14 17:25:31.891,-48170780,14944020,5478526,-50886310,-91308590,31660160,9711914
2026-01-14 17:25:31.901,-48055120,14694560,5244608,-50898400,2133789,28886720,62939450
2026-01-14 17:25:31.911,-34535330,56848210,-37495990,-64297340,5751953,25527340,6352539
2026-01-14 17:25:31.921,15069440,5639937,-3778948,-16056380,92089840,23300780,9013672
2026-01-14 17:25:31.931,11316990,55890090,-38160630,-21172630,11728520,21699220,9682617
2026-01-14 17:25:31.941,-32265200,47776320,-46101770,-66153150,13935550,21171880,7832031
2026-01-14 17:25:31.951,12747260,83060010,73691190,-22573550,16826170,24433590,36547850
2026-01-14 17:25:31.961,13480950,11951420,2601586,-23289980,21210940,27421880,-1784668
2026-01-14 17:25:31.971,14251760,47317110,-45974020,-24038350,24960940,27460940,-7973633
2026-01-14 17:25:31.981,15051910,10826710,1516584,-24809160,27382810,25097660,-14765630
2026-01-14 17:25:31.991,-2782850,61011260,51718400,-6934685,29414060,20605470,-20410160
2026-01-14 17:25:32.001,-4618550,97572450,4799212,-5050648,32070310,1640625,-24921880
2026-01-14 17:25:32.011,-2558430,50935510,-41716880,-7053803,32324220,10830080,-29277340
2026-01-14 17:25:32.021,-24358580,50400350,-42148460,-71090460,35683590,49072260,-33027340
2026-01-14 17:25:32.031,-23081100,83010820,-9468945,-71608370,38222660,-21499630,-36601560
2026-01-14 17:25:32.041,20479510,78781300,-13698470,-29860410,38417970,-7236328,-38789060
2026-01-14 17:25:32.051,21416050,74819360,-17677670,-30702000,37539060,-1421875,-3890625
2026-01-14 17:25:32.061,26480340,2931491,2005828,-27398570,36074220,-19667970,-37382810
2026-01-14 17:25:32.071,-17574090,25434090,16170580,-73179340,32753910,-24628910,-36523440
2026-01-14 17:25:32.081,-16193020,6311484,-2962390,-73455550,29589840,-28671880,-34804690
2026-01-14 17:25:32.091,-14846480,17158910,7872951,-73679970,27324220,-315625,-33515620
2026-01-14 17:25:32.101,-40695760,5469031,-3829009,-46725840,26015620,-33007810,-33515620
2026-01-14 17:25:32.111,-12326030,83675460,-9443053,-74007980,24960940,-36347660,-30703120
2026-01-14 17:25:32.121,27207900,4662142,-4663523,-35734270,25292970,-39765620,-27382810
2026-01-14 17:25:32.131,27837150,-595584,-9935059,-36261660,24472660,-43320310,-24179690
2026-01-14 17:25:32.141,-9045994,36839990,-56692840,-74197870,23300780,-465625,-20527340
2026-01-14 17:25:32.151,28935960,-9816802,-19185630,-37165400,21777340,-47617190,-17929690
2026-01-14 17:25:32.161,-7216078,2768182,-6617905,-74163340,18769530,-47226560,-16699220
2026-01-14 17:25:32.171,-6404700,-19381560,-28783180,-74111550,17685550,-4421875,-17851560
2026-01-14 17:25:32.181,-5671012,18169680,-76001890,-74033870,15859380,-43125,-15087890
2026-01-14 17:25:32.191,-5006368,-29119810,-38552510,-73938920,14511720,-42695310,-10214840
2026-01-14 17:25:32.201,30812490,46845830,-47619220,-38637960,14404300,-4125,-5102539
2026-01-14 17:25:32.211,31060220,-38861520,-48318390,-38821820,13164060,-40078120,-17211910
2026-01-14 17:25:32.221,31251840,-1251588,-95941060,-38958200,13154300,-37421880,17715450
2026-01-14 17:25:32.231,-3046984,-48949360,-58428670,-73515980,13183590,-32890620,16235350
2026-01-14 17:25:32.241,-2762140,41570150,-53309220,-73386500,12324220,-26835940,3857422
2026-01-14 17:25:32.251,-2554976,41129940,-53853020,-73248380,11386720,-19228520,7524414
2026-01-14 17:25:32.261,31569490,-2082822,-11589750,-39123930,9790039,-98046870,13056640
2026-01-14 17:25:32.271,-34135690,-68095280,-77607390,-41201580,80566410,16821290,17705080
2026-01-14 17:25:32.281,31543590,-2933905,-12447740,-39063500,5058594,13505860,21386720
2026-01-14 17:25:32.291,-2244236,-3290391,-12799050,-72851330,23535160,23144530,24570310
2026-01-14 17:25:32.301,31593660,-3598544,-13095120,-39099760,41900640,2921875,23144530
2026-01-14 17:25:32.311,-33977720,-3851451,-13325580,-41066050,-21044920,32050780,21933590
2026-01-14 17:25:32.321,-189897,5,-4065519,-13508570,-7312755,-46020510,33378910,19384770
2026-01-14 17:25:32.331,-1622752,-8480875,-9421213,-73351970,-44213870,34648440,18740230
2026-01-14 17:25:32.341,32438690,37677260,-55855560,-39929260,-33789060,33515620,18105470
2026-01-14 17:25:32.351,-37035240,37297470,-55665670,-37766850,-35351560,31328120,14912110
2026-01-14 17:25:32.361,33296680,3692632,-5541536,-40763080,-45361330,28242190,13046880
2026-01-14 17:25:32.371,-33502980,-4705124,-13870240,-41005630,-48828120,25996090,11240230
2026-01-14 17:25:32.381,-33373510,44532540,-46393520,-40979740,-49829100,2453125,4580078
2026-01-14 17:25:32.391,145872,8,35769660,-54396810,-7565661,-4951172,22382810,87402340
2026-01-14 17:25:32.401,208021,5,35389870,-54017020,-7608819,-44189450,20410160,-17749020
2026-01-14 17:25:32.411,2710344,-487340,9,-1373645,-76528420,-39135740,17197270,-39453120
2026-01-14 17:25:32.421,-36395370,-4903653,-13688970,-37198290,-3708496,12148440,-5126953
2026-01-14 17:25:32.431,36995360,-4933001,-13642360,-44332280,-4333496,69921870,-5722656
2026-01-14 17:25:32.441,37535700,-4961485,-13596620,-44845000,-49414060,1694336,-5498047
2026-01-14 17:25:32.451,5317112,-4989968,-13550870,-78099390,-62597660,-27392580,-5654297
2026-01-14 17:25:32.461,6016276,-5025358,-13515480,-78436030,-6425781,-6743164,-57373050
2026-01-14 17:25:32.471,39124790,-8857995,-9700105,-46328790,-4267578,-9614258,-7836914
2026-01-14 17:25:32.481,39637510,-5118582,-13474050,-46800070,-2602539,-13212890,-8232422
2026-01-14 17:25:32.491,40126060,40544700,-42405690,-47243740,-9210205,-17373050,-8623047
2026-01-14 17:25:32.501,44125120,-5201446,-13442970,-44125120,-42022700,-21484380,-84765620
2026-01-14 17:25:32.511,-30659710,-5225614,-13418800,-39567600,-1451416,-25625,-8745117
2026-01-14 17:25:32.521,-30380040,-8931882,-9747058,-39363890,-28686520,-28613280,-82128900
2026-01-14 17:25:32.531,1063422,-5289491,-13406720,-7989478,-5083008,-31035160,-6142578
2026-01-14 17:25:32.541,11186640,31074030,-49787500,-79963830,-73095700,-31738280,-44580080
2026-01-14 17:25:32.551,-29569530,30935920,-49683920,-38741540,-8339844,-31542970,-41259770
2026-01-14 17:25:32.561,-29328710,30789180,-49606230,-38550780,-9291992,-33046880,-25341800
2026-01-14 17:25:32.571,12593610,-5441404,-13461960,-80058780,-93310540,-34824220,34694670
2026-01-14 17:25:32.581,-2887296,-5500103,-13506840,-3817790,-82910160,-36074220,30322270
2026-01-14 17:25:32.591,13379100,-5557069,-13553460,-80032890,-7753906,-35625,50341800
2026-01-14 17:25:32.601,-28450860,-5612314,-13601790,-37823140,-7104492,-33847660,64404300
2026-01-14 17:25:32.611,-28248020,30279920,-49597600,-37646180,-76904300,-31933590,9067383
2026-01-14 17:25:32.621,-28046900,-5724525,-13714000,-37467510,-8125,-29277340,10283200
2026-01-14 17:25:32.631,14613420,30184970,-49744340,-79782570,-79833980,-25253910,11621090
2026-01-14 17:25:32.641,44024990,3014183,-4985657,-50509100,-7441406,-20800780,13642580
2026-01-14 17:25:32.651,15053640,30115910,-49986030,-79584040,-79248050,-16542970,14541020
2026-01-14 17:25:32.661,15243530,30107280,-50115500,-79463190,-859375,-13066410,16669920
2026-01-14 17:25:32.671,15416170,-6055117,-14091210,-79342350,-9770508,-11064450,18417970
2026-01-14 17:25:32.681,-27085330,30124550,-50374450,-36564640,-121875,-10126950,18320310
2026-01-14 17:25:32.691,1571828,3014181,-5049530,-7910930,-13945310,-8535156,18935550
2026-01-14 17:25:32.701,-26841060,-9833289,-10641040,-36325540,-15214840,-78808590,20722660
2026-01-14 17:25:32.711,1593407,-6253648,-14341530,-7891077,-14433590,-8569336,23066410
2026-01-14 17:25:32.721,44290840,30124540,-50840560,-50571260,-14287110,-9160156,25039060
2026-01-14 17:25:32.731,16106700,30090020,-50944150,-78772660,-17519530,-98046870,2375
2026-01-14 17:25:32.741,16158490,30038230,-51047720,-78703610,-2125,-11845700,2078125
2026-01-14 17:25:32.751,1619300,29960540,-51177200,-7865180,-22304690,-9667969,209375
2026-01-14 17:25:32.761,-30738260,-6661926,-14779150,-31686010,-23105470,-8388672,22050780
2026-01-14 17:25:32.771,16080810,-6788809,-14911220,-78556870,-1828125,-47607420,26484380
2026-01-14 17:25:32.781,1588228,-6926919,-15049330,-7856551,-11054690,-62597660,30292970
2026-01-14 17:25:32.791,1555425,29459900,-51746890,-7858275,-6455078,-10029300,33046880
2026-01-14 17:25:32.801,-27068930,-7237658,-15360060,-36442930,-5595703,-12412110,31777340
2026-01-14 17:25:32.811,4342422,-7401661,-15524070,-4983239,-9824219,-11474610,28066410
2026-01-14 17:25:32.821,1400920,-7564799,-15688930,-7872951,-12324220,-6669922,23515620
2026-01-14 17:25:32.831,13404990,-7728798,-15852930,-78781300,-14121090,-20422360,18632810
2026-01-14 17:25:32.841,-28442230,-7885034,-16007440,-37607340,-14042970,4033203,14521480
2026-01-14 17:25:32.851,1221382,-8042995,-16160220,-7891941,-12431640,86865230,9057617
2026-01-14 17:25:32.861,-33227800,2832054,-5279994,-34133780,-92822260,13964840,24804690
2026-01-14 17:25:32.871,1102265,-8324388,-16431260,-7905752,-6123047,1953125,-23046880
2026-01-14 17:25:32.881,-29876820,-12102210,-12912380,-38831310,-30615230,26914060,-59277340
2026-01-14 17:25:32.891,9857372,2784582,-5308480,-79204240,-47802740,32460940,-10732420
2026-01-14 17:25:32.901,9408520,27681780,-53127950,-79290560,-57666020,37597660,-15820310
2026-01-14 17:25:32.911,40722520,-8794811,-16858530,-47752150,-59472660,44648440,-20117190
2026-01-14 17:25:32.921,-30840110,27310620,-53136590,-39680670,-5395508,49375,-25097660
2026-01-14 17:25:32.931,-30878090,27129350,-53093420,-39729010,-27075200,5078125,-27929690
2026-01-14 17:25:32.941,-30822850,26956720,-53024380,-39697940,15075680,49257810,-27695310
2026-01-14 17:25:32.951,9391264,-9081380,-17055320,-79722140,5136719,44960940,-27929690
2026-01-14 17:25:32.961,41262860,2663737,-5286040,-48264870,7138672,39492190,-27949220
2026-01-14 17:25:32.971,10185380,38328090,-40962470,-79808460,8798828,35839840,-29746090
2026-01-14 17:25:32.981,-30063260,3952846,-3955495,-39110980,9794922,31367190,-34277340
2026-01-14 17:25:32.991,1114349,-9417157,-17306510,-7981710,12851560,25605470,-39082030
2026-01-14 17:25:33.001,1162686,-9545769,-17419580,-7978257,16152340,20117190,-43945310
2026-01-14 17:25:33.011,12118870,-9689916,-17551650,-79722140,20839840,14033200,-49140620
2026-01-14 17:25:33.021,1259359,25515230,-53015740,-7964446,2484375,6196289,-53164060
2026-01-14 17:25:33.031,-28609690,25368490,-53110690,-37871470,27910160,-23413090,-546875
2026-01-14 17:25:33.041,-28297220,25264910,-53214270,-37596980,29316410,-10029300,-53164060
2026-01-14 17:25:33.051,14043740,-10127540,-17977190,-79316460,30078120,-19814450,-49375
2026-01-14 17:25:33.061,43619310,-10194010,-18048830,-50086160,29570310,-29179690,-46132810
2026-01-14 17:25:33.071,46679060,-10242340,-18104070,-47319880,29179690,-36816410,-4546875
2026-01-14 17:25:33.081,15347120,37956070,-40799340,-78893500,27792970,-41953120,-44648440
2026-01-14 17:25:33.091,15666490,25221760,-53706280,-78729500,25175780,-46367190,-41523440
2026-01-14 17:25:33.101,1592543,-10293270,-18208520,-7855688,23984380,-51484380,-37324220
2026-01-14 17:25:33.111,16132590,25446180,-53965230,-78384230,22597660,-56289060,-34648440
2026-01-14 17:25:33.121,-26229070,25584280,-54120600,-35677300,20253910,-59648440,-31308590
2026-01-14 17:25:33.131,16408810,25756920,-54293240,-78004440,18925780,-60039060,-26738280
2026-01-14 17:25:33.141,-2592869,-10229400,-18272390,-3535620,18623050,-59257810,-25917970
2026-01-14 17:25:33.151,-25799210,-10189690,-18277570,-35209460,17617190,-58710940,-24433590
2026-01-14 17:25:33.161,-25681820,2649063,-5487154,-35067900,14326170,-56875,-23515620
2026-01-14 17:25:33.171,16555550,26809980,-55087350,-77046330,12587890,-55,-22089840
2026-01-14 17:25:33.181,-25441000,-9954909,-18201610,-34773560,13486330,-51210940,-19296880
2026-01-14 17:25:33.191,-29486660,2754369,-5551029,-30417160,14072270,-47265620,-17607420
2026-01-14 17:25:33.201,16607340,-9677830,-18047110,-76165890,16767580,-415625,-15830080
2026-01-14 17:25:33.211,1665911,28475900,-55872830,-7585514,17695310,-32207030,-13388670
2026-01-14 17:25:33.221,1675408,2901969,-5600230,-7553578,12509770,-21113280,-10888670
2026-01-14 17:25:33.231,16866290,-9001106,-17567180,-75216420,65478520,-2841797,-69189460
2026-01-14 17:25:33.241,-24371530,-8765464,-17388510,-33564260,33496090,20195310,-16625980
2026-01-14 17:25:33.251,-28336150,3050435,-5620945,-29254380,-22106930,428125,15234380
2026-01-14 17:25:33.261,-24089280,30970450,-56174940,-33259570,-91552740,66210940,93310540
2026-01-14 17:25:33.271,-24015050,-7916108,-16666900,-33178430,-66015620,871875,65478520
2026-01-14 17:25:33.281,1728922,42665510,-45049580,-7439638,-14931640,98125,12226560
2026-01-14 17:25:33.291,-23945990,32420570,-55415350,-33126640,-184375,10453130,12412110
2026-01-14 17:25:33.301,43217930,32903940,-54880190,-48916560,-18955080,106015600,12285160
2026-01-14 17:25:33.311,-23784580,33413210,-54250070,-33046370,-16679690,103125,12177730
2026-01-14 17:25:33.321,18376830,42742330,-44696540,-74914300,-14599610,94921870,13183590
2026-01-14 17:25:33.331,-23340050,3451808,-5266183,-32748570,-10527340,82890620,13222660
2026-01-14 17:25:33.341,-23012050,35113650,-51790040,-32506880,-6933594,67734380,12626950
2026-01-14 17:25:33.351,20534750,-32653620,-119263800,-75328630,-64160160,50625,16210940
2026-01-14 17:25:33.361,4568832,3631346,-5003782,-5109002,-640625,32597660,21386720
2026-01-14 17:25:33.371,46169100,-1850629,-10458140,-51489670,-9511719,14638670,25546880
2026-01-14 17:25:33.381,22977520,-1198074,-9781414,-75440830,-13886720,-11230470,26601560
2026-01-14 17:25:33.391,23659420,3791035,-4768138,-75449470,-20351560,-13037110,23144530
2026-01-14 17:25:33.401,2428088,-39321590,-47858320,-7544949,-21113280,-22597660,15917970
2026-01-14 17:25:33.411,-20303430,-34930660,-43444940,-30329980,-21699220,-30820310,16181640
2026-01-14 17:25:33.421,47839330,674999,5,-7822026,-52857790,-20234380,-42382810,17402340
2026-01-14 17:25:33.431,-19860620,936538,-7548398,-29961400,-18046880,-5625,22109380
2026-01-14 17:25:33.441,-19702660,-26835010,-35313040,-29825890,-17607420,-68867180,30078120
2026-01-14 17:25:33.451,2603312,-25626580,-34104610,-7533727,-10439450,-8484375,28417970
2026-01-14 17:25:33.461,2617123,-24933460,-33416670,-7525095,-5854492,-928125,32832030
2026-01-14 17:25:33.471,26317970,13232360,-71755110,-75121460,-44952390,-101953100,25546880
2026-01-14 17:25:33.481,-1917614,-29266990,-30118930,-2931663,-36816410,-93359380,27109380
2026-01-14 17:25:33.491,26559660,-2619796,-3474164,-74776190,-23666380,-96328130,18525390
2026-01-14 17:25:33.501,2665458,11342020,-74353250,-7457767,16369630,-978125,18427730
2026-01-14 17:25:33.511,-18741960,1028897,-7571704,-28853100,51708980,-99296870,20214840
2026-01-14 17:25:33.521,26853140,9330848,-77003170,-74120190,80371100,-99921870,209375
2026-01-14 17:25:33.531,2694807,-30623450,-39293110,-7386988,10175780,-9953125,19160160
2026-01-14 17:25:33.541,-18238730,736283,3,-7969624,-28303260,91796870,-9296875,16591800
2026-01-14 17:25:33.551,-18047970,6171648,-81267220,-28096960,64453120,-80546870,14296880
2026-01-14 17:25:33.561,2727607,-34797730,-43577870,-7304125,33398440,-68554690,12753910
2026-01-14 17:25:33.571,27327880,273627,3,-8542769,-72782280,11553960,-51523440,12763670
2026-01-14 17:25:33.581,2729333,39886970,-48656750,-7254057,108947800,-32480470,12236330
2026-01-14 17:25:33.591,271293,1,-195939,5,-9091742,-723075,4,6225586,-9916992,11992190
2026-01-14 17:25:33.601,2682722,-43863580,-52811170,-7207450,13603520,109375,60546880
2026-01-14 17:25:33.611,-17833040,-450572,-9458588,-27655880,16054690,21289060,-71484380
2026-01-14 17:25:33.621,-18054880,40353080,-50400340,-27796580,17675780,31152340,-14833980
2026-01-14 17:25:33.631,2514406,-443667,5,-9586338,-7142711,14580080,43046880,-15175780
2026-01-14 17:25:33.641,24531210,41086770,-50944140,-71263100,4321289,58164060,-15087890
2026-01-14 17:25:33.651,24013310,41475200,-51021830,-71159520,-48608400,78476560,-12021480
2026-01-14 17:25:33.661,44977920,-41106620,-50389130,-49728800,-7236328,9921875,-13928220
2026-01-14 17:25:33.671,44781990,277941,5,-9030460,-49562210,-17700200,116640600,18574220
2026-01-14 17:25:33.681,22960250,4248514,-5085784,-71038680,8847656,136640600,45703120
2026-01-14 17:25:33.691,22597720,6577340,-87024540,-71004160,11054690,1459375,6921875
2026-01-14 17:25:33.701,44125980,800158,5,-8585928,-49009780,29101560,157890600,80078130
2026-01-14 17:25:33.711,21639600,9304944,-84745780,-71030050,-11992190,16875,8515625
2026-01-14 17:25:33.721,-20409600,-32239310,-41647830,-29636860,-26601560,18890620,9421875
2026-01-14 17:25:33.731,20534750,10116320,-83830820,-71427110,-21484380,223125,118515600
2026-01-14 17:25:33.741,-21296070,-32357560,-41702210,-30493980,-51220700,23921880,14015630
2026-01-14 17:25:33.751,-21764770,9356732,-83243870,-30992030,17602540,240,1534375
2026-01-14 17:25:33.761,19602530,42122570,-49252340,-73343340,-7055664,23625,180625
2026-01-14 17:25:33.771,44387520,10893180,-78738130,-49835840,-41289060,20953120,23359380
2026-01-14 17:25:33.781,-27036560,-31932960,-32804590,-27999000,-17070310,24359380,3046875
2026-01-14 17:25:33.791,46625720,-26861770,-35286290,-52137900,-95166020,21234380,3603125
2026-01-14 17:25:33.801,-22001280,10910440,-70641620,-32153850,22792970,2203125,4084375
2026-01-14 17:25:33.811,25437540,12602250,-66636530,-78505080,65351560,2659375,4534375
2026-01-14 17:25:33.821,-21075100,19861480,-57322950,-31647170,18759770,2765625,403125
2026-01-14 17:25:33.831,-20709120,30184970,-45721980,-31408940,-70458980,25546880,338125
2026-01-14 17:25:33.841,27975250,44340920,-31393400,-79454560,11611330,2003125,30328120
2026-01-14 17:25:33.851,27914830,6324431,-1369848,-78824450,24550780,878125,28359380
2026-01-14 17:25:33.861,-20104030,48733920,47940840,-30581160,11650390,72021490,405625
2026-01-14 17:25:33.871,-20600350,12427020,4197584,-30723580,-4984375,-158046900,409375
2026-01-14 17:25:33.881,-21765630,4278322,-4275668,-31301900,-20609380,-4471875,23578120
2026-01-14 17:25:33.891,-22501910,57253900,-25644700,-32033010,740,835,-2203125
2026-01-14 17:25:33.901,-22864440,5734023,-3239467,-31946690,94875,-321875,-845
2026-01-14 17:25:33.911,1445804,58712650,-34595750,-7149614,-132265600,-5578125,27859380
2026-01-14 17:25:33.921,10737800,58142960,-36667350,-71573840,1525,-535,-5059375
2026-01-14 17:25:33.931,1051336,56770520,-37746310,-7216077,31171880,-5259375,-6425
2026-01-14 17:25:33.941,39463150,12894860,3626165,-45645160,165625,-3490625,-22640620
2026-01-14 17:25:33.951,12196560,52644580,-36814090,-75414940,94921870,-293125,-25203120
2026-01-14 17:25:33.961,1310288,12302730,3683135,-7713264,-5359375,-43875,-510625
2026-01-14 17:25:33.971,-26378400,49027910,-34146900,-35821450,-11875,-29234380,-311875
2026-01-14 17:25:33.981,-25388340,110192000,30504340,-35240540,-9734375,-1990625,-9859375
2026-01-14 17:25:33.991,47915290,44815660,-31678250,-53869420,-91015620,-16875,-95078130
2026-01-14 17:25:34.001,49357640,42899420,-31160350,-55171940,-1065625,-74570310,-9640625
2026-01-14 17:25:34.011,25411650,87516550,15200380,-81552060,-11796880,31796880,62890620
2026-01-14 17:25:34.021,-21525670,7994658,878705,3,-32422300,-108828100,14640630,7875
2026-01-14 17:25:34.031,-20382840,72920380,2520452,-31441730,-57382810,1953125,12140630
2026-01-14 17:25:34.041,30875500,34833990,27831970,-80870150,-55351560,21984380,13609380
2026-01-14 17:25:34.051,31988990,37452840,-32532780,-80499000,-39804690,18578120,98125
2026-01-14 17:25:34.061,-17987550,51082250,-19145050,-29279500,-35722660,152734400,88515620
2026-01-14 17:25:34.071,3343048,6128492,6128485,-7966172,-34042970,128359400,84765620
2026-01-14 17:25:34.081,33905220,30970450,-40292660,-79221500,-17509770,108515600,8375
2026-01-14 17:25:34.091,-16634970,20267170,-51513840,-27939000,5214844,9390625,884375
2026-01-14 17:25:34.101,-16410540,-22369850,-29592830,-27697320,29707030,74101560,8203125
2026-01-14 17:25:34.111,3427638,-3201488,-3928275,-7824613,49140620,6375,74609380
2026-01-14 17:25:34.121,-21554590,-794113,3,-8113773,-22674110,58945310,60546880,72148440
2026-01-14 17:25:34.131,-21817160,-1488963,-8869045,-22929440,48984380,37519530,53359380
2026-01-14 17:25:34.141,-17108840,-2069875,-9513830,-28155660,39101560,27578120,5296875
2026-01-14 17:25:34.151,-22351120,-2523901,-10026550,-23448550,3859375,15634770,68046870
2026-01-14 17:25:34.161,3136750,3769729,-3782987,-7771960,37363280,6821289,78007810
2026-01-14 17:25:34.171,-18018620,-3082370,-10676520,-28868640,38007810,36010740,66484380
2026-01-14 17:25:34.181,30228120,-66532940,-74163340,-77719600,378125,-11503910,50742190
2026-01-14 17:25:34.191,51253160,-3338730,-11007110,-56073080,38359380,-2375,4703125
2026-01-14 17:25:34.201,2882113,-69165610,-76882330,-7778005,403125,-30195310,45703120
2026-01-14 17:25:34.211,-19561100,31514240,-46257140,-30140080,28027340,-38671880,409375
2026-01-14 17:25:34.221,2718977,-3507049,-11356690,-7766781,11875,-39765620,34589840
2026-01-14 17:25:34.231,26309340,-3520856,-11446460,-77581490,5942383,-37558590,31425780
2026-01-14 17:25:34.241,-20826510,32489630,-47560530,-31118910,546875,-40390620,21875
2026-01-14 17:25:34.251,24712480,-71914800,-80002670,-77244860,40307620,-29589840,16054690
2026-01-14 17:25:34.261,2389246,33188790,-48535910,-7704631,5708008,-21074220,12480470
2026-01-14 17:25:34.271,-21875250,-3621849,-11880640,-31865550,8178711,-14443360,41625980
2026-01-14 17:25:34.281,-22168730,40952120,-42516170,-32055450,13505860,45385740,-19848630
2026-01-14 17:25:34.291,46217430,-36831360,-121128300,-51683020,17050780,26210940,-50390620
2026-01-14 17:25:34.301,-27032850,-3686587,-12195690,-28002710,21425780,48085940,-11914060
2026-01-14 17:25:34.311,-22820430,-36045880,-121913800,-32439560,16767580,72148440,-2015625
2026-01-14 17:25:34.321,45014180,35484820,-51021830,-50555720,35083010,9515625,-2640625
2026-01-14 17:25:34.331,-22955940,35959560,-51013200,-32476670,-87353520,108203100,-37109380
2026-01-14 17:25:34.341,-22869620,-2812199,-11533640,-32390360,-20195310,127421900,-31855470
2026-01-14 17:25:34.351,20301700,36839990,-50288140,-75268210,-23847660,135390600,-22519530
2026-01-14 17:25:34.361,45411240,-57809770,-66486340,-50866460,-21386720,141875,-5288086
2026-01-14 17:25:34.371,-22172190,-52143080,-60759220,-31896630,-18183590,1496875,14345700
2026-01-14 17:25:34.381,-21867480,-781165,5,-9317892,-31700690,-17285160,14640630,23085940
2026-01-14 17:25:34.391,-21558470,-232191,-8675695,-31509070,-21035160,132890600,24160160
2026-01-14 17:25:34.401,-21256360,37824000,-45592500,-31327800,-28945310,10859380,19560550
2026-01-14 17:25:34.411,50718430,-29806030,-38038930,-51238920,-33125,82265620,19970700
2026-01-14 17:25:34.421,25912290,40277990,-40877030,-77339810,-28203120,5625,22910160
2026-01-14 17:25:34.431,-20140290,-22847180,-30841830,-30596700,-17060550,31152340,24433590
2026-01-14 17:25:34.441,2797523,15070900,-63753540,-7786633,-87109380,10556640,26289060
2026-01-14 17:25:34.451,29080110,36693250,-41078140,-78004440,-30737300,-83691410,2734375
2026-01-14 17:25:34.461,-18524440,1901559,-5785810,-29346830,-22314450,-27597660,28691410
2026-01-14 17:25:34.471,52283780,-13197830,-20810970,-56958700,-42016600,-41914060,29472660
2026-01-14 17:25:34.481,3223928,22934360,-52627320,-7788359,-37524420,-52109380,31640620
2026-01-14 17:25:34.491,53165070,24721120,-50443510,-57631100,-25610350,-6015625,31933590
2026-01-14 17:25:34.501,53438700,26611450,-48363280,-57823590,-18664550,-68554690,30390620
2026-01-14 17:25:34.511,34112370,28337790,-46636940,-77391590,-25024410,-76484380,29101560
2026-01-14 17:25:34.521,3431090,-7471992,-7547122,-7722760,-38427740,-8625,30605470
2026-01-14 17:25:34.531,3432812,-24427640,-99868480,-7707224,-44555660,-93671870,32207030
2026-01-14 17:25:34.541,-15772660,-50585060,-58174030,-26885080,-22485350,-102421900,30957030
2026-01-14 17:25:34.551,34026060,-1098809,-8741298,-76718320,-35302740,-94765620,38945310
2026-01-14 17:25:34.561,-15904720,-4361930,-5132911,-26925640,-61676020,-100234400,34648440
2026-01-14 17:25:34.571,33292360,-41852390,-49643350,-76295380,-11694340,-99453130,31074220
2026-01-14 17:25:34.581,-16145550,-805334,5,-8689506,-27030090,-11743160,-965625,23925780
2026-01-14 17:25:34.591,32299720,-1273169,-9257472,-75717050,-35913090,-9046875,17314450
2026-01-14 17:25:34.601,3169551,-2343500,-10431380,-7542357,-6411133,-8390625,14492190
2026-01-14 17:25:34.611,-16719560,-3671913,-11865100,-27336510,-78271490,-74609380,13515630
2026-01-14 17:25:34.621,-16957790,31980360,-50970040,-27478070,-64990230,-62851560,13515630
2026-01-14 17:25:34.631,-17194300,30487070,-53447330,-27621360,-43139650,-515625,11884770
2026-01-14 17:25:34.641,51460580,41043610,-43771220,-51912360,-8491211,-32382810,18505860
2026-01-14 17:25:34.651,-17598260,27189770,-58436440,-27856140,-9580078,-14521480,14785160
2026-01-14 17:25:34.661,28121990,-13553450,-22181680,-73783550,-11806640,81933590,10136720
2026-01-14 17:25:34.671,-17828720,-16205100,-24881660,-27970940,-9951172,36757810,10605470
2026-01-14 17:25:34.681,2758682,-19123470,-27832830,-7347282,-69091800,7015625,12089840
2026-01-14 17:25:34.691,-17972880,17332400,-69985620,-28051220,-3918457,102265600,6113281
2026-01-14 17:25:34.701,-18134290,-24283490,-33030830,-28183280,-2763672,1259375,-4638672
2026-01-14 17:25:34.711,-1836562,4079330,-4678368,-2838353,-18884280,12984380,-18632810
2026-01-14 17:25:34.721,-18630610,40827820,-46835460,-28619180,-56640620,11921880,-32714840
2026-01-14 17:25:34.731,-18892150,-28736830,-29613290,-28858280,-81884770,11015630,-37792970
2026-01-14 17:25:34.741,25713760,1631390,-7121133,-73878500,-4182129,1003125,-38457030
2026-01-14 17:25:34.751,-1923655,1870484,-6859592,-2920441,23046880,90625,-31835940
2026-01-14 17:25:34.761,25679230,43484170,-43488590,-74258300,11074220,79726560,-24648440
2026-01-14 17:25:34.771,-19274530,-14488260,-23145830,-29304530,21386720,665625,-18974610
2026-01-14 17:25:34.781,26102180,28001150,-58212010,-74577670,29394530,53671880,-15058590
2026-01-14 17:25:34.791,26369760,418639,5,-440734,5,-74655340,30742190,36289060,-15888670
2026-01-14 17:25:34.801,-18966380,-2702576,-11280730,-29094780,26152340,18359380,-17724610
2026-01-14 17:25:34.811,2680132,10910440,-74784830,-7465535,19609380,119018600,-19609380
2026-01-14 17:25:34.821,26948090,42839870,-42838140,-74612190,15039060,-153125,-22480470
2026-01-14 17:25:34.831,-23712170,33630730,25064660,-23813820,11728520,-33203120,-2375
2026-01-14 17:25:34.841,-18615070,56069630,47510460,-28790080,10791020,-50078120,-22890620
2026-01-14 17:25:34.851,2729335,11181470,2629208,-7457767,12373050,-65039060,-19599610
2026-01-14 17:25:34.861,-18472650,1247192,392828,3,-28673560,17324220,-7796875,-17080080
2026-01-14 17:25:34.871,27595470,13417080,4882075,-74551780,22832030,-8796875,-15175780
2026-01-14 17:25:34.881,-18250810,13932390,5402566,-28481070,2578125,-94140620,-14472660
2026-01-14 17:25:34.891,-18116160,14192200,5660654,-28356780,27246090,-96875,-15351560
2026-01-14 17:25:34.901,28113360,52454690,-32947100,-74327340,26484380,-97265620,-15556640
2026-01-14 17:25:34.911,48923460,52014470,-33542690,-53517240,25664060,-959375,-14707030
2026-01-14 17:25:34.921,28346420,12920760,4342594,-74025240,27421880,-9421875,-13144530
2026-01-14 17:25:34.931,28424100,12244900,3637386,-73826710,31796880,-92109380,-11923830
2026-01-14 17:25:34.941,2845863,11746850,3099634,-7358502,334375,-91953130,-10195310
2026-01-14 17:25:34.951,48653300,50642040,-36313460,-53131410,33886720,-91640620,-9609375
2026-01-14 17:25:34.961,-17144230,11194420,2443628,-27291630,34375,-875,-8847656
2026-01-14 17:25:34.971,-16962960,10878500,2069013,-27075840,31660160,-8203125,-76708980
2026-01-14 17:25:34.981,-16784290,10565170,1691809,-26857460,27636720,-76171870,-8461914
2026-01-14 17:25:34.991,2851904,50486660,-38920220,-7178098,25039060,-67773440,-12236330
2026-01-14 17:25:35.001,47762510,98573730,8459038,-52054180,22226560,-60351560,-16347660
2026-01-14 17:25:35.011,-16339760,55470590,46383170,-26266180,18076170,-534375,-20097660
2026-01-14 17:25:35.021,28156520,52919940,43754820,-70503520,15019530,-45,-19160160
2026-01-14 17:25:35.031,-20580070,89398260,-3081508,-21559760,13476560,-33671880,-13701170
2026-01-14 17:25:35.041,-20970110,39193840,29859550,-20979830,10859380,-16308590,-46704100
2026-01-14 17:25:35.051,-16094620,24640060,23697310,-25734470,9667969,73046870,45654300
2026-01-14 17:25:35.061,-16115340,19435940,9911752,-25661970,5253906,27167970,5917969
2026-01-14 17:25:35.071,2633524,15167580,5548441,-6814707,-37426760,40820310,-25146480
2026-01-14 17:25:35.081,-16282790,14350160,4639526,-25632620,-13759770,51875,-12060550
2026-01-14 17:25:35.091,-20581190,16117060,6325293,-21506850,-21386720,62304690,-134375
2026-01-14 17:25:35.101,43780720,6309756,-3547620,-48008510,-25644530,73554690,-36035160
2026-01-14 17:25:35.111,-16677260,51194460,-47914420,-25790580,-23789060,77617180,6904297
2026-01-14 17:25:35.121,-16791200,67024950,-32498260,-25849270,-20175780,81015620,19443360
2026-01-14 17:25:35.131,2364217,23984830,13994530,-6643799,-15771480,88046870,30234380
2026-01-14 17:25:35.141,-21018910,72583750,-27699050,-21915040,-14755860,9828125,35917970
2026-01-14 17:25:35.151,-17098480,26398340,25391710,-26008100,-19072270,108125,38105470
2026-01-14 17:25:35.161,22597730,77270750,-23754370,-65945990,-27382810,11828130,44609380
2026-01-14 17:25:35.171,2212299,26647710,16510670,-6585103,-33105470,129375,56054690
2026-01-14 17:25:35.181,21605080,10408840,10307190,-65816520,-35019530,135078100,70273440
2026-01-14 17:25:35.191,21044020,5090360,-5091567,-65859670,-29042970,131875,78203130
2026-01-14 17:25:35.201,-18420860,233229,-785654,2,-27068070,-23144530,123125,83671870
2026-01-14 17:25:35.211,19965060,-48424560,-58608200,-66179050,-19765620,1153125,8796875
2026-01-14 17:25:35.221,19447160,-8494532,-8596182,-66472520,-20,114140600,953125
2026-01-14 17:25:35.231,1892062,-7534589,-17669900,-6684370,-22519530,122890600,1084375
2026-01-14 17:25:35.241,-20187760,33370050,-67551480,-28753830,-24785160,1390625,125234400
2026-01-14 17:25:35.251,-20778170,5015384,-5019801,-29337340,-25820310,153125,143046900
2026-01-14 17:25:35.261,17038930,2201080,-7759876,-68535500,-24296880,15828130,15734380
2026-01-14 17:25:35.271,42812840,-28729670,-38597400,-42813370,-18632810,15890630,16703130
2026-01-14 17:25:35.281,-23024130,9555264,-87930860,-31614370,-11191410,1659375,1684375
2026-01-14 17:25:35.291,15226270,4747424,-91236800,-71332160,-14025880,17453120,1734375
2026-01-14 17:25:35.301,1528669,69916,5,-9340336,-7251470,18662110,18359380,17859380
2026-01-14 17:25:35.311,1604626,41043610,-50866460,-7372311,40117190,19640620,225625
2026-01-14 17:25:35.321,17271980,-586087,-9512969,-75035150,675,17671880,25796880
2026-01-14 17:25:35.331,1924861,38143370,-48242430,-7623493,8125,14953130,270
2026-01-14 17:25:35.341,21553290,36796830,-46619680,-77279380,83671870,19046880,3103125
2026-01-14 17:25:35.351,23814790,35821450,-44798390,-78142550,796875,20265620,29484380
2026-01-14 17:25:35.361,-20943040,-32932430,-40782080,-31416710,75898440,2034375,30109380
2026-01-14 17:25:35.371,28277360,-22486020,-23261840,-78392860,55820310,17171880,27171880
2026-01-14 17:25:35.381,-18822230,39118750,-39118750,-29532410,-37207030,128828100,22859380
2026-01-14 17:25:35.391,29278640,68992980,-11333390,-76580220,-128671900,19160160,150625
2026-01-14 17:25:35.401,28553580,9966998,1616711,-74802100,-106171900,-4359375,17078120
2026-01-14 17:25:35.411,26490610,13649270,4926096,-72687330,-121171900,-10890630,1771875
2026-01-14 17:25:35.421,-19042340,18398420,9291998,-28328290,-119375,-3525,1053125
2026-01-14 17:25:35.431,1642608,24683140,15367830,-6747379,-1096875,-808125,-118984400
2026-01-14 17:25:35.441,1206709,27863910,19316820,-7109046,4009375,5484375,5284375
2026-01-14 17:25:35.451,1252455,69683510,-30996350,-6317520,966875,11517330,-4315625
2026-01-14 17:25:35.461,-20839880,18089400,7477620,-21627950,4590625,583125,95625
2026-01-14 17:25:35.471,-20051380,66282630,-38074320,-27768090,-6309375,-3296875,843125
2026-01-14 17:25:35.481,10953600,20837730,10650620,-64487240,-5784375,-460625,-6125
2026-01-14 17:25:35.491,-24635660,19651730,9557854,-32160760,-4134375,-835625,-64125
2026-01-14 17:25:35.501,35369150,16767030,6624809,-41072960,-18015620,-435625,-2146875
2026-01-14 17:25:35.511,-25092280,14868060,4794896,-32860790,-2184375,-9578125,119296900
2026-01-14 17:25:35.521,-25779360,14181840,4272680,-33675610,8515625,-276875,-2325
2026-01-14 17:25:35.531,-29305130,83530440,73738660,-30115300,-19006350,-294375,-114296900
2026-01-14 17:25:35.541,-25992560,10971720,1302521,-34239260,5107422,-12953130,-11259770
2026-01-14 17:25:35.551,-26896300,96234540,612851,8,-35165440,20078120,-110625,-1615625
2026-01-14 17:25:35.561,38300460,8352873,-1154056,-44598140,51953120,-65703120,-2134375
2026-01-14 17:25:35.571,-27238110,50089610,-45065970,-35548680,39453120,540625,-114453100
2026-01-14 17:25:35.581,-26863500,63546380,-31781820,-35215500,21210940,166875,-22910160
2026-01-14 17:25:35.591,38862380,16766170,7229887,-45020220,303125,1265625,-32128910
2026-01-14 17:25:35.601,11600970,14715280,5137572,-72402490,6435547,10390630,-5332031
2026-01-14 17:25:35.611,-25698220,80776940,71140540,-34102020,11191410,1828125,66796880
2026-01-14 17:25:35.621,-25378850,11829710,2153604,-33782650,10605470,2528125,12375
2026-01-14 17:25:35.631,12472770,57745910,-39101490,-71530690,-29277340,23953120,127421900
2026-01-14 17:25:35.641,12127500,15537880,5868675,-71703320,-11074220,1903125,89375
2026-01-14 17:25:35.651,-25957170,15442930,5790991,-34309180,57958980,16671880,5421875
2026-01-14 17:25:35.661,-26266190,57711380,-38721690,-34587120,19755860,155625,38535160
2026-01-14 17:25:35.671,10824120,12845660,3209256,-72126270,25820310,13765630,40039060
2026-01-14 17:25:35.681,38332400,54776610,-41483830,-44497140,22050780,110,41054690
2026-01-14 17:25:35.691,1047022,9809034,203707,3,-7239385,23339840,93828130,37480470
2026-01-14 17:25:35.701,-26876440,31552830,30595230,-35185290,26035160,83671870,28476560
2026-01-14 17:25:35.711,1072918,14265570,4724116,-7277364,29785160,6921875,17314450
2026-01-14 17:25:35.721,11031280,34578490,-60473510,-72972180,26855470,60859380,38452150
2026-01-14 17:25:35.731,-26657200,44064700,-50624770,-35111060,22363280,52460940,-69140620
2026-01-14 17:25:35.741,-30285520,-548973,-9981667,-31137470,21503910,40546880,-18007810
2026-01-14 17:25:35.751,-26191950,-2811335,-12207780,-34782190,296875,26445310,-21386720
2026-01-14 17:25:35.761,13111510,36615570,-56986320,-73550500,41132810,9770508,-1390625
2026-01-14 17:25:35.771,40727690,-8802580,-18128240,-46711170,47382810,-8417969,-8125305
2026-01-14 17:25:35.781,-25178600,-12704100,-21995230,-34000160,54101560,-24628910,35595700
2026-01-14 17:25:35.791,-24760820,-16774790,-26038310,-33658350,5328125,-33535160,890625
