Timestamp,Rotation X,Rotation Y,Rotation Z,Rotation W,Acceleration X,Acceleration Y,Acceleration Z
2026-01-14 17:25:22.341,17944390,21746640,29439190,27596330,20019530,-2243042,-9918213
2026-01-14 17:25:22.351,-25463440,21746640,29439190,71038680,1996994,-98724370,-7745361
2026-01-14 17:25:22.361,17981510,21754410,29448690,27628270,9651184,-35888670,-8496094
2026-01-14 17:25:22.371,-25411650,21754410,29448690,71038690,-1398468,-25482180,-5706787
2026-01-14 17:25:22.381,-25385760,21763040,29457320,71047320,-3012085,-26412960,-7293701
2026-01-14 17:25:22.391,18027250,-1285258,6409018,27668830,-35552980,-23086550,-8660889
2026-01-14 17:25:22.401,-45904970,-1285259,6409021,50476310,35186770,-5050659,-10058590
2026-01-14 17:25:22.411,18047110,-12852560,64107450,27683510,68603520,-41229250,-9820557
2026-01-14 17:25:22.421,18056600,21778580,29476310,27691280,32287600,3981,59,-40405270
2026-01-14 17:25:22.431,-25290800,21787210,29484940,71038680,31528470,-2878189,10391240
2026-01-14 17:25:22.441,-45876480,21787210,29484940,50453000,-27862550,-34088140,7545471
2026-01-14 17:25:22.451,18075590,-1284394,6413333,27706810,-5935669,-20065310,24810790
2026-01-14 17:25:22.461,18075590,-1284394,6413333,27706810,-5130005,13809200,7495117
2026-01-14 17:25:22.471,18085090,-12826670,64133340,27714580,-18997190,2017212,29144290
2026-01-14 17:25:22.481,-25221760,-35912950,41047070,71055950,-1171875,-21026610,-1272583
2026-01-14 17:25:22.491,-25195860,-35912950,41047070,71064580,11962890,-5078125,-7476807
2026-01-14 17:25:22.501,1813086,-12800770,64159240,2775514,-836,8492,-71899420,-9210205
2026-01-14 17:25:22.511,18148960,-12800770,64159230,27771550,35305020,-927124,-66467280
2026-01-14 17:25:22.521,18148960,-12800770,64159230,27771550,31585690,-7373047,-47332760
2026-01-14 17:25:22.531,-2514404,-12800770,64159240,7108183,1637268,-56274420,-13557430
2026-01-14 17:25:22.541,-45807430,21840720,29535000,50401210,38360600,-7733154,71411140
2026-01-14 17:25:22.551,-25126800,21849350,29543630,71081840,33691410,-546875,-20629880
2026-01-14 17:25:22.561,18176580,21849350,29543630,27795720,19245150,-38635260,-3479004
2026-01-14 17:25:22.571,-2510090,21850220,29542770,7109048,30002590,-56640620,-4324341
2026-01-14 17:25:22.581,18193840,-1275763,6416786,27812980,32157900,-3591919,-7513428
2026-01-14 17:25:22.591,18193840,-35883600,41024620,27812980,-16677860,-3918457,-7562256
2026-01-14 17:25:22.601,18202480,-35883600,41024620,27821610,-242424,-20690920,-71777340
2026-01-14 17:25:22.611,18202480,-12757620,64150600,27821610,-8666992,-18341060,-54016110
2026-01-14 17:25:22.621,18211110,21851940,29541040,27830250,-2458191,-22842410,-6628418
2026-01-14 17:25:22.631,-45801390,21851940,29541040,50407250,-11878970,-12748720,-6414795
2026-01-14 17:25:22.641,-45801390,21852810,29540180,50407250,-881958,-6046295,-39886480
2026-01-14 17:25:22.651,-25066380,21852810,29540180,71142260,20202640,59928900,-4083252
2026-01-14 17:25:22.661,18228370,21852810,29540180,27847510,5114746,-16403200,-58288580
2026-01-14 17:25:22.671,18228370,21852810,29540180,27847510,6359863,-6640625,-15808110
2026-01-14 17:25:22.681,18228370,21852810,29540180,27847510,38208010,-26687620,-29342650
2026-01-14 17:25:22.691,18228370,21852810,29540180,27847510,61454770,23635860,16113280
2026-01-14 17:25:22.701,18228370,-1273173,6414196,27847510,-30097960,-15563970,-28900150
2026-01-14 17:25:22.711,18237000,-35857700,40998730,27856140,25100710,-47546390,-7458496
2026-01-14 17:25:22.721,-2504046,-12731720,64124710,7115089,-17288210,-61584470,-93566900
2026-01-14 17:25:22.731,-2504046,-12731720,64124710,7115089,-23117060,-6994629,-11224370
2026-01-14 17:25:22.741,18254270,-12731720,64124710,27873400,11703490,-3366089,-113586400
2026-01-14 17:25:22.751,18254270,-12740360,64116080,27873400,34160620,-37475580,-84106450
2026-01-14 17:25:22.761,18262900,-12740360,64116080,27882030,4940033,-20019530,-5935669
2026-01-14 17:25:22.771,18262900,21835550,29522910,27882040,597229,-11604310,-10046390
2026-01-14 17:25:22.781,18263760,21835550,29522910,27881170,48950200,-9178162,-8105469
2026-01-14 17:25:22.791,18272390,-1277489,6411607,27889800,5227661,-13641360,-7305908
2026-01-14 17:25:22.801,18272390,-1277489,6411607,27889800,56854250,-24166110,-8166504
2026-01-14 17:25:22.811,18272400,-12792140,64116070,27889800,68115230,-2684021,-7824707
2026-01-14 17:25:22.821,-24997330,21815690,29508240,71159530,17974850,-19989010,-70251460
2026-01-14 17:25:22.831,-24997330,21807060,29499610,71159530,33569340,-4019165,-9466553
2026-01-14 17:25:22.841,-24997330,-1282670,6411609,71159530,37750240,-49804690,-11022950
2026-01-14 17:25:22.851,-24997330,-12843930,64116080,71159530,-14448170,-29052730,-1105957
2026-01-14 17:25:22.861,18272390,-35918120,41041880,27889800,-9506226,-53009030,-101379400
2026-01-14 17:25:22.871,18272390,21752680,29450410,27889810,-146484400,-4473877,-869751
2026-01-14 17:25:22.881,18272390,21743190,29442640,27889810,-22399900,-39001460,-8483887
2026-01-14 17:25:22.891,18262900,21725920,29425370,27882040,-16174320,-3237915,-70129390
2026-01-14 17:25:22.901,-25031850,-35950060,41061740,71176780,-30776980,-2658081,-23864750
2026-01-14 17:25:22.911,-25040480,-12956150,64055660,71168160,-846,8628,-840,6639,-152282700
2026-01-14 17:25:22.921,-25040480,-12973410,64055660,71168160,115356400,-18951420,-4244995
2026-01-14 17:25:22.931,18252540,-35962150,41066920,27875130,-8834839,-13648990,-2588272
2026-01-14 17:25:22.941,1824306,21662910,29367550,2786737,-73776250,-2859497,-20874020
2026-01-14 17:25:22.951,1824305,-1302520,6402113,2786736,861,1679,-17608640,-14755250
2026-01-14 17:25:22.961,-45824700,21637020,29341650,50435740,-15167240,-38879400,-55122380
2026-01-14 17:25:22.971,-25092280,21627520,29333880,71185420,-15823360,-4837036,4234314
2026-01-14 17:25:22.981,18231820,21610260,29316620,27861320,-20324710,-51452640,-681,4003
2026-01-14 17:25:22.991,18223190,21601630,29307990,27852690,-10574340,-6793213,-14297490
2026-01-14 17:25:23.001,18222330,-35996680,41084180,27853550,-8285522,-46569820,-18291470
2026-01-14 17:25:23.011,-45861800,-13120150,63960720,50467670,-15182500,-18234250,13038640
2026-01-14 17:25:23.021,-2514404,-13137410,63943450,7120268,8692,741,-26687620,-20339970
2026-01-14 17:25:23.031,-2515269,25008900,25779880,7121133,-3265381,2119,541,-28198240
2026-01-14 17:25:23.041,-25169960,24991630,25762610,71211320,-14312740,-1449585,26893620
2026-01-14 17:25:23.051,18200750,24974370,25745350,27840600,-31066900,-12062070,-5859375
2026-01-14 17:25:23.061,18191260,24957100,25728080,27832840,-44158940,4572,868,-9918213
2026-01-14 17:25:23.071,-25204490,2147040,2918025,71228580,-44799800,-9613037,-20996090
2026-01-14 17:25:23.081,-25213120,24922580,25693560,71237220,-3591919,-19042970,-9101868
2026-01-14 17:25:23.091,18180030,24905310,25676290,27826790,-209198,-7972717,-945282
2026-01-14 17:25:23.101,22520990,24896680,25667660,23485840,-23635860,-3213501,-31051640
2026-01-14 17:25:23.111,-25247650,2140998,2911983,71254470,-11451720,-60638430,-2796936
2026-01-14 17:25:23.121,18177440,24862160,25633140,27829380,5760193,-62683100,-29327390
2026-01-14 17:25:23.131,18176580,21374610,29086150,27830250,17242430,-55755620,-24108890
2026-01-14 17:25:23.141,-45977480,21365980,29077520,50576440,3173828,-7434082,2825,26
2026-01-14 17:25:23.151,18157590,-1335322,6376217,27814710,39764400,-59661860,16555790
2026-01-14 17:25:23.161,-2532532,21340090,29051630,7126312,4019165,-68603520,52124020
2026-01-14 17:25:23.171,-25342590,-13379100,63753550,71263100,4244995,-37750240,23895260
2026-01-14 17:25:23.181,-25359850,-13396360,63736280,71263100,29125210,-25848390,28289800
2026-01-14 17:25:23.191,-2537709,-13404990,63727650,7126311,32806400,-3982544,-1399231
2026-01-14 17:25:23.201,18101480,-1342226,6372764,27767230,34179690,-4660034,-2407837
2026-01-14 17:25:23.211,-25420280,21277940,28992930,71254470,51345820,4070282,29525760
2026-01-14 17:25:23.221,-2543753,21268450,28985160,7125448,-604,1527,-3378296,6427002
2026-01-14 17:25:23.231,18064370,-1346543,6370175,27735300,-58776860,-44677740,6274414
2026-01-14 17:25:23.241,-25472070,21251180,28967900,71254480,-6640625,17690660,9539795
2026-01-14 17:25:23.251,-25480700,21243410,28958410,71263100,-44281010,793457,7531738
2026-01-14 17:25:23.261,-25480700,21243410,28958410,71263100,-17440800,-793457,23620600
2026-01-14 17:25:23.271,-25480700,21243410,28958410,71263100,-24662020,-51879880,-51994320
2026-01-14 17:25:23.281,-25480690,-13465410,63667230,71263100,-15068050,-89904780,-26489260
2026-01-14 17:25:23.291,-25480700,-1348270,6366724,71263100,9529114,-11608890,-4751587
2026-01-14 17:25:23.301,-25480700,-1348270,6366724,71263100,3189087,-8306885,-19454960
2026-01-14 17:25:23.311,-2549796,-1349131,6367586,7126311,6719971,-5722046,32928470
2026-01-14 17:25:23.321,18035880,-1349132,6367585,27711990,7342529,-6384277,7281494
2026-01-14 17:25:23.331,18035880,-1349132,6367585,27711990,7989502,-58166500,97229010
2026-01-14 17:25:23.341,18027250,-1349132,6367585,27703360,53985600,-6384277,826416
2026-01-14 17:25:23.351,18027250,21242550,28959270,27703360,43121340,-7147217,60943600
2026-01-14 17:25:23.361,-2552385,21251180,28967900,7123722,40740970,-6964111,-39482120
2026-01-14 17:25:23.371,-25523850,-13482680,63701760,71219940,289917,-6262207,-231781
2026-01-14 17:25:23.381,-25523860,-36080400,41104040,71219940,40,79938,-4324341,-14984130
2026-01-14 17:25:23.391,-25532490,-36080400,41104040,71211310,-12367250,-3074646,24536130
2026-01-14 17:25:23.401,-25541120,-13465410,63719020,71202680,-58937070,14595030,19958500
2026-01-14 17:25:23.411,-25541120,-13465410,63719020,71202680,-18112180,36376950,20599360
2026-01-14 17:25:23.421,-25541120,-13456780,63727660,71202680,-6365967,7006836,3253174
2026-01-14 17:25:23.431,-25541120,21277080,28993800,71202680,-703125,9686279,28717040
2026-01-14 17:25:23.441,-25541120,21285710,29002430,71202680,-55541990,1274414,22079470
2026-01-14 17:25:23.451,-25541120,-1343092,6373630,71202680,-5630493,10345460,37872310
2026-01-14 17:25:23.461,-25541120,-1342228,6372766,71202680,-12805180,80200190,37750240
2026-01-14 17:25:23.471,-25541120,-13404990,63727650,71202680,-18469240,48797610,5770874
2026-01-14 17:25:23.481,18001360,21314200,29025730,27677470,-2244873,7531738,1237793
2026-01-14 17:25:23.491,18009990,-36022570,41058290,27686090,-27368160,30700680,12585450
2026-01-14 17:25:23.501,-2553247,-13327310,63701760,7124584,-26782230,2545166,14233400
2026-01-14 17:25:23.511,18035020,-1329279,6370175,27712850,-2548828,1890564,871582
2026-01-14 17:25:23.521,-46109540,21365980,29060260,50686060,-19250490,19012450,33355710
2026-01-14 17:25:23.531,18059190,21377200,29066300,27740480,-11895750,6262207,49072260
2026-01-14 17:25:23.541,-46132850,-1317196,6364999,50714540,-11022950,6137085,68359380
2026-01-14 17:25:23.551,-2553248,21409140,29086150,7134943,-7269287,3286743,6866455
2026-01-14 17:25:23.561,-25541120,21421220,29091330,71375320,-4437256,30410770,44891360
2026-01-14 17:25:23.571,18078180,-1305111,6358090,27773280,-2432251,15686040,63591000
2026-01-14 17:25:23.581,18075590,-35754990,40807970,27775860,-71777340,155181900,-46905520
2026-01-14 17:25:23.591,18073000,-35720460,40773440,27778450,-8093262,68359380,-62072750
2026-01-14 17:25:23.601,18060920,21435030,29077520,27773280,-10534670,-15230180,-9875488
2026-01-14 17:25:23.611,-25679230,24865870,25629430,71513420,-13330080,-46577460,-11590580
2026-01-14 17:25:23.621,-25713760,21433310,29061980,71547950,-10900880,20504000,-15454100
2026-01-14 17:25:23.631,-2575691,-1286983,6334786,7157384,-12976070,3756714,-17834470
2026-01-14 17:25:23.641,-46400430,21422090,29038680,50982120,-18774410,81970220,-2019043
2026-01-14 17:25:23.651,18047110,24849810,25610950,27787090,-13903810,93566900,-18383790
2026-01-14 17:25:23.661,-46426320,-12826670,63270180,51008020,-46936040,-8544922,-6555176
2026-01-14 17:25:23.671,-46426320,24841180,25602320,51008020,34240720,12023930,-69885260
2026-01-14 17:25:23.681,-46426320,24832550,25593690,51008020,9033203,9173584,-15327450
2026-01-14 17:25:23.691,-25800070,-12835300,63261540,71634260,10253910,6061554,-42907720
2026-01-14 17:25:23.701,18061780,-1282668,6323564,27806940,19299320,-46569820,-10992430
2026-01-14 17:25:23.711,18087680,21393600,28998110,27832840,2512207,-9869385,-17773440
2026-01-14 17:25:23.721,1809547,-12826670,63201120,2784232,30859380,-3829956,-15429690
2026-01-14 17:25:23.731,-25765550,-1281807,6317524,71720580,14526370,-6958008,30345920
2026-01-14 17:25:23.741,-2575689,-12818040,63157960,7174647,40771480,4005432,19989010
2026-01-14 17:25:23.751,18145510,21363390,28959260,27895850,13061520,-7885742,-26931760
2026-01-14 17:25:23.761,22559230,21363390,28959260,23533920,17919920,-29510500,-1661377
2026-01-14 17:25:23.771,18208520,21364250,28958400,27953680,21960450,-11230470,-22167970
2026-01-14 17:25:23.781,-25610170,-1281807,6312345,71824160,21716310,-11767580,-3334961
2026-01-14 17:25:23.791,18253400,-1281805,6312343,27995110,19567870,8892822,-45117190
2026-01-14 17:25:23.801,-25523860,-1281807,6312345,71858690,15222170,18920900,-5605469
2026-01-14 17:25:23.811,-25472070,-12826670,63097540,71893220,14868160,-647583,-51123050
2026-01-14 17:25:23.821,-25446170,-12852570,63071650,71919110,24780270,-23413090,-53222660
2026-01-14 17:25:23.831,-25446180,-1291302,6304576,71936380,34765620,-21801760,-5102539
2026-01-14 17:25:23.841,18348350,-1299932,6301121,28090060,28271480,-10827640,-4716797
2026-01-14 17:25:23.851,-25558390,21125150,28731390,71927740,62286380,-49713140,-41088870
2026-01-14 17:25:23.861,-46489330,21018130,28631270,51117640,-51879880,-16479490,-2133789
2026-01-14 17:25:23.871,-25791440,-1337913,6280407,71936380,-12805180,-8987427,-31341550
2026-01-14 17:25:23.881,18117890,20779890,28403390,27906210,-8850098,-7208252,37017820
2026-01-14 17:25:23.891,-2611944,20629700,28260100,7193639,-96069340,-29663090,11657720
2026-01-14 17:25:23.901,17873610,-13897000,62476060,27701630,-111572300,-1239624,33374020
2026-01-14 17:25:23.911,-26637350,-14112790,62329330,71901860,-9448242,-4208374,4165039
2026-01-14 17:25:23.921,17525750,20094540,27742200,27410750,-30517580,10028080,3310547
2026-01-14 17:25:23.931,1734452,-14535740,61958160,2726400,-82714850,42651370,43798830
2026-01-14 17:25:23.941,-27647250,19663820,27309760,71927740,-12373050,46484380,6953125
2026-01-14 17:25:23.951,-2800113,-14915530,61457520,7197090,-16181640,6538086,74609380
2026-01-14 17:25:23.961,-28355050,-1506231,6117269,72048590,-159375,69140620,67626950
2026-01-14 17:25:23.971,-2875210,19010400,26616630,7213491,-15273440,453125,58154300
2026-01-14 17:25:23.981,1644852,1876958,2635682,2658901,-15107420,50878900,5004883
2026-01-14 17:25:23.991,-48853550,-15519750,60110980,53121060,-15683590,73291020,62109380
2026-01-14 17:25:24.001,-30150440,-35467560,39869710,72445650,-16445310,66064450,7089844
2026-01-14 17:25:24.011,-30676970,-1578737,5922194,72575120,-17919920,73291020,6201172
2026-01-14 17:25:24.021,-3120349,17710470,25171690,7272187,-19511720,10449220,45922850
2026-01-14 17:25:24.031,-31755930,-15925440,58237920,72877230,-17724610,128125,5913086
2026-01-14 17:25:24.041,15093350,-15959970,57685480,25630890,-15341800,12382810,46899420
2026-01-14 17:25:24.051,-3288666,-15968600,57107160,7324839,-12636720,11142580,10058590
2026-01-14 17:25:24.061,-3349952,16626330,23873480,7344693,-8310547,8720703,-24401860
2026-01-14 17:25:24.071,14340660,-16029020,55821040,25123350,-70410160,90722660,-64404300
2026-01-14 17:25:24.081,-3492374,-33646260,37547780,7381807,-74316410,10263670,-10273440
2026-01-14 17:25:24.091,13632870,-16193020,54327760,24605450,-8417969,11328130,-11601560
2026-01-14 17:25:24.101,-53496530,-33048950,36764030,57247860,-9135742,11464840,-11279300
2026-01-14 17:25:24.111,12767980,-16486500,52584160,23951170,-85839840,11240230,-98095700
2026-01-14 17:25:24.121,-38531800,14056680,20884340,74422300,-5942383,95166020,-8017578
2026-01-14 17:25:24.131,-39576230,13485260,20230060,74534510,-3774414,5253906,-54248050
2026-01-14 17:25:24.141,-4068106,-17099350,49519920,7458629,-75950620,42260740,-18688960
2026-01-14 17:25:24.151,10533230,12248350,18825680,22180810,18579100,33496090,20837400
2026-01-14 17:25:24.161,9798680,-17599980,47275680,21568830,22424320,37719730,43481440
2026-01-14 17:25:24.171,-44522180,-30558720,33384730,74422300,20910640,7705078,61816410
2026-01-14 17:25:24.181,-45903240,-18057470,44901980,74266930,328125,83251950,5449219
2026-01-14 17:25:24.191,7303262,-18264620,43710800,19437670,8120117,2097168,31555180
2026-01-14 17:25:24.201,-48760330,-18480420,42545530,73723140,12705080,-5019531,-34472660
2026-01-14 17:25:24.211,-50305400,8355456,14363110,73282910,14423830,-84277340,-53027340
2026-01-14 17:25:24.221,4158743,-18868840,40258130,16626330,14707030,-94628900,-5625
2026-01-14 17:25:24.231,8581439,-19076000,39118750,9838553,10546880,-7841797,-19177250
2026-01-14 17:25:24.241,-55354920,-19222740,37988000,71323520,49414060,-2578125,2192688
2026-01-14 17:25:24.251,440217,-19300430,36891780,13197830,30126950,25952150,57373050
2026-01-14 17:25:24.261,-58462330,-19326320,35847350,69907940,4638672,-38427740,50439450
2026-01-14 17:25:24.271,-1759134,-19309060,34863330,11150400,56591800,-5620117,5620117
2026-01-14 17:25:24.281,30802130,-19222740,33948380,43775540,8120117,-77246100,49804690
2026-01-14 17:25:24.291,-3735787,-19093260,33076580,9294586,10068360,-94921870,27539060
2026-01-14 17:25:24.301,-46869990,-18929260,32222040,83986190,11611330,-10986330,3059082
2026-01-14 17:25:24.311,-56261260,-18730740,31419290,75078300,10947270,-10576170,61376950
2026-01-14 17:25:24.321,-65889890,-23966710,25182050,65898520,96533200,-96435540,8227539
2026-01-14 17:25:24.331,-14549550,3470796,8285545,-1332730,70703130,-76220700,10527340
2026-01-14 17:25:24.341,-22249000,-23014630,24166100,-8997660,7368164,-90966800,11328130
2026-01-14 17:25:24.351,-23538050,33585840,79834350,-22209810,10859380,-15175780,10908200
2026-01-14 17:25:24.361,-69554030,-17090720,28294630,63511860,13291020,-19648440,9970703
2026-01-14 17:25:24.371,-44212300,3340459,7794404,-30883270,13759770,-21796880,11953130
2026-01-14 17:25:24.381,-11135720,-16305230,27440090,2210571,15019530,-25703120,12744140
2026-01-14 17:25:24.391,-5864100,-15942700,27112090,-4528437,14160160,-2390625,12587890
2026-01-14 17:25:24.401,-66154020,54155990,58401050,-52790460,15087890,-26816410,15
2026-01-14 17:25:24.411,-74010570,3640843,7822027,-60643560,11699220,-21308590,19287110
2026-01-14 17:25:24.421,-14236220,3828147,7945457,-869209,1,11455080,-15166020,25800780
2026-01-14 17:25:24.431,-90840600,-14207730,26309350,-77477050,11728520,-11767580,29589840
2026-01-14 17:25:24.441,-10007300,59984090,63966750,-8671636,95166020,-13066410,309375
2026-01-14 17:25:24.451,-77080860,4413373,8326980,56347570,60595700,-20332030,28398440
2026-01-14 17:25:24.461,-18150680,-12584980,25808710,-4826834,453125,12714840,19599610
2026-01-14 17:25:24.471,-19132970,-18231820,19574910,-5829835,5649414,18447270,10136720
2026-01-14 17:25:24.481,-7980846,4955444,8682602,5299848,-66503900,-15612790,2043457
2026-01-14 17:25:24.491,-20929220,51807310,88543710,-7676147,-7495117,-6899414,47558590
2026-01-14 17:25:24.501,-21777710,54837030,91038270,-8553987,-4398346,-38134770,90625
2026-01-14 17:25:24.511,-81949110,58125700,93791780,49960140,3803711,21350100,9013672
2026-01-14 17:25:24.521,-8259648,-9607054,25506600,4898475,24743650,83251950,47509770
2026-01-14 17:25:24.531,-24109990,-8968310,25610180,-10986400,11065670,13173830,-7458496
2026-01-14 17:25:24.541,-83658180,69985620,104028900,47267060,-26953120,10791020,-59375
2026-01-14 17:25:24.551,-19426960,-7673556,25886390,-18120820,-45239260,35742190,-9326172
2026-01-14 17:25:24.561,-8446092,-15593120,17500720,4584282,-29638670,15655520,-95458980
2026-01-14 17:25:24.571,-8480619,-6327017,26317980,4515229,-16189580,6871,224,-6201172
2026-01-14 17:25:24.581,-85134210,-5610591,26620090,44461750,46557620,41235350,-26290890
2026-01-14 17:25:24.591,-66675370,-4902795,26982620,62506270,11445310,67041020,44799800
2026-01-14 17:25:24.601,-85703900,-4194996,27414200,43011630,1796875,9248047,92578130
2026-01-14 17:25:24.611,-28231620,-3556250,27914840,-15410130,19609380,65185550,15820310
2026-01-14 17:25:24.621,-28663200,11187510,14327720,-15893500,14941410,49682620,18935550
2026-01-14 17:25:24.631,-6582600,-2339186,29114640,6128403,11162110,21704100,19716800
2026-01-14 17:25:24.641,-8638578,-1683177,29822440,4010276,21484380,-23999020,17412110
2026-01-14 17:25:24.651,-86523910,-1035803,30556130,39291380,19238280,3427124,15722660
2026-01-14 17:25:24.661,-30260920,-362530,31367510,-17748450,1734375,49853520,6538086
2026-01-14 17:25:24.671,-64645200,371159,32204780,59771760,2015625,34570310,55078120
2026-01-14 17:25:24.681,-64299940,1061695,33119740,59357440,22324220,5029297,27416990
2026-01-14 17:25:24.691,-31166390,174360,8,3407787,-18880060,26679690,8041992,-1875
2026-01-14 17:25:24.701,-86299480,2425500,35070500,35786930,30429690,10361330,-671875
2026-01-14 17:25:24.711,-26035370,-14570270,18489050,-24822450,29511720,7709961,-8876953
2026-01-14 17:25:24.721,-31623000,3694360,37254310,-19580090,29355470,33740230,-10976560
2026-01-14 17:25:24.731,-85505370,-14925030,19204620,33974270,28984380,43139650,-12353520
2026-01-14 17:25:24.741,-85099680,20637470,24109130,33430480,30546880,9296875,-13173830
2026-01-14 17:25:24.751,-31664430,-15322950,19997860,-19901190,29648440,26953120,-5419922
2026-01-14 17:25:24.761,-84020720,-15517160,20407870,32593200,26074220,-2232666,15283200
2026-01-14 17:25:24.771,-8339059,7388714,43883430,3210120,31367190,35766600,-47143560
2026-01-14 17:25:24.781,-31227670,8415884,45445770,-19802790,44648440,12871090,-12128910
2026-01-14 17:25:24.791,-30919520,9546634,47128940,-19627560,62851560,14658200,-19560550
2026-01-14 17:25:24.801,-80688890,27877720,31698100,30815080,70585940,11132810,-2515625
2026-01-14 17:25:24.811,-57452420,29327840,33217270,52549630,63085940,73583980,-23261720
2026-01-14 17:25:24.821,-78185700,-16535700,23100950,30176330,55078120,17248540,-21152340
2026-01-14 17:25:24.831,-28770230,14311320,54638500,-18117020,54609380,39819340,-29609380
2026-01-14 17:25:24.841,-27972670,3415123,3825128,-17516260,50273440,7290039,-39335940
2026-01-14 17:25:24.851,-7317069,-17079500,24663280,2939084,41640620,10771480,-54140620
2026-01-14 17:25:24.861,-71202680,18143770,60801520,29477170,11005860,20742190,-6984375
2026-01-14 17:25:24.871,-69036140,-17783840,25961490,29969180,-65625,6254883,-66328120
2026-01-14 17:25:24.881,-66524310,-17883100,26380130,30789180,-134375,15771480,-11357420
2026-01-14 17:25:24.891,-20733280,42240820,46630900,-11203910,-151796900,48085940,16396480
2026-01-14 17:25:24.901,-60335400,25152700,67965810,32731310,-1621875,93125,28808590
2026-01-14 17:25:24.911,-15863290,-15546510,25298580,-6786224,-147109400,124296900,68710940
2026-01-14 17:25:24.921,-13080440,-18350770,19369650,-4234700,-116640600,141640600,83359380
2026-01-14 17:25:24.931,-10198320,-11473220,22069470,-1575281,-67070310,141484400,10109380
2026-01-14 17:25:24.941,-34081300,-13539390,14634400,-25649880,-45039060,54414060,78984380
2026-01-14 17:25:24.951,-28169470,-5197994,16622880,-20167910,108875,-4240625,-3278125
2026-01-14 17:25:24.961,22646060,56873240,58704880,30525060,-255625,-1405,-6396875
2026-01-14 17:25:24.971,-55700190,40845080,71366690,24280900,-320625,-3021875,-4828125
2026-01-14 17:25:24.981,-10792180,-17334990,27825930,-2604177,-533125,9375,6121875
2026-01-14 17:25:24.991,-12619510,-19347040,29577300,-4384891,-72375,719375,76125
2026-01-14 17:25:25.001,-77288010,49456040,53968680,-68932550,-3271875,30953120,-85078130
2026-01-14 17:25:25.011,-10406340,30927290,72203960,-1781576,-81796870,-1675,-20453120
2026-01-14 17:25:25.021,-66250690,31643720,70210050,-57354880,-6375,390625,-15058590
2026-01-14 17:25:25.031,-10319160,32662260,68207490,-1178223,-1203125,13953130,14794920
2026-01-14 17:25:25.041,-9615684,-11319580,21308150,-241687,7,8234375,-5359375,-68515620
2026-01-14 17:25:25.051,-52471940,-10403760,20255950,43443220,1234375,-1240625,-85703130
2026-01-14 17:25:25.061,-53421430,33741210,63157960,44530810,114375,-65507810,-41523440
2026-01-14 17:25:25.071,-9477578,-9566486,19090670,500636,9,1146875,-73242190,-32558590
2026-01-14 17:25:25.081,-9820254,45318880,48162150,325415,9,11078130,-81953130,-35410160
2026-01-14 17:25:25.091,-56727360,31445190,60119620,46283040,925,-60546880,-21972660
2026-01-14 17:25:25.101,-11056310,-14173990,15070130,-613713,1,74335940,-47109380,28710940
2026-01-14 17:25:25.111,-11859920,42357360,45357720,-1294750,6234375,-38378900,8125
2026-01-14 17:25:25.121,-6077562,-11133130,19716470,4594641,5375,-26503910,-15905760
2026-01-14 17:25:25.131,-13682930,26076290,57806320,-2907147,38613280,-10761720,-3161621
2026-01-14 17:25:25.141,-14620330,24652060,57245260,-3747871,23457030,3604126,-25683590
2026-01-14 17:25:25.151,-15521470,23270990,56658310,-4555796,16162110,37548830,-71875
2026-01-14 17:25:25.161,-66101360,21889920,56054100,44418600,9086914,9189453,-11318360
2026-01-14 17:25:25.171,-17160630,2053476,5542399,-6024046,-50048830,15908200,-12216800
2026-01-14 17:25:25.181,-57321220,35256070,38803700,54873280,-35009770,16601560,-82128900
2026-01-14 17:25:25.191,-18423440,18143780,54103340,-7126310,2164,841,11367190,-84716800
2026-01-14 17:25:25.201,-18918900,-14653990,21702620,-7545812,51904300,63720700,-7861328
2026-01-14 17:25:25.211,-70874680,32537090,36205560,43650380,-35076140,2010498,-7441406
2026-01-14 17:25:25.221,-19688850,15027740,51971310,-8156932,-5102539,15820310,-953125
2026-01-14 17:25:25.231,-19944350,-1531000,2184073,-8333018,-2388916,-7745361,-7006836
2026-01-14 17:25:25.241,-72730490,29972620,33711870,44125120,-13806150,-3798828,-7109375
2026-01-14 17:25:25.251,-20274080,12317400,49916970,-8521189,-10478520,7128906,-10537110
2026-01-14 17:25:25.261,-73515970,11713180,49209180,44737970,-20429690,62597660,-5908203
2026-01-14 17:25:25.271,-20187760,28039130,31778370,-8296765,80371100,-15271000,-18417970
2026-01-14 17:25:25.281,-14650200,-15716550,21589550,-13454540,19003910,-70654300,-16171880
2026-01-14 17:25:25.291,-19838180,10168110,47474210,-7817707,15419920,-24658200,-14013670
2026-01-14 17:25:25.301,-19576640,26401700,30135770,-7492292,8730469,-87768550,-14404300
2026-01-14 17:25:25.311,-7391301,9011468,46438410,4756916,6098633,-46435550,-140625
2026-01-14 17:25:25.321,-73818080,27010580,27386230,48268330,6455078,-44140620,-15117190
2026-01-14 17:25:25.331,-18510630,24813480,28582060,-6245016,6894531,31811520,-17314450
2026-01-14 17:25:25.341,-18064370,-16263800,21508410,-5741791,48486330,11337890,-15761720
2026-01-14 17:25:25.351,-17531790,6853550,44694810,-5152247,23608400,1125,-11230470
2026-01-14 17:25:25.361,-16937070,6396070,44323650,-4504008,44628900,5522461,-35766600
2026-01-14 17:25:25.371,-16312140,23093180,26901480,-3834189,87060540,6829834,22509770
2026-01-14 17:25:25.381,-15668210,5524272,43814380,-3148834,10087890,-536,4418,5961914
2026-01-14 17:25:25.391,-93630360,-16820540,21693990,-81074730,70703130,13415530,64746100
2026-01-14 17:25:25.401,-70978260,4712892,43417320,54940610,124816900,5161133,8330078
2026-01-14 17:25:25.411,-70365410,4358992,43218800,55915980,-3076172,76660160,79833980
2026-01-14 17:25:25.421,-12717910,4039626,43020260,-56968,85,-2836914,890625,70996100
2026-01-14 17:25:25.431,-63515320,3746144,42847640,63404830,-16394040,45092770,8041992
2026-01-14 17:25:25.441,-11034730,-17325500,21948620,1677997,34423830,14257810,8154297
2026-01-14 17:25:25.451,-67491060,21012080,24960210,59774350,10332030,23205570,70947260
2026-01-14 17:25:25.461,-9431829,3003822,42744050,3303343,12626950,7651367,8183594
2026-01-14 17:25:25.471,-65971890,-17706160,22258500,61466150,8066406,81640620,11972660
2026-01-14 17:25:25.481,-20443260,2563608,42769950,-7696001,62841800,11456300,15751950
2026-01-14 17:25:25.491,-12242300,2365080,42847630,503226,6,115625,-63671880,14228520
2026-01-14 17:25:25.501,-46429780,20513170,24595960,80956470,12744140,-40942380,12158200
2026-01-14 17:25:25.511,-54742080,1890336,43132480,72523330,14033200,-33129880,7783203
2026-01-14 17:25:25.521,-48121580,1596856,43305120,79022980,12802730,-11034010,40429690
2026-01-14 17:25:25.531,15316040,1268856,43460480,28014960,7006836,67871100,23828120
2026-01-14 17:25:25.541,22313740,20149780,24406920,35000580,21679690,14492190,13867190
2026-01-14 17:25:25.551,30086570,-19196850,23633520,42764770,-14990230,44384770,88256830
2026-01-14 17:25:25.561,-63312890,543794,43667640,63313780,-47924800,-12509770,4970703
2026-01-14 17:25:25.571,44865720,293474,43866170,57505940,2944336,-16728520,6591797
2026-01-14 17:25:25.581,-57314320,19846810,24261050,68794450,12773440,-12822270,40966800
2026-01-14 17:25:25.591,-56649680,-345270,44384070,69165620,12646480,-52685550,25097660
2026-01-14 17:25:25.601,420363,-20471740,24861810,12976000,7998047,60791020,21948240
2026-01-14 17:25:25.611,-55553460,-1087592,44781130,69795720,-3930664,14189450,4736328
2026-01-14 17:25:25.621,69356370,-20983600,25333960,81870570,-11425780,1453125,10136720
2026-01-14 17:25:25.631,1798843,-1631386,45048710,14290600,-9790039,80371100,16367190
2026-01-14 17:25:25.641,2329691,-1795388,45212710,14795550,-31079100,-42114260,1515625
2026-01-14 17:25:25.651,2826876,-1959390,45411240,15265120,5493164,-11035160,11435550
2026-01-14 17:25:25.661,3263638,-2123390,45592500,15674260,12731930,-42260740,9663086
2026-01-14 17:25:25.671,3646884,19333220,24135890,16033340,-37475580,3701172,6538086
2026-01-14 17:25:25.681,4010277,-241687,8,4585146,16377740,-48046880,11865230,3552246
2026-01-14 17:25:25.691,9947659,-252908,5,4591187,11182680,-12441410,17578120,36938480
2026-01-14 17:25:25.701,4786266,-2572240,45937770,17120930,-15761720,10927730,25976560
2026-01-14 17:25:25.711,-50262240,-22103130,26441410,72929020,-15703130,61572260,32592770
2026-01-14 17:25:25.721,-49813390,-2537714,46006830,73205230,-11347660,48754880,30371090
2026-01-14 17:25:25.731,5872131,-2468658,46058620,18158450,-6669922,40649420,-54870600
2026-01-14 17:25:25.741,-60132560,-22042710,26415510,62592580,-5078125,5361328,-17346190
2026-01-14 17:25:25.751,-4877758,-21993510,26378400,7384396,-71972660,41918940,-14343260
2026-01-14 17:25:25.761,-4857904,-2149286,46101780,7399071,-93652340,72753900,881958
2026-01-14 17:25:25.771,-48363270,-201121,3,4608453,74137460,-18408200,14091800,8442383
2026-01-14 17:25:25.781,6980437,-1760862,46058620,19225330,-16259770,13945310,77783200
2026-01-14 17:25:25.791,-47836740,-1415596,46006830,74543140,-12021480,14716800,98046870
2026-01-14 17:25:25.801,-47534630,20122160,24814340,74793460,-96728510,11816410,9838867
2026-01-14 17:25:25.811,13311510,20340540,24975750,14534270,-7128906,10322270,77734380
2026-01-14 17:25:25.821,-4690451,-20562370,25133710,7533725,-8676758,15341800,6723633
2026-01-14 17:25:25.831,-46550620,20816140,25311520,75656630,-11582030,17675780,63916020
2026-01-14 17:25:25.841,8789636,1217066,45342180,21006910,-11582030,11982420,30297850
2026-01-14 17:25:25.851,-45825560,23288000,23720100,76329900,-11464840,11494140,39257810
2026-01-14 17:25:25.861,9517288,2632662,44858820,21729380,-92578130,11181640,33862300
2026-01-14 17:25:25.871,9899667,337497,5,4459986,22106580,-5908203,875,26513670
2026-01-14 17:25:25.881,-44617130,22228290,26247200,77400220,-30493160,84375,23962400
2026-01-14 17:25:25.891,10691190,22531260,26444860,22886020,-26367190,10195310,27124020
2026-01-14 17:25:25.901,-43719430,5671008,43788480,78125280,77941900,3635254,-9460449
2026-01-14 17:25:25.911,11513790,6439228,43520900,23686180,30737300,512,1231,-4751587
2026-01-14 17:25:25.921,11909120,7181554,43279220,24067700,6455078,-5888672,-22961430
2026-01-14 17:25:25.931,12260430,7863456,43063420,24406920,10576170,-7763672,-46801760
2026-01-14 17:25:25.941,-42036260,-14618610,19752730,79290560,13085940,-6586914,-29052730
2026-01-14 17:25:25.951,-41708260,9071886,42666370,79514990,14228520,-82373050,-4411621
2026-01-14 17:25:25.961,-41397500,9581158,42485110,79704880,15390630,-10878910,-6845703
2026-01-14 17:25:25.971,13318680,10038640,42321100,25420280,14013670,-12021480,-72265620
2026-01-14 17:25:25.981,-4093138,10435690,42165730,8001563,11132810,-12412110,-6743164
2026-01-14 17:25:25.991,13652720,24834190,27957130,25742240,8618164,-12421880,-64746100
2026-01-14 17:25:26.001,-40620660,11091700,41872260,80240050,6640625,-12910160,-48046880
2026-01-14 17:25:26.011,-6022283,11376550,41742780,6062060,6328125,-11552730,-30273440
2026-01-14 17:25:26.021,13897000,25119900,28120270,25981340,78271490,-87939460,-28881840
2026-01-14 17:25:26.031,13940160,25197590,28163430,26024500,8154297,-69091800,-30200200
2026-01-14 17:25:26.041,-40413500,12067080,41397520,80447210,6274414,-6333008,-28393560
2026-01-14 17:25:26.051,13997990,25315840,28217810,26087510,3413086,-43798830,-859375
2026-01-14 17:25:26.061,-40378970,12446870,41155830,80533530,18786620,-5263672,-12237550
2026-01-14 17:25:26.071,-40353080,1261947,4105226,80576680,19067380,-61865230,-19030760
2026-01-14 17:25:26.081,-40335820,12783510,40957300,80593940,24121090,-4909668,-22521970
2026-01-14 17:25:26.091,14107610,-11276420,16655680,26202310,18554690,-37402340,-19750980
2026-01-14 17:25:26.101,-40318550,-11152990,16537430,80662990,6933594,-1854248,-12487790
2026-01-14 17:25:26.111,-58470100,25575650,28320530,62511450,-2381897,-16186520,-11230470
2026-01-14 17:25:26.121,14191340,13361830,40568870,26291220,-7092285,-18286130,-12976070
2026-01-14 17:25:26.131,-4023221,13491310,40491180,8076659,7972717,-103149400,-17114260
2026-01-14 17:25:26.141,14250900,13629420,40404870,26352500,60058590,4798889,-25610350
2026-01-14 17:25:26.151,-40171810,13758890,40292660,80861530,-18225100,47576900,-23791500
2026-01-14 17:25:26.161,-60312880,13879730,40189080,60720460,-34814450,-49621580,-26733400
2026-01-14 17:25:26.171,-58483910,14009210,40094130,62566690,-23535160,39031980,-20300290
2026-01-14 17:25:26.181,14395040,1413004,4000780,26501830,-7949829,1282959,-20385740
2026-01-14 17:25:26.191,14429570,14259530,39912860,26536360,22949220,1928711,-19433590
2026-01-14 17:25:26.201,14463230,-10004980,15423940,26571750,-7220459,28271480,-9857178
2026-01-14 17:25:26.211,14506390,14509840,39714330,26614910,-119384800,27026370,-9637451
2026-01-14 17:25:26.221,14549550,-12210110,12752700,26658060,-11029050,15649410,-546875
2026-01-14 17:25:26.231,14609970,14786060,39507170,26718490,-1060791,6585693,-97595220
2026-01-14 17:25:26.241,14653130,14915540,39412220,26761640,-12585450,-53710940,-15966800
2026-01-14 17:25:26.251,-3978338,-9409389,14845620,8130174,-12890630,-16220090,-15588380
2026-01-14 17:25:26.261,14748080,25997740,28399070,26856590,19699100,14404300,-16870120
2026-01-14 17:25:26.271,-3969706,15338480,39110120,8138807,16677860,21569820,-21826170
2026-01-14 17:25:26.281,14834400,15467960,38997910,26942910,-9210205,25854490,-19921880
2026-01-14 17:25:26.291,-39610750,15623330,38877070,81491630,-24243160,23986820,46081540
2026-01-14 17:25:26.301,14946610,15795960,38738960,27055120,-2697754,13342290,29159550
2026-01-14 17:25:26.311,15015660,15959970,38609480,27124180,-19104000,-64941410,-15576170
2026-01-14 17:25:26.321,15067450,16132600,38488640,27175960,-41748050,-40771480,-22802730
2026-01-14 17:25:26.331,15101980,16305230,38367790,27210490,45776370,11413570,-105529800
2026-01-14 17:25:26.341,-39360430,16469230,38238320,81741950,62347410,9814453,-1463623
2026-01-14 17:25:26.351,15152040,16641870,38117480,27264010,10223390,-41259770,-16687010
2026-01-14 17:25:26.361,15151180,16797240,38013900,27264870,22521970,-26504520,-1505127
2026-01-14 17:25:26.371,-3938631,16961240,37901680,8178512,33496090,113220200,-6964111
2026-01-14 17:25:26.381,-39412230,17116610,37798110,81793750,38476560,56884770,-16069410
2026-01-14 17:25:26.391,-39429490,17280610,37685900,81793750,29125980,-12310790,-1461792
2026-01-14 17:25:26.401,15110610,-7330882,12832710,27236390,14794920,-3955078,-28057100
2026-01-14 17:25:26.411,1507436,-7207448,12714460,2720358,11682130,-43115230,107910200
2026-01-14 17:25:26.421,-39567600,17720820,37418310,81759220,32543940,-44702150,78063970
2026-01-14 17:25:26.431,-3962800,17867570,37340620,8173334,51708980,-3852539,30639650
2026-01-14 17:25:26.441,-39697070,17988410,37271570,81698800,5625,-30395510,-6179,81
2026-01-14 17:25:26.451,14886190,18117890,37211150,27029230,5395508,-36499020,45318600
2026-01-14 17:25:26.461,-3982653,18221460,37159360,8163839,5024414,-60839840,10538100
2026-01-14 17:25:26.471,-39895600,18316410,37116200,81603860,47851560,-7138672,-33016200
2026-01-14 17:25:26.481,1470839,18385470,37098940,2686178,55566410,-75,725708
2026-01-14 17:25:26.491,-40068230,18463150,37107570,81500270,67529300,-7729492,78552250
2026-01-14 17:25:26.501,-4014590,18514940,37107570,8143986,7988281,-7709961,-80566410
2026-01-14 17:25:26.511,-40240870,18523570,37116200,81379430,62890620,-7055664,-6994629
2026-01-14 17:25:26.521,14408850,18523570,37150730,26574340,5175781,-6176758,13061520
2026-01-14 17:25:26.531,-58803280,-6562666,12133550,62886060,5019531,-6503906,6689453
2026-01-14 17:25:26.541,14250030,26932550,28810800,26422420,55810550,-64453120,-20553590
2026-01-14 17:25:26.551,-40620660,18437260,37340630,81120480,7290039,-43945310,29735560
2026-01-14 17:25:26.561,-40672450,18394100,37418310,81068690,8232422,-38232420,-14266970
2026-01-14 17:25:26.571,14077400,-6798308,12381270,26249780,6401367,-5864258,-105896000
2026-01-14 17:25:26.581,14043740,18238730,37608200,26214400,6411133,-6557617,-19555660
2026-01-14 17:25:26.591,-40741500,18126510,37737680,80947840,7001953,-7167969,-29248050
2026-01-14 17:25:26.601,13994540,-7158249,12746390,26160020,7338867,-7246094,-27978520
2026-01-14 17:25:26.611,-4074151,1782441,3805706,8086153,7841797,-62597660,-19616700
2026-01-14 17:25:26.621,13973820,17617250,38246950,26128940,7788086,-5698242,-1998291
2026-01-14 17:25:26.631,-4068108,-7739160,13322130,8080111,64208980,-6660156,-25512700
2026-01-14 17:25:26.641,-40620660,17099340,38695800,80775210,70458980,-56347660,-83496100
2026-01-14 17:25:26.651,-58625470,-8295042,13871100,62649560,98583980,-43676760,-7849121
2026-01-14 17:25:26.661,14142140,16460600,39265490,26254100,10732420,-6220703,113586400
2026-01-14 17:25:26.671,14291470,16106700,39619380,26380990,12617190,-93408200,13366700
2026-01-14 17:25:26.681,14503800,15735540,39990550,26565710,115625,-10615230,32421880
2026-01-14 17:25:26.691,14798140,-9702004,15278060,26823790,6772461,-13222660,5288086
2026-01-14 17:25:26.701,-38747590,-10004120,15597440,81060060,84033200,-13525390,29077150
2026-01-14 17:25:26.711,-38082940,15036380,41155830,81206790,10869140,-8833008,19006350
2026-01-14 17:25:26.721,-3738378,-13036330,13601020,8135353,89160160,-82910160,80322260
2026-01-14 17:25:26.731,16500310,14760160,41984460,28315350,90234380,-13027340,-27954100
2026-01-14 17:25:26.741,16925850,-11099470,16798100,28683920,93896480,-16005860,-765625
2026-01-14 17:25:26.751,-56199970,14216370,42925320,60828270,8466797,-19316410,-14130860
2026-01-14 17:25:26.761,17573230,1378477,4344322,29227710,8300781,-20996090,-19277340
2026-01-14 17:25:26.771,22992450,13189200,43987010,24153760,68896480,-16484380,-1921875
2026-01-14 17:25:26.781,17859800,-13196970,18895600,29441780,41870120,-9584961,-16357420
2026-01-14 17:25:26.791,17881380,11583710,45091860,29437460,29077150,-35888670,-1109375
2026-01-14 17:25:26.801,17858940,26386160,29892350,29390850,24633790,5800781,-31884770
2026-01-14 17:25:26.811,-3393109,9624316,46222620,8114637,-18737790,17480470,36523440
2026-01-14 17:25:26.821,-33715320,25823380,29626500,81034160,-3408203,19365230,41845700
2026-01-14 17:25:26.831,-3340457,-16952610,22459620,8096509,-33813480,12148440,62109380
2026-01-14 17:25:26.841,23400560,27149980,27557570,24539770,-33398440,6738281,45898440
2026-01-14 17:25:26.851,-32541410,-18317280,23753510,80878780,34057620,36450200,5847931
2026-01-14 17:25:26.861,23776640,5325742,48725800,24906010,39233400,49316410,-36346440
2026-01-14 17:25:26.871,23908530,-19678490,25050840,25033070,4675293,86621100,29785160
2026-01-14 17:25:26.881,18956890,3702986,49727070,30157340,4970703,12167970,5708008
2026-01-14 17:25:26.891,-31168970,2917500,50219080,80386790,43798830,13701170,89501950
2026-01-14 17:25:26.901,-53088250,2166548,50711090,58018670,-59326170,16220700,15947270
2026-01-14 17:25:26.911,19208070,1441488,51194460,30268690,-8276367,13535160,16416020
2026-01-14 17:25:26.921,-52569480,759584,51669200,57536150,-10019530,7963867,14375
2026-01-14 17:25:26.931,19475650,120842,52118050,30432700,-13349610,41015620,14384770
2026-01-14 17:25:26.941,19623250,26032860,26033400,30526780,-13583980,21606440,9223633
2026-01-14 17:25:26.951,19733740,-1061698,52972580,30588930,-8305664,46240230,72998050
2026-01-14 17:25:26.961,-2883840,-1596860,53369640,7924740,-32910160,10654300,11494140
2026-01-14 17:25:26.971,-28614000,23031900,28620050,79057510,83618160,8066406,74316410
2026-01-14 17:25:26.981,19858030,22927450,28603640,30585480,24475100,7348633,58935550
2026-01-14 17:25:26.991,19851130,-26224750,31365780,30540590,3190918,6323242,8540039
2026-01-14 17:25:27.001,19861480,-26616630,31750750,30512970,3383789,91748050,10566410
2026-01-14 17:25:27.011,19923630,-3866994,55173660,30537140,32104490,86083980,13710940
2026-01-14 17:25:27.021,-2753504,-416047,5544988,7818571,20507810,37695310,11611330
2026-01-14 17:25:27.031,-27155250,22658140,28665790,78133920,3515625,17932130,11474610
2026-01-14 17:25:27.041,25155030,-453163,8,5594187,26203430,48388670,-3557129,39916990
2026-01-14 17:25:27.051,-2633522,-4635210,56200830,7803897,9067383,-5102539,-27807620
2026-01-14 17:25:27.061,-49372310,-4738794,56459790,54570310,10917970,-7476807,-24487300
2026-01-14 17:25:27.071,-25644700,-4859634,56701470,77900860,8208008,-14862060,-4819336
2026-01-14 17:25:27.081,21091500,22876520,29068890,31406350,7373047,17419430,-10361330
2026-01-14 17:25:27.091,-48758600,-517903,5715897,54027380,55615230,25439450,-16601560
2026-01-14 17:25:27.101,21272760,-28794400,33992400,31518560,29370120,47753900,-18642580
2026-01-14 17:25:27.111,-2465204,-5696904,57590530,7751244,8811951,54345700,-21230470
2026-01-14 17:25:27.121,-24531220,-29334750,34505120,77374330,-24414060,57470700,-23925780
2026-01-14 17:25:27.131,21310740,-648240,5794442,31480580,-53564450,734375,-25449220
2026-01-14 17:25:27.141,-48108630,-6957132,58091170,53382590,-69189460,91748050,-2546875
2026-01-14 17:25:27.151,-24324050,-7475034,58212010,76994540,-82470700,94433590,-25664060
2026-01-14 17:25:27.161,-24289520,-8018832,58306960,76873690,-85839840,8066406,-26503910
2026-01-14 17:25:27.171,21195940,-8597150,58350120,31301910,-8305664,6567383,-253125
2026-01-14 17:25:27.181,-24298160,-9210004,58393280,76675170,-6298828,55322260,-24140620
2026-01-14 17:25:27.191,-47821200,-34096710,34145320,53048540,-3942871,5625,-22792970
2026-01-14 17:25:27.201,21044020,-10383910,58427800,31125820,-2442627,39526370,-20800780
2026-01-14 17:25:27.211,-50088310,-10979490,58470970,50608810,11364750,5600586,-24140620
2026-01-14 17:25:27.221,-2433267,-32698510,37390690,7626083,45410160,9868164,-19472660
2026-01-14 17:25:27.231,-24358580,19613750,26686550,76148630,31835940,6542969,-15458980
2026-01-14 17:25:27.241,20786800,-12835300,58496860,30830610,37280270,33544920,-13066410
2026-01-14 17:25:27.251,-47631300,-13491310,58479600,52772330,6176758,19067380,-11542970
2026-01-14 17:25:27.261,-47634760,-34080440,38511950,52751620,7949219,14477540,-8930664
2026-01-14 17:25:27.271,-24738380,-34409310,38770030,75648000,8222656,573349,-6171875
2026-01-14 17:25:27.281,20286160,-15442070,58324220,30329980,8574219,-18322750,-34179690
2026-01-14 17:25:27.291,-47738340,-1607220,5822929,52768880,81884770,-45385740,-20629880
2026-01-14 17:25:27.301,19949530,-16685030,58117060,30010600,7529297,-6713867,-1149292
2026-01-14 17:25:27.311,-47897160,16599570,24124670,52851740,33789060,-6982422,32470700
2026-01-14 17:25:27.321,19527440,-35811950,39818780,29621310,-27954100,-70458980,61328120
2026-01-14 17:25:27.331,-26197130,-35990630,39933580,74948820,-33740230,-1899414,40820310
2026-01-14 17:25:27.341,-26490610,15606060,23219200,74897040,-7915039,83984380,87060540
2026-01-14 17:25:27.351,-2674092,15341080,22966300,7488841,-1234375,-79956060,9604492
2026-01-14 17:25:27.361,-26956720,15123550,22752230,74897040,-1125,-13671880,6044922
2026-01-14 17:25:27.371,-27163880,14933660,22562330,74914300,-82666020,-22644040,23596190
2026-01-14 17:25:27.381,-2738829,14772250,22395740,7494884,-7558594,19055180,14233400
2026-01-14 17:25:27.391,-27595460,14622050,22235190,75000620,-90234380,46118160,23999020
2026-01-14 17:25:27.401,1849855,14501210,22097090,2878578,-10556640,609375,2619629
2026-01-14 17:25:27.411,-2796660,-19680220,56054100,7518188,-10136720,68408200,13952640
2026-01-14 17:25:27.421,-49351590,-19619800,55821040,54073120,-8886719,7680664,-18005370
2026-01-14 17:25:27.431,-28225580,14275920,21787210,75475360,-79589840,89160160,-3616333
2026-01-14 17:25:27.441,18478690,14225860,21699160,28874680,-57421880,8779297,-23803710
2026-01-14 17:25:27.451,-49742610,-19274530,55061450,54493490,-43798830,7163086,-51123050
2026-01-14 17:25:27.461,18607300,-19153690,54785240,29056800,-39233400,49951170,-67285150
2026-01-14 17:25:27.471,18671180,-19041470,54500390,29148300,-5966797,46142580,-61816410
2026-01-14 17:25:27.481,-50124990,-18920630,54206920,54922480,-9135742,5595703,-33032230
2026-01-14 17:25:27.491,-2855357,13904760,21174360,7675286,-12744140,4399414,-1652832
2026-01-14 17:25:27.501,-28553580,13841750,21064740,77011800,-14248050,36450200,-6994629
2026-01-14 17:25:27.511,-2850178,13796870,20971520,7728803,-14414060,17138670,-3024292
2026-01-14 17:25:27.521,-28406840,-18307790,52955320,77572860,-13505860,-16503910,31051640
2026-01-14 17:25:27.531,19483420,-18109250,52687740,30096920,-11113280,-5341797,-10614010
2026-01-14 17:25:27.541,19675900,-17902090,52428780,30301490,-85839840,-77197260,-20043940
2026-01-14 17:25:27.551,-50670520,-17694940,52187110,55706240,-6381836,-8510742,-23510740
2026-01-14 17:25:27.561,20016860,-17496410,51971310,30668340,-44091800,-80322260,-14025880
2026-01-14 17:25:27.571,20148920,13774420,20683220,30812490,-2607422,-73876950,-6414795
2026-01-14 17:25:27.581,-2779398,13783920,20656460,7896257,-120666500,-7055664,-3111267
2026-01-14 17:25:27.591,20317240,-16987140,51427510,31006700,32348630,-6513672,10061260
2026-01-14 17:25:27.601,-27793990,-16840400,51298040,79221500,70373540,-56689450,-21072390
2026-01-14 17:25:27.611,-27819880,-16719560,51177200,79316460,9954834,-515625,-62927250
2026-01-14 17:25:27.621,-27863050,13835710,20604670,79394140,6463623,-5883789,-9814453
2026-01-14 17:25:27.631,20406140,1383570,2058740,31142220,4171753,-65478520,-1875
2026-01-14 17:25:27.641,-27975250,-16495140,50883720,79506350,12988280,-74853520,-36450200
2026-01-14 17:25:27.651,-51228120,-16469240,50788780,56374330,-11767580,-80810540,-22680660
2026-01-14 17:25:27.661,20302560,-31890590,35315630,31073160,-17944340,-93115230,-30737300
2026-01-14 17:25:27.671,20236960,13714870,20432030,31017920,-21606440,-94970700,-35058590
2026-01-14 17:25:27.681,20154100,13654450,20371610,30945420,-35498050,-99853520,-31860350
2026-01-14 17:25:27.691,24923270,13574170,20296520,26003610,-5654297,-11113280,-22033690
2026-01-14 17:25:27.701,-28708950,16529910,17202670,79428670,-7158203,-11630860,-10925290
2026-01-14 17:25:27.711,19845080,-16892190,50469400,30667470,-75683590,-12128910,6061554
2026-01-14 17:25:27.721,-29011060,-32060630,35404540,79299190,-7626953,-11708980,8099365
2026-01-14 17:25:27.731,19604260,-1712526,5044349,30442190,-7631836,-11113280,1303711
2026-01-14 17:25:27.741,19471330,13222860,19991820,30316170,-7446289,-10205080,20629880
2026-01-14 17:25:27.751,24221690,-3224795,3556249,25306860,-7714844,-890625,26904300
2026-01-14 17:25:27.761,-29658430,-17435990,50512560,78928030,-75,-79003900,25268560
2026-01-14 17:25:27.771,19073410,-17513670,50555720,29937230,-7529297,-75683590,23364260
2026-01-14 17:25:27.781,18942210,-17582720,50607500,29809490,-8173828,-70214850,21264650
2026-01-14 17:25:27.791,18801510,13095980,19928810,29673970,-87060540,-53808590,17089840
2026-01-14 17:25:27.801,18671180,13098570,19943480,29545360,-83154300,-46972660,11193850
2026-01-14 17:25:27.811,-30409380,-17755360,50831940,78349710,-8022461,-4189453,-27877810
2026-01-14 17:25:27.821,-30556120,-17807150,50935520,78220230,-76660160,-33398440,-17993160
2026-01-14 17:25:27.831,18262900,-17850300,51030460,29142260,-8359375,-22558590,-29516600
2026-01-14 17:25:27.841,18124790,13173660,20075550,29004150,-94677740,-16259770,-42358400
2026-01-14 17:25:27.851,18003080,13210780,20124750,28884170,-98828130,-14648440,-58251950
2026-01-14 17:25:27.861,17882240,13247890,20173950,28763330,-97021490,-11651610,-75439460
2026-01-14 17:25:27.871,-5208524,13285010,20223150,5672565,-90722660,-11779790,-9121094
2026-01-14 17:25:27.881,-3131571,16449820,17144660,7749518,-8598633,-12213140,-11015630
2026-01-14 17:25:27.891,-3143655,13360110,20320690,7737434,-86328130,-55236820,-12900390
2026-01-14 17:25:27.901,17398870,16517660,17214930,28279950,-92871100,11375430,-13476560
2026-01-14 17:25:27.911,17276300,-18040200,51807310,28160830,-9482422,-1927185,-13818360
2026-01-14 17:25:27.921,-5217242,13403270,20398370,5669026,-98046870,-30441280,-13710940
2026-01-14 17:25:27.931,-31988980,13397220,20404420,76908220,-95751950,-5819702,-13310550
2026-01-14 17:25:27.941,16893050,-18186940,51988580,27784490,-8618164,-42663580,-12832030
2026-01-14 17:25:27.951,-52253570,13386000,20415640,56695430,-7788086,-14389040,-12529300
2026-01-14 17:25:27.961,-32420560,-33510750,36889190,76580210,-6933594,15342710,-12529300
2026-01-14 17:25:27.971,-3256728,-18368210,52135310,7646800,-61621100,1827,478,-12480470
2026-01-14 17:25:27.981,16366520,-18437260,52169840,27275230,-58251950,-2468872,-12832030
2026-01-14 17:25:27.991,16216330,16849020,16849030,27131940,-62402340,-47973630,-12695310
2026-01-14 17:25:28.001,-52460730,13273790,20355220,56764480,-75341800,-5053711,-12558590
2026-01-14 17:25:28.011,15897820,-18678950,52238900,26828970,-8925781,-29556270,-11484380
2026-01-14 17:25:28.021,-3349951,-18782520,52238900,7589831,-10380860,-17328260,-10009770
2026-01-14 17:25:28.031,15569820,13121010,20231780,26518230,-115625,2671814,-80371100
2026-01-14 17:25:28.041,15410130,-18963790,52230260,26367170,-11953130,9942627,-6479492
2026-01-14 17:25:28.051,15258210,-19041480,52221630,26225610,-11376950,21557620,-52246100
2026-01-14 17:25:28.061,-34259110,-19101900,52213000,75501260,-1078125,3503418,-44677740
2026-01-14 17:25:28.071,15017390,12962180,20097130,26000330,-9682617,4284668,-45263670
2026-01-14 17:25:28.081,14909490,12935430,20072100,25901070,-8232422,5683594,-45214840
2026-01-14 17:25:28.091,-34673430,-19214110,52169840,75311360,-66015620,6928711,-40234380
2026-01-14 17:25:28.101,-53003660,-19231370,52152580,57050190,-51904300,80029300,-37109380
2026-01-14 17:25:28.111,-34889230,12864640,20004770,75216410,-40356440,81689460,-37670900
2026-01-14 17:25:28.121,-34984180,-1930046,5210081,75190510,-31201170,7480469,-3569336
2026-01-14 17:25:28.131,-35061860,12795590,19935720,75164620,-2487793,6098633,-3491211
2026-01-14 17:25:28.141,-53139170,12760200,19902050,57139090,-24560550,41674800,-3383789
2026-01-14 17:25:28.151,-35199970,12717040,19858890,75130100,-22436520,32177730,-27490230
2026-01-14 17:25:28.161,14411440,12665260,19807100,25449630,-19970700,20898440,-23937990
2026-01-14 17:25:28.171,-3529490,-34098570,37337170,7512145,-9613037,11468510,-21264650
2026-01-14 17:25:28.181,-35329440,-19576640,51859100,75121460,4034424,5328369,-21862790
2026-01-14 17:25:28.191,-5503521,15740810,16455340,5543297,23950200,81726070,-23840330
2026-01-14 17:25:28.201,19823510,-19688850,51798680,19933990,39404300,23815920,-26123050
2026-01-14 17:25:28.211,-3538984,-19749270,51755520,7511283,56396480,46557620,-27294920
2026-01-14 17:25:28.221,-35407130,12374370,19528300,75112830,7001953,71191410,-18396000
2026-01-14 17:25:28.231,14308730,12302720,19461840,25362450,91308590,83691410,-23339840
2026-01-14 17:25:28.241,-35476180,12222450,19386740,75095570,11103520,8413086,-32128910
2026-01-14 17:25:28.251,-53305760,-20137700,51591520,57265980,12460940,6411133,-5444336
2026-01-14 17:25:28.261,-3547618,12040320,19223600,7507831,12119140,32226560,-8466797
2026-01-14 17:25:28.271,-35441650,-20448440,51505200,75078300,10693360,-24795530,-10234380
2026-01-14 17:25:28.281,19780350,11802950,19012130,19890830,8276367,-36816410,-103125
2026-01-14 17:25:28.291,14348430,-20845490,51401620,25391790,6743164,-60302740,-10341800
2026-01-14 17:25:28.301,14402810,11519830,18760080,25441000,6142578,-74853520,-9291992
2026-01-14 17:25:28.311,14467550,11365320,18621110,25497100,6411133,-80810540,-70996100
2026-01-14 17:25:28.321,14558190,-21501500,51211720,25579100,81933590,-7680664,-46655270
2026-01-14 17:25:28.331,-34889220,-21725930,51159940,75216410,11210940,-73339840,-30249020
2026-01-14 17:25:28.341,-52965680,-21950350,51108150,57019110,15273440,-5878906,-19812010
2026-01-14 17:25:28.351,-52896630,10768870,18095440,56967320,19365230,-36645510,-16259770
2026-01-14 17:25:28.361,19873830,10592790,17943520,20971260,23164060,-1665039,-10211180
2026-01-14 17:25:28.371,14967320,10397710,17776070,25929550,26347660,40740970,-43884280
2026-01-14 17:25:28.381,1496474,10181920,17594800,2591488,28027340,19091800,6640625
2026-01-14 17:25:28.391,14918990,-35887920,38620700,25857040,28691410,21984860,14477540
2026-01-14 17:25:28.401,14837850,9665749,17161500,25765550,28671880,11035160,16894530
2026-01-14 17:25:28.411,-34423110,-24574380,50866460,74750300,28027340,-41229250,19482420
2026-01-14 17:25:28.421,14527970,-36702740,39273260,25436680,26523440,-23461910,19458010
2026-01-14 17:25:28.431,-34733860,-2573106,5079742,74266920,25234380,-4477539,14025880
2026-01-14 17:25:28.441,-3494965,8340788,16052330,7396483,2359375,-66503900,9710693
2026-01-14 17:25:28.451,13771840,-2703441,5070245,24656380,21582030,-7578125,17712400
2026-01-14 17:25:28.461,-35484810,-27716310,50642040,73291540,19746090,-8105469,24499510
2026-01-14 17:25:28.471,-52496120,-28415480,50581620,56211190,18300780,-7988281,2692871
2026-01-14 17:25:28.481,12806820,6713716,14675570,23670640,17246090,-7729492,30322270
2026-01-14 17:25:28.491,12465870,6302848,14326850,23321060,15849610,-7006836,38330080
2026-01-14 17:25:28.501,12124920,-30504340,50357190,22971470,15371090,-5727539,49194340
2026-01-14 17:25:28.511,-36986720,-3119490,5027089,71375310,15253910,-4033203,59521480
2026-01-14 17:25:28.521,11444740,-40119160,41950800,22270580,15224610,-2388916,71533200
2026-01-14 17:25:28.531,11113280,-32550040,50106870,21928770,17060550,-2133789,70166020
2026-01-14 17:25:28.541,1076548,42364260,125608100,2156885,20507810,-45684820,5966797
2026-01-14 17:25:28.551,10400310,3809157,12193970,21191620,20664060,13342290,6591797
2026-01-14 17:25:28.561,-38488630,71650670,80094180,69303720,19003910,18774410,7050781
2026-01-14 17:25:28.571,9608780,2913190,11415390,20377660,16962890,27001950,7524414
2026-01-14 17:25:28.581,9191873,63047480,71606650,19948660,15917970,33666990,72558590
2026-01-14 17:25:28.591,8765465,1984422,10600560,19511900,13984380,3395996,7285156
2026-01-14 17:25:28.601,8331293,-3750464,4919191,19065640,12714840,31323240,69921870
2026-01-14 17:25:28.611,7887626,49672700,58395870,18611620,12568360,26586910,69384770
2026-01-14 17:25:28.621,-40767390,567961,5,9341199,66368940,11279300,27514650,72021490
2026-01-14 17:25:28.631,-41164450,-43665920,44567060,65851040,93408200,28857420,7402344
2026-01-14 17:25:28.641,-41561510,-3780676,84918420,65350410,78271490,21911620,7421875
2026-01-14 17:25:28.651,-41949940,-40965930,48199280,64841140,6748047,9820557,70654300
2026-01-14 17:25:28.661,-42338360,27198400,36158090,64331870,6166992,25939940,71972660
2026-01-14 17:25:28.671,5221300,-1773810,7229027,15874510,3708496,26763920,72802740
2026-01-14 17:25:28.681,-4308931,18438980,27481520,6332197,14428710,995636,7602539
2026-01-14 17:25:28.691,-43443220,14191330,23270130,62829960,-38871760,-18188480,79003900
2026-01-14 17:25:28.701,-43788480,-30901400,60249090,62363850,36754610,-9088135,8852539
2026-01-14 17:25:28.711,3598545,6129352,15277200,14199970,26031490,-12158200,9946289
2026-01-14 17:25:28.721,3217026,2315015,11495660,13804640,9509277,-18005370,11396480
2026-01-14 17:25:28.731,28441360,-1324968,7885034,134179400,13049320,-2211914,12519530
2026-01-14 17:25:28.741,2471249,-4621399,4617946,13031240,97595220,-19799800,13857420
2026-01-14 17:25:28.751,2088868,-49865180,42787210,12636770,-8850098,-16796880,14765630
2026-01-14 17:25:28.761,1723745,-11464590,-2173456,12259570,-15026860,-1427002,15009770
2026-01-14 17:25:28.771,1358628,-56494310,36641460,11882360,-23278810,-12719730,14794920
2026-01-14 17:25:28.781,57236630,-17614660,-8280369,67750010,-17871090,-17663570,14375
2026-01-14 17:25:28.791,626658,5,-16436350,-15500850,11129680,-9112549,-20910640,14160160
2026-01-14 17:25:28.801,-46973570,-23504050,-14130050,57953060,-14819340,-10699460,14140630
2026-01-14 17:25:28.811,-1398336,-26446590,-17057050,103424700,-30200200,-43426510,13779300
2026-01-14 17:25:28.821,-523941,-49485390,44582600,9949729,-32470700,30937200,12714840
2026-01-14 17:25:28.831,-9166840,-7446550,1974065,95483580,-31201170,36376950,11728520
2026-01-14 17:25:28.841,33959600,-7728804,1703891,44416000,-45825200,10821530,10917970
2026-01-14 17:25:28.851,-17021660,-8002429,1442354,87456130,-7314453,22521970,9970703
2026-01-14 17:25:28.861,-20612440,-82656910,11877190,83796300,-8334961,26660160,86572260
2026-01-14 17:25:28.871,-49364540,-42451440,-32989400,54975130,-6796875,15600590,69091800
2026-01-14 17:25:28.881,-49683920,-44698270,-35231040,54603970,-7290039,20019530,64746100
2026-01-14 17:25:28.891,16107570,-89389620,5317112,26532900,-82177740,35083010,6191406
2026-01-14 17:25:28.901,-33905220,-9129726,342678,3,70330890,-7504883,3010254,46020510
2026-01-14 17:25:28.911,10153440,-50311440,-40839040,20575320,-6274414,19384770,27783200
2026-01-14 17:25:28.921,7391305,-52074890,42631840,17813190,-6381836,9716797,9118652
2026-01-14 17:25:28.931,4800072,-53329940,-43862710,15225410,-6821289,43945310,-19241330
2026-01-14 17:25:28.941,-44461750,-9711500,-249453,2,59826140,-5810547,-23895260,-8312988
2026-01-14 17:25:28.951,1346540,-98193940,-3659834,105686200,-57470700,27664180,-89416500
2026-01-14 17:25:28.961,26715900,-9900532,-457480,3,37158500,-75878900,19433590,-13977050
2026-01-14 17:25:28.971,7721896,-9972174,-541206,3,18173130,-8222656,33984380,-2064209
2026-01-14 17:25:28.981,-5233384,-10017920,-599037,8,5228205,-6513672,36743160,-23632810
2026-01-14 17:25:28.991,-23363360,-53986550,-53046210,-12889680,-4609375,35913090,-30371090
2026-01-14 17:25:29.001,-84374620,-100800700,-6922602,20500220,-32495120,35595700,-34472660
2026-01-14 17:25:29.011,-50998520,-101059600,-7354188,-40497230,-2861328,34350580,-40356440
2026-01-14 17:25:29.021,-58540020,-52221630,41311200,46628300,-30541990,3684082,-42944340
2026-01-14 17:25:29.031,-7777225,-10156890,-822598,-6723988,-35253900,3486328,-50146480
2026-01-14 17:25:29.041,-6112087,-52100790,41034980,4437542,-38476560,21228030,-59033200
2026-01-14 17:25:29.051,-14691110,-52040360,40905510,-4125943,-4580078,9039307,-66064450
2026-01-14 17:25:29.061,-10714500,-10230260,-956389,-9656254,-56152340,-3414154,-77001950
2026-01-14 17:25:29.071,-16003120,-5187636,4065519,-5403428,-640625,-3817749,-80371100
2026-01-14 17:25:29.081,-6405564,-46714620,45592500,4213119,-68603520,-40771480,-76953130
2026-01-14 17:25:29.091,-54293240,-51634680,40448030,52100780,-6645508,17504880,-6254883
2026-01-14 17:25:29.101,-6425416,-51496570,40361710,4232971,-7709961,6196289,-4338379
2026-01-14 17:25:29.111,-11409950,-10114600,-951210,5,-10341870,-10244140,13037110,-30493160
2026-01-14 17:25:29.121,-15880560,-10060220,-919272,8,-5180731,-12060550,18691410,-25854490
2026-01-14 17:25:29.131,-15112330,-51039090,40180440,-4395251,-10673830,18740230,-32080080
2026-01-14 17:25:29.141,-62294800,-58242230,-49135800,45031440,-74609380,13574220,-4658203
2026-01-14 17:25:29.151,-12709280,-50762880,40163180,-1964572,-4255371,7167969,-5732422
2026-01-14 17:25:29.161,-59817510,-9780552,-698299,6,47733160,-13293460,7611084,-64160160
2026-01-14 17:25:29.171,-10301900,-45888570,44847590,461792,5,34942630,-52246100,-6557617
2026-01-14 17:25:29.201,-39922350,-50512560,39878340,-29131040,-1463623,-11513670,-7421875
2026-01-14 17:25:29.211,-42516180,-58719560,-49694280,-31716230,-4506836,-8847656,12384030
2026-01-14 17:25:29.221,-47699500,-10056760,-1043567,-36890910,-90234380,-4375,31225590
2026-01-14 17:25:29.231,-10327800,-61469610,-52468500,487686,8,-14394530,18432620,49389650
2026-01-14 17:25:29.381,7552714,-113428800,-21397920,18169670,1328125,-6503906,11773680
2026-01-14 17:25:29.391,7739156,-74960050,-65736240,18328490,17919920,-8305664,4658203
2026-01-14 17:25:29.421,4155287,-130286500,-37513260,14661760,36224360,-13134770,2607422
2026-01-14 17:25:29.431,-44979660,-13594030,-4308066,59826140,-13222660,-12236330,-8856201
2026-01-14 17:25:29.441,469563,5,-14166300,-4875170,10924250,-22578120,-11826170,-3671875
2026-01-14 17:25:29.451,37079080,-56546100,36399770,47511320,-25644530,-12011720,-3059082
2026-01-14 17:25:29.461,2500596,-5707264,3590777,3541576,-24804690,-11855470,-8203125
2026-01-14 17:25:29.471,13796010,-15724320,-6424556,24183360,-22167970,-10810550,3100586
2026-01-14 17:25:29.481,-51823970,-58048010,34966920,51825170,-22558590,-9326172,51171880
2026-01-14 17:25:29.491,-5172702,-58505490,34509430,5171493,-2609375,-72509770,48779300
2026-01-14 17:25:29.501,-68889390,-17088130,-7788357,34362700,-29785160,-45483400,27246090
2026-01-14 17:25:29.511,-78289290,-17510220,-8212171,24772910,-32890620,-29248050,113220200
2026-01-14 17:25:29.521,-54819760,-59722560,33223320,48087060,-32871090,-29248050,647583
2026-01-14 17:25:29.531,-44843280,-60059190,32834890,-34568140,-31503910,-35302740,-1864624
2026-01-14 17:25:29.541,-46261020,-18590040,-9307532,-45234720,-29628910,-19165040,-10601810
2026-01-14 17:25:29.551,-56053230,-6064613,3209259,-45800530,-27539060,15002440,-30273440
2026-01-14 17:25:29.561,-104736700,-19219290,-9955770,-2296028,-26074220,37158200,-5566406
2026-01-14 17:25:29.571,-59497270,-61146780,31402030,-49261830,-23027340,34326170,-68310540
2026-01-14 17:25:29.581,-10379590,-19763080,-10516830,-151055,2,-18613280,16821290,-70947260
2026-01-14 17:25:29.591,-10030870,-20008220,-10772330,190759,3,-15732420,-46691900,-7402344
2026-01-14 17:25:29.601,-49992930,-6175098,3052162,-39776480,-14628910,-13435360,-83691410
2026-01-14 17:25:29.611,-44811340,-61923630,30279920,-34600070,-14033200,-108947800,-98535150
2026-01-14 17:25:29.621,-36177070,-6207899,3003824,-25970980,-13164060,-3293457,-11621090
2026-01-14 17:25:29.631,-26679640,-2079629,-1158974,-16478730,-12080080,-5649414,-12841800
2026-01-14 17:25:29.641,-60473510,-6233798,2965846,41483830,-10791020,-7988281,-1234375
2026-01-14 17:25:29.651,-5096142,-21066460,-11872010,5097867,-10712890,-10126950,-10429690
2026-01-14 17:25:29.661,7851372,-4759506,4428049,18043650,-12939450,-1125,-8876953
2026-01-14 17:25:29.671,-2593819,-21232190,-12051540,7600189,-15849610,-1109375,-7368164
2026-01-14 17:25:29.681,-12999300,-21272770,-12097290,88958040,-17675780,-11035160,-62402340
2026-01-14 17:25:29.691,45826420,-21261540,-12091250,56027340,-20898440,-10966800,-69873050
2026-01-14 17:25:29.701,1457026,-21208890,-12040320,11663120,-24375,-1078125,-84033200
2026-01-14 17:25:29.711,-50227720,-62346590,29321800,51902260,-28867190,-96240230,-9736328
2026-01-14 17:25:29.721,5591598,-20906780,-11738210,15814950,-27871090,-1046875,-7661133
2026-01-14 17:25:29.731,8262240,-61932260,29805170,18495950,-20273440,-14394530,-20922850
2026-01-14 17:25:29.741,-35277660,-20358670,-11181470,67214850,-9169922,-18662110,5957031
2026-01-14 17:25:29.751,12648860,-20047930,-10870730,22913640,-1842041,-19951170,11083980
2026-01-14 17:25:29.761,-32774470,-19744960,-10569490,70063300,-22998050,-15244140,12558590
2026-01-14 17:25:29.771,-32627730,-19473920,-10305360,70434460,-7055664,-9423828,9892578
2026-01-14 17:25:29.781,13825350,-19202020,-10042090,24154020,-11054690,-48999020,5332031
2026-01-14 17:25:29.791,13900450,-18930130,-9778824,24251550,-11074220,-56640620,21264650
2026-01-14 17:25:29.801,13889230,-59791610,31652350,24262770,-83154300,-78759770,12512210
2026-01-14 17:25:29.811,13705370,-59437710,31937190,24101360,-53808590,-9404297,619812
2026-01-14 17:25:29.821,13348020,-5905793,3224793,23768180,-5288086,-9248047,-8190918
2026-01-14 17:25:29.831,-34103740,-17612940,-8489251,70356780,-6928711,-81884770,-32788090
2026-01-14 17:25:29.841,12458960,-58237910,32912570,22930900,-8276367,-7290039,-5209961
2026-01-14 17:25:29.851,12099020,-5776318,3328373,22600310,-8178711,-47583010,-53564450
2026-01-14 17:25:29.861,16477780,-57245260,33680790,17531010,-6479492,-16821290,-36865230
2026-01-14 17:25:29.871,11549180,-56692840,34112380,22114350,-31103520,12243650,-14038090
2026-01-14 17:25:29.881,-3633936,-15297050,-6230343,6965761,14160160,28833010,46447750
2026-01-14 17:25:29.891,-52996750,-14746360,-5693451,53328210,5258789,3815918,16003420
2026-01-14 17:25:29.901,-51695100,-10127890,-9224323,54975130,6665039,39404300,13769530
2026-01-14 17:25:29.911,-37193880,-54232820,35933660,69821620,6147461,2553711,-3591919
2026-01-14 17:25:29.921,10859510,-13129640,-4133709,21595590,51123050,18981930,-21813960
2026-01-14 17:25:29.931,-3745283,-52981220,36770940,7025318,2211914,30838010,-37451170
2026-01-14 17:25:29.941,16377910,-80263350,-71308860,17458250,-12275700,-17114260,-5185547
2026-01-14 17:25:29.951,12364010,-114844400,-25506600,23198480,-25585940,-29736330,-58203120
2026-01-14 17:25:29.961,-35251760,-50995940,38117480,73403760,-30859380,-44970700,-5756836
2026-01-14 17:25:29.971,15267710,-45028860,43860130,26164330,-3696289,-5644531,-46166990
2026-01-14 17:25:29.981,1706568,-9655391,-788935,2799165,-2861328,-6459961,-3395996
2026-01-14 17:25:29.991,-3017633,-90045630,-1622756,7937684,-1730957,-49560550,-2500534
2026-01-14 17:25:30.001,21093220,-43854950,-35038560,32077890,86364740,-2800293,3930664
2026-01-14 17:25:30.011,23151020,-47258420,40646560,34163300,47216800,-15393070,7060547
2026-01-14 17:25:30.021,-52152580,-70650260,16961240,58246540,81689460,11981200,10927730
2026-01-14 17:25:30.031,26489750,-25167370,-16437300,37557280,11396480,45776370,13818360
2026-01-14 17:25:30.041,-55451260,-58591810,28380950,55517550,15625,8198242,16142580
2026-01-14 17:25:30.051,33366340,-13999710,-5335239,34478620,14140630,125,17587890
2026-01-14 17:25:30.061,-21397920,-8717132,-87179,06,90106050,14257810,18115230,18730470
2026-01-14 17:25:30.071,-20914550,-42982290,42989200,90831100,16113280,16972660,16933590
2026-01-14 17:25:30.081,-20681490,-37832630,47845370,91288590,19414060,16015630,14423830
2026-01-14 17:25:30.091,-5254098,-33637630,51764150,5963622,20292970,12929690,11513670
2026-01-14 17:25:30.101,29513420,-29977800,55182290,40748410,17724610,11337890,8598633
2026-01-14 17:25:30.111,28987760,-26671870,58263800,40238280,13955080,11035160,6948242
2026-01-14 17:25:30.121,28462950,-23728470,61017300,39727280,10068360,10302730,54589840
2026-01-14 17:25:30.131,-2279622,-20966340,63606810,8995067,81152340,9355469,47045900
2026-01-14 17:25:30.141,-53093420,-18290520,66110000,59757080,77441410,71777340,39208980
2026-01-14 17:25:30.151,2741249,22286120,30712360,3870616,76660160,76416020,31396480
2026-01-14 17:25:30.161,-53222900,-13146040,70978260,59800240,7167969,95214850,26098630
2026-01-14 17:25:30.171,-2357307,-10668750,73334700,8951909,76416020,1015625,17614750
2026-01-14 17:25:30.181,-2325369,-8191456,75691150,8989025,9790039,99853520,7611084
2026-01-14 17:25:30.191,-22761730,-589547,3,7788361,90434050,12880860,8041992,-17181400
2026-01-14 17:25:30.201,28778870,33968230,42335780,40101900,15517580,5415039,-89538580
2026-01-14 17:25:30.211,-21492870,35870640,44231290,91754700,18369140,28198240,-13208010
2026-01-14 17:25:30.221,-2098358,-37608200,45929140,9228121,19199220,-66589360,-19006350
2026-01-14 17:25:30.231,-2047432,38637960,46988240,9280778,18398440,-38183590,-21008300
2026-01-14 17:25:30.241,30761560,-37357890,46110400,42089770,17822270,-5371094,-21472170
2026-01-14 17:25:30.251,30935060,-37314730,46170830,42261540,16357420,-43139650,-1361084
2026-01-14 17:25:30.261,31109420,287433,8637715,42432450,14492190,-28735350,17044070
2026-01-14 17:25:30.271,-19740640,293472,8,8648938,93455140,13300780,-1607666,17333980
2026-01-14 17:25:30.281,31372690,272759,3,8635126,42687080,15,-12414550,3701172
2026-01-14 17:25:30.291,-19334950,4009409,4846686,93739980,18535160,-25512700,4819336
2026-01-14 17:25:30.301,31380460,39397550,47782360,42679320,21757810,-33496090,5620117
2026-01-14 17:25:30.311,-5280857,38352260,46756060,6007648,21816410,-26171880,5883789
2026-01-14 17:25:30.321,29579890,-3803118,4623124,40854580,18544920,2519226,68066410
2026-01-14 17:25:30.331,-22640880,-315060,5,8135355,89967940,14580080,3095703,77246100
2026-01-14 17:25:30.341,31288610,32618240,41096270,32413150,10712890,4267578,8222656
2026-01-14 17:25:30.351,-5314521,30186690,38694070,5913562,79785150,52001950,8642578
2026-01-14 17:25:30.361,-2800112,-10841380,74543140,8410703,6904297,5415039,89941410
2026-01-14 17:25:30.371,-29891480,-13672570,72022690,82026800,46142580,62939450,10
2026-01-14 17:25:30.381,-31868140,22198940,30799540,79860260,31396480,7944336,10175780
2026-01-14 17:25:30.391,-3374984,19422130,28052080,7777140,20471190,91845700,9526367
2026-01-14 17:25:30.401,14373470,16557280,25220030,25504870,6854248,10615230,87109380
2026-01-14 17:25:30.411,-37685900,13693290,22387110,73421020,-19055180,11298830,87890620
2026-01-14 17:25:30.421,10508200,-28579480,58617700,21601630,-17871090,10478520,7807617
2026-01-14 17:25:30.431,8876814,7711537,16457150,19952980,39886480,90966800,5732422
2026-01-14 17:25:30.441,7418062,4765547,13533600,18476960,42510980,85595700,4182129
2026-01-14 17:25:30.451,6217397,-37651370,50253610,17260760,-12634280,61279300,1907959
2026-01-14 17:25:30.461,5276545,-40698350,47431050,16302640,44384770,5644531,-14514920
2026-01-14 17:25:30.471,4680959,-44176910,44176910,15689790,3972168,5083008,-1751709
2026-01-14 17:25:30.481,4516955,-7967037,889062,15508530,29956060,12548830,-33325200
2026-01-14 17:25:30.491,-44867440,-11515520,-2640428,64892930,26416020,-15002440,-49243160
2026-01-14 17:25:30.501,4791442,-14890500,-5998151,15751940,3076172,-12902830,-5805664
2026-01-14 17:25:30.511,-5461433,-5827244,3082372,5483530,1854248,-29785160,-7548828
2026-01-14 17:25:30.521,-42476470,-21380660,-12455500,66817790,25439450,-46484380,-84033200
2026-01-14 17:25:30.531,-4093139,-64728930,24677960,6820746,3059082,-42919920,-8461914
2026-01-14 17:25:30.541,14732970,-67810430,21717290,15823150,4873047,-28466800,-7963867
2026-01-14 17:25:30.551,-37357880,-26602050,-25705900,71539310,81347660,12890630,-65185550
2026-01-14 17:25:30.561,13377370,-33745530,-24777220,24256730,11376950,7392578,-38793940
2026-01-14 17:25:30.571,14763620,-77503810,12248350,25632620,14365230,10908200,-1694336
2026-01-14 17:25:30.581,-33154260,-81327640,8476302,75449460,1765625,14794920,11431890
2026-01-14 17:25:30.591,15981540,-41277100,-40378540,26831560,17900390,16806640,3515625
2026-01-14 17:25:30.601,15556000,-50328700,-41339680,26393930,153125,17636720,48266600
2026-01-14 17:25:30.611,14526240,-55769250,-46775050,25352090,11123050,15390630,46264650
2026-01-14 17:25:30.621,-35761030,-50693830,39282760,72359330,5654297,12626950,3894043
2026-01-14 17:25:30.631,-3759093,-51298040,38695800,7039129,24032590,11054690,4116211
2026-01-14 17:25:30.641,-39420860,-51885000,38108850,68423290,-4375,72216800,40673830
2026-01-14 17:25:30.651,-41086770,-52437420,37539160,66636530,-8286133,5517578,3173828
2026-01-14 17:25:30.681,3261048,-53870280,35933660,14002300,-13012700,-26757810,2397461
2026-01-14 17:25:30.691,-46585150,-13938430,-4964936,60741090,25878910,-3876953,34814450
2026-01-14 17:25:30.701,-48337380,-54785240,34863340,58868020,20080570,-5751953,3408203
2026-01-14 17:25:30.711,-1988738,-14956100,-6001604,8721443,-16870120,-47558590,3173828
2026-01-14 17:25:30.721,-3709895,-15467960,-6525546,6989930,-67578130,-3112793,2602539
2026-01-14 17:25:30.731,-53453370,-56123150,33162890,53458550,-10,50086980,47924800
2026-01-14 17:25:30.741,-53422030,-56502940,32610470,53420820,-92529300,7739258,6791992
2026-01-14 17:25:30.751,-18288790,-16823130,-7932509,-7606233,-87402340,42260740,97802740
2026-01-14 17:25:30.761,-23467800,-17200340,-8332155,-12785240,-56152340,8066406,1203125
2026-01-14 17:25:30.771,-76735580,-57348850,31074030,30124540,-41259770,8442383,11796880
2026-01-14 17:25:30.781,-34692420,-13966570,-13085100,-24002960,-69873050,3334961,6381836
2026-01-14 17:25:30.791,-42462660,-18306920,-9521598,-31769740,-13408200,-41748050,-22961430
2026-01-14 17:25:30.801,-58229280,-18672040,-9916066,48734440,-21679690,-7392578,-95947260
2026-01-14 17:25:30.811,-11305770,-19030250,-10300180,-605944,2,-33203120,-49023440,-13476560
2026-01-14 17:25:30.821,-12255250,-19346170,-10640260,-1555428,-46328120,-23208620,-16660160
2026-01-14 17:25:30.831,-60559830,-58704020,28199680,46403880,-57578120,34301760,-19277340
2026-01-14 17:25:30.841,-11303180,-19749270,-11065810,-608533,7,-60820310,27612300,-20175780
2026-01-14 17:25:30.851,-56994950,-58859390,27992520,49916970,-58476560,-3036499,-18867190
2026-01-14 17:25:30.861,-5344732,-58816230,28139260,5344731,-54101560,-46020510,-16933590
2026-01-14 17:25:30.871,-683629,-19486000,-10776650,10005840,-48867190,-9707031,-13505860
2026-01-14 17:25:30.881,50124130,-58470970,28778000,157036000,-44179690,-13125,-9189453
2026-01-14 17:25:30.891,-36650090,-18853310,-10114590,70313620,-38574220,-17978520,-58447260
2026-01-14 17:25:30.901,-29606640,-18437260,-9684738,77426120,-30058590,-24882810,-32666020
2026-01-14 17:25:30.911,25805260,-14024490,-13148030,36515440,-20585940,-31152340,-9613037
2026-01-14 17:25:30.921,-1507954,-17481730,-8706770,9207406,-11660160,-37324220,-6286621
2026-01-14 17:25:30.931,-7768508,-56511580,31324350,99436900,-60498050,-43710940,-20605470
2026-01-14 17:25:30.941,-48346010,-56071360,31833620,58911180,-43530270,-49257810,-28735350
2026-01-14 17:25:30.951,59108410,-16041110,-7247157,60181330,-44067380,-50742190,-44799800
2026-01-14 17:25:30.961,-47008100,-55156400,32800360,60300880,-51416020,-51171880,-5883789
2026-01-14 17:25:30.971,19455790,-15119250,-6321840,126764800,-54833980,-53203120,-6694336
2026-01-14 17:25:30.981,7439209,-14653130,-5855728,8512126,-58447260,-5328125,-47314450
2026-01-14 17:25:30.991,3267953,-53766700,34190060,13995390,-7788086,-51054690,-40454100
2026-01-14 17:25:31.001,-52698100,-5327472,3466483,54559090,-77978510,-4703125,-4814453
2026-01-14 17:25:31.011,4617085,-52756800,35130920,15339350,-6791992,-434375,-45751950
2026-01-14 17:25:31.021,-52535820,-52204370,35562500,54669580,-13525390,-38808590,-35327150
2026-01-14 17:25:31.031,6041309,-12155990,-3398290,16763580,-16386720,-35078120,11584470
2026-01-14 17:25:31.041,6782769,-5085784,3649472,17506760,-71533200,-28066410,14003910
2026-01-14 17:25:31.051,-52377860,-10929430,-2225244,54948380,34472660,-20566410,30839840
2026-01-14 17:25:31.061,8124129,-63801890,-55142590,18875740,14208980,-10166020,48789060
2026-01-14 17:25:31.071,-3986107,-9585474,-979694,8,6794854,27285160,86328130,6609375
2026-01-14 17:25:31.081,9049446,-8875088,-326277,3,19866660,41132810,30058590,79765620
2026-01-14 17:25:31.091,-39515810,-82000910,2934770,69018870,57734380,43789060,79726560
2026-01-14 17:25:31.101,-39541700,-38319460,-29870770,69338240,71367180,4375,61914060
2026-01-14 17:25:31.111,14317440,-4504009,3904969,15410040,74570310,36621100,33945310
2026-01-14 17:25:31.121,9172881,-6906204,1468247,20140290,73007810,29550780,5776367
2026-01-14 17:25:31.131,8753380,-30066710,-21723340,19765670,67421870,20117190,-14775390
2026-01-14 17:25:31.141,-41647830,-30052040,-21738010,68992980,540625,1453125,-25
2026-01-14 17:25:31.151,7361955,-31246660,-22960260,18481280,3703125,11132810,-26582030
2026-01-14 17:25:31.161,6504830,-32958320,-24701260,17681120,17724610,12460940,-21953120
2026-01-14 17:25:31.171,-44884700,-7169472,1058245,67430640,16540530,17441410,-16630860
2026-01-14 17:25:31.181,4890706,-35950060,-27751700,16170580,-8203125,21777340,-15751950
2026-01-14 17:25:31.191,-46723260,-73291550,8381357,66524320,-13330080,24121090,-18798830
2026-01-14 17:25:31.201,3736653,-73058500,8320932,15097660,-16708980,22773440,-28046880
2026-01-14 17:25:31.211,-47923060,-35906900,-27794850,66015050,-17568360,20214840,-35234380
2026-01-14 17:25:31.221,-48328750,-35029060,-26946360,65902840,-18066410,17607420,-35488280
2026-01-14 17:25:31.231,2897652,-30268260,-29462930,14348430,-16396480,1453125,-32519530
2026-01-14 17:25:31.241,2817377,-32323900,-24299890,14290600,-12636720,13701170,-28046880
2026-01-14 17:25:31.251,854831,7,-30412840,-22413010,866321,9,-53759770,12441410,-26738280
2026-01-14 17:25:31.261,-4876032,-64159230,15649220,6626534,18234250,10771480,-25332030
2026-01-14 17:25:31.271,-48596320,-3982278,3977858,66515680,4140625,79296870,-22832030
2026-01-14 17:25:31.281,-48432330,-59808880,19585270,66783260,61328120,46679690,-19003910
2026-01-14 17:25:31.291,3616671,-22256770,-14341530,15148590,71777340,15319820,-15556640
2026-01-14 17:25:31.301,-4817336,-41138560,37806730,6724936,98339840,4800415,-12958980
2026-01-14 17:25:31.311,3855769,-19473060,-11600970,15410130,12109380,-37231440,-10839840
2026-01-14 17:25:31.321,-48164740,-18772170,-10920790,67516950,9057617,-23208620,-81640620
2026-01-14 17:25:31.331,3892887,-53645860,24643430,15476590,4855957,-12805180,-7089844
2026-01-14 17:25:31.341,3848865,-53162480,24850590,15451560,20922850,-40014650,-5888672
2026-01-14 17:25:31.351,-4855318,-18042790,-10269100,6768096,-4034424,-70947260,-37036130
2026-01-14 17:25:31.361,3602862,-52894900,24583010,15248710,-3569336,-69677740,-17236330
2026-01-14 17:25:31.371,3426776,-52661840,24522590,15096800,-75878900,-44726560,11102300
2026-01-14 17:25:31.381,3233427,-39843810,37064410,14927620,-8652344,-25952150,29345700
2026-01-14 17:25:31.391,3032308,-5196269,2468659,14748940,-12255860,-3557129,15246580
2026-01-14 17:25:31.401,81136880,-51056360,25333960,92877680,-12685550,-10406490,25048830
2026-01-14 17:25:31.411,2655103,-12378600,-11617460,14418350,-13408200,-11187740,17895510
2026-01-14 17:25:31.421,7792073,-48803490,27051670,8970637,-14726560,1505127,19348140
2026-01-14 17:25:31.431,-50788780,-13360970,-5801347,67275270,-12871090,3310547,18261720
2026-01-14 17:25:31.441,22183400,-4596373,2939084,140437300,-12109380,15197750,-2633667
2026-01-14 17:25:31.451,-51177200,-6856591,-6781456,67249380,-11513670,-11126710,-20983890
2026-01-14 17:25:31.461,7356864,-42726790,32196150,8542680,-8144531,-43066410,-31347660
2026-01-14 17:25:31.471,19360850,-40852860,-33379550,138080900,-4873047,-7441406,-32177730
2026-01-14 17:25:31.481,-51643300,-25308930,-17849440,67197580,-11279300,-88183590,-16137700
2026-01-14 17:25:31.491,1735830,-3725172,3723963,13628550,2487793,-92529300,-11383060
2026-01-14 17:25:31.501,69750830,-3721464,3722493,81648740,6015625,-11064450,-33569340
2026-01-14 17:25:31.511,-5210078,10951870,18395820,6693001,53466800,-11855470,-47851560
2026-01-14 17:25:31.521,1272310,17854620,25303750,13177120,4255371,-10214840,-50634770
2026-01-14 17:25:31.531,64137660,22165270,29624770,76040740,55126950,-8979492,-4609375
2026-01-14 17:25:31.541,8087876,25611040,33084340,127084100,6777344,-79052740,-34301760
2026-01-14 17:25:31.551,58704880,25599820,33095560,70597600,10019530,-8383789,-36572260
2026-01-14 17:25:31.561,-53274690,22133340,29656710,65548930,12900390,-10078130,-5341797
2026-01-14 17:25:31.571,-53628590,15212460,22766910,65074190,14169920,-10878910,-60253900
2026-01-14 17:25:31.581,-54034280,-30193600,45730620,64513130,76416020,-59814450,-55029300
2026-01-14 17:25:31.591,-54465860,-38164950,38156320,63908920,8033752,28076170,-5097656
2026-01-14 17:25:31.601,-17056190,-57357480,19378110,101128700,-69628900,8989258,-46118160
2026-01-14 17:25:31.611,31476260,-34932390,-27215670,43274030,-13974610,12744140,-39160160
2026-01-14 17:25:31.621,-25118170,-42683630,34915120,92617870,-14589840,12373050,-45288090
2026-01-14 17:25:31.631,-55674300,-82164910,-4151834,61820050,-11591800,77490230,-6645508
2026-01-14 17:25:31.641,-3091005,-48806940,-40962470,8632536,-10205080,40893560,-7260742
2026-01-14 17:25:31.651,-56019570,-84322830,-5446578,60939620,-9848633,30200200,-83154300
2026-01-14 17:25:31.661,15657860,-45281240,-44488160,27327880,-15996090,4560547,-98583980
2026-01-14 17:25:31.671,12737760,-47147070,-39169680,24378440,-19453120,6201172,-11699220
2026-01-14 17:25:31.681,9903984,-43995640,36227130,21515310,-20175780,5883789,-13378910
2026-01-14 17:25:31.691,-44867440,-43624490,37064420,70935100,-19072270,69433590,-13720700
2026-01-14 17:25:31.701,-47232520,-29950190,-21839860,68293810,-21152340,76171870,-14492190
2026-01-14 17:25:31.711,-4926097,-21337500,-13189200,6600641,-23847660,12128910,-14482420
2026-01-14 17:25:31.721,981421,5,-4091242,4089860,12483990,-26230470,15527340,-14804690
2026-01-14 17:25:31.731,-57354020,-4101775,4110406,57464510,-25566410,18251950,-15087890
2026-01-14 17:25:31.741,-52575530,-25644700,56718730,62070370,-24589840,20996090,-1578125
2026-01-14 17:25:31.751,40023340,-1626210,6632578,51472400,-20292970,19619140,-17353520
2026-01-14 17:25:31.761,-798428,26936000,35212050,10638540,-16103520,12236330,-16982420
2026-01-14 17:25:31.771,47803940,-38169270,44729340,59228820,-14150390,40795900,-14365230
2026-01-14 17:25:31.781,5212412,-38488640,44530800,6354033,-15253910,73791500,-12333980
2026-01-14 17:25:31.791,769085,-15666490,67456540,12178430,-14628910,-9082031,-10546880
2026-01-14 17:25:31.801,-49778860,-20871390,62303430,64280080,-121875,-25439450,-7861328
2026-01-14 17:25:31.811,2411692,-26913560,56261260,13815860,-14902340,-27001950,-45507810
2026-01-14 17:25:31.821,-47707260,3610627,11926390,66351680,-17626950,-25390620,-25634770
2026-01-14 17:25:31.831,-5693625,-4150973,4159604,5715722,-16611330,-15466310,11022950
2026-01-14 17:25:31.841,12549330,-41498500,41503680,13690960,-10341800,-24438480,5048828
2026-01-14 17:25:31.851,9306671,-4144068,4144067,20731560,-6767578,-5625,6425781
2026-01-14 17:25:31.861,-4052571,-4138025,4131120,7384397,-10136720,-50628660,86035150
2026-01-14 17:25:31.871,-39161900,-49822020,32558670,75414940,-16152340,5546875,10097660
2026-01-14 17:25:31.881,14281100,-17044110,-8850920,25769860,-20742190,55566410,13310550
2026-01-14 17:25:31.891,-55372190,-5451768,2689632,59860660,-17822270,-13757320,11816410
2026-01-14 17:25:31.901,1907688,-50754250,30038230,3064156,-14140630,-9857178,14716800
2026-01-14 17:25:31.911,-3055613,-16097210,-8071478,8545357,-15166020,-14794920,93652340
2026-01-14 17:25:31.921,-28847060,-48475490,31212130,87542450,-625,-11904300,12490230
2026-01-14 17:25:31.931,-27500520,-12583260,-4680092,89303300,-23352050,-98339840,16484380
2026-01-14 17:25:31.941,26245470,-50374460,27932100,37974190,-31030270,-13564450,13642580
2026-01-14 17:25:31.951,-2602449,-40387610,37107570,9179784,-7963867,-11191410,14326170
2026-01-14 17:25:31.961,-55881460,-60715200,15830500,62545110,-10498050,-7973633,14423830
2026-01-14 17:25:31.971,-25869130,-4052575,3500145,93196190,-10019530,-9863281,11347660
2026-01-14 17:25:31.981,-2639567,-35658310,-28216080,9337744,-85253900,-62841800,14326170
2026-01-14 17:25:31.991,-2727609,-6943319,383246,3,9322208,-62939450,-61865230,16640630
2026-01-14 17:25:32.001,26047800,-67085380,4937319,38171850,-53222660,-6439209,20820310
2026-01-14 17:25:32.011,-57935800,-276219,9,-276207,5,64081550,10068360,22668460,22304690
2026-01-14 17:25:32.021,22948170,-60577100,8787042,35229320,13173830,-27490230,22382810
2026-01-14 17:25:32.031,-35130910,-24115180,-17316870,88474660,20976560,19506840,24609380
2026-01-14 17:25:32.041,17604300,-4710306,1948168,30042540,29101560,4794922,26132810
2026-01-14 17:25:32.051,-42122570,-11027830,-4509186,83036700,35625,6923828,28125
2026-01-14 17:25:32.061,-4628303,-31913030,31909580,7960129,3796875,5151367,25429690
2026-01-14 17:25:32.071,-51030460,-31236310,31239760,75544420,42265620,640625,22714840
2026-01-14 17:25:32.081,1061698,-30569070,30577710,13784780,43984380,765625,22519530
2026-01-14 17:25:32.091,-40612030,-2993727,2994934,87223070,41640620,25268560,16953120
2026-01-14 17:25:32.101,-9440462,-292700,3,294081,6,3398290,41289060,7232666,15292970
2026-01-14 17:25:32.111,-9189883,-19283160,38272840,-7900833,40117190,-30664060,11601560
2026-01-14 17:25:32.121,-79005720,-17004400,39446760,50348560,40742190,-2175293,10761720
2026-01-14 17:25:32.131,-85082420,-14768800,40663820,44686180,40820310,-5288086,9580078
2026-01-14 17:25:32.141,-26804630,11949690,17398000,-25503320,42539060,-59228520,8613281
2026-01-14 17:25:32.151,-38718240,-11264340,42338360,-25674050,43710940,-5229492,89160160
2026-01-14 17:25:32.161,-69174230,-11739080,41086770,61509310,40351560,-10791020,5761719
2026-01-14 17:25:32.171,-11015740,-13111510,39006540,2073328,4046875,-10107420,4724121
2026-01-14 17:25:32.181,-116795200,-17107980,34371330,14250890,39296880,-9760742,32202150
2026-01-14 17:25:32.191,-71358060,-25451360,25458260,59808870,33066410,-13359380,15930180
2026-01-14 17:25:32.201,-12983760,-2522175,2518723,139833,4,31640620,-12207030,-24490360
2026-01-14 17:25:32.211,-136156000,-32757200,17220200,-4885533,31542970,-12734380,-52948000
2026-01-14 17:25:32.221,-14220680,-40327180,9253154,-1091909,32910160,-10761720,96,85755
2026-01-14 17:25:32.231,-14805910,-50529820,-1260224,-1680589,25820310,-15234380,-21862790
2026-01-14 17:25:32.241,-6560160,-28044310,20966340,6559983,27402340,-96435540,-26831060
2026-01-14 17:25:32.251,-10064100,-29062850,19740640,-8752950,25273440,-92041020,-47924800
2026-01-14 17:25:32.261,-16502900,-30020970,18627160,-3401745,25078120,-53564450,-4411621
2026-01-14 17:25:32.271,-17014760,-31177610,17366930,-3925687,22890620,-15209960,-56152340
2026-01-14 17:25:32.281,-7632989,-25092280,23417730,5440544,19052730,19335940,-5332031
2026-01-14 17:25:32.291,-17947840,-34017430,14509840,-4891571,11689450,27197270,-80371100
2026-01-14 17:25:32.301,-12529050,-25420280,23176040,-11225320,52490230,7294922,-90966800
2026-01-14 17:25:32.311,-7741748,-36857250,11825390,5276541,-6069336,11865230,-8408203
2026-01-14 17:25:32.321,-7777139,-3817790,1055654,5218711,-1421875,19003910,-51660160
2026-01-14 17:25:32.331,-78082130,-17547330,-12663530,51686470,-28515620,20742190,-12529300
2026-01-14 17:25:32.341,-66173010,-40120020,8700732,63474740,-51835940,16542970,-165625
2026-01-14 17:25:32.351,-20179130,-39541700,9158207,-7217809,-52226560,21542970,-15166020
2026-01-14 17:25:32.361,-78660450,-38644010,9814218,50987300,-49570310,24707030,-14082030
2026-01-14 17:25:32.371,-78807180,-37332000,10746440,50944140,-48828120,22910160,-12617190
2026-01-14 17:25:32.381,-7893666,-35890500,11721810,5097002,-459375,23691410,-1078125
2026-01-14 17:25:32.391,-20505410,-13141720,-8437461,-7495745,-42578120,25722660,-12246090
2026-01-14 17:25:32.401,-79161090,-32601840,13784790,51177200,-39648440,25039060,-12128910
2026-01-14 17:25:32.411,-79290570,-10309670,-5745239,51341200,-35058590,25800780,-11787110
2026-01-14 17:25:32.421,-20478650,-29131900,15666490,-7384398,-2859375,290625,-10761720
2026-01-14 17:25:32.431,-20400960,-75458100,-31574660,-7272190,-24179690,27871090,-83496100
2026-01-14 17:25:32.441,-20298250,-62035850,-19101900,-7133218,-21464840,22109380,-7314453
2026-01-14 17:25:32.451,-20212790,-2372847,1820421,-7011509,-17841800,16425780,-453125
2026-01-14 17:25:32.461,-79704890,-35130920,5783226,52670480,-13740230,12285160,-27246090
2026-01-14 17:25:32.471,-79808460,-19940900,19937440,52912160,-1046875,921875,-8648682
2026-01-14 17:25:32.481,-20048790,7552716,11436970,-6743927,-6464844,6279297,413208
2026-01-14 17:25:32.491,-80050140,3538984,41345720,53309220,-3503418,27416990,28125
2026-01-14 17:25:32.501,-20052240,-15027750,21760450,-6688686,49658200,24368290,40551760
2026-01-14 17:25:32.511,-80334990,-13499940,22304250,53559540,8754883,-72265620,42138670
2026-01-14 17:25:32.521,-8048170,36952200,71806900,5367176,12070310,-30297850,42797850
2026-01-14 17:25:32.531,-80602580,4603270,7998977,53758070,13183590,-5957031,15344240
2026-01-14 17:25:32.541,-14146800,6825929,7157385,-12801290,15175780,-10205080,-60638430
2026-01-14 17:25:32.551,-20286160,6062889,9301493,-6817298,16044920,-12128910,-23999020
2026-01-14 17:25:32.561,-20387150,-15045010,16685030,-6906203,17353520,-13847660,-2076416
2026-01-14 17:25:32.571,-20503680,-6957129,24220480,-7014100,16386720,-18408200,-20996090
2026-01-14 17:25:32.581,-68863500,-6301126,24427640,66084100,16015630,-21074220,-28149410
2026-01-14 17:25:32.591,-20800610,-5860905,24505320,-7304125,14052730,-2328125,-28833010
2026-01-14 17:25:32.601,-68895440,-5368905,24703850,66052160,10878910,-25527340,-121154800
2026-01-14 17:25:32.611,-81845540,-4833740,25031860,53084800,10234380,-25234380,-17932130
2026-01-14 17:25:32.621,-21289160,88716340,118443800,-7799578,8955078,-25742190,-12249760
2026-01-14 17:25:32.631,-82130380,9306669,12272520,52696370,1140625,-25625,-5923462
2026-01-14 17:25:32.641,-21643920,-13741630,15934070,-8169881,99609380,-24628910,-51940920
2026-01-14 17:25:32.651,-82432500,-13784790,15977230,52204370,7055664,-23320310,-38482660
2026-01-14 17:25:32.661,-22063420,-4151835,25731020,-8613549,38549800,-20488280,-58898930
2026-01-14 17:25:32.671,-82743230,-4315839,25722390,51617420,-18408200,-18964840,14147950
2026-01-14 17:25:32.681,-8288996,-4600682,25661970,5131531,-6586914,-18320310,35620120
2026-01-14 17:25:32.691,-22713380,88310660,118849500,-9310121,-12529300,-16376950,45117190
2026-01-14 17:25:32.701,-22929180,-5161741,25705130,-9543181,-16035160,-12822270,46655270
2026-01-14 17:25:32.711,-23126840,87982660,119177500,-9759831,-20332030,-11474610,42626950
2026-01-14 17:25:32.721,-23308110,9038227,12195690,-9958362,-22675780,-10058590,43359380
2026-01-14 17:25:32.731,-17463860,-15957550,15979650,-16130620,-23164060,-78466800,4333496
2026-01-14 17:25:32.741,-23618850,-4505733,27811260,-10303630,-24746090,-6669922,30566410
2026-01-14 17:25:32.751,-23765590,-4177729,28519050,-10467640,-28730470,-7504883,18774410
2026-01-14 17:25:32.761,-8367544,-3668462,29390850,4913149,-28066410,-58935550,-3786087
2026-01-14 17:25:32.771,-24050430,-15338480,18066090,-10787000,-29160160,-4440918,-21044920
2026-01-14 17:25:32.781,-24163510,-2460027,31289820,-10915620,-28652340,-30981440,-48431400
2026-01-14 17:25:32.791,-18304850,13833120,17240910,-16981440,-31132810,-54589840,39489740
2026-01-14 17:25:32.801,-83830820,-371162,34034700,48371900,-24355470,-25952150,8648682
2026-01-14 17:25:32.811,-8382218,828642,35597020,4824243,-19189450,-43920900,64331060
2026-01-14 17:25:32.821,-24438000,2028442,37159360,-11245350,-16513670,-38476560,-22705080
2026-01-14 17:25:32.831,-67691320,3219612,38730320,64114350,-16259770,-38012700,-5371094
2026-01-14 17:25:32.861,-24355130,7595874,44366810,-11207370,-20488280,119384800,-65234380
2026-01-14 17:25:32.871,-83364700,26364580,30086570,48026640,-18310550,11773680,-4873047
2026-01-14 17:25:32.881,-67414240,-15770070,21898560,63908060,-115625,6254883,-4970703
2026-01-14 17:25:32.891,-8298492,-1871002,1937293,4826832,-59375,11669920,-46166990
2026-01-14 17:25:32.901,-82777760,16046280,54560820,48440960,-52441410,13955080,-32470700
2026-01-14 17:25:32.911,-82579220,17479140,56408000,48587700,-11328130,11474610,-22277830
2026-01-14 17:25:32.921,-17513230,18506310,57797700,-16202080,-20429690,12509770,-3149414
2026-01-14 17:25:32.931,-23290850,1932632,5887667,-10182790,-30117190,16259770,-4736328
2026-01-14 17:25:32.941,-82156270,20293070,59981510,48941590,-34121100,17509770,-4921875
2026-01-14 17:25:32.951,-17150700,-15752800,23987420,-15839550,-32578120,19052730,-26513670
2026-01-14 17:25:32.961,-82018180,40226190,44191590,49148760,-28710940,234375,-10723880
2026-01-14 17:25:32.971,-22953350,23340050,62804060,-9829749,-25292970,28359380,13867190
2026-01-14 17:25:32.981,-82035430,2428088,6341695,49286860,-21347660,290625,14123540
2026-01-14 17:25:32.991,-82104490,2526489,6398664,49338650,-12958980,28808590,340271
2026-01-14 17:25:33.041,-23426360,2968433,6526410,-10219900,36914060,20742190,-56152340
2026-01-14 17:25:33.051,-23569650,30642450,65514410,-10352830,4546875,17597660,-9614258
2026-01-14 17:25:33.061,-83235230,31514240,65678410,49036540,52929690,13925780,-14873050
2026-01-14 17:25:33.071,-23863990,3245510,6594601,-10628180,57539060,7446289,-18291020
2026-01-14 17:25:33.101,-24406920,-10806860,20854130,-11155580,70351560,-73291020,-29296880
2026-01-14 17:25:33.111,-24589050,-10565170,20595180,-11335980,71914060,-12910160,-2953125
2026-01-14 17:25:33.121,-84409140,3442310,6518645,48138850,74921870,-19091800,-27851560
2026-01-14 17:25:33.131,-24934320,-10323480,20129070,-11681250,7453125,-26816410,-26464840
2026-01-14 17:25:33.141,-25121620,32869420,63114810,-11873730,72539060,-34472660,-23925780
2026-01-14 17:25:33.151,-25333960,-10392540,19749270,-12092980,7015625,-39179690,-19150390
2026-01-14 17:25:33.161,-8508240,43723750,46736200,4722391,66679690,-4296875,-16953120
2026-01-14 17:25:33.171,-25780220,28320520,58514120,-12561670,61875,-45507810,-15185550
2026-01-14 17:25:33.181,-67957180,-11048550,19300430,64072920,57851560,-46054690,-14042970
2026-01-14 17:25:33.191,-85591680,-11385180,19188210,46265780,54335940,-46171880,-11015630
2026-01-14 17:25:33.201,-65862300,21095810,51928160,65822530,46992190,-46914060,-8041992
2026-01-14 17:25:33.211,-85885160,18186940,49312760,45627040,40976560,-47617190,-5341797
2026-01-14 17:25:33.221,-26927370,15260800,46714620,-13796870,39160160,-46679690,-20861820
2026-01-14 17:25:33.231,-67610180,-13102880,18678940,63487690,35664060,-42539060,-31933590
2026-01-14 17:25:33.241,-27407290,-13612150,18514940,-14318220,31054690,-3734375,-4621582
2026-01-14 17:25:33.251,-27646390,4661103,37116200,-14579760,2140625,-29140620,-7001953
2026-01-14 17:25:33.261,-86575700,759585,33421850,43935220,6464844,-225,-9873047
2026-01-14 17:25:33.271,-28012370,-2995190,29753380,-14973370,1496582,-1109375,-13398440
2026-01-14 17:25:33.281,-86817380,-6870815,25860500,43469110,-6850586,625,-14423830
2026-01-14 17:25:33.291,-28356780,-16267250,16377740,-15336760,-10244140,29667970,-19257810
2026-01-14 17:25:33.301,-67281310,-5006375,27448730,62884340,-23554690,525,-24257810
2026-01-14 17:25:33.311,-28554440,-36137370,-32916030,-15536150,-40546880,70507810,-3203125
2026-01-14 17:25:33.321,-8717128,-24384480,7466399,4309795,-53203120,8640625,-40546880
2026-01-14 17:25:33.331,-87171280,-17073450,14294060,43236060,-68164060,8953125,-45976560
2026-01-14 17:25:33.341,-22499840,-3454395,-378066,3,-21193700,-78515620,890625,-41875
2026-01-14 17:25:33.351,-87110860,-38902960,-8916517,43762590,-77578130,9015625,-3109375
2026-01-14 17:25:33.361,-28008920,-29851780,-26944630,-14890500,-7078125,8609375,-17685550
2026-01-14 17:25:33.371,-27768100,-46654200,-18601260,-14613430,-64648440,77226560,-6455078
2026-01-14 17:25:33.381,-68045220,-49977400,-23046570,63864030,-54179690,70859380,43652340
2026-01-14 17:25:33.391,-8673971,-53110700,-27336510,4556659,-42070310,596875,13671880
2026-01-14 17:25:33.401,-26917010,-16745450,7923879,-13651860,-34023440,45117190,15341800
2026-01-14 17:25:33.411,-26664110,-59800240,-36183980,-13369600,-26015620,32324220,13994140
2026-01-14 17:25:33.421,-86385800,-16503760,6128493,46818200,-19208980,18105470,1484375
2026-01-14 17:25:33.431,-26255830,-16443340,5273955,-12914710,-13144530,40405270,17070310
2026-01-14 17:25:33.441,-20080470,-70192780,-49269600,-18744800,-12285160,-11826170,18955080
2026-01-14 17:25:33.451,-25967530,-16460600,3754780,-12598790,-12246090,-26894530,22792970
2026-01-14 17:25:33.461,-8609232,-7686507,-5727116,4764684,-11572270,-38535160,26875
2026-01-14 17:25:33.471,-86066430,-79894780,-60801510,47707260,-10429690,-49375,30332030
2026-01-14 17:25:33.481,-86057800,-82881340,-64202390,47715900,-11445310,-61953120,30859380
2026-01-14 17:25:33.491,-25866540,-85496740,-67111270,-12492630,-9970703,-71875,31191410
2026-01-14 17:25:33.501,-25882080,-87896340,-69718030,-12511620,-8540039,-840625,3203125
2026-01-14 17:25:33.511,-25921780,-17125240,932222,8,-12558220,-9248047,-91171870,32050780
2026-01-14 17:25:33.521,-25970980,-17271980,733694,3,-12612600,-9526367,-965625,34824220
2026-01-14 17:25:33.531,-26044360,-92894080,-74905660,-12694610,-9038086,-104296900,41015620
2026-01-14 17:25:33.541,-26168650,-9377451,-7575157,-12829260,-3984375,-106015600,43828120
2026-01-14 17:25:33.551,-8629948,-17582720,509269,3,4699083,-20910640,-103828100,40273440
2026-01-14 17:25:33.561,-26476800,-17677670,500638,3,-13159850,-5114746,-9984375,32148440
2026-01-14 17:25:33.571,-8651527,-17755350,492006,3,4651609,-3371582,-98046870,21796880
2026-01-14 17:25:33.581,-86636120,-95828850,-77495170,46257140,-65234380,-94609380,15947270
2026-01-14 17:25:33.591,-27034410,-95949700,-77546960,-13758890,-11552730,-87265620,13300780
2026-01-14 17:25:33.601,-86938220,-17884830,621484,9,45678820,-10087890,-7609375,14121090
2026-01-14 17:25:33.611,-8708496,-17876200,785482,3,4539397,-12084960,-59648440,15048830
2026-01-14 17:25:33.621,-2766973,-93765870,-74897040,-1443566,16435550,-34902340,7944336
2026-01-14 17:25:33.631,-27853550,-17902090,1242963,-14631550,4359375,-21521000,-2310791
2026-01-14 17:25:33.641,-87421600,-10565170,8907892,44660290,63476560,35859380,-12167970
2026-01-14 17:25:33.651,-87412960,-18290520,1648654,44565330,62929690,55390620,-18662110
2026-01-14 17:25:33.661,-27974400,-94447780,-73869870,-14786930,45820310,58164060,-25546880
2026-01-14 17:25:33.671,-27907930,-19248630,2106130,-14732540,2640625,5640625,-29492190
2026-01-14 17:25:33.681,-8707633,-19887380,2226972,4450490,-4650879,52890620,-38691410
2026-01-14 17:25:33.691,-8699865,-20534750,2183813,4437543,-20332030,6890625,-46210940
2026-01-14 17:25:33.701,-27937280,-10749890,-8429692,-14824040,-28222660,8703125,-32988280
2026-01-14 17:25:33.711,-27985620,-21777710,1821284,-14896550,-43789060,990625,-99072260
2026-01-14 17:25:33.721,-8686917,-22330140,1648649,4377984,-48789060,120,14970700
2026-01-14 17:25:33.731,-8685191,-22891200,1484648,4353816,-51757810,144609400,31679690
2026-01-14 17:25:33.741,-28239390,-23573100,1286120,-15229730,-63164060,161875,30683590
2026-01-14 17:25:33.751,-86670640,-12940610,-10399440,43080690,-88359380,16671880,18896480
2026-01-14 17:25:33.761,-66869580,-25213120,681904,8,62484700,-11734380,17234380,7089844
2026-01-14 17:25:33.771,-28512150,-14111920,-11489620,-15612970,-1646875,1815625,15068360
2026-01-14 17:25:33.781,-86575700,-26507880,-25891,19,42018990,-216875,19328120,31796880
2026-01-14 17:25:33.791,-86644750,-27198410,-405686,2,41432040,-27828120,21265620,30332030
2026-01-14 17:25:33.801,-86636110,-2802707,-87176,09,40905500,-35125,2190625,-26489260
2026-01-14 17:25:33.811,-28953230,-28286000,-1096222,-16190430,-3821875,21875,13320310
2026-01-14 17:25:33.821,-27932100,-27716310,-1096222,-15070910,-3296875,21984380,50585940
2026-01-14 17:25:33.831,-8509968,-14925890,-12419250,4510050,-29609380,208125,114453100
2026-01-14 17:25:33.841,-8442641,-23590370,-1165277,4774179,-28015620,218125,15796880
2026-01-14 17:25:33.851,-23160510,-19973690,-984009,7,-9726172,-23984380,25875,21875
2026-01-14 17:25:33.861,-82467020,-15562910,-457475,5,54051540,-151328100,2496875,2909375
2026-01-14 17:25:33.871,-18659090,-10539270,474743,3,-4819064,83691410,1925,345
2026-01-14 17:25:33.881,-16451970,-23754370,-16641870,-2485924,1759375,15546880,3603125
2026-01-14 17:25:33.891,-14669530,-12170660,28225580,-643060,4,29609380,124375,3546875
2026-01-14 17:25:33.901,-76260850,-5075427,12187930,64211030,340,62695310,31375
2026-01-14 17:25:33.911,-11671750,67587740,67584280,2349545,336875,7875,23796880
2026-01-14 17:25:33.921,-41318100,12282870,9486212,-27390030,400625,24953120,2584375
2026-01-14 17:25:33.931,-21976240,58168860,-27112090,-8234614,701875,3821875,23109380
2026-01-14 17:25:33.941,27308030,21311600,6257963,41054840,95375,-1015625,-953125
2026-01-14 17:25:33.951,27390890,21501500,4531630,41144600,689375,-165625,-1049375
2026-01-14 17:25:33.961,-6868223,15067450,13537920,6871677,375,-3975,-3365625
2026-01-14 17:25:33.971,13165890,22968880,4151834,26885080,-611875,-2309375,-3878125
2026-01-14 17:25:33.981,-66118630,24125530,4756056,70624360,-64875,-26078120,-3240625
2026-01-14 17:25:33.991,-5445726,102829100,-70840160,8190601,15710450,-548125,-355
2026-01-14 17:25:34.001,-91498,5,92324390,-59593080,13556910,1240625,-18015620,-3009375
2026-01-14 17:25:34.011,-4902791,23599000,8752517,8752519,268125,-18984380,-105390600
2026-01-14 17:25:34.021,29753380,22545930,7613136,43443220,122578100,-330,-136484400
2026-01-14 17:25:34.031,-64772090,72060660,-69153520,72437020,55703120,-3459375,-496875
2026-01-14 17:25:34.041,14867200,7567388,-4741379,28636440,151875,-2021875,30332030
2026-01-14 17:25:34.051,-69372770,18523570,8545360,68820340,2175,-34648440,105
2026-01-14 17:25:34.061,-92669660,15951330,8717995,46058620,20234380,100,96953130
2026-01-14 17:25:34.071,-44422910,33620370,-11954870,-30500020,154453100,19265620,54101560
2026-01-14 17:25:34.081,-74741660,16771340,1406966,64901550,24160160,25734380,41171880
2026-01-14 17:25:34.091,-66634800,-54396810,69899300,-52654940,-122109400,17734380,66953120
2026-01-14 17:25:34.101,-76994540,50322660,84849360,62769540,-15328130,79492190,7890625
2026-01-14 17:25:34.111,-7835833,-19809690,31807720,6114678,-91171870,375,66210940
2026-01-14 17:25:34.121,-70569110,50236340,56796420,68487160,40893560,7578125,4546875
2026-01-14 17:25:34.131,-69390720,6387436,84935680,69147660,9555664,14453130,33808590
2026-01-14 17:25:34.141,-82622390,-8804312,83036700,55398090,-72998050,150,8486328
2026-01-14 17:25:34.151,-83563240,-4974436,5573476,53939340,25,13375,-29160160
2026-01-14 17:25:34.161,-15838570,-56934520,61837320,-15701570,39179690,12828130,-33378910
2026-01-14 17:25:34.171,-84840730,18404460,19747550,51660570,38515620,10171880,-31503910
2026-01-14 17:25:34.181,-24115170,-6137120,8933784,-10515110,81933590,70039060,-209375
2026-01-14 17:25:34.191,-69549700,81457110,98081720,65967570,-25820310,42617190,-55615230
2026-01-14 17:25:34.201,-85911060,-4358998,13681210,49191910,-371875,17636720,7597656
2026-01-14 17:25:34.211,-86126850,-8303673,11065810,48579060,-33535160,14726560,42333980
2026-01-14 17:25:34.221,-8623907,-12256120,-10186240,4808706,-16171880,17451170,11005860
2026-01-14 17:25:34.231,-25915740,-42977110,-20897280,-12512480,-8383789,7260742,11181640
2026-01-14 17:25:34.241,-8618729,-54862920,-31453820,4756914,-1928711,-5253906,59765620
2026-01-14 17:25:34.251,-26002060,-57228000,-32541410,-12650590,7441406,-15126950,19423830
2026-01-14 17:25:34.261,-2591487,-17107980,8821570,-1258240,16503910,-20976560,29257810
2026-01-14 17:25:34.271,-25809570,-53309220,-26102190,-12497810,12988280,-30976560,3203125
2026-01-14 17:25:34.281,-85505370,-17884830,10634230,47387900,9716797,-31953120,33730470
2026-01-14 17:25:34.291,-8529820,-18178310,11618230,4738789,6915283,-26132810,30605470
2026-01-14 17:25:34.301,-68109090,-44867440,-13827940,64335320,-10332030,-29082030,23457030
2026-01-14 17:25:34.311,-84892520,-38557690,-6327012,47310210,-8144531,-23339840,21933590
2026-01-14 17:25:34.321,-84728510,-34759750,-1493277,47232520,-9458008,-10078130,11474610
2026-01-14 17:25:34.331,-8460767,-29140530,4971845,4716346,-14707030,54785160,49591060
2026-01-14 17:25:34.341,-19362830,-17402150,17400770,-18046850,-11953130,33046880,-13417970
2026-01-14 17:25:34.351,-67591190,-25454810,9917798,63851950,-19111330,58476560,-27265620
2026-01-14 17:25:34.361,-19318460,-36883140,-1096222,-18004900,-4515625,73125,-42148440
2026-01-14 17:25:34.371,-84253780,-5942910,-2343496,47085780,-73671870,81484380,-5765625
2026-01-14 17:25:34.381,-84201980,-25670600,10306220,47189360,-1040625,86875,-71835940
2026-01-14 17:25:34.391,-67596380,-13780470,-10215580,63915830,-134375,89375,-79726560
2026-01-14 17:25:34.401,-24860950,-17891730,-14390730,-11685560,-13796880,95546870,-7609375
2026-01-14 17:25:34.411,-84176100,-21988330,-18580540,47854000,-125,120234400,-73476560
2026-01-14 17:25:34.421,-24608040,-40637920,-7699453,-11368780,-115234400,139609400,-62617190
2026-01-14 17:25:34.431,-84141560,-43978380,-12300130,48648110,-113125,12953130,-46289060
2026-01-14 17:25:34.481,-23413420,-54629870,-31341610,-9922111,-35859380,16445310,36289060
2026-01-14 17:25:34.491,-23359040,-56658310,-35182700,-9838384,-17685550,81152340,30566410
2026-01-14 17:25:34.501,-23327970,-58496860,-38695790,-9783142,1977539,38360600,26953120
2026-01-14 17:25:34.511,-84348730,-60508040,-42208880,51289420,21367190,-12070310,22949220
2026-01-14 17:25:34.521,-84409140,-54886240,-53182330,51349830,37460940,-23203120,21640620
2026-01-14 17:25:34.531,-23304660,-64478610,-48423700,-9720132,49882810,-30761720,24121090
2026-01-14 17:25:34.541,-8443506,-66722850,-51358460,5146201,525,-45,27402340
2026-01-14 17:25:34.551,-23264090,-13620780,1329279,-9674381,4640625,-6265625,2828125
2026-01-14 17:25:34.561,-23271860,-13732990,1027170,-9683876,44570310,-73984380,31015620
2026-01-14 17:25:34.571,-23295160,-8051626,6743066,-9712360,440625,-78476560,33867190
2026-01-14 17:25:34.581,-84435040,-74853890,-59800240,51306670,37597660,-81640620,3234375
2026-01-14 17:25:34.591,-23422050,-14682480,871799,8,-9861688,30097660,-83125,296875
2026-01-14 17:25:34.601,-8444367,-151831200,10789580,5100450,24335940,-81171870,2890625
2026-01-14 17:25:34.611,-84435040,-9289410,7853102,50840560,18125,-80625,26367190
2026-01-14 17:25:34.621,-23629210,-81931860,-63770820,-10120640,109375,-81796870,26328120
2026-01-14 17:25:34.631,-84374620,-83131660,-63779440,50503920,5727539,-809375,26933590
2026-01-14 17:25:34.641,-84322830,-17712200,2917510,50314030,-5463867,-8234375,26464840
2026-01-14 17:25:34.651,-68892860,-11729590,10246660,65467800,-14267580,-834375,23652340
2026-01-14 17:25:34.661,-17950860,-19058740,4264048,-16610360,-17304690,-77382820,2375
2026-01-14 17:25:34.671,-24174730,-19637060,4911424,-10800820,-25175780,-65,21953120
2026-01-14 17:25:34.681,-84426420,-86083700,-60482140,49002010,-41875,-52109380,15390630
2026-01-14 17:25:34.691,-24611500,-86403060,-59990140,-11296280,-63125,-4171875,25756840
2026-01-14 17:25:34.701,-84659470,-74373100,-71674840,48233790,-93203130,-35507810,-5029297
2026-01-14 17:25:34.711,-8481483,-20862760,6534179,4788852,-90859380,-61083980,-13730470
2026-01-14 17:25:34.721,-8495293,-20836860,6836288,4761231,-75820310,44726560,-2796875
2026-01-14 17:25:34.731,-85013360,-20767810,7077976,47482840,-54882810,84375,-50117190
2026-01-14 17:25:34.741,-66435930,-81301740,-53352380,66060280,-31445310,121171900,-66601560
2026-01-14 17:25:34.751,-25331370,-20733280,7319662,-12078300,-23125,136171900,-79140620
2026-01-14 17:25:34.761,-25195000,-81664270,-53507750,-11938470,-30039060,129140600,-87265620
2026-01-14 17:25:34.771,-25017180,-14781740,13409310,-11753750,-4796875,11015630,-87734380
2026-01-14 17:25:34.781,-6820317,-21000860,7069342,6456924,-5640625,925,-79414060
2026-01-14 17:25:34.791,-84374620,-84486830,-56727360,48587690,-45195310,8359375,-6578125
2026-01-14 17:25:34.821,-83770400,-13913400,12413220,49882440,13378910,77148440,-275
2026-01-14 17:25:34.831,-83520080,-20690130,5291220,50322660,23417970,64414060,-17578120
2026-01-14 17:25:34.841,-83261130,-20793710,4945953,50736980,20039060,4046875,-11289060
2026-01-14 17:25:34.851,-8300222,-82589580,-80031150,5113401,1578125,15605470,-57373050
2026-01-14 17:25:34.861,-22336180,-21069920,4428049,-8910480,14355470,-8222656,-10266110
2026-01-14 17:25:34.871,-82510180,-21208030,4238156,51850470,13720700,-29472660,17028810
2026-01-14 17:25:34.881,-21801880,-9919520,-7378354,-8357188,12177730,-48164060,41186520
2026-01-14 17:25:34.891,-21597310,-21484240,3875622,-8147439,15722660,-62265620,73046870
2026-01-14 17:25:34.901,-21419500,-21587820,3668464,-7962720,23417970,-7171875,1171875
2026-01-14 17:25:34.911,-21257220,-21708660,3426776,-7796992,31269530,-8265625,17314450
2026-01-14 17:25:34.921,-81724700,-21829510,3150565,52912170,34179690,-9203125,16914060
2026-01-14 17:25:34.931,-81655650,-21958980,2848456,52981220,36289060,-96875,17167970
2026-01-14 17:25:34.941,-21059560,-10969130,-8503925,-7597601,39550780,-96875,21738280
2026-01-14 17:25:34.951,-21100130,-22174770,2356449,-7643349,425,-95234380,259375
2026-01-14 17:25:34.961,-81707430,-22295620,2218344,52774060,46289060,-92265620,28359380
2026-01-14 17:25:34.971,-21307290,-22450990,2166552,-7867773,52304690,-86796870,296875
2026-01-14 17:25:34.981,-21438490,-22649510,2157920,-8012785,56054690,-8203125,27089840
2026-01-14 17:25:34.991,-81957740,-22856680,2192449,52161210,55078120,-77382820,19580080
2026-01-14 17:25:35.001,-8206996,-23037940,2270130,5189362,51953120,-70390620,14609380
2026-01-14 17:25:35.011,-15938470,-23236470,2399606,-14600390,48125,-64414060,11591800
2026-01-14 17:25:35.021,-22123850,-23469520,2598134,-8760287,44726560,-59882810,9194336
2026-01-14 17:25:35.031,-22321510,-23745740,2857086,-8976943,39199220,-56992190,54785160
2026-01-14 17:25:35.041,-82467020,-24047850,3176459,50736980,34609380,-5296875,32763670
2026-01-14 17:25:35.051,-22745320,-24401740,3547619,-9450821,34199220,-46484380,123413100
2026-01-14 17:25:35.061,-22998230,-24790170,3918780,-9733077,30898440,-403125,-27294920
2026-01-14 17:25:35.071,-82855440,-25161330,4307209,49468130,31738280,-2375,-59228520
2026-01-14 17:25:35.081,-23653380,-25584280,4730160,-10459000,31972660,22290040,-6347656
2026-01-14 17:25:35.091,-23986560,-26084920,5213533,-10833620,25605470,28105470,-14589840
2026-01-14 17:25:35.101,-83269760,-26663240,5740068,47828100,13408200,44335940,-21835940
2026-01-14 17:25:35.111,-83278400,-27353780,6206177,47353370,-15732420,44570310,-38320310
2026-01-14 17:25:35.121,-24670190,-28052940,6629128,-11651900,-40625,42460940,-49023440
2026-01-14 17:25:35.131,-83209340,-28726210,6991660,46541990,-58085940,40234380,-48203120
2026-01-14 17:25:35.141,-8319209,-12862920,-9199639,4614493,-64375,45898440,-44726560
2026-01-14 17:25:35.151,-83183440,-19824370,17585310,45773770,-6171875,62109380,-36347660
2026-01-14 17:25:35.161,-25280450,-30469810,7647665,-12422710,-57617190,72148440,-26328120
2026-01-14 17:25:35.171,-25415970,-11898500,-11510600,-12597930,-58945310,828125,-24472660
2026-01-14 17:25:35.181,-65804440,-31764560,7682194,61978880,-6828125,93359380,-26015620
2026-01-14 17:25:35.191,-2555924,-21281400,18804100,-1281718,-79960940,978125,-25507810
2026-01-14 17:25:35.201,-25567880,-33059310,7630402,-12860330,-9171875,97421870,-2046875
2026-01-14 17:25:35.211,-82639660,-15026020,-10903530,44159650,-10078130,10203130,-9033203
2026-01-14 17:25:35.221,-25584280,-15265110,-11096020,-12930250,-108828100,106484400,5488281
2026-01-14 17:25:35.231,-25580830,-34449010,7673562,-12950970,-12171880,1040625,77685540
2026-01-14 17:25:35.241,-82294380,-15711380,-11461130,43814380,-134296900,9875,41870120
2026-01-14 17:25:35.251,-2548588,-35182700,7647662,-1289056,-138984400,93359380,-4255371
2026-01-14 17:25:35.261,-8204406,-35441660,7630401,4378847,-140859400,93515620,-8203125
2026-01-14 17:25:35.271,-25347770,-3561428,764767,4,-12769700,-143671900,9765625,40893560
2026-01-14 17:25:35.281,-25286490,-16178350,-11840070,-12710140,-152265600,1078125,16816410
2026-01-14 17:25:35.291,-81836900,-35700610,7716722,43961120,-17078120,11171880,38359380
2026-01-14 17:25:35.301,-25122490,-35579760,7751245,-12528880,-20265620,102421900,46992190
2026-01-14 17:25:35.311,-24974020,-22876530,20143740,-12349340,-22796880,8703125,53476560
2026-01-14 17:25:35.321,-24810020,-34414480,7967037,-12133550,-24375,79296870,67734380
2026-01-14 17:25:35.331,-24729750,-3335279,794115,1,-11989400,-25421880,86015620,96875
2026-01-14 17:25:35.341,-2488512,-32247940,7613136,-1209299,-2828125,1021875,12640630
2026-01-14 17:25:35.351,-66141060,-30875500,7121134,62401820,-31640620,82421870,128125
2026-01-14 17:25:35.361,-8362367,-10884560,-10884520,4593777,-323125,1121875,1528125
2026-01-14 17:25:35.371,-25313250,-25273540,6715444,-12217270,-279375,1771875,17171880
2026-01-14 17:25:35.381,-24855770,-21173500,6965762,-11587160,-2003125,2353125,18046880
2026-01-14 17:25:35.391,-23645610,-5559662,-3192856,-10173290,-66367190,2540625,20078120
2026-01-14 17:25:35.401,-21935670,-23659420,-4997739,-8275188,9171875,2534375,21171880
2026-01-14 17:25:35.411,-13879130,-53602700,82432490,-12499270,23359380,250625,18015620
2026-01-14 17:25:35.421,-8074928,-2244236,88215710,5801349,3390625,25375,138125
2026-01-14 17:25:35.431,-79169710,-19628430,34405860,59782980,431875,2428125,15453130
2026-01-14 17:25:35.441,-77218950,-2356451,22848050,61561100,495,16015630,157421900
2026-01-14 17:25:35.451,-13007930,12830980,12822350,820009,5,4446875,154609400,60507810
2026-01-14 17:25:35.461,-5839329,14856840,-11728720,-4466892,47875,12828130,68984380
2026-01-14 17:25:35.471,-116536200,61086360,-25748280,19516220,69125,15921880,8703125
2026-01-14 17:25:35.481,-67976170,9617409,-5919600,67075020,745,3625,-1046875
2026-01-14 17:25:35.491,-67473800,28717580,5912699,67473800,4559375,-14425,-1241875
2026-01-14 17:25:35.501,-68018460,23046570,3228250,68948950,5678125,-190125,-64125
2026-01-14 17:25:35.511,-63770810,11523280,9348107,73783550,-558125,-695,-604375
2026-01-14 17:25:35.521,-3351679,18411360,-2960664,10498710,-915625,81328130,96171870
2026-01-14 17:25:35.531,21582640,20327590,-2684452,35386410,-5925,120,14421880
2026-01-14 17:25:35.541,8025732,15347120,13102880,21667230,27402340,-2009375,-31953120
2026-01-14 17:25:35.551,-11485310,102898200,-71288990,2163102,128125,-470625,-2396875
2026-01-14 17:25:35.561,-35205140,23504050,11402440,-21591270,218125,-513125,-515625
2026-01-14 17:25:35.571,-34949040,22545940,12205190,-33586450,3603125,-22734380,-21859380
2026-01-14 17:25:35.581,-38179620,59739820,-27094830,-24486330,51796880,-111796900,-15109380
2026-01-14 17:25:35.591,-32968680,19214110,12567720,-31596240,34394530,-48007810,-42421880
2026-01-14 17:25:35.601,-43728060,36227140,-5032265,-29986440,35234380,-28300780,-24785160
2026-01-14 17:25:35.611,-52531510,67352960,-36227140,-38791610,9421875,-47094730,23515620
2026-01-14 17:25:35.621,-74232400,5273951,25472080,63080280,1790625,5546875,33710940
2026-01-14 17:25:35.631,-13238400,-8571253,38212420,498047,5,2109375,123515600,12978520
2026-01-14 17:25:35.641,-13815860,13524970,14251760,-63873,52,17953120,2109375,-32753910
2026-01-14 17:25:35.651,-73799000,7975671,17539570,-72421560,15265630,2884375,-74726560
2026-01-14 17:25:35.661,-14394180,5058162,17315140,-590406,8,59140620,3159375,-60898440
2026-01-14 17:25:35.671,-76995140,1726338,17073450,-75612870,-91484380,2715625,-29277340
2026-01-14 17:25:35.681,-76813270,7033949,8848333,61431630,-19796880,19015620,35381320
2026-01-14 17:25:35.691,-14597020,-3021087,17263350,-784618,9,-2028125,152734400,10107420
2026-01-14 17:25:35.701,-69751700,-4402157,17591360,68268780,-143515600,151171900,47460940
2026-01-14 17:25:35.711,-75950100,-5498379,17669040,62070380,-104296900,128671900,11171880
2026-01-14 17:25:35.721,-13255660,44781120,68811700,549839,5,-103515600,8515625,25996090
2026-01-14 17:25:35.731,-12711870,-6801760,17936620,1093633,-8328125,55507810,27402340
2026-01-14 17:25:35.741,-122785600,-7060711,18212840,15234900,-43242190,56992190,35585940
2026-01-14 17:25:35.751,-11923790,-7354186,18368200,1876526,-24140620,51992190,4859375
2026-01-14 17:25:35.761,-11595790,-7785770,18350940,2204529,-19755860,30292970,43984380
2026-01-14 17:25:35.771,-73472820,-8260516,18221470,64547660,-10507810,11220700,33652340
2026-01-14 17:25:35.781,-73438290,-8700730,18057470,64582190,8027344,-4753418,34941410
2026-01-14 17:25:35.791,-52648030,-9089152,17841670,-38847710,17412110,-12626950,43085940
2026-01-14 17:25:35.801,-49199940,26809990,53809860,-47820080,25351560,-14023440,49453120
2026-01-14 17:25:35.811,-1210419,-9926426,17107980,169439,3,20585940,-12978520,40585940
2026-01-14 17:25:35.821,-125772100,-13226320,13842620,12179300,13359380,-16064450,27519530
2026-01-14 17:25:35.831,-131097900,12800770,39852440,6801760,16191410,-7495117,21894530
2026-01-14 17:25:35.841,-74562990,-11290230,15761440,-60781660,17851560,-6074219,15878910
2026-01-14 17:25:35.851,-142060100,-11600970,15485230,-4333105,19111330,-9814453,16220700
2026-01-14 17:25:35.861,-85772940,15905590,18621110,-72014060,23457030,-15800780,17636720
2026-01-14 17:25:35.871,-77227590,14345840,17073460,60205930,24179690,-18515620,19648440
2026-01-14 17:25:35.881,-9809897,535164,27949360,-8437462,259375,-15048830,19335940
2026-01-14 17:25:35.891,-16606480,-1173907,26378400,-2901105,26132810,-16455080,18037110
2026-01-14 17:25:35.901,-17208110,-12800770,15027750,-3525177,28203120,-4901123,-21331790
2026-01-14 17:25:35.911,-17757080,-3789306,24332690,-4098320,20410160,49804690,-14472660
2026-01-14 17:25:35.921,-18288790,-4220889,24246380,-4654200,32460940,20703120,-22617190
2026-01-14 17:25:35.931,-79963830,-5006373,23823420,56140410,29453120,18291020,-21074220
2026-01-14 17:25:35.941,-19068230,-5843642,23452260,-5480251,20859380,-13748170,-16308590
2026-01-14 17:25:35.951,-19367750,-14078260,15735540,-5802213,15351560,-9042969,-12626950
2026-01-14 17:25:35.961,-8059393,-7147027,23201940,5483703,14902340,-12783200,-98535150
2026-01-14 17:25:35.971,-19948660,-7587243,23296890,-6429736,15048830,-11953130,-11503910
2026-01-14 17:25:35.981,-68822930,6371036,9511245,66124670,23300780,28271480,-83154300
2026-01-14 17:25:35.991,-20486410,-8467674,23486790,-7014099,18154300,10019530,-11357420
2026-01-14 17:25:36.001,-8123268,-9425788,23063830,5326606,97216800,11582030,-16914060
2026-01-14 17:25:36.011,-81344900,4220886,7518192,52946690,-3984375,1078125,-17792970
2026-01-14 17:25:36.021,-81457110,3081506,6413338,52661840,-18652340,14414060,-2640625
2026-01-14 17:25:36.031,-8155205,-13197830,20275800,5248058,-29824220,25117190,-28925780
2026-01-14 17:25:36.041,-21338360,20767810,24116900,-7940276,-40234380,3609375,-33339840
2026-01-14 17:25:36.051,-81672900,-6318387,27034410,52325210,-45273440,4921875,-30722660
2026-01-14 17:25:36.061,-81681540,-16550380,16543470,52385630,-55039060,54257810,-35214840
2026-01-14 17:25:36.071,-21315060,-36175350,-3530356,-7894531,-63164060,54648440,-41835940
2026-01-14 17:25:36.081,-21246870,-19861480,12092980,-7807350,-66328120,56171880,-43046880
2026-01-14 17:25:36.091,-81767860,-21648240,9391265,52886270,-73398440,53789060,-46367190
2026-01-14 17:25:36.101,-81793740,-23504050,6413337,53153850,-71953130,50820310,-4421875
2026-01-14 17:25:36.111,-81811010,-15416170,13171940,53481860,-62109380,49609380,-40390620
2026-01-14 17:25:36.121,-20749680,-27975260,-854534,7,-7182418,-4859375,45898440,-34082030
2026-01-14 17:25:36.131,-81759220,-30823710,-5256688,54275960,-34375,41054690,-27675780
2026-01-14 17:25:36.141,-8169880,-3399154,-1003000,5471618,-17871090,37246100,-1578125
2026-01-14 17:25:36.151,-81603860,-37599580,-15226270,55139140,-7651367,27460940,-7133789
2026-01-14 17:25:36.161,-81534800,-41604670,-20716020,55501660,13549810,16542970,22460940
2026-01-14 17:25:36.171,-1971475,-4576514,-2622303,-599038,4,7084961,80371100,11357420
2026-01-14 17:25:36.181,-81431220,-50098240,-31730030,55950510,12089840,171875,18310550
2026-01-14 17:25:36.191,-19553330,-132927800,41259400,-5806533,15126950,-2614746,22773440
2026-01-14 17:25:36.201,-81413950,-13422260,3288672,56088620,1421875,-79052740,26308590
2026-01-14 17:25:36.211,-81405320,-86895060,75898310,56079980,7519531,-13486330,27792970
2026-01-14 17:25:36.221,-19501540,-13897000,2157919,-5754739,-93933100,-21191410,30292970
2026-01-14 17:25:36.231,-81301740,-8626498,7393896,56131780,-11445310,-32597660,32597660
2026-01-14 17:25:36.241,-19394510,-14432160,1709072,-5654610,-14492190,-41679690,34902340
2026-01-14 17:25:36.251,-19358260,-73274280,-56891360,-5621813,-17324220,-51601560,37050780
2026-01-14 17:25:36.261,-19346170,-14958690,1752230,-5616632,-17070310,-53828120,34023440
