Timestamp,Rotation X,Rotation Y,Rotation Z,Rotation W,Acceleration X,Acceleration Y,Acceleration Z
2026-01-14 17:25:22.331,-10594520,-4297712,14398500,19788980,72631840,12670900,-78186030
2026-01-14 17:25:22.341,-10569480,41164450,59877920,19762220,77819820,440979,-7910156
2026-01-14 17:25:22.351,-10545310,-4311522,14419210,19734600,6695557,2859497,-103149400
2026-01-14 17:25:22.361,-10520280,-4318427,14429570,19707840,53131100,6500244,-116882300
2026-01-14 17:25:22.371,44420320,-4326197,14439060,47437960,41778560,22918700,-11785890
2026-01-14 17:25:22.381,30849610,49633840,51512100,60991420,3970337,-62072750,-9710693
2026-01-14 17:25:22.391,-14585890,-4340869,14458920,15504130,61828610,6097412,-14501950
2026-01-14 17:25:22.401,-14568620,-4348638,14468410,15486860,340271,1149292,-1348877
2026-01-14 17:25:22.411,-14551360,-4357270,14477050,15469600,9750366,86120610,-11566160
2026-01-14 17:25:22.421,3090142,41181720,60033300,6090511,27252200,602417,-8557129
2026-01-14 17:25:22.431,-10402890,41173090,60041930,19583540,41748050,7598877,-6286621
2026-01-14 17:25:22.441,30901400,-4381441,14504670,60887830,13595580,9637451,-4107666
2026-01-14 17:25:22.451,-10404620,-4381439,14504670,19581820,21362300,80078130,-4333496
2026-01-14 17:25:22.461,-10404620,-4380576,14505530,19581820,23590090,819397,-43060300
2026-01-14 17:25:22.471,-10404620,-4389207,14514160,19581820,96206660,-15899660,-41122440
2026-01-14 17:25:22.481,3088414,-4390069,14513300,6088783,23880000,-35369870,1776123
2026-01-14 17:25:22.491,3088414,-4390069,14513300,6088783,29556270,-17456060,16525270
2026-01-14 17:25:22.501,3088414,-4390069,14513300,6088783,33477780,21877290,24627690
2026-01-14 17:25:22.511,44394430,-4390071,14513300,47394800,19622800,-22872920,3503418
2026-01-14 17:25:22.521,44394430,41155820,60059190,47394800,-14144900,-3366089,-13496400
2026-01-14 17:25:22.531,3090142,41155820,60059190,6090511,-3338623,-30853270,-27023320
2026-01-14 17:25:22.541,3090140,-4383165,14502940,6090509,-26748660,-8026123,-77667230
2026-01-14 17:25:22.551,-14534100,-4391796,14511570,15452340,-8862305,4547119,-31402590
2026-01-14 17:25:22.561,30927290,-4392661,14510710,60913730,-7550049,18829350,-21652220
2026-01-14 17:25:22.571,30935920,41129920,60033290,60922360,-8831787,2104187,-17562870
2026-01-14 17:25:22.581,-10399440,41121290,60024660,19587000,-1071167,32836910,-19119260
2026-01-14 17:25:22.591,3094456,-4395248,14508120,6094825,-6616211,31707760,9338379
2026-01-14 17:25:22.601,44454850,-4396114,14507250,47455220,-99975580,-51605220,14526370
2026-01-14 17:25:22.611,30944550,41095400,59998770,60965520,-6573486,-12817380,24490360
2026-01-14 17:25:22.621,-10414110,41086770,60007400,19606850,-64697260,57403560,-13923650
2026-01-14 17:25:22.631,-10414110,-4406470,14514160,19606850,-9698486,9101868,-31463620
2026-01-14 17:25:22.641,-10421880,-4415966,14521930,19616340,-927124,-12854000,60539250
2026-01-14 17:25:22.651,-10421880,4105224,6000741,19616340,-56243900,-4345703,107040400
2026-01-14 17:25:22.661,-10421880,-4433229,14539190,19616340,-25436400,-65994260,-357,8663
2026-01-14 17:25:22.671,-10422750,-4433229,14539190,19615480,-4498291,96588140,-25615690
2026-01-14 17:25:22.681,-10431380,-4441861,14547830,19624110,-4638672,19958500,-14152530
2026-01-14 17:25:22.691,-10431380,-4450492,14556460,19624110,-39123540,3842163,-96,49992
2026-01-14 17:25:22.701,-10431380,-4450492,14556460,19624110,-61157230,4168701,-17730710
2026-01-14 17:25:22.711,-10440010,-4459124,14565090,19632740,-64941410,5344391,18508910
2026-01-14 17:25:22.721,-10440010,-4459124,14565090,19632740,-30838010,13710020,10520940
2026-01-14 17:25:22.731,30910020,-4459126,14565090,61000040,-31921390,20202640,22201540
2026-01-14 17:25:22.741,30910020,-4459126,14565090,61000040,12483600,52604680,24139400
2026-01-14 17:25:22.751,30901390,-4459126,14565090,61008670,-40863040,-7411957,25177000
2026-01-14 17:25:22.761,30901390,-4467758,14573720,61008670,-8691406,-26760100,-3660202
2026-01-14 17:25:22.771,3088414,-4467755,14573720,6100868,-6149292,-13769530,38433080
2026-01-14 17:25:22.781,-10459000,-4475523,14583220,19648280,3225708,-7232666,8105469
2026-01-14 17:25:22.791,-10459000,4100045,6007646,19648280,-6793213,12927250,-3161621
2026-01-14 17:25:22.801,-10459000,-4493651,14599620,19648280,-103149400,6585693,-16357420
2026-01-14 17:25:22.811,-10459860,-4492787,14600480,19647420,-34851070,19042970,34362790
2026-01-14 17:25:22.821,3087551,-4492787,14600480,6100004,-5065918,-1423645,48675540
2026-01-14 17:25:22.831,3087551,-4492787,14600480,6100004,-39001460,-8277893,-49972540
2026-01-14 17:25:22.841,30858240,-4492789,14600480,61000040,-4888916,21942140,2142334
2026-01-14 17:25:22.851,30858240,-4501421,14609110,61000040,-6530762,22964480,-592041
2026-01-14 17:25:22.861,30849600,-4502285,14608250,61008680,-45318600,10002140,9773254
2026-01-14 17:25:22.871,44420320,-4493652,14599610,47437960,-49591060,28533940,19256590
2026-01-14 17:25:22.881,30832340,-4493653,14599610,61025940,-1965332,3643799,16830440
2026-01-14 17:25:22.891,30823710,-4493653,14599610,61034570,-20767210,18005370,33477780
2026-01-14 17:25:22.901,30806450,-4493653,14599610,61034570,-38360600,953,1975,49804690
2026-01-14 17:25:22.911,30797810,4099180,6006781,61043200,-61035160,-14465330,21270750
2026-01-14 17:25:22.921,30789180,-4476389,14582350,61051830,-4135132,-30654910,46142580
2026-01-14 17:25:22.931,30780550,-4476389,14582350,61060460,-4525757,-36102300,3744507
2026-01-14 17:25:22.941,44405650,-4476388,14582350,47435370,-35064700,-30853270,24246220
2026-01-14 17:25:22.951,-14698100,-4467756,14573720,15616340,-48553470,-22415160,3387451
2026-01-14 17:25:22.961,-14698100,-4466892,14574580,15616340,-39093020,-50048830,43548580
2026-01-14 17:25:22.971,-10575530,-4466892,14574580,19756180,50315860,-3640747,64575200
2026-01-14 17:25:22.981,-10575520,41034980,60059190,19756180,-25527950,8628845,3768921
2026-01-14 17:25:22.991,30728760,41034980,60059190,61060470,-3579712,-32577520,434494
2026-01-14 17:25:23.001,30728760,-4456536,14567680,61060460,-35491940,184021,17211910
2026-01-14 17:25:23.011,-10577250,-4456534,14567680,19754450,-41870120,-11833190,70266720
2026-01-14 17:25:23.021,-10577250,-4456534,14567680,19754450,-33599860,1159668,8056641
2026-01-14 17:25:23.031,-10577250,-4455671,14568540,19754450,-6738281,16784670,-11512760
2026-01-14 17:25:23.041,-10586750,-4447039,14559910,19762220,-35461420,10597230,18325810
2026-01-14 17:25:23.051,-10586750,-4455671,14568540,19762220,-34729000,3108,978,-7156372
2026-01-14 17:25:23.061,30694240,41060870,60085080,61043200,-3048706,-39367680,59814450
2026-01-14 17:25:23.071,-10597100,41060870,60085080,19769130,-37261960,-38024900,-13885500
2026-01-14 17:25:23.081,-10597970,41069500,60093710,19768260,-7019043,-4019165,12382510
2026-01-14 17:25:23.091,-10597970,41060870,60102340,19768260,-16418460,-23895260,5264282
2026-01-14 17:25:23.101,-10607470,-4461713,14579760,19776030,29953000,-17456060,-17074580
2026-01-14 17:25:23.111,30642440,-4469483,14589260,61025940,4611969,2267456,-24780270
2026-01-14 17:25:23.121,-10609190,4106087,6013688,19774300,-4219055,3704834,-2255249
2026-01-14 17:25:23.131,-10618680,49653710,51561310,19782070,31066900,40039060,-2160,072
2026-01-14 17:25:23.141,30607920,-4485021,14608250,61008680,2758789,-2992,153,23384090
2026-01-14 17:25:23.151,-10629040,-4485019,14608250,19788980,3552246,27038570,-15197750
2026-01-14 17:25:23.161,-14751100,-4484156,14609110,15666920,34332280,-58563230,60195920
2026-01-14 17:25:23.171,30564760,-4492790,14617740,61000050,26123050,-51635740,-17108920
2026-01-14 17:25:23.181,30564760,41078140,60188660,61000050,52856440,56518560,-4760742
2026-01-14 17:25:23.191,30547500,49677010,51589790,61000050,27618410,34606940,-317688
2026-01-14 17:25:23.201,-10649760,49677020,51589790,19802790,-5844116,-57861330,18585200
2026-01-14 17:25:23.211,3053024,4107814,6020593,6100005,16738890,11844640,1386261
2026-01-14 17:25:23.221,3052160,4107814,6020593,6099141,45776370,7873535,27297970
2026-01-14 17:25:23.231,30504340,-4490200,14620330,60991410,16067510,9729004,8476257
2026-01-14 17:25:23.241,-10678240,-4490198,14620330,19826090,7872,582,4043579,-19388200
2026-01-14 17:25:23.251,-10686870,41112660,60205930,19834730,-34057620,-25939940,22766110
2026-01-14 17:25:23.261,-10695500,41112660,60205930,19843360,-28884890,-46081540,25405880
2026-01-14 17:25:23.271,-10704140,49705500,51613100,19851990,-23773190,-37200930,42938230
2026-01-14 17:25:23.281,-10705000,49705500,51613100,19851130,5420685,-2658081,6451416
2026-01-14 17:25:23.291,-10713630,49705500,51613100,19859760,-5268097,-33294680,41900640
2026-01-14 17:25:23.301,-10713630,49705500,51613100,19859760,1007843,-4638672,5126953
2026-01-14 17:25:23.311,3043531,49705500,51613100,6102596,-23269650,-48339840,41748050
2026-01-14 17:25:23.321,44192450,49705500,51613100,47251520,-17410280,-46905520,29449460
2026-01-14 17:25:23.331,44192450,49705500,51613100,47251520,-4244995,-52612300,3705,025
2026-01-14 17:25:23.341,3043529,-4481566,14611700,6102594,-81848140,-45318600,-2166748
2026-01-14 17:25:23.351,3043529,-4490198,14620330,6102594,-8874512,-3189087,-25619510
2026-01-14 17:25:23.361,3044392,4107814,6020593,6103457,-9655762,-12578960,-38085940
2026-01-14 17:25:23.371,3044393,-4508324,14636730,6103457,-56396480,26611330,-2017212
2026-01-14 17:25:23.381,3044393,-4516956,14645360,6103457,-3326416,8477783,-25222780
2026-01-14 17:25:23.391,3044393,-4525587,14653990,6103457,-110321000,39794920,-28057100
2026-01-14 17:25:23.401,3043529,-4534219,14662630,6102594,10932920,-43029780,59890750
2026-01-14 17:25:23.411,3043529,-4542851,14671260,6102594,14457700,9777832,-24291990
2026-01-14 17:25:23.421,44192450,-4550621,14680750,47251510,-25844570,10757450,-4196167
2026-01-14 17:25:23.431,30435280,4102632,6027497,61008680,-11734010,-15014650,-28518680
2026-01-14 17:25:23.441,-10706730,41026350,60292240,19849400,3201294,-35736080,-59936520
2026-01-14 17:25:23.451,30426660,41026350,60309510,60965520,27267460,13877870,-6677246
2026-01-14 17:25:23.461,30418020,-4591191,14726500,60956880,23757940,-11070250,-45684820
2026-01-14 17:25:23.471,-10692920,41026350,60361300,19828680,22781370,59783940,-76171870
2026-01-14 17:25:23.481,30409390,-9169085,10183130,60913730,-30593870,1262207,-9063721
2026-01-14 17:25:23.491,-10686880,-4604999,14747220,19817460,16204830,14294430,-89782710
2026-01-14 17:25:23.501,-10687740,41034980,60404460,19816600,21774290,11663820,-68237300
2026-01-14 17:25:23.511,30383500,-4611907,14757570,60887830,20126340,6298828,-57647700
2026-01-14 17:25:23.521,-10689460,-4611041,14758440,19814870,19454960,4798889,-51208500
2026-01-14 17:25:23.531,30348970,41060870,60430350,60870570,9887695,-13354490,11795040
2026-01-14 17:25:23.541,30340340,41069500,60438980,60861940,803833,537,3955,-7881165
2026-01-14 17:25:23.551,-10710180,41069500,60438980,19828680,30776980,13244630,-54534910
2026-01-14 17:25:23.561,-10719680,-4608452,14761030,19836450,23422240,5709839,-5444336
2026-01-14 17:25:23.571,30288550,-4608454,14761030,60861940,10437010,-14328000,-25726320
2026-01-14 17:25:23.581,44045710,-4607590,14761890,47104770,9262085,-14595030,-26443480
2026-01-14 17:25:23.591,-10747300,-4617083,14769660,19860620,17440800,25680540,-39916990
2026-01-14 17:25:23.601,3024540,-4617083,14769660,6088783,-13023380,16662600,-12008670
2026-01-14 17:25:23.611,30236760,41060870,60447620,60913730,-26031490,26443480,-30685420
2026-01-14 17:25:23.621,30219500,41043610,60447620,60930990,9941101,-89,3116,38070680
2026-01-14 17:25:23.631,30202230,-4628306,14775700,60948250,-30578610,-89782710,-75416570
2026-01-14 17:25:23.641,30184960,4101769,6043897,60965520,-15670780,-10321050,29315950
2026-01-14 17:25:23.651,30159070,-4646433,14792100,60991410,15975950,-17486570,-76408380
2026-01-14 17:25:23.661,-10876770,40991820,60447610,19990100,30212400,-52986140,10940550
2026-01-14 17:25:23.671,-10894030,40991820,60447610,20007360,34179690,-4207611,1184082
2026-01-14 17:25:23.681,4541194,-4674051,14816270,4572129,43823240,3125,-5924225
2026-01-14 17:25:23.691,-10919930,-9246768,10260820,20033250,27999880,4320,145,-21377560
2026-01-14 17:25:23.701,-10937190,-9255400,10269450,20050520,20828250,-45654300,-3479004
2026-01-14 17:25:23.711,-10945820,40914140,60473510,20059150,7281494,-5380249,-19561770
2026-01-14 17:25:23.721,-10954460,4088824,6048215,20067780,6365967,-12680050,-46142580
2026-01-14 17:25:23.731,-10963090,-4737928,14873240,20076410,7019043,102005000,-39489740
2026-01-14 17:25:23.741,-10980350,-4755191,14890500,20093680,91430660,345459,-40863040
2026-01-14 17:25:23.751,-10988980,40836450,60499400,20102310,95336910,3765869,-17532350
2026-01-14 17:25:23.761,3001236,40819190,60516670,6112091,74523930,-23239140,-17715450
2026-01-14 17:25:23.771,-11006250,49673560,51645030,20119570,70251460,-46569820,-4159546
2026-01-14 17:25:23.781,-11014880,-4809570,14939700,20128200,58807370,-40100100,-4727173
2026-01-14 17:25:23.791,-11014880,-4836329,14964740,20128200,3878784,-1638794,-54656980
2026-01-14 17:25:23.801,29995070,40715610,60551200,61155420,35736080,28877260,-21194460
2026-01-14 17:25:23.811,29986440,40698350,60568460,61164050,6982422,-856781,-57411190
2026-01-14 17:25:23.821,29977810,-4889847,15014800,61172680,56549070,-21759030,18753050
2026-01-14 17:25:23.831,29969170,-4916605,15039830,61181310,37628180,-13465880,21835330
2026-01-14 17:25:23.841,29969170,-4933868,15057090,61181310,3173828,-20736690,1586914
2026-01-14 17:25:23.851,44013770,40586140,60628880,47136710,-28152470,-17425540,-3515625
2026-01-14 17:25:23.861,44013770,-4988247,15106290,47136710,-45196530,-104003900,37975310
2026-01-14 17:25:23.871,-11064940,40499810,60663400,20181720,-33172610,-3942871,1928711
2026-01-14 17:25:23.881,-11073570,49561340,51584610,20190350,-4055786,51635740,24520870
2026-01-14 17:25:23.891,2995192,-5095278,15206420,6123310,-25878910,34179690,7330322
2026-01-14 17:25:23.901,-11098610,-5131531,15239220,20217110,-5987549,42533880,112976100
2026-01-14 17:25:23.911,29934650,40301280,60741090,61267630,-99365230,-38909910,10321050
2026-01-14 17:25:23.921,-11121910,4023223,6075836,20245590,-19067380,-27709960,64575200
2026-01-14 17:25:23.931,44065560,40145920,60775620,47205770,-23669430,-26901240,43670660
2026-01-14 17:25:23.941,-11144350,40050970,60801520,20274940,-24108890,-8074951,84228510
2026-01-14 17:25:23.951,-15270210,-5396524,15474870,16183610,-14892580,-24401860,14086910
2026-01-14 17:25:23.961,29943280,3986968,6086192,61431620,-1373291,-1940918,1463623
2026-01-14 17:25:23.971,-11182330,-10061860,11068480,20323280,-9814453,-11859130,19042970
2026-01-14 17:25:23.981,-11190100,-5595052,15656130,20332770,-15478520,-112854000,20251460
2026-01-14 17:25:23.991,-11197010,-5666695,15722600,20343130,-14660650,-81726070,23779300
2026-01-14 17:25:24.001,-11197010,-5737475,15789920,20343130,-10296630,-26367190,25439450
2026-01-14 17:25:24.011,-11196140,-5809117,15856390,20343990,-13098150,-55732730,25927730
2026-01-14 17:25:24.021,-11196140,3931728,6112090,20343990,-13574220,-57769780,23425290
2026-01-14 17:25:24.031,-11196140,-10468750,11472960,20343990,-14916990,-10864260,2619629
2026-01-14 17:25:24.041,-11187510,39153280,61233100,20335360,-18823240,-103637700,27539060
2026-01-14 17:25:24.051,30003700,-6091376,16126560,61492040,-14685060,-21264650,2541504
2026-01-14 17:25:24.061,30020960,49047760,51286820,61474790,-12792970,-20629880,28979490
2026-01-14 17:25:24.071,30055490,-6257104,16288830,61440260,-93566900,-2003479,23840330
2026-01-14 17:25:24.081,30081380,-6344283,16374290,61414360,-8538818,-14880370,21557620
2026-01-14 17:25:24.091,30124540,38704430,61578370,61371210,-78125,-33251950,2211914
2026-01-14 17:25:24.101,-11006250,38609480,61673320,20154100,-62683100,-3395996,18334960
2026-01-14 17:25:24.111,-10955320,-6603232,16633240,20101440,-72143550,-19396970,14050290
2026-01-14 17:25:24.121,4555868,-6697316,16729050,4586803,-84106450,-52612300,11419680
2026-01-14 17:25:24.131,-10837070,38367790,61966790,19978010,-10357670,84472660,8996582
2026-01-14 17:25:24.141,30340340,38281480,62053110,61051840,-17407230,11859130,37323000
2026-01-14 17:25:24.151,44157920,3819514,6215667,47216980,-2319336,1854248,22125240
2026-01-14 17:25:24.161,-10675650,3810884,6224301,19811420,-27270510,16064450,-30288700
2026-01-14 17:25:24.171,-14743680,4896058,5139127,15657080,-28125,-66185000,-85754390
2026-01-14 17:25:24.181,44146700,-7230755,17265940,47176420,-30859380,-15271000,-10217290
2026-01-14 17:25:24.191,-10532370,-7342966,17378150,19661230,-29711910,-7409668,-17956540
2026-01-14 17:25:24.201,30582020,-7446548,17481730,60689300,-2685547,-17321780,-16516110
2026-01-14 17:25:24.211,44109580,-7566529,17603440,47109950,-23950200,-28466800,-16223150
2026-01-14 17:25:24.221,-10382180,-7696001,17732910,19500680,-19006350,-20617680,-1463623
2026-01-14 17:25:24.231,-10333840,37357890,63028490,19445440,-2006836,-16955570,-15539550
2026-01-14 17:25:24.241,-10285500,-12471300,13475510,19390190,-171875,-5618286,-12188720
2026-01-14 17:25:24.251,30711500,37124830,63330590,60266360,-16015630,1303711,-1005249
2026-01-14 17:25:24.261,30720130,-8208726,18255990,60188670,-15344240,15490720,-1149292
2026-01-14 17:25:24.271,-1014046,36900410,63606810,1922448,-20861820,105773900,-96191410
2026-01-14 17:25:24.281,-10100780,-8447820,18500270,19177850,-23474120,17651370,-82458500
2026-01-14 17:25:24.291,3076330,-8568663,18621110,5995561,-24353030,20898440,-8178711
2026-01-14 17:25:24.301,-10028280,-8680876,18733320,19094990,-29370120,22424320,-95458980
2026-01-14 17:25:24.311,-9994615,-8801718,18854170,19059600,-32861330,22741700,-11035160
2026-01-14 17:25:24.321,30823710,-8907026,18956020,59808870,-36816410,21191410,-10961910
2026-01-14 17:25:24.331,-9944550,48823340,51632080,19006090,-4255371,1920166,-13269040
2026-01-14 17:25:24.341,3085827,36054500,64349140,5975710,-45239260,22814940,-13708500
2026-01-14 17:25:24.351,-9901392,-9233302,19268490,18962920,-46044920,15014650,-96191410
2026-01-14 17:25:24.361,30892760,35786930,64495870,59739820,-4453125,12402340,-6518555
2026-01-14 17:25:24.371,30892760,48670560,51560450,59739820,-44360350,16174320,-4336548
2026-01-14 17:25:24.381,-9891032,35536600,64625340,18956020,-4609375,18591310,-44281010
2026-01-14 17:25:24.391,-9898800,35433020,64677140,18965520,-46557620,17626950,-58563230
2026-01-14 17:25:24.401,3088416,35312180,64728920,5978300,-47021480,1237793,-7788086
2026-01-14 17:25:24.411,-9924698,-9787456,19784660,18991410,-4819336,72143550,-119018600
2026-01-14 17:25:24.421,30866870,-9868596,19858890,59817500,-5517578,-11177060,-22790530
2026-01-14 17:25:24.431,-9966128,34958280,64858400,19036300,-5732422,3572464,-25683590
2026-01-14 17:25:24.441,30840970,-10058490,20031530,59895190,-5136719,3010559,-25463870
2026-01-14 17:25:24.451,-10014470,3466480,6496199,19091540,-43676760,-4269409,-15136720
2026-01-14 17:25:24.461,-10048130,34518070,65005140,19126930,-2512207,-10412600,-54969790
2026-01-14 17:25:24.471,-10092150,-10357150,20302560,19169220,-45837400,-28900150,17407230
2026-01-14 17:25:24.481,30694240,-10436560,20378520,60041930,56549070,-35614020,2512207
2026-01-14 17:25:24.491,-10190560,4953787,4984724,19260720,59051510,-95825190,2944336
2026-01-14 17:25:24.501,3055614,-10559990,20496770,6009371,7458496,10406490,30688480
2026-01-14 17:25:24.511,3047845,-10604870,20538210,6013688,58654780,-13317870,34106440
2026-01-14 17:25:24.521,-10351970,3404332,6527273,19410050,7330322,-6147461,38378900
2026-01-14 17:25:24.531,-10397710,33982910,65315880,19450620,19699100,-10322270,33813480
2026-01-14 17:25:24.541,-10416700,33905220,65376300,19466160,-60668940,-11640630,24768070
2026-01-14 17:25:24.551,-10428790,33818900,65462620,19471330,-12335210,-10078130,20080570
2026-01-14 17:25:24.561,-14489640,33715320,65566200,15393210,-16516110,-6308594,18579100
2026-01-14 17:25:24.571,-10411520,33611740,65687050,19436810,-18579100,-2607422,21154780
2026-01-14 17:25:24.581,30176340,-11184060,21115660,59990140,-28564450,-347,8527,22241210
2026-01-14 17:25:24.591,30159070,-11295410,21228740,59938340,-46411130,2890625,24035640
2026-01-14 17:25:24.601,30141810,-11399860,21331460,59903820,-6508789,33911130,21398930
2026-01-14 17:25:24.611,-10380450,33171520,66110000,19381560,-77783200,28442380,20202640
2026-01-14 17:25:24.621,30115910,4794893,5126350,59877930,-82421870,30737300,20666500
2026-01-14 17:25:24.631,30098650,-11719230,21633560,59895190,-75439460,37353520,19543460
2026-01-14 17:25:24.641,30072760,32757200,66299890,59921090,-63720700,34692380,23596190
2026-01-14 17:25:24.651,30029600,32653630,66351680,59946980,-5463867,26904300,22705080
2026-01-14 17:25:24.661,2996920,32550050,66403470,5997289,-47436520,8203125,120788600
2026-01-14 17:25:24.671,-10550490,32472360,66463900,19539520,-3857422,-22924800,17959600
2026-01-14 17:25:24.681,43393150,-12118870,22010770,46410780,-2454834,-3605957,-39489740
2026-01-14 17:25:24.691,-10636810,32325620,66610630,19608580,-6304932,-3022461,-6173706
2026-01-14 17:25:24.701,29658430,47755600,51197920,59972880,5682373,-20861820,-111206100
2026-01-14 17:25:24.711,29580750,-12340710,22237780,59946980,18713380,12323000,-17712400
2026-01-14 17:25:24.721,-10745570,-12391630,22290440,19689710,25048830,22094730,-296875
2026-01-14 17:25:24.731,-14822570,-12443420,22342230,15716290,29541020,7611084,-40673830
2026-01-14 17:25:24.741,43110900,-12486580,22385380,46175140,4736328,13012700,-40234380
2026-01-14 17:25:24.751,2921823,-12510750,22413010,5998150,65722660,35913090,-37329100
2026-01-14 17:25:24.761,-11004520,32049410,67007690,19914140,6982422,46606440,-5
2026-01-14 17:25:24.771,28959270,-12525420,22432860,60050560,50439450,40405270,-7636719
2026-01-14 17:25:24.781,-11203050,-12524560,22433720,20095400,4724121,47973630,-78271490
2026-01-14 17:25:24.791,-11327350,-12515930,22425090,20212790,66845700,5854492,-65478520
2026-01-14 17:25:24.801,28475900,3210117,6699041,60292250,796875,6191406,-6425781
2026-01-14 17:25:24.811,28286000,-12446880,22356040,60413090,9160156,38452150,-6694336
2026-01-14 17:25:24.821,-15767130,3217888,6689549,16653430,10800780,296875,-61865230
2026-01-14 17:25:24.831,-11936740,3223930,6683506,20794570,11953130,3930664,-53027340
2026-01-14 17:25:24.841,27759470,32291100,66766000,60766990,14472660,27368160,-25634770
2026-01-14 17:25:24.851,-12191380,-12206050,22113490,21040570,17636720,84814460,38414000
2026-01-14 17:25:24.861,-12280280,32506890,66619260,21124300,19570310,14472660,8508301
2026-01-14 17:25:24.871,-12351060,-16430740,17422690,21191620,20683590,11835940,46142580
2026-01-14 17:25:24.881,-1680142,32869420,66429370,1681030,19492190,65283200,-17224120
2026-01-14 17:25:24.891,-12376960,33076580,66325790,21217520,15166020,19519040,-71240230
2026-01-14 17:25:24.901,-12339840,3324058,6621359,21185580,98046870,-10498050,-14521480
2026-01-14 17:25:24.911,-12248340,48093100,51378320,21104450,5625,-18847660,-21777340
2026-01-14 17:25:24.921,-16103770,33301000,66170420,16990070,16040040,-21367190,-28398440
2026-01-14 17:25:24.931,42683630,-11554360,21504950,45963670,61035160,-459375,-24863280
2026-01-14 17:25:24.941,-11725270,-11771020,21737150,20574460,13408200,-11894530,-20996090
2026-01-14 17:25:24.951,-11486170,32964370,66904110,20312920,14335940,32402340,-20195310
2026-01-14 17:25:24.961,-11347200,-12099020,22099680,20158410,10927730,14326170,-10019530
2026-01-14 17:25:24.971,-11247930,-12172390,22181680,20050520,8261719,86376950,-23754880
2026-01-14 17:25:24.981,-11186650,32860780,67249380,19990960,50683590,23828120,-30151370
2026-01-14 17:25:24.991,28484530,-12142180,22142830,59696660,4831543,30117190,-33984380
2026-01-14 17:25:25.001,-11244480,32860790,66955900,20088500,6894531,30488280,-38427740
2026-01-14 17:25:25.011,-11341160,-11931560,21887340,20216240,84765620,21835940,-5834961
2026-01-14 17:25:25.021,-11436100,32878050,66403470,20345720,10380860,-37719730,-5229492
2026-01-14 17:25:25.031,-11480130,47836740,51168570,20422540,11347660,-19111330,-4572754
2026-01-14 17:25:25.041,28890220,-11667440,21547250,60810140,98046870,-18378910,-6279297
2026-01-14 17:25:25.051,-11430060,32731310,65911460,20420820,62597660,-15341800,-6982422
2026-01-14 17:25:25.061,-11361010,-11673480,21523940,20369030,3881836,-7363281,-6098633
2026-01-14 17:25:25.071,-11292820,-11704550,21544660,20316370,22680660,21224980,-43041990
2026-01-14 17:25:25.081,-11234120,-11719220,21547250,20271490,3326416,1081543,-23156740
2026-01-14 17:25:25.091,-11191830,32455100,65721570,20244730,-16247560,23388670,-17419430
2026-01-14 17:25:25.101,43772090,-11714050,21517900,46912290,-27319340,17358400,-1607666
2026-01-14 17:25:25.111,29736120,-11694200,21485960,61120880,-33984380,14538570,-1508789
2026-01-14 17:25:25.121,2980518,-11665710,21445400,6120720,-3491211,41748050,-10595700
2026-01-14 17:25:25.131,29856960,-11628600,21396190,61293520,-32080080,13458250,-44067380
2026-01-14 17:25:25.141,-11179740,32316990,65238200,20308600,-34033200,-791626,21606440
2026-01-14 17:25:25.151,-11208230,-15921470,16896160,20349170,-39379880,-20983890,10180660
2026-01-14 17:25:25.161,29926010,-11478400,21218380,61569730,-52490230,-14404300,10595700
2026-01-14 17:25:25.171,2992605,32377410,64936080,6167333,-6645508,-19885250,12005620
2026-01-14 17:25:25.181,2990876,-11348060,21072510,6177689,-7504883,-3149414,20983890
2026-01-14 17:25:25.191,-11424020,-11291960,21007770,20599490,-77441410,-1730957,32788090
2026-01-14 17:25:25.201,-15621690,-11216860,20927500,16539930,-70996100,-5911255,47192380
2026-01-14 17:25:25.211,29770650,32541410,64530390,62087640,-62109380,-116882300,63720700
2026-01-14 17:25:25.221,-11642400,-11064080,20769540,20829960,-5048828,-2609253,70947260
2026-01-14 17:25:25.231,-11711450,32714040,64357760,20899010,-4946289,1776123,7158203
2026-01-14 17:25:25.241,29546220,-10862960,20573590,62312060,-5004883,23022460,76904300
2026-01-14 17:25:25.251,-15992850,3296436,6419377,16911090,-51123050,8868408,7661133
2026-01-14 17:25:25.261,-11923790,-15489000,15498720,21100990,-5307617,12329100,8286133
2026-01-14 17:25:25.271,-11995440,47118580,50194910,21167460,-5126953,28167720,84765620
2026-01-14 17:25:25.281,-12060170,-10381320,20123020,21223560,-47143560,-13061520,87402340
2026-01-14 17:25:25.291,29080120,33646260,63908910,62467430,-4086914,-33081060,77441410
2026-01-14 17:25:25.301,-12163760,-10134450,19903780,21309880,-37036130,-57958980,68652340
2026-01-14 17:25:25.311,-16306010,34008800,63822600,17219420,-2565918,-61865230,59033200
2026-01-14 17:25:25.321,28829800,34181430,63822600,62389740,-18005370,-52490230,5234375
2026-01-14 17:25:25.331,28752110,-9826300,19642240,62329320,-1665039,-48339840,40478520
2026-01-14 17:25:25.341,28708950,-9749479,19580950,62268900,-18273930,-4104004,41064450
2026-01-14 17:25:25.351,-12236260,-9683013,19526570,21323690,-12249760,-17236330,43310550
2026-01-14 17:25:25.361,-12231950,-9625182,19480830,21310740,-7702637,13391110,43359380
2026-01-14 17:25:25.371,28596740,34828810,63813970,62139430,-29201510,23388670,51953120
2026-01-14 17:25:25.381,-12236260,34915120,63796710,21306430,16137700,26586910,61816410
2026-01-14 17:25:25.391,28570850,35010070,63753550,62113540,25317380,19543460,6611328
2026-01-14 17:25:25.401,-12237990,35113650,63719020,21304700,3137207,60028080,6040039
2026-01-14 17:25:25.411,28553580,-9279916,19170080,62079000,27416990,-42541500,5473633
2026-01-14 17:25:25.421,2856222,-9198775,19095850,6205311,25610350,-18688960,4584961
2026-01-14 17:25:25.431,-16275200,-9117638,19021620,17181180,20837400,-19689940,34838870
2026-01-14 17:25:25.441,28579480,35553870,63572280,61984060,16186520,-14123540,23388670
2026-01-14 17:25:25.451,-12140450,-899766,6,1891718,21195080,10876470,-32958980,203125
2026-01-14 17:25:25.461,-12089520,35726500,63555020,21142430,52001950,-48461910,16638180
2026-01-14 17:25:25.471,-12030830,35786920,63563650,21080280,21102900,-43237300,21313480
2026-01-14 17:25:25.481,28752110,-13382550,14376920,61707840,-61950680,-28125,21179200
2026-01-14 17:25:25.491,43581320,-8904436,18855030,46861360,-1928711,-904541,15551760
2026-01-14 17:25:25.501,28907480,-8902711,18856750,61552470,-3671875,13696290,52368160
2026-01-14 17:25:25.511,2899380,3587324,6366723,6150068,-44506840,55358890,-41534420
2026-01-14 17:25:25.521,2908014,35838710,63684500,6146617,-3088379,-4473877,-70739740
2026-01-14 17:25:25.531,-11601830,3578692,6370177,20663360,-15161130,-6463623,-12780760
2026-01-14 17:25:25.541,-11538820,-9027868,18973280,20605530,29403690,-107055700,-23962400
2026-01-14 17:25:25.551,-11476670,-9081386,19023350,20546840,19750980,-49224860,-2709961
2026-01-14 17:25:25.561,29416750,35588400,63813970,61319420,24316410,33416750,-34936520
2026-01-14 17:25:25.571,-11352380,-9213450,19150230,20429450,14660650,13769530,-42822260
2026-01-14 17:25:25.581,29546220,-9275600,19208930,61258990,17059330,17773440,-48046880
2026-01-14 17:25:25.591,29589380,-9357600,19282290,61267620,-513916,2915039,-47827150
2026-01-14 17:25:25.601,2962393,35174080,63952080,6131943,-8239746,61376950,-50878900
2026-01-14 17:25:25.611,-11338570,48031820,50921700,20443260,-17932130,8569336,-6230469
2026-01-14 17:25:25.621,-11409350,-9581160,19455800,20527850,-30737300,97216800,-77001950
2026-01-14 17:25:25.631,29572120,47784080,50703320,61751000,-54052740,9272461,-10986330
2026-01-14 17:25:25.641,-11696780,34388590,63788070,20844630,-95654300,71777340,-15019530
2026-01-14 17:25:25.651,29304540,-9948008,19727690,62312060,-11552730,671875,-18046880
2026-01-14 17:25:25.661,-12228490,33672160,63710390,21400510,-13789060,50097660,-21035160
2026-01-14 17:25:25.671,-12603970,-10408070,20096260,21784620,-14833980,1381836,-2265625
2026-01-14 17:25:25.681,-17201290,-10728310,20362980,18119520,-13710940,-38391110,-225
2026-01-14 17:25:25.691,-13596610,31980350,63762180,22777260,-13173830,16552730,-24238280
2026-01-14 17:25:25.701,-14213780,-11534510,21041430,23385800,-13691410,36523440,-27011720
2026-01-14 17:25:25.711,-14918990,3041801,6390893,24078920,-13037110,36987300,-28769530
2026-01-14 17:25:25.721,25420280,29477170,64003860,65971890,-10722660,42919920,-28652340
2026-01-14 17:25:25.731,24444900,-13206470,22459620,66705580,-6035156,58447260,-26523440
2026-01-14 17:25:25.741,-17512800,2731924,6419377,26595050,-18615720,6040039,-22128910
2026-01-14 17:25:25.751,22183400,-14538330,23579140,68259280,4555664,5131836,-17226560
2026-01-14 17:25:25.761,20940450,24928270,64305980,69053390,7783203,33764650,-1359375
2026-01-14 17:25:25.771,-20634880,41971520,46037040,29584200,11083980,25024410,-9213867
2026-01-14 17:25:25.781,1829055,22416460,64314610,7063300,13486330,11663820,-5136719
2026-01-14 17:25:25.791,1692673,-17290970,25832870,7140984,15292970,-8026123,-770874
2026-01-14 17:25:25.801,15562910,-17944390,26353360,72152170,16279300,-37670900,37353520
2026-01-14 17:25:25.811,-24960210,-22304850,23132280,33666120,15605470,-76123050,80078130
2026-01-14 17:25:25.821,1288711,-19208930,27350320,7348144,14580080,-99853520,121875
2026-01-14 17:25:25.831,1160098,3767812,4244108,7405977,13515630,-10751950,16132810
2026-01-14 17:25:25.841,-31667800,1511405,6377946,32517330,11757810,-10791020,19423830
2026-01-14 17:25:25.851,9218630,36376470,41343130,75009250,10087890,-9770508,22285160
2026-01-14 17:25:25.861,-29444360,12999300,63615440,37796380,82910160,-83154300,24941410
2026-01-14 17:25:25.871,-30125410,1204117,6355503,38410090,6879883,-58203120,26875
2026-01-14 17:25:25.881,-30735660,11160750,63485970,38956470,5126953,-30395510,27363280
2026-01-14 17:25:25.891,4082780,-22844590,30222950,4082785,34448240,-4019165,27109380
2026-01-14 17:25:25.901,-31745570,962430,6334787,39862800,20043940,17260740,25957030
2026-01-14 17:25:25.911,4212256,895101,3,6326154,76580220,11047360,2626953,24453120
2026-01-14 17:25:25.921,36598300,8338198,63149330,43900700,6500244,20495600,22148440
2026-01-14 17:25:25.931,-3276496,-24097910,31179330,4079415,-9436035,11480710,19863280
2026-01-14 17:25:25.941,3090144,7250606,62924900,77080850,-14343260,-19256590,18173830
2026-01-14 17:25:25.951,290026,31991580,37596980,7721897,-24633790,-28393560,16376950
2026-01-14 17:25:25.961,278804,8,31715360,37355300,7733119,-32495120,-48095700,14169920
2026-01-14 17:25:25.971,2727612,5938594,62648700,77426120,-3762207,-5390625,11337890
2026-01-14 17:25:25.981,36372150,5584696,62588270,43850630,-3696289,-4658203,87060540
2026-01-14 17:25:25.991,-3340370,31049860,36777840,4143291,-38842770,-29614260,67822260
2026-01-14 17:25:26.001,275351,5,-28431790,29106960,7760738,-3239746,-12451170,5107422
2026-01-14 17:25:26.011,36481780,30733080,36507670,43965440,-31689450,-61401370,3605957
2026-01-14 17:25:26.021,-33382130,4548890,62450160,41437220,-2849121,2319336,22949220
2026-01-14 17:25:26.031,-33368330,30485340,36289280,41433760,-24353030,9838867,75927740
2026-01-14 17:25:26.041,-3335364,30376590,36190880,4143119,-23986820,11291500,9262085
2026-01-14 17:25:26.051,305562,8,30278190,36099390,7782319,-23327640,14245610,-20629880
2026-01-14 17:25:26.061,-33325170,30189280,36015660,41425130,-23925780,13586430,-60180660
2026-01-14 17:25:26.071,-33319120,3866990,62165320,41431170,-24707030,6530762,-4837036
2026-01-14 17:25:26.081,-33313950,-25863950,32451640,41436350,-27783200,-27572630,-48713680
2026-01-14 17:25:26.091,3288676,3711616,62027210,78038970,-32543940,-11767580,4147339
2026-01-14 17:25:26.101,3340464,3659826,61975420,78090750,-32348630,-1427002,6213379
2026-01-14 17:25:26.111,-36967560,3625300,61923630,37782740,-27246090,-7696533,37323000
2026-01-14 17:25:26.121,342678,8,-25866540,32414530,7815980,-24682620,-7672119,309906
2026-01-14 17:25:26.131,346995,3,29800860,35627240,7818572,-20910640,-119018600,5831909
2026-01-14 17:25:26.141,3513096,3573508,61820050,78211600,-15039060,-11047360,59448240
2026-01-14 17:25:26.151,37163680,3573512,61802790,44630070,-10479740,6982422,56671140
2026-01-14 17:25:26.161,362530,3,357350,8,6178553,7823750,-1508789,-7171631,10787960
2026-01-14 17:25:26.171,3668464,3573506,61768260,78246130,-16052250,-13146970,62675480
2026-01-14 17:25:26.181,-33155120,3582140,61759630,41353490,-115722700,-13586430,13511660
2026-01-14 17:25:26.191,-33126640,3582140,61759630,41330180,-93688970,-1472168,23635860
2026-01-14 17:25:26.201,40663040,-25829430,32365330,41406920,-48828120,-118774400,15640260
2026-01-14 17:25:26.211,390154,8,3590776,61785530,7822024,-25772100,-92041020,-79422
2026-01-14 17:25:26.221,395332,3,29786180,35607380,7820298,2949524,-657959,29159550
2026-01-14 17:25:26.231,4005100,-25844100,32385180,78185710,24917600,-5718231,56640620
2026-01-14 17:25:26.241,-32944510,3608038,61837320,41167040,5935669,53497310,8105469
2026-01-14 17:25:26.251,37427800,3616670,61845940,44832050,80200190,11450200,9411621
2026-01-14 17:25:26.261,4160468,-25840650,32388630,78151180,85876460,10845950,13964840
2026-01-14 17:25:26.271,37485640,29837970,35659170,44877800,65979000,22094730,14672850
2026-01-14 17:25:26.281,37523620,3668458,61845940,44908880,76049810,-17837520,13891600
2026-01-14 17:25:26.291,-3276668,29867320,35681610,4101687,9753418,-18295290,13110350
2026-01-14 17:25:26.301,-32719220,3728880,61837310,40978010,7897949,-4257202,14758300
2026-01-14 17:25:26.311,453165,5,3754780,61828680,7814255,8544922,-37231440,1282959
2026-01-14 17:25:26.321,-32624270,3797936,61820060,40900330,11236570,40100100,12084960
2026-01-14 17:25:26.331,-32567310,384107,8,6181144,40853720,8319092,9240723,8483887
2026-01-14 17:25:26.341,482513,3,3892884,61794160,7814255,6323242,97961420,64086910
2026-01-14 17:25:26.351,493733,-25630900,32201320,7815117,11997220,132751500,40496820
2026-01-14 17:25:26.361,-3238517,29982120,35756710,4070785,3366089,19641110,-6832123
2026-01-14 17:25:26.371,38032880,-25541130,32118460,45331830,-15159610,104003900,-9407043
2026-01-14 17:25:26.381,532577,3,4117312,61673310,7819434,-9289551,-10070800,-49324040
2026-01-14 17:25:26.391,546387,5,4169100,61638790,7821161,-7531738,-10614010,-39367680
2026-01-14 17:25:26.401,5610596,4238148,61604260,78220230,-89904780,-1171875,-6695557
2026-01-14 17:25:26.411,575734,5,30083110,35811090,7822889,-10296630,-15539550,-12817380
2026-01-14 17:25:26.421,5904064,-25290810,31885410,78220230,-11218260,-14465330,-15734860
2026-01-14 17:25:26.431,3852233,4462576,61552470,4574012,-14196780,-1484375,-19494630
2026-01-14 17:25:26.441,6188912,4548890,61552470,78211600,-15905760,-14978030,-21044920
2026-01-14 17:25:26.451,38667310,30247110,35940570,45854040,-18139650,-11468510,-21948240
2026-01-14 17:25:26.461,3872776,4712896,61561100,4589721,-16296390,-6161499,-22399900
2026-01-14 17:25:26.471,659462,8,4799210,61578370,7813393,-15917970,-32104490,-22790530
2026-01-14 17:25:26.481,-31450360,4885526,61595630,39933580,-14611820,-33416750,-20031740
2026-01-14 17:25:26.491,6862184,4989102,61612890,78073490,-12927250,-46424860,-20471190
2026-01-14 17:25:26.501,38966830,5092686,61630150,46072420,-13330080,9292603,-17358400
2026-01-14 17:25:26.511,711252,3,5196266,61647420,7801308,-17297360,-20141600,-10839840
2026-01-14 17:25:26.521,39069550,30682150,36316900,46142340,-1829834,26321410,-848999
2026-01-14 17:25:26.531,-31021370,5455216,61699210,39551200,-19372560,28930660,-5239868
2026-01-14 17:25:26.541,-30931600,-24685730,31420160,39468330,-23937990,20202640,-37017820
2026-01-14 17:25:26.551,7613140,5800484,61751000,77840440,-25073240,104904200,-27236940
2026-01-14 17:25:26.561,-30741710,5990380,61785520,39295700,-29296880,-9803772,-76446540
2026-01-14 17:25:26.571,788936,5,-24400880,31204370,7771959,-32080080,-71899420,10687260
2026-01-14 17:25:26.581,8036088,-24282630,31115460,77659180,-40112300,-20227050,3671875
2026-01-14 17:25:26.591,-30393850,6767232,61923630,38970280,-4633789,-265625,61035160
2026-01-14 17:25:26.601,8398624,-23974480,30888450,77452020,-47631840,-25634770,7294922
2026-01-14 17:25:26.611,-33915750,-23775950,30741710,34775120,-48779300,-30981440,8066406
2026-01-14 17:25:26.621,-29818120,-23565340,30589790,38423900,-5073242,-38208010,8120117
2026-01-14 17:25:26.631,-29543630,-23326240,30414570,38163220,-45874020,-39624020,8623047
2026-01-14 17:25:26.641,-29224260,-23066420,30225540,37861120,-42871100,-40966800,10
2026-01-14 17:25:26.651,-28860000,-22776400,30014920,37517570,-33325200,-5932617,13115230
2026-01-14 17:25:26.661,1064287,-22456160,29782730,7617452,-12792970,-8222656,18183590
2026-01-14 17:25:26.671,11255700,-22086730,29513420,75820620,14880370,-94873050,21347660
2026-01-14 17:25:26.681,11980770,35150760,40238280,75389040,45263670,-92041020,20605470
2026-01-14 17:25:26.691,-26671870,-21208890,28872090,35441650,68408200,-77783200,15966800
2026-01-14 17:25:26.701,-25938180,-20712570,28505250,34742490,91552740,-5786133,10576170
2026-01-14 17:25:26.711,14656580,-20179990,28105590,73766290,11142580,-5019531,69677740
2026-01-14 17:25:26.721,44381240,16650500,63969340,44438690,13701170,-5673828,5283203
2026-01-14 17:25:26.731,-23377160,17850300,64167860,32297140,153125,-43432620,19091800
2026-01-14 17:25:26.741,-22433720,-18462290,26802210,31393400,15244140,-32714840,-2614746
2026-01-14 17:25:26.751,-21457480,-17849440,26327470,30453410,14951170,-23571780,-5776367
2026-01-14 17:25:26.761,-20473470,21544660,64599450,29503930,14277340,-17773440,-7651367
2026-01-14 17:25:26.771,-19473920,22787620,64703030,28535450,13320310,-60394290,-9345703
2026-01-14 17:25:26.781,2241646,4235476,4643064,6847507,11542970,4425049,-11660160
2026-01-14 17:25:26.791,-17505900,25230390,64815250,26619220,9394531,22387700,-13916020
2026-01-14 17:25:26.801,24548490,26430190,64841140,66774640,72753900,359375,-15302730
2026-01-14 17:25:26.811,-15615560,-14006620,23247690,24763410,55908200,47436520,-16103520
2026-01-14 17:25:26.821,2649062,-13373050,22724610,6510871,34716800,5805664,-1703125
2026-01-14 17:25:26.831,2737970,29779280,64754820,6430598,11895750,66064450,-17490230
2026-01-14 17:25:26.841,28208310,-12169800,21718150,63529120,-9118652,67041020,-17646480
2026-01-14 17:25:26.851,-12312220,3174730,6459946,21489420,-28125,6767578,-17148440
2026-01-14 17:25:26.861,44275310,3264497,6451311,47513920,-48291020,6694336,-16855470
2026-01-14 17:25:26.871,30357600,-10565170,20353490,61431620,-6347656,5991211,-16523440
2026-01-14 17:25:26.881,-10344200,-10091290,19946940,19521400,-6923828,48632810,-15517580
2026-01-14 17:25:26.891,-9784003,-9655392,19571460,18959470,-69140620,40356440,-14140630
2026-01-14 17:25:26.901,-9268688,35614290,64081550,18438980,-6425781,4284668,-12998050
2026-01-14 17:25:26.911,-8805167,36235770,63977970,17970280,-54785160,40161130,-11484380
2026-01-14 17:25:26.921,-12498230,36796830,63883020,13414060,-4609375,34057620,-10068360
2026-01-14 17:25:26.931,-7993793,-8167291,18280160,17141640,-4645996,28198240,-9169922
2026-01-14 17:25:26.941,-7645935,-7851372,18009120,16781700,-49316410,20471190,-8413086
2026-01-14 17:25:26.951,33715320,-7554445,17753630,57504220,-5083008,15710450,-8305664
2026-01-14 17:25:26.961,3393112,-11883140,12907030,5713305,-5073242,14355470,-7607422
2026-01-14 17:25:26.971,34121010,5016900,5259969,56787790,-52197260,13208010,-7104492
2026-01-14 17:25:26.981,34285010,-11422040,12453170,56451150,-5205078,13391110,-6928711
2026-01-14 17:25:26.991,-6338238,-6566979,16911180,15396320,-5366211,11047360,-6425781
2026-01-14 17:25:27.001,34561220,-6379674,16753220,55881460,-52734380,12780760,-60595700
2026-01-14 17:25:27.011,-5963621,40594760,63399650,14994080,-50097660,19384770,-5629883
2026-01-14 17:25:27.021,-5804800,-6053394,16475280,14824900,-44458010,22290040,-5341797
2026-01-14 17:25:27.031,34880600,51090880,53317860,55216820,-3786621,1381836,-45922850
2026-01-14 17:25:27.041,-5538079,41268030,63313330,14539190,-2487793,8843994,-36987300
2026-01-14 17:25:27.051,-5420691,-5682232,16155910,14414900,-13098150,23364260,-3227539
2026-01-14 17:25:27.061,35122280,-5581244,16067000,54750710,-10437010,14819340,-31274410
2026-01-14 17:25:27.071,43939540,-5488884,15986720,45881670,-5218506,-1600647,-2541504
2026-01-14 17:25:27.081,3526039,-10134710,11185530,5450902,-36193850,-635376,-25732420
2026-01-14 17:25:27.091,-5042623,-5331786,15850340,14016110,-4824829,-21826170,-30273440
2026-01-14 17:25:27.101,35407130,42096680,63175220,54293240,-52581790,-22937010,-3256836
2026-01-14 17:25:27.111,-4873443,-5219574,15755400,13840030,-6414795,-17785640,-3552246
2026-01-14 17:25:27.121,35553860,-5172965,15715690,54077440,-80444340,-107421900,-3720703
2026-01-14 17:25:27.131,-8727399,-5143615,15693250,9623540,-12902830,-39733890,-44555660
2026-01-14 17:25:27.141,-4609313,-5115994,15669080,13568990,-15197750,74646000,-47460940
2026-01-14 17:25:27.151,3578695,42424680,63157960,5380988,-17236330,19213870,-47973630
2026-01-14 17:25:27.161,-4453944,4245920,6315797,13413620,-16430660,22741700,-49145510
2026-01-14 17:25:27.171,-4393519,42476470,63157960,13353200,-715332,2824707,-48242190
2026-01-14 17:25:27.181,-4333100,-5032267,15597440,13292780,-49926760,34521480,-4946289
2026-01-14 17:25:27.191,-8313079,-5014140,15581040,9209220,-4928589,33813480,-5283203
2026-01-14 17:25:27.201,-42364260,42571420,63114810,131995600,-67871100,28271480,-5366211
2026-01-14 17:25:27.211,-42010360,42597310,63088910,131658900,-99731450,1928711,-5620117
2026-01-14 17:25:27.221,-4173411,42623210,63063020,13141730,-13000490,14904790,-58496100
2026-01-14 17:25:27.231,-4163056,-4919192,15486090,13134820,-2680664,10021970,-6323242
2026-01-14 17:25:27.241,36218510,42631840,63002590,53533650,-39208980,-13818740,-68115230
2026-01-14 17:25:27.251,-41837720,51773640,53809000,131658900,-40307620,-11279300,-6660156
2026-01-14 17:25:27.261,-42157100,42571420,62942180,132030100,-36279300,-15283200,-6352539
2026-01-14 17:25:27.271,-4264045,42519620,62924900,13258250,-28271480,-22351070,-60009770
2026-01-14 17:25:27.281,36166720,-4960626,15496440,53827120,-17175290,-24328610,-55126950
2026-01-14 17:25:27.291,-4406468,51618280,53670890,13409310,-94055180,-25341800,-5083008
2026-01-14 17:25:27.301,-4491060,-5054709,15574990,13497350,-13391110,-20031740,-49194340
2026-01-14 17:25:27.311,-4585144,-5118584,15631960,13593160,-2154541,-15356450,-5209961
2026-01-14 17:25:27.321,35855980,-5192818,15695840,54258700,-2709961,-57159420,-53222660
2026-01-14 17:25:27.331,-4823377,41932670,62993960,13838300,-27661130,10601810,-50878900
2026-01-14 17:25:27.341,-4977021,41777300,63028490,13995400,-25317380,20812990,-45825200
2026-01-14 17:25:27.351,35458920,-5487159,15953920,54759340,-23937990,2788086,-41674800
2026-01-14 17:25:27.361,35303550,-5598507,16049730,54983760,-18676760,28149410,-33911130
2026-01-14 17:25:27.371,35122280,-5720214,16152450,55216820,-15466310,2401123,-29907230
2026-01-14 17:25:27.381,-5750419,52046580,52068680,14792970,-16784670,14648440,-26586910
2026-01-14 17:25:27.391,-5978295,40776030,63114800,15031200,-14685060,-440979,-23779300
2026-01-14 17:25:27.401,34561220,-6117270,16480450,56071350,-5331421,-32958980,-19494630
2026-01-14 17:25:27.411,34362700,40249500,63123440,56390730,5256653,-52734380,-1194458
2026-01-14 17:25:27.421,34155540,-6411611,16721280,56701470,40649420,-66503900,-33355710
2026-01-14 17:25:27.431,-6992519,-6572157,16854210,16088580,88378900,-6723633,6707764
2026-01-14 17:25:27.441,-7254920,39420860,63123440,16361340,4989624,-49291990,1303711
2026-01-14 17:25:27.451,-7525954,39144640,63123440,16642730,-6878662,-17407230,19445800
2026-01-14 17:25:27.461,-7813390,38868430,63088910,16942250,-28149410,-47035220,27368160
2026-01-14 17:25:27.471,33016160,3859220,6307164,58376010,-39624020,11279300,4345703
2026-01-14 17:25:27.481,32757200,-7284273,17419580,58738540,-34472660,53808590,61865230
2026-01-14 17:25:27.491,-12869390,38065680,62976700,13785220,-29663090,98339840,76171870
2026-01-14 17:25:27.501,32161620,49121130,51627770,59506770,-30249020,12314450,9008789
2026-01-14 17:25:27.511,31833620,37634100,62821320,59903820,-22973630,12285160,11191410
2026-01-14 17:25:27.521,31479720,-12127250,13129040,60309510,-22375490,10947270,12695310
2026-01-14 17:25:27.531,-14326940,-7658886,17649180,15245180,-296875,8989258,13554690
2026-01-14 17:25:27.541,30763290,-7679604,17645730,61077730,-50097660,6953125,13876950
2026-01-14 17:25:27.551,30400760,37021250,62381110,61457520,-703125,46484380,14199220
2026-01-14 17:25:27.561,-11297140,3687451,6228617,20484690,-8964844,1628418,14472660
2026-01-14 17:25:27.571,44303800,-7795267,17685440,47554480,-95214850,-7458496,15947270
2026-01-14 17:25:27.581,29313170,48050800,50609230,62527860,-9667969,-21972660,18017580
2026-01-14 17:25:27.591,2895065,-7948047,17791610,6285585,-8798828,-31176760,20117190
2026-01-14 17:25:27.601,44141520,-8036091,17858930,47595920,-75683590,-3671875,22011720
2026-01-14 17:25:27.611,-13001030,-8139670,17945250,22164410,-61376950,-41577150,23535160
2026-01-14 17:25:27.621,-13291910,35804180,62096260,22443220,-5600586,-55908200,24042970
2026-01-14 17:25:27.631,27569570,35640180,62139420,63822600,-6010742,-6699219,23261720
2026-01-14 17:25:27.641,-13797730,-8495295,18262900,22921410,-6044922,-6455078,22226560
2026-01-14 17:25:27.651,26982620,-8638584,18395820,64116080,-5888672,-47070310,20664060
2026-01-14 17:25:27.661,2671506,47376670,50109460,6422831,-5449219,-3166504,19287110
2026-01-14 17:25:27.671,26464720,34854700,62527850,64340500,-43066410,-21850590,18154300
2026-01-14 17:25:27.681,43432000,34621650,62640060,47252380,-26391600,-19714360,17929690
2026-01-14 17:25:27.691,26024500,3438856,6276953,64539030,-16479490,-16149900,17539060
2026-01-14 17:25:27.701,45027390,-9519877,19223600,45415290,-10620120,-17590330,17177730
2026-01-14 17:25:27.711,25636070,33896580,63019860,64703040,-41900640,-2446289,16972660
2026-01-14 17:25:27.721,2546346,46923510,49872090,6477210,20843510,-15539550,16591800
2026-01-14 17:25:27.731,2529081,-10089560,19758760,6484114,31402590,1586914,15058590
2026-01-14 17:25:27.741,45002930,-10276870,19933990,45042700,9628296,28515620,140625
2026-01-14 17:25:27.751,-15510250,32955740,63494600,24506190,10734560,21716310,1375
2026-01-14 17:25:27.761,24807430,32722670,63606810,65065560,1889038,-7324219,14130860
2026-01-14 17:25:27.771,2466072,46542850,49665790,6512601,40802000,-2607422,14746090
2026-01-14 17:25:27.781,-15852070,46465170,49622630,24820380,6185913,-28198240,14541020
2026-01-14 17:25:27.791,24358580,32023510,63960710,65220940,91918940,-23156740,14257810
2026-01-14 17:25:27.801,-16042830,-11347200,20935260,24992150,12585450,-20397950,14169920
2026-01-14 17:25:27.811,-20156940,31574660,64219660,21050670,17407230,-1282959,13916020
2026-01-14 17:25:27.821,-16218050,-11709730,21280530,25144930,19506840,-6896973,13535160
2026-01-14 17:25:27.831,23832060,31151710,64487240,65333150,17114260,-43426510,13398440
2026-01-14 17:25:27.841,2370259,-12062760,21618030,6534178,15625,-10723880,12958980
2026-01-14 17:25:27.851,23581730,-12231090,21777710,65359040,10687260,-18029780,12333980
2026-01-14 17:25:27.861,-16514980,-12408030,21946030,25400430,81726070,-23901370,11416020
2026-01-14 17:25:27.871,2335732,-12584980,22114350,6539356,10321050,-1550293,10488280
2026-01-14 17:25:27.881,-16653950,3006412,6512600,25520410,15490720,-7672119,9707031
2026-01-14 17:25:27.891,-16728190,-12958730,22465660,25584280,19067380,-56243900,9008789
2026-01-14 17:25:27.901,42114800,-13146040,22640880,46359860,20092770,-10119630,7963867
2026-01-14 17:25:27.911,-16882690,-13333350,22816100,25723250,19177250,-18920900,7416992
2026-01-14 17:25:27.921,-16973320,29080110,65609360,25805260,18457030,-26831060,7338867
2026-01-14 17:25:27.931,22649510,28812530,65721570,65583470,15783690,-3083496,68652340
2026-01-14 17:25:27.941,22502780,28553580,65842420,65626620,16235350,-34277340,6557617
2026-01-14 17:25:27.951,2235606,45236020,49004610,6566980,1529541,-3881836,6323242
2026-01-14 17:25:27.961,-17372970,2800978,6609274,26165190,20410160,-4404297,5654297
2026-01-14 17:25:27.971,-17482590,27733570,66213580,26262730,18200680,-43139650,5161133
2026-01-14 17:25:27.981,41633160,-1475759,2413673,46030130,21240230,-3708496,48095700
2026-01-14 17:25:27.991,-17730320,2716387,6647254,26481110,25585940,-20690920,43481440
2026-01-14 17:25:28.001,-17867560,-15195200,24545030,26602820,3190918,-72631840,37768560
2026-01-14 17:25:28.011,21233920,-15419630,24752190,65963260,31298830,-18630980,33496090
2026-01-14 17:25:28.021,21018130,-15651820,24968840,66006420,37475580,19702150,3022461
2026-01-14 17:25:28.031,-18290520,25964080,67050840,26973980,48608400,45874020,27905270
2026-01-14 17:25:28.041,-18446750,25653340,67188960,27111230,5073242,65722660,25
2026-01-14 17:25:28.051,-18610750,46116270,46536120,27257970,4987793,7792969,18579100
2026-01-14 17:25:28.061,-18784250,-16593530,25839780,27412470,4580078,7060547,9729004
2026-01-14 17:25:28.071,1979244,-16829180,26052980,6631714,38256840,51220700,-33203120
2026-01-14 17:25:28.081,-19145920,-17074320,26273960,27741340,3876953,39746100,-106933600
2026-01-14 17:25:28.091,19274530,23961530,67775900,66524320,41918940,30126950,-14038090
2026-01-14 17:25:28.101,4044029,23573100,67870860,4520323,4584961,22155760,-20422360
2026-01-14 17:25:28.111,18748000,-17842540,26955860,66757370,4621582,1340332,-28442380
2026-01-14 17:25:28.121,-19934850,43137660,47667560,28471580,52197260,10475160,-3479004
2026-01-14 17:25:28.131,18204200,2233011,6814706,67007690,6113281,-6713867,-38745120
2026-01-14 17:25:28.141,1793662,2188992,6824202,6713716,7055664,36010740,-36987300
2026-01-14 17:25:28.151,3997071,-18955160,27932100,4493045,8354492,21557620,-4091797
2026-01-14 17:25:28.161,17375560,-19240010,28182420,67370220,9580078,4958496,-40161130
2026-01-14 17:25:28.171,-20968060,-19523980,28433600,29423650,10546880,7158203,-42089840
2026-01-14 17:25:28.181,1680588,-19817460,28692550,6757737,10263670,5463867,-47460940
2026-01-14 17:25:28.191,1651241,-20102310,28942870,6768095,9091797,6732178,-47509770
2026-01-14 17:25:28.201,16236180,43782180,44278160,67767280,7338867,-48291020,-46606440
2026-01-14 17:25:28.211,-21757000,-20688400,29461630,30136630,5917969,-77685540,-39501950
2026-01-14 17:25:28.221,-21940850,41175680,46245920,30298040,4572754,-6972656,-40722660
2026-01-14 17:25:28.231,15381650,-21272770,29982120,67983070,40698240,-3540039,-43847660
2026-01-14 17:25:28.241,-22324960,-21548110,30224670,30638990,41967770,31738280,-47485350
2026-01-14 17:25:28.251,14794690,-25695980,26560180,68155700,3947754,14465330,-5366211
2026-01-14 17:25:28.261,-22739280,40374660,45648610,31018790,34301760,15991210,-67285150
2026-01-14 17:25:28.271,-22952480,-22331870,30891040,31219900,3359375,2376709,-82714850
2026-01-14 17:25:28.281,-23182090,-22588230,31100790,31439150,33374020,41186520,-97558590
2026-01-14 17:25:28.291,38488640,15209010,69381400,43995640,34838870,69384770,-10361330
2026-01-14 17:25:28.301,1345678,1468248,6933824,6899298,3942871,10273440,-10546880
2026-01-14 17:25:28.311,13197830,-23400470,31738670,69234660,37573240,12695310,-10117190
2026-01-14 17:25:28.321,-24154870,-23676690,31945830,32399850,35058590,15292970,-91015620
2026-01-14 17:25:28.331,-2442848,38180480,43785890,3267868,29907230,17255860,-80566410
2026-01-14 17:25:28.341,-24717660,3776270,4340957,32976450,18933100,18125,-73583980
2026-01-14 17:25:28.351,12196560,11756340,68587290,70512140,57922360,17158200,-66552740
2026-01-14 17:25:28.361,-25351220,11160750,68302440,33637640,-20227050,13261720,-6845703
2026-01-14 17:25:28.371,-25687860,10582440,68000340,33991540,-43041990,7529297,-7832031
2026-01-14 17:25:28.381,11402440,35950060,41717750,71789640,-6738281,7330322,-96875
2026-01-14 17:25:28.391,1110898,35497760,41289620,7222124,-93359380,-57958980,-12363280
2026-01-14 17:25:28.401,1078962,8856096,67050850,7260965,-11757810,-11572270,-14169920
2026-01-14 17:25:28.411,10444330,-25508330,33014430,72972180,-13789060,-15390630,-15986330
2026-01-14 17:25:28.421,38513670,-25746560,33173250,44833780,-14921880,-16279300,-16367190
2026-01-14 17:25:28.431,9658844,706931,6643800,73533230,-14804690,-15595700,-15390630
2026-01-14 17:25:28.441,-28108180,6456494,66325780,36404950,-14082030,-14013670,-13466800
2026-01-14 17:25:28.451,-28442230,-26597640,33806820,36709650,-12841800,-11357420,-12119140
2026-01-14 17:25:28.461,827777,8,-2692306,3406836,7405114,-11044920,-85546870,-10927730
2026-01-14 17:25:28.471,-29092200,462656,6620496,37285380,-10039060,-70751950,-10332030
2026-01-14 17:25:28.481,-33066040,4013728,66213580,33881220,-90478510,-63134770,-10429690
2026-01-14 17:25:28.491,3715853,3392250,66230840,4391020,-8276367,-5332031,-10205080
2026-01-14 17:25:28.501,6283860,31343340,37692800,74335980,-7421875,-328125,-10292970
2026-01-14 17:25:28.511,5783224,2123390,66308520,74370510,-6196289,-101257300,-10048830
2026-01-14 17:25:28.521,36389410,-29038680,35819720,43298200,-57714840,-44128420,-1015625
2026-01-14 17:25:28.531,4816472,-29424520,36141680,74405030,-5805664,4966736,-10351560
2026-01-14 17:25:28.541,4350368,138102,66394840,74405040,-56347660,-11779790,-10957030
2026-01-14 17:25:28.551,35626380,-30179790,36767480,42680180,-5654297,4562378,-11455080
2026-01-14 17:25:28.561,35370880,-30556990,37080810,42469560,-53271480,15795900,-11738280
2026-01-14 17:25:28.571,3510592,-1864442,66446630,4225119,-56640620,14709470,-11767580
2026-01-14 17:25:28.581,248595,5,-2529082,66455260,7440504,-6074219,5331421,-12148440
2026-01-14 17:25:28.591,-32363600,-31648040,37975050,40004360,-6381836,-39764400,-12890630
2026-01-14 17:25:28.601,1536440,-32007980,38271120,74370500,-6635742,-14343260,-13544920
2026-01-14 17:25:28.611,106170,8,27459940,34550000,7434463,-65722660,-12634280,-13857420
2026-01-14 17:25:28.621,-36482810,27117270,34271200,37231700,-62158200,-50842280,-14121090
2026-01-14 17:25:28.631,94952,-5679648,66463890,74258300,-61279300,-29449460,-14414060
2026-01-14 17:25:28.641,-40567,25,26461260,33736040,7420652,-59814450,-76660160,-13955080
2026-01-14 17:25:28.651,-906324,-33695470,39656500,74137460,-62353520,-9460449,-13583980
2026-01-14 17:25:28.661,32556950,25832870,33225040,40104490,-58740230,-8178711,-13476560
2026-01-14 17:25:28.671,32242760,-799294,8,6649841,39831720,-56689450,-62438960,-12978520
2026-01-14 17:25:28.681,31928570,-8528096,66515680,39558960,-54785160,-80,8239,-12421880
2026-01-14 17:25:28.691,-34815000,24955030,32514660,41903330,-5288086,27198790,-11640630
2026-01-14 17:25:28.701,-340951,2468745,3229886,7370587,-51123050,-3253174,-10556640
2026-01-14 17:25:28.711,-3892884,-10038640,66576100,73585020,-50634770,-3262329,-9667969
2026-01-14 17:25:28.721,-4367628,27667450,28438430,73472820,-45239260,-6970215,-8901367
2026-01-14 17:25:28.731,30350690,2397532,3173348,38167540,-41674800,-9320068,-7792969
2026-01-14 17:25:28.741,-5265320,23763000,31566030,73213860,-39257810,-21923830,-70214850
2026-01-14 17:25:28.751,-36007890,-11747710,66731480,42747510,-36083980,-25976560,-6928711
2026-01-14 17:25:28.761,29471130,23391840,31281180,37372560,-30981440,-3022461,-68408200
2026-01-14 17:25:28.771,-6465122,23232150,31164660,72773650,-24646000,-38476560,-74902340
2026-01-14 17:25:28.781,28923020,23073330,31047270,36867610,-18664550,-41552740,-75683590
2026-01-14 17:25:28.791,-7181552,-13146040,67007690,72454280,-15551760,-48632810,-67529300
2026-01-14 17:25:28.801,2839650,22791070,30846150,3637561,-10546880,-4350586,-57910160
2026-01-14 17:25:28.811,-7820296,22667640,30762420,72109010,12016300,-38964840,-5732422
2026-01-14 17:25:28.821,-8122406,22544200,30678700,71927740,9790039,-25927730,-5942383
2026-01-14 17:25:28.831,-8407248,22420770,30594970,71746480,27197270,7385254,-5703125
2026-01-14 17:25:28.841,27441820,22289570,30501750,35465830,33154300,-85632320,-6191406
2026-01-14 17:25:28.851,-8925148,-1497599,6754286,71401220,33813480,-40625,-6098633
2026-01-14 17:25:28.861,-9166836,-15286700,67611900,71228580,39648440,-47607420,-47509770
2026-01-14 17:25:28.871,-940850,3,-39042790,44252870,7105592,4790039,-2993164,-35839840
2026-01-14 17:25:28.881,-37196470,21763040,30130590,43319780,61279300,690918,-2770996
2026-01-14 17:25:28.891,-988323,8,-16193020,67862220,7070204,7441406,34472660,-20837400
2026-01-14 17:25:28.901,26186770,-1650377,6791400,34252210,76708980,36791990,-1472168
2026-01-14 17:25:28.911,-10340740,-16805870,67957170,70399940,75,2475586,-13476560
2026-01-14 17:25:28.921,25806980,-40010400,45097910,33889680,72509770,21789550,-13317870
2026-01-14 17:25:28.931,-10789590,2102759,2957126,70123730,73339840,34472660,-90270990
2026-01-14 17:25:28.941,-11014010,-17729470,68017590,70020140,7597656,46411130,-32684330
2026-01-14 17:25:28.951,-11229810,-18031570,67991700,69925200,8120117,42138670,-13702390
2026-01-14 17:25:28.961,-1145422,20501090,29131040,6983889,8125,13928220,36468500
2026-01-14 17:25:28.971,-37819680,20316370,28970490,43628800,7973633,-21984860,73394780
2026-01-14 17:25:28.981,-11920340,-18920630,67862220,69700780,7988281,-49267580,-32592770
2026-01-14 17:25:28.991,-12153390,-4326060,4374672,69640350,8442383,-8095703,-12792970
2026-01-14 17:25:29.001,-1241234,19782070,28503510,6957130,8720703,-9819336,-18066410
2026-01-14 17:25:29.011,-1267128,-41320690,46118180,6948496,85009770,-98583980,-17138670
2026-01-14 17:25:29.021,24108270,-1999961,6768095,32342880,86621100,-8022461,-12927250
2026-01-14 17:25:29.031,-1323233,-20249910,67655060,6928644,9536133,-36889650,-70495610
2026-01-14 17:25:29.041,23676690,19164900,27981300,31945830,11171880,3869629,10345460
2026-01-14 17:25:29.051,23444490,19030250,27874260,31729170,12695310,14472660,35180660
2026-01-14 17:25:29.061,-14155940,-42018130,46680960,68863500,11933590,16572270,5136719
2026-01-14 17:25:29.071,-14449420,-21302970,67637790,68742660,8588867,56884770,50097660
2026-01-14 17:25:29.081,22760860,-42279670,46885530,31100780,59765620,-23962400,5209961
2026-01-14 17:25:29.091,-1507950,-21777710,67577380,6852685,38891600,-3852539,62939450
2026-01-14 17:25:29.101,-15390280,18303460,27254510,68440540,26538090,48706060,7573242
2026-01-14 17:25:29.111,-1569238,18178300,27137980,6838014,20202640,4880371,84228510
2026-01-14 17:25:29.121,-39554650,-22269720,67361580,44794080,15734860,5385742,8911133
2026-01-14 17:25:29.131,-16253440,-22390570,67240740,68388750,19189450,484375,9243164
2026-01-14 17:25:29.141,-16512390,17833040,26792720,68423280,3930664,3972168,88916020
2026-01-14 17:25:29.151,-40020760,-2257185,6699045,45191130,5800781,28466800,85595700
2026-01-14 17:25:29.161,21466120,-22649520,66878210,30013190,75146480,23022460,85253900
2026-01-14 17:25:29.171,-17220190,-22744470,66783260,68475070,8964844,20751950,8930664
2026-01-14 17:25:29.181,-1745324,17463600,26419830,6844919,9213867,22790530,9555664
2026-01-14 17:25:29.191,21056110,21424590,22320730,29663610,9238281,2578125,10605470
2026-01-14 17:25:29.201,20900740,17328080,26296400,29525500,8544922,37524420,12099610
2026-01-14 17:25:29.211,-40686260,17280610,26257550,45699540,7524414,5258789,13242190
2026-01-14 17:25:29.221,-4077859,-23184680,66636530,4576254,67871100,8041992,14208980
2026-01-14 17:25:29.231,20445850,17208100,26191950,29117230,59521480,94921870,15009770
2026-01-14 17:25:29.241,-1879113,-23245100,66576100,6809527,5209961,8256836,15
2026-01-14 17:25:29.251,20193800,17159770,26136710,28903160,49902340,5654297,14765630
2026-01-14 17:25:29.261,-1919684,-2321058,6647253,6810392,53515620,23095700,14101560
2026-01-14 17:25:29.271,-1938671,-23167410,66412100,6812116,5566406,-16259770,13320310
2026-01-14 17:25:29.281,-41429450,17139910,26087510,46285630,5488281,-4104004,13144530
2026-01-14 17:25:29.291,19807110,-23063830,66291260,28599330,49267580,-50634770,13408200
2026-01-14 17:25:29.301,23684800,-22994780,66239460,24566260,3684082,-46777340,14296880
2026-01-14 17:25:29.311,-20120430,-2290850,6617043,68233380,2722168,-40722660,15
2026-01-14 17:25:29.321,19568010,17193430,26085780,28424100,19421390,-3100586,15234380
2026-01-14 17:25:29.331,19505000,17202060,26077150,28383530,22790530,-30688480,15214840
2026-01-14 17:25:29.341,-20586550,17219320,26077150,68406020,29467770,-39770510,15058590
2026-01-14 17:25:29.351,19415230,17227960,26068520,28335200,41601560,-35424800,14091800
2026-01-14 17:25:29.361,19379840,-22476880,65773360,28318790,484375,-4350586,14023440
2026-01-14 17:25:29.371,19346180,-22425090,65704300,28300670,47387700,-49658200,14160160
2026-01-14 17:25:29.381,19322000,-41841180,46167370,28290310,42749020,-48217770,14462890
2026-01-14 17:25:29.391,-21113070,-22330150,65574830,68690860,36572260,-33154300,15087890
2026-01-14 17:25:29.401,-2117349,17231410,26013280,6873403,25317380,-15405270,15859380
2026-01-14 17:25:29.411,-2122528,17237450,26007230,6878582,12207030,10253910,16455080
2026-01-14 17:25:29.421,-21259810,17243490,26001190,68854860,7873535,3659668,16845700
2026-01-14 17:25:29.431,19311650,-22097090,65341780,28335200,-9796143,51416020,16611330
2026-01-14 17:25:29.441,-42782900,17248670,25978750,47556210,27908320,55859380,16337890
2026-01-14 17:25:29.451,-42828640,-21984880,65160510,47614040,345459,6723633,15351560
2026-01-14 17:25:29.461,19478240,17212420,25911420,28531140,4425049,59033200,14160160
2026-01-14 17:25:29.471,-2120801,-41274080,45577830,6940728,111816400,5175781,11845700
2026-01-14 17:25:29.481,19678490,17131280,25802660,28745200,18127440,7548828,109375
2026-01-14 17:25:29.491,-42934810,-2188995,6468579,47801350,14331060,8041992,11660160
2026-01-14 17:25:29.501,-20940440,20888130,21752340,69864780,-36895750,27905270,12636720
2026-01-14 17:25:29.511,20047070,-41007360,45257590,29136210,-13232420,-3567505,13417970
2026-01-14 17:25:29.521,-20785070,-21855400,64236920,70192780,-9411621,33935550,13564450
2026-01-14 17:25:29.531,-20724650,-40845950,45073740,70356780,-4626465,-29342650,12949220
2026-01-14 17:25:29.541,-4309190,16781700,25358130,4807585,-6188965,-14770510,11621090
2026-01-14 17:25:29.551,20451890,-21803610,63822600,29577290,-12731930,-446167,10488280
2026-01-14 17:25:29.561,24652840,-2181226,6367586,25566240,-18103030,-32928470,10488280
2026-01-14 17:25:29.571,-2050885,16585760,25122490,7091785,-26831060,-2401123,11279300
2026-01-14 17:25:29.581,-2045706,16505490,25030130,7105595,-30004880,-45581060,11992190
2026-01-14 17:25:29.591,-2041391,-2186404,6326154,7118542,-33374020,-7705078,12480470
2026-01-14 17:25:29.601,-20370750,16378600,24880800,71297630,-37060550,-11386720,12373050
2026-01-14 17:25:29.611,-43316330,-21889930,63045750,48421100,-36621100,-11650390,11914060
2026-01-14 17:25:29.621,20987050,-21889930,62976700,30164250,-3022461,-72753900,11865230
2026-01-14 17:25:29.631,-2028442,-42202420,42612420,7152204,-29589840,-46435550,12216800
2026-01-14 17:25:29.641,-20258540,-21924460,62838590,71582480,-32495120,-23034670,11591800
2026-01-14 17:25:29.651,-43358620,-21967610,62778170,48499650,-33422850,89782710,1140625
2026-01-14 17:25:29.661,-2018948,19921300,20768410,7170333,-3876953,18847660,11259770
2026-01-14 17:25:29.671,-20146330,16041960,24509640,71763740,-4958496,44891360,11171880
2026-01-14 17:25:29.681,21271900,-22131620,62510580,30466360,-5776367,-24682620,11328130
2026-01-14 17:25:29.691,21321100,15880550,24343050,30520740,-60253900,-27856440,11435550
2026-01-14 17:25:29.701,-20042750,-40291800,44298620,71988160,-6611328,17959600,11816410
2026-01-14 17:25:29.711,-45781110,15729500,24183370,46301600,-74609380,22155760,12861330
2026-01-14 17:25:29.721,-2000820,-22347410,62104900,7216079,-8769531,14465330,13847660
2026-01-14 17:25:29.731,-43514000,15591390,24027990,48741340,-9580078,-24307250,14794920
2026-01-14 17:25:29.741,-1997368,15537020,23961530,7236797,-9682617,-12335210,14716800
2026-01-14 17:25:29.751,-19965060,-22373300,61751000,72462910,-91845700,-13464360,14375
2026-01-14 17:25:29.761,-1994778,-22356040,61647420,7256648,-81396480,-49804690,13876950
2026-01-14 17:25:29.771,21731970,15407540,23797520,30990300,-7133789,22180180,13398440
2026-01-14 17:25:29.781,-43685770,15386820,23766450,48966620,-56152340,7763672,13798830
2026-01-14 17:25:29.791,21813100,19132100,19969380,31081800,-35424800,14404300,14824220
2026-01-14 17:25:29.801,-19852850,-22312880,61345310,72868590,-15673830,15283200,14160160
2026-01-14 17:25:29.811,-43703030,-22321510,61267630,49018420,-17370600,7885742,11386720
2026-01-14 17:25:29.821,-19714750,15252170,23607630,73006700,-20678710,-1239624,90527340
2026-01-14 17:25:29.831,22063420,-3983778,4371683,31332120,-24328610,-7055664,7602539
2026-01-14 17:25:29.841,-43651240,15200380,23555840,49001150,-27807620,-8876953,71728510
2026-01-14 17:25:29.851,-19516220,15191740,23547210,73084380,-25830080,-77685540,671875
2026-01-14 17:25:29.861,-19455790,15199510,23556700,73093020,-22790530,-60839840,6225586
2026-01-14 17:25:29.871,22218790,-3983778,4371683,31470220,-22277830,-6225586,4934082
2026-01-14 17:25:29.881,-19360840,-22356040,61181310,73118910,-21960450,-6743164,359375
2026-01-14 17:25:29.891,22291300,-2233879,6118130,31535820,-25561520,-82373050,19055180
2026-01-14 17:25:29.901,22318920,15253890,23605900,31559990,-2253418,-74853520,15449520
2026-01-14 17:25:29.911,22356040,15262520,23614530,31591930,-15039060,-52734380,-1161499
2026-01-14 17:25:29.921,-45883480,-22338770,61198580,46423650,-11260990,-32543940,-17333980
2026-01-14 17:25:29.931,-43423360,-2236469,6120723,48831970,-87768550,-41455080,-27490230
2026-01-14 17:25:29.941,-43386250,15232310,23592960,48800040,-47210690,-51953120,-41845700
2026-01-14 17:25:29.951,22480330,15228860,23596400,31692060,-50720220,-41870120,-53125
2026-01-14 17:25:29.961,-18929260,-2245102,6129353,73101650,-43121340,-15112310,-60302740
2026-01-14 17:25:29.971,22488970,-22476880,61353940,31683420,2835083,27246090,-83251950
2026-01-14 17:25:29.981,26627080,15266840,23662010,27545310,13671880,49926760,-12685550
2026-01-14 17:25:29.991,22493280,15286690,23693940,31661840,-9869385,32080080,-15351560
2026-01-14 17:25:30.001,-1869619,-22589090,61638790,7283406,-2993164,22009280,-16875
2026-01-14 17:25:30.011,-18627150,-22597730,61751000,72747750,-32250980,16088870,-18310550
2026-01-14 17:25:30.021,-18558100,-40269360,44200220,72661440,-16381840,13635250,-2015625
2026-01-14 17:25:30.031,-1848039,-40321140,44269270,7256647,-6536865,-11010740,-22421880
2026-01-14 17:25:30.041,-18394090,-22502780,62191210,72462900,2243042,-5343628,-23671880
2026-01-14 17:25:30.051,22483790,-22442350,62372480,31550500,97839350,27172850,-23066410
2026-01-14 17:25:30.061,-4254638,15840850,24330960,4794810,13122560,35131840,-22734380
2026-01-14 17:25:30.071,-4245143,15966870,24463890,4785315,18371580,3359375,-22890620
2026-01-14 17:25:30.081,-18040200,-2215754,6286449,72074480,3100586,5175781,-22207030
2026-01-14 17:25:30.091,22537300,-4047825,4457827,31531510,42871100,5888672,-21640620
2026-01-14 17:25:30.101,-17824410,16401910,24909290,71927740,5048828,4428711,-22089840
2026-01-14 17:25:30.111,22599450,16556410,25065520,31555680,57128900,49926760,-21074220
2026-01-14 17:25:30.121,22633980,16720410,25229520,31572940,6357422,6479492,-19003910
2026-01-14 17:25:30.131,22677130,-2138931,6366722,31598830,6538086,61572260,-17080080
2026-01-14 17:25:30.141,-17358290,-21173500,63813970,71703320,68115230,5517578,-15585940
2026-01-14 17:25:30.151,-1724608,17256440,25746560,7167744,7392578,40649420,-15117190
2026-01-14 17:25:30.161,22819560,-2070740,6409017,31698100,8227539,34399420,-14677730
2026-01-14 17:25:30.171,-1703028,17647460,26115130,7163428,94677740,33740230,-14707030
2026-01-14 17:25:30.181,-16926720,-40079460,44493700,71599740,11103520,43237300,-15175780
2026-01-14 17:25:30.191,2738390,-40010400,44459170,2739271,11738280,34277340,-16474610
2026-01-14 17:25:30.201,-16693660,18188660,26626990,71556580,12724610,48242190,-17832030
2026-01-14 17:25:30.211,23078510,18337990,26771140,31888000,1296875,43725580,-17958980
2026-01-14 17:25:30.221,-16451970,-39872300,44407380,71504790,12158200,17089840,-17529300
2026-01-14 17:25:30.231,-16339760,22366560,23208670,71496160,11181640,-17834470,-15683590
2026-01-14 17:25:30.241,-16270710,18684120,27098280,71496160,10566410,-4362793,-13798830
2026-01-14 17:25:30.251,-16218920,18801510,27205310,71496160,10947270,-36645510,-13310550
2026-01-14 17:25:30.261,23270990,-1884296,6507418,32040770,11152340,-37939450,-13212890
2026-01-14 17:25:30.271,23270990,-1866170,6511734,32040770,10712890,-47485350,-13740230
2026-01-14 17:25:30.281,23252010,-18489050,65151870,32025240,10751950,-20715330,-13476560
2026-01-14 17:25:30.291,23222660,-1831643,6518639,32002800,10283200,-28743740,-13154300
2026-01-14 17:25:30.301,23184680,-18152410,65212300,31971720,95458980,7684326,-11728520
2026-01-14 17:25:30.311,-41224880,23200130,24032400,46731880,87109380,23327640,-9765625
2026-01-14 17:25:30.321,-16538280,-17833040,65238190,71522060,8027344,3034668,-7871094
2026-01-14 17:25:30.331,-16650500,19642230,27935550,71530690,70703130,28808590,-62890620
2026-01-14 17:25:30.341,-1675405,-17505040,65272720,7153068,6767578,36547850,-5449219
2026-01-14 17:25:30.351,-1687492,19839040,28101280,7153070,62646480,43066410,-44384770
2026-01-14 17:25:30.361,-41535620,19933120,28179830,46990840,5107422,9832764,-30419920
2026-01-14 17:25:30.371,-41602080,-1698716,6530727,47045220,375,-42114260,-18017580
2026-01-14 17:25:30.381,22709070,-1677999,6534177,31584160,28808590,-8041992,-7611084
2026-01-14 17:25:30.391,22634840,-1655557,6539355,31520280,28735350,-8339844,-51971440
2026-01-14 17:25:30.401,-17479140,20494180,28671830,71461630,32958980,-76220700,-5203247
2026-01-14 17:25:30.411,-17591350,-38327220,43276620,71418470,32128910,-10732420,-119384800
2026-01-14 17:25:30.421,22375030,-3824092,4322483,31279460,3149414,-13369140,-21398930
2026-01-14 17:25:30.431,22278350,21033660,29168150,31186240,33813480,-15585940,-23791500
2026-01-14 17:25:30.441,-1791071,21220110,29344240,7116817,27539060,-15429690,-20471190
2026-01-14 17:25:30.451,-44530540,-1511408,6605823,44531070,265625,-13085940,-6390381
2026-01-14 17:25:30.461,-1810924,21606810,29717130,7091785,2298584,-10869140,55664060
2026-01-14 17:25:30.471,21843320,21807060,29913930,30740850,23498540,-66064450,9576416
2026-01-14 17:25:30.481,21743190,25653940,26464110,30633810,32617190,-39886480,13110350
2026-01-14 17:25:30.491,21651690,-37856800,43108310,30535410,32861330,4296875,121032700
2026-01-14 17:25:30.501,21569690,-14009210,66904110,30444780,37231440,75878900,12927250
2026-01-14 17:25:30.511,21487700,-13793420,67068110,30354150,42211910,10097660,11315920
2026-01-14 17:25:30.521,-1843723,-13577620,67232110,7014098,3955078,92871100,1385498
2026-01-14 17:25:30.531,21348720,22980970,31053310,30199640,33764650,89404300,12988280
2026-01-14 17:25:30.541,-18514940,23174310,31239750,69907940,2446289,8017578,11981200
2026-01-14 17:25:30.551,-18549470,23378020,31433110,69804350,17053220,8881836,14099120
2026-01-14 17:25:30.561,-41595180,-37464060,42983150,46706860,81604000,9506836,123046900
2026-01-14 17:25:30.571,-18618520,-12386450,67939900,69631720,8099365,97314460,13755800
2026-01-14 17:25:30.581,21052660,-1215341,6803485,29874230,32989500,84375,-80200190
2026-01-14 17:25:30.591,21018990,-37207700,42825190,29838830,-4324341,64990230,-6903076
2026-01-14 17:25:30.601,20993100,-39647790,40212470,29812940,-6573486,3803711,-3717041
2026-01-14 17:25:30.611,20966340,-11471500,68216120,29787910,-119384800,-1550293,-5302429
2026-01-14 17:25:30.621,-18773890,-11247080,68267910,69459090,-14758300,-43579100,5670166
2026-01-14 17:25:30.631,-41595180,24690900,32623420,46655060,-20263670,-70947260,11340330
2026-01-14 17:25:30.641,20842900,24864400,32777920,29669660,-2364502,-8745117,14562990
2026-01-14 17:25:30.651,20781620,-1049613,6846643,29610100,-25073240,-10273440,14904790
2026-01-14 17:25:30.661,20712570,25218300,33097290,29541040,-2866211,-90625,21411130
2026-01-14 17:25:30.671,20644380,-9995480,68656340,29471130,-31591800,-69970700,296875
2026-01-14 17:25:30.681,-19127790,25577370,33428750,69105180,-38623050,-45874020,41601560
2026-01-14 17:25:30.691,-19162320,-953803,6885488,69018860,-43603520,-14453130,56152340
2026-01-14 17:25:30.701,-19170950,-36164130,42125160,68958450,-52441410,-9887695,7680664
2026-01-14 17:25:30.711,20475200,-916685,3,6905339,29277780,-65478520,-6118164,93359380
2026-01-14 17:25:30.721,20482960,26162600,33982900,29270010,-6791992,-10390630,8647461
2026-01-14 17:25:30.731,24438260,26280860,34106330,25314720,-65527340,-10595700,6323242
2026-01-14 17:25:30.741,-41196390,-8864732,69493620,46173420,-64404300,-61035160,48388670
2026-01-14 17:25:30.751,-1866166,26501830,34351480,6843193,-6640625,-3876953,34301760
2026-01-14 17:25:30.761,20552020,-878706,6984750,29235480,-76123050,-57373050,3017578
2026-01-14 17:25:30.771,20573600,26688270,34562090,29231170,-87402340,-52441410,17834470
2026-01-14 17:25:30.781,-18281890,30326090,31114170,68103910,-90527340,-18835450,-12902830
2026-01-14 17:25:30.791,-4062324,26855730,34739900,4560720,-8779297,20727540,-48901370
2026-01-14 17:25:30.801,20631430,-857126,3,7027045,29242380,-6826172,90234380,-82958980
2026-01-14 17:25:30.811,-40523120,-855401,7030501,45517410,-5541992,13330080,-11757810
2026-01-14 17:25:30.821,20714290,26915280,34801180,29314890,-46801760,11083980,-12382810
2026-01-14 17:25:30.831,20758320,26870400,34759750,29357190,-46484380,46484380,-10488280
2026-01-14 17:25:30.841,20801480,-8709362,70218670,29400350,-4633789,-16345220,-85009770
2026-01-14 17:25:30.851,-1788482,-877841,5,7018414,6812118,-45507810,-6098633,-66308590
2026-01-14 17:25:30.861,-40508450,26700360,34601790,45532080,-35131840,-6777344,-48950200
2026-01-14 17:25:30.871,-1793661,-892515,3,7015825,6812118,-1928711,-47607420,-44482420
2026-01-14 17:25:30.881,-18005670,-897697,7015826,68086650,-4147339,-46899420,-4309082
2026-01-14 17:25:30.891,-1809196,-9037362,70184140,6803486,10296630,-49975580,-41259770
2026-01-14 17:25:30.901,20568420,26607130,34539640,29184560,21276860,-40185550,-41992190
2026-01-14 17:25:30.911,20456210,26601090,34545680,29072340,2890625,-37597660,-37524420
2026-01-14 17:25:30.921,24203910,-9210000,70374040,25065690,36889650,4580078,-32202150
2026-01-14 17:25:30.931,24065800,26595050,34568990,24927590,40966800,4909668,-28710940
2026-01-14 17:25:30.941,-1873072,26578650,34568130,6746519,37182620,25732420,-19946290
2026-01-14 17:25:30.951,-18877470,-9460322,70589830,67335700,29589840,42175290,-72143550
2026-01-14 17:25:30.961,-1901555,-9563892,70658880,6721484,31640620,-19934080,24490360
2026-01-14 17:25:30.971,-1916230,-37144680,43250730,6708536,30932620,-5732422,15905760
2026-01-14 17:25:30.981,19511040,26483700,34542230,28135810,25756840,-75146480,30517580
2026-01-14 17:25:30.991,-19455790,30100460,30908210,66809160,14331060,-8833008,5986328
2026-01-14 17:25:31.001,-19602530,26457810,34550860,66662420,-12561040,-12128910,10966800
2026-01-14 17:25:31.011,19050970,-37464060,43570100,27680910,-5444336,-17226560,19013670
2026-01-14 17:25:31.021,-42960880,26546720,34651860,43424920,-11269530,-20566410,28652340
2026-01-14 17:25:31.031,-20241270,-9719270,71194050,66265370,-15986330,-15820310,35664060
2026-01-14 17:25:31.041,18507170,26921330,34985040,27171650,-15986330,-30029300,33652340
2026-01-14 17:25:31.051,-20698750,-37017800,43256780,66084100,-10791020,14521480,22578120
2026-01-14 17:25:31.061,18253400,-8553988,71375310,26942050,-30395510,27207030,94384770
2026-01-14 17:25:31.071,1821718,-8295040,71409840,2690924,27075200,26953120,2035141
2026-01-14 17:25:31.081,-20854130,27671420,35633280,65997790,56933590,22011720,-46289060
2026-01-14 17:25:31.091,-20767810,27694720,35661760,65963260,7548828,19199220,-71533200
2026-01-14 17:25:31.101,-2062106,27677470,35661760,6592011,76220700,15703130,-81103520
2026-01-14 17:25:31.111,-42931270,-8441778,71660160,43385470,6542969,11191410,-6933594
2026-01-14 17:25:31.121,18475240,27510870,35552140,27082740,5151367,71484380,-5107422
2026-01-14 17:25:31.131,-20085910,-40056060,40684620,65764730,33789060,60791020,-3371582
2026-01-14 17:25:31.141,18616800,-37385510,43648650,27182870,18041990,69873050,-22229000
2026-01-14 17:25:31.151,-1979243,-946032,7185006,6573020,8276367,7573242,-1619873
2026-01-14 17:25:31.161,22610760,30657810,31472980,23465120,17105100,63964840,-11816410
2026-01-14 17:25:31.171,-19593900,26842780,35011800,65807890,-21224980,33618160,-83496100
2026-01-14 17:25:31.181,-19507580,26689130,34871960,65876940,53833010,-2532959,-12249760
2026-01-14 17:25:31.191,-19447160,-10358010,71608370,65954620,14123540,-3564453,-17883300
2026-01-14 17:25:31.201,22895600,-1058244,7152204,23749970,19567870,-5131836,-18261720
2026-01-14 17:25:31.211,19092400,-10815490,71427100,27639480,2208252,-53466800,-15307620
2026-01-14 17:25:31.221,-1935220,26021910,34261700,6617043,20263670,-4645996,-39123540
2026-01-14 17:25:31.231,-40443710,-11307500,71245840,45130710,1875,-53564450,50231940
2026-01-14 17:25:31.241,19161460,-38373840,44334870,27725800,15734860,-67333980,17089840
2026-01-14 17:25:31.251,19166640,25488470,33776600,27737890,9197998,-7529297,2927246
2026-01-14 17:25:31.261,-19455790,25308070,33611740,66343050,21636960,-79052740,38378900
2026-01-14 17:25:31.271,19132110,25135430,33456370,27720630,-56793210,-74365230,50390620
2026-01-14 17:25:31.281,-19585270,24971430,33309630,66386210,-13195800,-5708008,5776367
2026-01-14 17:25:31.291,19063050,-38870160,44667190,27668830,-19885250,-3178711,6225586
2026-01-14 17:25:31.301,-19740640,24645150,33014430,66403470,-32543940,-869751,7558594
2026-01-14 17:25:31.311,-19835580,-13223730,70589830,66429370,-42993160,13085940,81933590
2026-01-14 17:25:31.321,-19939170,-13430890,70503510,66446630,-5097656,5024414,859375
2026-01-14 17:25:31.331,18893010,24197170,32599240,27545400,-56396480,9194336,7993164
2026-01-14 17:25:31.341,-20154960,24047840,32455100,66524320,-6113281,12714840,7861328
2026-01-14 17:25:31.351,18815330,-13957420,70166880,27502240,-66503900,14882810,8310547
2026-01-14 17:25:31.361,-2040527,-1413005,7001151,6668831,-7167969,13408200,8564453
2026-01-14 17:25:31.371,-20534750,23569650,31983810,66783260,-67578130,8149414,81689460
2026-01-14 17:25:31.381,18729010,23397020,31811170,27484980,-6352539,31103520,79541020
2026-01-14 17:25:31.391,-20819600,23233010,31647170,66964530,-6123047,-7141113,79248050
2026-01-14 17:25:31.401,-2096632,-39360440,44815650,6702493,-6035156,-34838870,83740230
2026-01-14 17:25:31.411,-21113080,22908460,31332980,67068110,-54833980,-5234375,89697260
2026-01-14 17:25:31.421,-41886060,22757410,31190560,46467760,-56689450,-57373050,9975586
2026-01-14 17:25:31.431,18405320,-1538166,6905339,27256240,-58691410,-44433590,11210940
2026-01-14 17:25:31.441,22301310,22487240,30942830,23187610,-59277340,-46875,11689450
2026-01-14 17:25:31.451,-2171729,-1573555,6894119,6701632,-5888672,-6455078,12207030
2026-01-14 17:25:31.461,-42153640,-15899550,68915290,46666280,-5839844,-75146480,12685550
2026-01-14 17:25:31.471,-21967610,22173040,30670070,66904110,-54833980,-73876950,13183590
2026-01-14 17:25:31.481,-22071190,22096220,30608780,66817790,-50146480,-5942383,13662110
2026-01-14 17:25:31.491,-22166140,22035800,30565620,66722850,-4243164,-47070310,13701170
2026-01-14 17:25:31.501,17749310,-1647788,6899297,26634760,-42211910,-50634770,14306640
2026-01-14 17:25:31.511,17674220,-1659872,6904475,26554480,-4111328,-5961914,14697270
2026-01-14 17:25:31.521,17608620,21914960,30496570,26481980,-4230957,-56396480,15302730
2026-01-14 17:25:31.531,1755340,-16779980,69191500,2641637,-4284668,-43823240,15419920
2026-01-14 17:25:31.541,17516260,-1684041,6928644,26367180,-41381840,-34033200,15634770
2026-01-14 17:25:31.551,21898120,-16892190,69372770,21899000,-43041990,-27612300,15664060
2026-01-14 17:25:31.561,-22252450,-40564560,45821240,65997780,-43237300,-15185550,1609375
2026-01-14 17:25:31.571,-2218338,-16909450,69579930,6591146,-46166990,48553470,16416020
2026-01-14 17:25:31.581,-2210572,-1688356,6969214,6583378,-48510740,29174800,15917970
2026-01-14 17:25:31.591,-22010770,-16831770,69778460,65773360,-5205078,33764650,15283200
2026-01-14 17:25:31.601,21477590,22228290,30891040,22354050,-5654297,37036130,14091800
2026-01-14 17:25:31.611,17592220,-16659130,69951090,26343010,-56640620,5263672,13212890
2026-01-14 17:25:31.621,-21639610,-1656421,7001152,65730200,-54345700,66503900,12548830
2026-01-14 17:25:31.631,-21492870,-40563690,45925680,65756100,-5107422,73876950,11923830
2026-01-14 17:25:31.641,-21328870,-1630526,7009784,65799250,-41992190,7607422,11582030
2026-01-14 17:25:31.651,17997040,22659010,31288960,26697770,-33764650,89941410,11064450
2026-01-14 17:25:31.661,18123930,-1602904,7016688,26812570,-1817627,11953130,10410160
2026-01-14 17:25:31.671,-4111523,-15899540,70192780,4563307,-12886050,13203130,95214850
2026-01-14 17:25:31.681,-43078010,22932630,31533240,43532210,52490230,61083980,90185540
2026-01-14 17:25:31.691,-2041390,26880930,27740300,6605822,9039307,-5566406,89404300
2026-01-14 17:25:31.701,18620250,23102670,31691190,27248470,14697270,-14833980,79052740
2026-01-14 17:25:31.711,18708290,23206250,31794770,27315800,16491700,-18505860,71777340
2026-01-14 17:25:31.721,18790290,23334870,31925110,27371900,19934080,-17324220,6489258
2026-01-14 17:25:31.731,18855900,23461750,32057170,27409880,22094730,-13828130,6303711
2026-01-14 17:25:31.741,-1944716,-1508817,7091784,6579926,21655270,-10644530,60253900
2026-01-14 17:25:31.751,-19248630,23766450,32373960,65669780,15148930,-6894531,54296880
2026-01-14 17:25:31.761,-19041470,-42789720,43354400,65548940,105651900,-31420900,43286130
2026-01-14 17:25:31.771,19093260,-40265900,45947260,27517770,4788208,12249760,27563480
2026-01-14 17:25:31.781,-18575360,-40274530,45990420,65307250,1197052,7451172,86120610
2026-01-14 17:25:31.791,-1829913,-43129650,43187100,6522091,27404780,12197270,-16455080
2026-01-14 17:25:31.801,19433350,24537260,33174110,27747380,7696533,13007810,-4501953
2026-01-14 17:25:31.811,19607710,28535790,29400000,27883760,16540530,9824219,-72558590
2026-01-14 17:25:31.821,-38797650,24730610,33377820,43583050,15002440,52490230,-8066406
2026-01-14 17:25:31.831,20017720,-1413006,7239384,28216080,10046390,22705080,-9267578
2026-01-14 17:25:31.841,-16486490,-14069630,72488800,65117350,47698980,3125,-10039060
2026-01-14 17:25:31.851,-1609806,24958490,33616060,6512600,-47973630,48461910,-10957030
2026-01-14 17:25:31.861,-15692380,-40342720,46215710,65169140,-14868160,42016600,-11708980
2026-01-14 17:25:31.871,-15295320,-40308200,46198450,65220930,-25,3137207,-13505860
2026-01-14 17:25:31.881,-1488961,-13698460,72739120,6529861,-42333980,17919920,-14794920
2026-01-14 17:25:31.891,-14483950,-40198570,46118170,65393570,-5957031,-6304932,-16035160
2026-01-14 17:25:31.901,21744050,-1339637,7276500,29700730,-6899414,-16394040,-17695310
2026-01-14 17:25:31.911,-1364667,25479840,34078710,6562663,-68408200,2286377,-20
2026-01-14 17:25:31.921,22325830,25585140,34163300,30223810,-68066410,7890625,-20820310
2026-01-14 17:25:31.931,-36694110,-12826670,72730500,42009500,-7573242,90527340,-20625
2026-01-14 17:25:31.941,22966300,25764680,34294500,30809040,-8417969,80322260,-20488280
2026-01-14 17:25:31.951,-11885820,25856180,34358380,66299890,-95654300,9194336,-20351560
2026-01-14 17:25:31.961,-11428330,-12162030,72531960,66515680,-10253910,12363280,-20292970
2026-01-14 17:25:31.971,-10962230,26037440,34470590,66757380,-11074220,14169920,-20703120
2026-01-14 17:25:31.981,24393110,26116860,34512020,32144360,-11123050,14521480,-21679690
2026-01-14 17:25:31.991,24782400,-11402440,72134900,32514650,-11484380,12958980,-22207030
2026-01-14 17:25:32.001,-35661760,26245470,34556050,41470880,-11445310,10410160,-23027340
2026-01-14 17:25:32.011,25593780,-10893170,71763740,33291510,-10517580,6743164,-246875
2026-01-14 17:25:32.021,-8553988,26342140,34562950,68233390,-9194336,31054690,-27304690
2026-01-14 17:25:32.031,-8079244,-10435700,71358050,68535500,-73583980,17224120,-29882810
2026-01-14 17:25:32.041,26786680,-40411170,41020040,34429160,-6542969,-10003660,-32304690
2026-01-14 17:25:32.051,27157840,-1015087,7096961,34783060,-59228520,-4736328,-33671880
2026-01-14 17:25:32.061,-6749972,-37395010,43466520,69329620,-5283203,-60546880,-33144530
2026-01-14 17:25:32.071,-6370174,26254960,34322120,69536770,-4506836,-5703125,-30605470
2026-01-14 17:25:32.081,-6024910,2618415,3423754,69709400,-37939450,-54248050,-27871090
2026-01-14 17:25:32.091,28295490,26094410,34137410,35855120,-36987300,-6723633,-24433590
2026-01-14 17:25:32.101,-5446590,26011550,34047640,70011520,-31762700,-90478510,-21855470
2026-01-14 17:25:32.111,28696000,-1021129,7009781,36231450,-25561520,-10615230,-21484380
2026-01-14 17:25:32.121,-499773,5,2584236,3387155,7023594,-14685060,-1046875,-21289060
2026-01-14 17:25:32.131,29001560,25746560,33777470,36512850,-31555180,-90283200,-20605470
2026-01-14 17:25:32.141,-4617942,25657650,33693740,70374050,9307861,-95947260,-19150390
2026-01-14 17:25:32.151,32615820,25559250,33602240,33364700,19226070,-12294920,-17988280
2026-01-14 17:25:32.161,29338200,-37309550,43206710,36814950,31298830,-14677730,-175
2026-01-14 17:25:32.171,-3700052,25367630,33431340,3766346,41870120,-15732420,-16357420
2026-01-14 17:25:32.181,29461630,-11083070,69709400,36915950,43188480,-15742190,-15761720
2026-01-14 17:25:32.191,29492710,-11255700,69709400,36936660,4091797,-10957030,-15146480
2026-01-14 17:25:32.201,-3944668,-11428340,69726660,70391300,41723630,-33276370,-13144530
2026-01-14 17:25:32.211,-389288,-1160098,6974393,7035678,4230957,46417240,-11835940
2026-01-14 17:25:32.221,-3866988,28586200,29401380,70313620,4177246,-11993410,-11601560
2026-01-14 17:25:32.231,-385835,3,-1191172,6977845,7027046,45703120,-18811040,-10654300
2026-01-14 17:25:32.241,-3849724,-12032560,69812980,70210040,5488281,-6744385,-9584961
2026-01-14 17:25:32.251,-3667252,28454310,29274320,3733546,65478520,-26367190,-8574219
2026-01-14 17:25:32.261,29396030,24739240,32954870,36791650,70654300,-7763672,-93359380
2026-01-14 17:25:32.271,-3910148,24739240,32972130,69959730,7949219,-92333980,-8876953
2026-01-14 17:25:32.281,29239800,-1238647,7013234,36619880,8754883,-7207031,-7236328
2026-01-14 17:25:32.291,-33574620,-12446880,70261830,40139880,8881836,-5732422,-49682620
2026-01-14 17:25:32.301,2902228,-1248141,7039994,3638855,8486328,-40649420,-21899410
2026-01-14 17:25:32.311,28904030,-1249868,7053803,36265120,81591800,-1083374,-20233150
2026-01-14 17:25:32.321,28776280,-12498670,70676150,36133920,77685540,27148440,18457030
2026-01-14 17:25:32.331,28646800,24994740,33320850,36004440,7290039,5600586,27563480
2026-01-14 17:25:32.341,-459203,8,25061200,33392500,6901888,7089844,61816410,2746582
2026-01-14 17:25:32.351,31741520,-12386460,70960990,32478140,7158203,60253900,21582030
2026-01-14 17:25:32.361,28318800,-41380340,41967110,35693700,7241211,58447260,18164060
2026-01-14 17:25:32.371,-498907,5,-12291500,71055940,6884623,7607422,59375,13085940
2026-01-14 17:25:32.381,-5118586,25241600,33574620,68820340,8051758,5488281,1430664
2026-01-14 17:25:32.391,-523941,3,25251100,33582390,6880309,7866211,296875,26391600
2026-01-14 17:25:32.401,-5377532,-38705300,44590370,68803070,73583980,23254400,4716797
2026-01-14 17:25:32.411,27936410,-1220521,7105593,35368280,6777344,8026123,6611328
2026-01-14 17:25:32.421,-5636482,2526402,3358671,68820340,6386719,9844971,8769531
2026-01-14 17:25:32.431,-3414257,-38644870,44529940,4045233,5727539,22570800,10654300
2026-01-14 17:25:32.441,27768960,-38618980,44504050,35242260,52734380,4194336,12148440
2026-01-14 17:25:32.451,-5964486,-1210164,7095237,68906660,5185547,79785150,13857420
2026-01-14 17:25:32.461,27693870,25268360,33565120,35196520,5048828,115625,15820310
2026-01-14 17:25:32.471,27677470,25265770,33550450,35195660,49975580,12441410,17509770
2026-01-14 17:25:32.481,-6232066,-11954870,70753830,69105180,47558590,10039060,18496090
2026-01-14 17:25:32.491,-6309754,-38337580,44215750,69200140,41552740,6772461,18769530
2026-01-14 17:25:32.501,27668840,-38242630,44120800,35238810,40039060,34399420,18457030
2026-01-14 17:25:32.511,31091730,25290800,33508160,31850450,39086910,16101070,17783200
2026-01-14 17:25:32.521,27677470,25308930,33507300,35281970,3720703,21936040,17529300
2026-01-14 17:25:32.531,-662049,-1146287,7031362,6959719,3605957,44921880,17773440
2026-01-14 17:25:32.541,27685230,25354680,33513340,35325990,32910160,68603520,18320310
2026-01-14 17:25:32.551,27693870,-11255700,70123720,35351890,29614260,8803711,19033200
2026-01-14 17:25:32.561,-3523017,25375400,33492620,4153995,29052730,88720700,19414060
2026-01-14 17:25:32.571,27736160,-11065810,69899300,35430440,28442380,70947260,19560550
2026-01-14 17:25:32.581,-6948496,25361580,33437380,70184140,27319340,46411130,19541020
2026-01-14 17:25:32.591,27805220,-37347530,43220520,35534020,25610350,1928711,19316410
2026-01-14 17:25:32.601,-700025,8,-10867280,69528140,7044309,23828120,-14074710,19384770
2026-01-14 17:25:32.611,2790278,-10815490,69407290,3566090,19702150,-49926760,19121090
2026-01-14 17:25:32.621,27957990,-1078961,6929507,35726500,19067380,-77490230,18652340
2026-01-14 17:25:32.631,-6974390,25211390,33207780,70796990,21118160,-93359380,18613280
2026-01-14 17:25:32.641,-6939866,-37022120,42855400,70883310,2454834,-953125,19199220
2026-01-14 17:25:32.651,28139260,-10780960,69027500,35925030,26098630,-10185550,19980470
2026-01-14 17:25:32.661,28198820,25110400,33084340,35986320,28955080,-11171880,20546880
2026-01-14 17:25:32.671,-678449,8,-1076371,6890665,7109047,29541020,-12490230,2046875
2026-01-14 17:25:32.681,-671542,8,25082780,33042910,7114227,31933590,-13417970,20390620
2026-01-14 17:25:32.691,-6646388,29058860,29066820,71176790,37280270,-14599610,20449220
2026-01-14 17:25:32.701,28427560,25106090,33054130,36206420,45214840,-15751950,20195310
2026-01-14 17:25:32.711,-35623780,-1060835,6882036,42095820,53222660,-16269530,20253910
2026-01-14 17:25:32.721,28521640,25180320,33118010,36284970,6591797,-15322270,20175780
2026-01-14 17:25:32.731,-631835,8,-10470220,68872130,7121132,7758789,-14140630,19980470
2026-01-14 17:25:32.741,-621478,8,25295120,33227630,7117680,85839840,-13574220,20449220
2026-01-14 17:25:32.751,28663200,25364170,33296680,36385100,9370117,-13183590,20546880
2026-01-14 17:25:32.761,-5955858,25450490,33383000,71073210,10722660,-10830080,20410160
2026-01-14 17:25:32.771,28760740,25536810,33469310,36442930,11494140,-89404300,20527340
2026-01-14 17:25:32.781,28815980,-36711380,42630980,36474000,11865230,-7841797,21367190
2026-01-14 17:25:32.791,28879860,-9969586,69372770,36513710,12314450,-59375,22226560
2026-01-14 17:25:32.801,-34765800,25856180,33788690,41313790,12607420,-13061520,22675780
2026-01-14 17:25:32.811,-5109948,29564000,30357080,70693420,13613280,62060550,22695310
2026-01-14 17:25:32.821,-4911424,26143610,34070940,70598460,15429690,15976560,22265620
2026-01-14 17:25:32.831,-34316950,-9365366,69856140,40899470,16679690,21503910,2046875
2026-01-14 17:25:32.841,-4453940,-9209996,69959720,70468990,146875,10986330,17480470
2026-01-14 17:25:32.851,-4203624,26532900,34441240,70425830,10722660,-10234380,13671880
2026-01-14 17:25:32.861,-394465,8,26674460,34575900,7035679,8076172,-228125,9580078
2026-01-14 17:25:32.871,29579020,-871800,8,7029634,36971190,6694336,-14970700,6879883
2026-01-14 17:25:32.881,29661030,-36428260,42620620,37010030,5410156,8251953,58251950
2026-01-14 17:25:32.891,-3107402,-36422220,42643920,69951090,28637700,27851560,57714840
2026-01-14 17:25:32.901,29907890,27260550,35163710,37177490,-57373050,321875,37036130
2026-01-14 17:25:32.911,30089160,-8182826,70762460,37324220,-46826170,22597660,52703860
2026-01-14 17:25:32.921,30293720,-36278060,42546380,37499440,-85791020,11171880,-22387700
2026-01-14 17:25:32.931,30499160,27459080,35327720,37673810,-11650390,3623047,-5498047
2026-01-14 17:25:32.941,30714090,27517780,35372600,37855940,-13759770,14819340,-11943360
2026-01-14 17:25:32.951,30921250,27574750,35419210,38028570,-17324220,40820310,-18808590
2026-01-14 17:25:32.961,-673272,27603230,35442520,70020140,-22480470,9145508,-22832030
2026-01-14 17:25:32.971,-284844,-7639038,70719310,70028780,-27578120,16552730,-23496090
2026-01-14 17:25:32.981,103584,-7630404,70676150,70071940,-31367190,22988280,-23652340
2026-01-14 17:25:32.991,500636,-35969920,42267580,70140990,-34667970,24160160,-25078120
2026-01-14 17:25:33.001,-31106830,27511730,35326850,38222780,-37128900,24101560,-26835940
2026-01-14 17:25:33.011,-30932470,-768221,7036543,38103660,-38867190,23710940,-28261720
2026-01-14 17:25:33.021,-30775370,27351180,35142140,38001810,-40585940,20859380,-29707030
2026-01-14 17:25:33.031,2149284,-35771390,42000000,70684780,-4171875,17333980,-31113280
2026-01-14 17:25:33.041,-30486210,-778578,8,6983026,37824860,-4109375,12880860,-32109380
2026-01-14 17:25:33.051,-33682430,-7820302,69657620,34421480,-39082030,75878900,-32929690
2026-01-14 17:25:33.061,322827,5,-7872084,69502240,7114226,-35605470,39575200,-31660160
2026-01-14 17:25:33.071,3538984,26856590,34583660,71263100,-31464840,26367190,-29375
2026-01-14 17:25:33.081,3832468,-35530560,41653870,71383950,-27070310,-12475590,-27480470
2026-01-14 17:25:33.091,4108676,2664077,3435061,71522050,-24238280,-94140620,-28945310
2026-01-14 17:25:33.101,37677520,-35478770,41550290,38350270,-21757810,-19833980,-33847660
2026-01-14 17:25:33.111,4609316,-831233,5,6873402,71763740,-1859375,-27246090,-37089840
2026-01-14 17:25:33.121,-29685190,-849358,5,6862183,37348390,-15683590,-30410160,-36757810
2026-01-14 17:25:33.131,-29642030,26046940,33770560,37322500,-13183590,-32324220,-34414060
2026-01-14 17:25:33.141,-29610090,25891570,33632460,37302640,-10371090,-34960940,-32558590
2026-01-14 17:25:33.151,35136100,25725840,33487440,41823920,-7451172,-38964840,-31796880
2026-01-14 17:25:33.161,-29584200,-9486212,68406020,37276750,-4873047,-41171880,-31777340
2026-01-14 17:25:33.171,-29590240,-982286,6843193,37270710,-25683590,-39179690,-30878910
2026-01-14 17:25:33.181,487692,5,-10185380,68466440,7175511,-12200930,-36484380,-2890625
2026-01-14 17:25:33.191,-29635130,25022360,32930700,37277610,-21936040,-39140620,-26367190
2026-01-14 17:25:33.201,34727820,2877274,2885229,41420820,-18518070,-37265620,-24082030
2026-01-14 17:25:33.211,441943,5,-37149860,42883020,7140120,13549810,-30605470,-20
2026-01-14 17:25:33.221,-29728350,-11739080,68828980,37270710,5107422,-16845700,-14101560
2026-01-14 17:25:33.231,3979200,-1211890,6898434,71012780,8964844,-22167970,-81884770
2026-01-14 17:25:33.241,3754786,-12507300,69113820,70822890,10908200,48120120,-4194336
2026-01-14 17:25:33.251,3521724,-1288712,6923467,70658880,13154300,5083008,-4140625
2026-01-14 17:25:33.261,3280036,23904560,32166800,70486260,16464840,7026367,-5136719
2026-01-14 17:25:33.271,-29965720,-13663940,69510870,37292290,22246090,23105470,40161130
2026-01-14 17:25:33.281,2675820,27392620,28229890,70037410,28339840,47539060,9760742
2026-01-14 17:25:33.291,2347812,23443620,31868140,69847500,30703120,62148440,16269530
2026-01-14 17:25:33.301,-30265240,-14932800,69812980,37441620,30585940,62617190,18916020
2026-01-14 17:25:33.311,-30414570,-39887830,45324060,37551240,29335940,61640620,23261720
2026-01-14 17:25:33.321,1389696,22605490,31169840,69631720,28808590,659375,30976560
2026-01-14 17:25:33.331,1078960,22268850,30867730,69666250,27304690,64804690,37988280
2026-01-14 17:25:33.341,-30973900,21919270,30544040,38027710,25097660,53554690,40117190
2026-01-14 17:25:33.351,46612,25,25480180,26344390,6989931,23222660,41484380,39648440
2026-01-14 17:25:33.361,155372,21275350,29927740,70071940,22011720,32441410,38164060
2026-01-14 17:25:33.371,-146736,20979280,29636850,70235940,203125,24335940,3671875
2026-01-14 17:25:33.381,31448640,20710840,29370140,38536970,17949220,15576170,35097660
2026-01-14 17:25:33.391,31373550,20461380,29118950,38508490,14189450,7055664,33808590
2026-01-14 17:25:33.401,31307090,-40796750,45709890,38488640,10332030,-31152340,32949220
2026-01-14 17:25:33.411,31267380,-40756180,45629620,38493820,6738281,-15166020,29921880
2026-01-14 17:25:33.421,31235440,-1887750,6731842,38508490,37646480,-29199220,24414060
2026-01-14 17:25:33.431,-17176,75,-1887748,6707675,714443,6,30444340,-41875,19208980
2026-01-14 17:25:33.441,31175880,-18817050,66878210,38533520,25732420,-53789060,13105470
2026-01-14 17:25:33.451,-2157920,1971558,2825924,71832790,10864260,-63554690,85302740
2026-01-14 17:25:33.461,-33696330,-18601260,66558840,40656920,-6329346,-68476560,5541992
2026-01-14 17:25:33.471,31023100,-1846317,6643798,38496400,-27075200,-70742190,2993164
2026-01-14 17:25:33.481,-2813924,-39893880,44696540,72281650,-52978520,-76757810,-7129669
2026-01-14 17:25:33.491,30951460,19826960,28251470,38499000,-859375,-86796870,-36572260
2026-01-14 17:25:33.501,-3219612,-1783307,6603231,72635540,-10751950,-95859380,-58154300
2026-01-14 17:25:33.511,30853930,-17530930,65954620,38475690,-10429690,-97109380,-40429690
2026-01-14 17:25:33.521,-3685724,20220560,28531140,72859970,-9086914,-915625,-107055700
2026-01-14 17:25:33.531,30648490,-16762710,65945990,38335860,-64208980,-82265620,25927730
2026-01-14 17:25:33.541,30513830,-1630525,6602366,38228820,-45043940,-7046875,88916020
2026-01-14 17:25:33.551,30337750,21098400,29293310,38076900,-20019530,-51757810,19121090
2026-01-14 17:25:33.561,-35397630,-1516587,6640349,42201120,6311035,-23496090,32207030
2026-01-14 17:25:33.571,29939830,-37931890,43154050,37715240,43432620,13886720,428125
2026-01-14 17:25:33.581,29845740,-37563320,42883880,37636690,9223633,36269530,334375
2026-01-14 17:25:33.591,-5239428,23028440,31005840,72773650,11572270,17470700,1743164
2026-01-14 17:25:33.601,-5118584,23378890,31311400,72773650,16191410,-59021000,-28769530
2026-01-14 17:25:33.611,-493730,3,23641290,31566900,7262692,20,23828120,-30859380
2026-01-14 17:25:33.621,29935510,-1188583,6754284,37650500,19326170,73867180,-5834961
2026-01-14 17:25:33.631,29938100,-36951340,42563650,37613380,20234380,122421900,16347660
2026-01-14 17:25:33.641,-4324472,-3685642,4250323,72117640,18964840,131796900,13964840
2026-01-14 17:25:33.651,30305810,-11134860,67931270,37918940,17226560,11640630,14526370
2026-01-14 17:25:33.661,30564760,24652060,32524150,38143370,20332030,110,-8388672
2026-01-14 17:25:33.671,30816810,-10383910,67974430,38357440,22597660,103671900,-16123050
2026-01-14 17:25:33.681,-2710344,-996961,5,6806076,72281640,2265625,975,-19365230
2026-01-14 17:25:33.691,31196600,25468620,33244030,38650910,24238280,100546900,-19160160
2026-01-14 17:25:33.701,31317440,25833730,33586700,38719970,24023440,104453100,-25078120
2026-01-14 17:25:33.711,-163135,5,-8605778,68768550,7182417,21621090,105546900,-30761720
2026-01-14 17:25:33.721,-127745,8,-8174196,69079300,7157384,15126950,96796870,-3171875
2026-01-14 17:25:33.731,-923584,-7725350,69407300,71323520,6845703,81953130,-20566410
2026-01-14 17:25:33.741,-32279870,-7164290,69743930,39328500,10046390,69804690,-41918940
2026-01-14 17:25:33.751,-31955320,-6456494,70089200,39014300,-36010740,56523440,63378900
2026-01-14 17:25:33.761,267580,28574290,36180520,70529410,-8339844,37832030,76171870
2026-01-14 17:25:33.771,35223710,-4825108,70684780,35918560,-14023440,98583980,6430664
2026-01-14 17:25:33.781,-30748610,-4013730,70909210,37907720,-22402340,-32792970,10400390
2026-01-14 17:25:33.791,-30222080,33593700,34337580,37432980,-29023440,-75195310,18623050
2026-01-14 17:25:33.801,-29557440,-2529080,71530690,36820140,-30390620,-9328125,30371090
2026-01-14 17:25:33.811,410868,3134074,3873119,6900161,-30566410,-73828130,60429690
2026-01-14 17:25:33.821,5144480,31892310,39249950,68552750,-35332030,-45585940,66367190
2026-01-14 17:25:33.831,622344,-50927,25,7251470,6831971,-39628900,-41679690,45546880
2026-01-14 17:25:33.841,7293772,34524,72454270,68267910,-41445310,-434375,240625
2026-01-14 17:25:33.851,-26177280,-32348920,39604710,33847380,-37402340,-26386720,13828130
2026-01-14 17:25:33.861,9339470,33660,25,7187595,68621810,-31367190,-7260742,15683590
2026-01-14 17:25:33.871,10297590,28481,25,7128900,69113820,-19296880,-18076170,25664060
2026-01-14 17:25:33.881,1122120,-31598840,38680260,6972666,-24938960,-61757810,24765620
2026-01-14 17:25:33.891,1220522,284844,69856140,7024457,140625,-1125,7089844
2026-01-14 17:25:33.901,-24412100,31386490,38288380,32798640,16757810,-1634375,-34316410
2026-01-14 17:25:33.911,14518480,-34274220,34969070,70296360,-26879880,-16328130,-96328130
2026-01-14 17:25:33.921,15666490,-483372,69847500,69562660,-14785160,-44492190,-102265600
2026-01-14 17:25:33.931,-21842450,30884990,38047560,30396440,-17529300,78632820,-721875
2026-01-14 17:25:33.941,-21350440,30383490,37616840,29973490,-14384770,16328130,-30546880
2026-01-14 17:25:33.951,18212830,-270174,3,6916560,69571300,-11269530,102421900,-23691410
2026-01-14 17:25:33.961,-21376340,-311605,3,6778455,30344650,-37578120,-25410160,-53632810
2026-01-14 17:25:33.971,1968025,-3478568,66610630,7160838,-46835940,-79882820,-69179690
2026-01-14 17:25:33.981,-21423810,-3754780,65781990,30659710,-45820310,-715625,-61289060
2026-01-14 17:25:33.991,-21470420,27226020,34145180,30768470,-38359380,-35761720,-45195310
2026-01-14 17:25:34.001,-21597310,-34135940,34744820,30935060,-30117190,-15683590,-36035160
2026-01-14 17:25:34.011,-21792380,-31298450,37340620,31154300,-30332030,-21464840,-34941410
2026-01-14 17:25:34.021,20137700,26546710,33391630,73619550,-26972660,-33261720,-33320310
2026-01-14 17:25:34.031,-22361220,-444532,8,6388303,31742120,-28183590,-6328125,-34765620
2026-01-14 17:25:34.041,19490320,-31264790,37167120,74163340,-27988280,-72773440,-24726560
2026-01-14 17:25:34.051,19101900,-31466770,37344940,74189240,-15917970,-37226560,-2355957
2026-01-14 17:25:34.061,18696210,25907970,32839210,74077020,-17272950,12929690,20078120
2026-01-14 17:25:34.071,18325040,-548977,8,6434049,73878500,14384770,790625,39902340
2026-01-14 17:25:34.081,18031570,-5653752,64487230,73809450,30800780,14078130,53046880
2026-01-14 17:25:34.091,17824410,-5748698,64219660,74085660,19667970,11609380,32167970
2026-01-14 17:25:34.101,17643150,-5852282,63788070,74491350,-36889650,48828120,9326172
2026-01-14 17:25:34.111,4589222,-31777510,37517570,4646671,-12158200,69140620,-34692380
2026-01-14 17:25:34.121,-24387930,25050840,31952730,33634180,-19355470,-27128910,-11503910
2026-01-14 17:25:34.131,-24615810,-31628180,37304370,33855150,-20078120,-38105470,-12949220
2026-01-14 17:25:34.141,-24773770,-6206174,62864480,33990670,-12333980,-24296880,-84228510
2026-01-14 17:25:34.151,-24899790,24811740,31742980,34089070,-56933590,-10732420,-36157230
2026-01-14 17:25:34.161,1622756,24710760,31671340,7542358,-6020508,-12939450,-18066410
2026-01-14 17:25:34.171,-25121620,-32149530,37767030,34264300,-83935540,-19863280,-23413090
2026-01-14 17:25:34.181,15830490,-7129768,63080270,75389040,-93847660,-234375,-2479248
2026-01-14 17:25:34.191,-25313250,-32449060,38019940,34417940,-98339840,-27460940,-5917969
2026-01-14 17:25:34.201,15502490,2770761,2770770,75423570,-11025390,-35195310,-13183590
2026-01-14 17:25:34.211,-25516090,27197540,27907070,34594890,-1203125,-43007810,-21640620
2026-01-14 17:25:34.221,-25628300,-32892720,38370380,34689840,-11816410,-48476560,-28867190
2026-01-14 17:25:34.231,-25743970,-860579,5,6303714,34781330,-10546880,-50859380,-328125
2026-01-14 17:25:34.241,1465660,23421190,30630360,7542359,-10136720,-54492190,-340625
2026-01-14 17:25:34.251,-26028820,-945170,6317524,34997120,-6069336,-48359380,-29511720
2026-01-14 17:25:34.261,41526990,-33943200,39287930,47655480,17138670,-24589840,-21152340
2026-01-14 17:25:34.271,13543100,-1034078,6349459,75104200,8046875,3463745,-14560550
2026-01-14 17:25:34.281,-26544990,26023720,26767600,35361380,10078130,12929690,-12441410
2026-01-14 17:25:34.291,-26773730,2242680,2991567,35546960,70703130,4736328,-2109375
2026-01-14 17:25:34.301,1226562,22141970,29682600,7501789,34594730,-79785150,-32617190
2026-01-14 17:25:34.311,1177361,-1236056,6364997,7497473,48413090,-10703130,-38085940
2026-01-14 17:25:34.321,11221180,-35829220,40906370,74871140,890625,-73779300,-34550780
2026-01-14 17:25:34.331,-27793130,-13638050,63908920,36322950,12939450,35327150,-23808590
2026-01-14 17:25:34.341,9917794,-3672176,4170566,74482720,18320310,23417970,-7915039
2026-01-14 17:25:34.351,921864,20786800,28724490,7418062,27949220,57734380,1390625
2026-01-14 17:25:34.361,37922400,2058566,2861485,44458300,38828120,104375,38144530
2026-01-14 17:25:34.371,37484780,23996660,24806820,44067290,43984380,133671900,5171875
2026-01-14 17:25:34.381,37170580,-16607340,64841140,43811790,30996090,102421900,39492190
2026-01-14 17:25:34.391,-29492710,-1703031,6471168,37540880,17275390,59726560,26679690
2026-01-14 17:25:34.401,613713,5,19527440,27722350,7382672,11572270,38359380,23925780
2026-01-14 17:25:34.411,36278060,-1755685,6454764,43116080,12255860,37617190,32207030
2026-01-14 17:25:34.421,-34132660,-17677670,64513140,34920730,15625,48867190,40390620
2026-01-14 17:25:34.431,-30967860,-38760540,43430270,38793330,16376950,48945310,39726560
2026-01-14 17:25:34.441,-31346790,19163180,27378810,39122200,1515625,4046875,34082030
2026-01-14 17:25:34.451,-31707590,19087220,27299400,39434670,14697270,31386720,28378910
2026-01-14 17:25:34.461,34803780,-17988410,64150600,41983600,14296880,19863280,21777340
2026-01-14 17:25:34.471,195076,3,-1816105,6404702,7435325,13154300,63134770,16630860
2026-01-14 17:25:34.481,1424228,-18402730,63960700,74379140,11953130,-6254883,16240230
2026-01-14 17:25:34.491,90635,5,-18687570,63917550,7434460,11337890,-14550780,20019530
2026-01-14 17:25:34.501,-33209510,18313820,26605410,40677630,11308590,-18408200,22597660
2026-01-14 17:25:34.511,-86320,1814289,2646558,74197870,11503910,-23457030,22226560
2026-01-14 17:25:34.521,-33645400,-1961981,6393483,41001320,11337890,-28886720,21757810
2026-01-14 17:25:34.531,-98399,75,17823540,26215260,7397346,11542970,-31464840,21523440
2026-01-14 17:25:34.541,-138968,8,17669040,26093550,7386125,11513670,-34960940,19130860
2026-01-14 17:25:34.551,-34155540,17515390,25970980,41354350,10742190,-41054690,14794920
2026-01-14 17:25:34.561,31989850,-42217260,42649360,39566740,9609375,-48398440,10644530
2026-01-14 17:25:34.571,-2416868,-40434220,44725880,73559140,90771490,-5390625,78515620
2026-01-14 17:25:34.581,31564310,-21406550,64047020,39180900,90234380,-56484380,7753906
2026-01-14 17:25:34.591,31357150,-21665510,64081550,38991000,9423828,-55703120,89453130
2026-01-14 17:25:34.601,-34749390,-21898560,64124710,41744500,9560547,-5171875,11943360
2026-01-14 17:25:34.611,30954050,16729910,25358130,38617250,9638672,-421875,18085940
2026-01-14 17:25:34.621,30764150,16686750,25332240,38444620,85009770,-3546875,22617190
2026-01-14 17:25:34.631,30591520,-22269720,64288710,38289240,4440918,-3359375,25898440
2026-01-14 17:25:34.641,-4307200,-22209300,64349130,72877230,54748540,-29335940,31953120
2026-01-14 17:25:34.651,-456614,8,16867150,25514370,7284271,-2434082,-23847660,39179690
2026-01-14 17:25:34.661,30127130,17075180,25703400,37890460,-4609375,-2078125,41484380
2026-01-14 17:25:34.671,-5006372,17347940,25948540,72834060,-46118160,-21933590,35410160
2026-01-14 17:25:34.681,-5170364,-20905920,64841140,72773650,33740230,-18896480,21894530
2026-01-14 17:25:34.691,29735260,-20508860,65186400,37522750,18007810,1515625,12041020
2026-01-14 17:25:34.701,29572120,-20310330,65540300,37340620,30332030,41289060,-5444336
2026-01-14 17:25:34.711,29402070,22322200,23183990,37148140,25429690,18964840,-13681640
2026-01-14 17:25:34.721,-35266430,18535650,27212220,41866210,20390620,36933590,5126953
2026-01-14 17:25:34.731,28856550,22549120,23423170,36537020,15078130,66953120,26777340
2026-01-14 17:25:34.741,-5791850,18684120,27478070,70702050,9448242,8765625,40703120
2026-01-14 17:25:34.751,28471580,18750580,27584240,36093350,8652344,113671900,45
2026-01-14 17:25:34.761,-574869,-2110445,6745654,7024457,10546880,1209375,36386720
2026-01-14 17:25:34.771,-558469,3,-2124256,6742201,7025320,7753906,9546875,20957030
2026-01-14 17:25:34.781,28703770,-42055250,46643840,36275480,55029300,69375,9941406
2026-01-14 17:25:34.791,-5101314,-42050070,46597230,70529410,3112793,428125,-12184140
2026-01-14 17:25:34.801,-34509430,-21786350,66757370,41104030,-4244995,11777340,-12363280
2026-01-14 17:25:34.811,-456614,5,17782110,26619220,7108185,-5649414,-19814450,-23046880
2026-01-14 17:25:34.821,-4324464,-22131620,65997780,71409840,-10839840,-47890620,-32382810
2026-01-14 17:25:34.831,-4125932,-41774720,46113000,71729220,-15576170,-68945310,-39042970
2026-01-14 17:25:34.841,-3987836,21063270,21939730,71988160,-18330080,-75859380,-41914060
2026-01-14 17:25:34.851,-3901512,-41582230,45856630,72195330,-18642580,-67070310,-38964840
2026-01-14 17:25:34.861,-384108,8,16898230,25621400,7239386,-17880860,-53085940,-34648440
2026-01-14 17:25:34.871,-3789304,16798100,25497100,72601020,-17216800,-4484375,-3125
2026-01-14 17:25:34.881,-34827080,-22338780,64392290,41735870,-16894530,-43984380,-2859375
2026-01-14 17:25:34.891,-368572,3,-2233015,6414198,7306713,-16630860,-46289060,-26660160
2026-01-14 17:25:34.901,30973040,-2231290,6388301,38667310,-16337890,-47851560,-22714840
2026-01-14 17:25:34.911,31083530,16395000,24985240,38798520,-16523440,-47304690,-17060550
2026-01-14 17:25:34.921,-361666,5,16341490,24900650,7374041,-16367190,-4546875,-12568360
2026-01-14 17:25:34.931,34803430,-22053930,63175220,35579240,-17871090,-53007810,-16650390
2026-01-14 17:25:34.941,-3590776,16275880,24759090,74232400,-20761720,-67851560,-23945310
2026-01-14 17:25:34.951,-35491720,-40182170,44287400,42573140,-20957030,-70742190,-2453125
2026-01-14 17:25:34.961,-368572,-2148424,6265732,7458630,-18193360,-57539060,-16601560
2026-01-14 17:25:34.971,-3780668,-21225290,62605540,74698510,-14960940,-41132810,-51220700
2026-01-14 17:25:34.981,-391011,5,-20914550,62571010,7481071,-11005860,-25527340,5
2026-01-14 17:25:34.991,31510800,-20552020,62519220,39407050,-73339840,-14443360,8642578
2026-01-14 17:25:35.001,31547910,16983680,25242470,39473510,-8256836,-18300780,34350580
2026-01-14 17:25:35.011,-4186356,-19809700,62277530,75328620,-11240230,-28613280,-36987300
2026-01-14 17:25:35.021,-36316910,-1945582,6219987,43439760,-11533200,-24902340,-44458010
2026-01-14 17:25:35.031,31607470,-38483460,42792390,39603850,-8925781,-88964850,8843994
2026-01-14 17:25:35.041,-36520620,17713920,25806980,43633120,-21374510,13613280,42236330
2026-01-14 17:25:35.051,-461792,8,-38114880,42504960,7569114,59521480,24238280,619812
2026-01-14 17:25:35.061,-36674260,-18091990,62303420,43772950,9399414,24550780,-87890620
2026-01-14 17:25:35.071,-485963,3,-1788484,6237248,7569116,12841800,32558590,78222660
2026-01-14 17:25:35.081,31288960,18372520,26391340,39352670,15917970,51875,16591800
2026-01-14 17:25:35.091,31241480,18464010,26472480,39313820,14013670,58359380,20390620
2026-01-14 17:25:35.101,-36869330,-1744464,6251924,43923140,8383789,465625,23007810
2026-01-14 17:25:35.111,-36877960,-37639280,42169180,43931770,10527340,53632810,29179690
2026-01-14 17:25:35.121,34882410,-37535700,42100130,35690160,16582030,6984375,30839840
2026-01-14 17:25:35.131,31305360,19040610,26983480,39370790,221875,80546870,26054690
2026-01-14 17:25:35.141,-482509,5,19230510,27156110,7565664,27636720,91015620,21523440
2026-01-14 17:25:35.151,-460067,19402280,27312350,7565664,30039060,94609380,14873050
2026-01-14 17:25:35.161,-36425670,19555060,27453040,43555430,26074220,8609375,89990230
2026-01-14 17:25:35.171,-4100044,-3706013,4179889,75604830,24453120,8890625,11162110
2026-01-14 17:25:35.181,-3858360,19982320,27854410,75535780,24003910,959375,15185550
2026-01-14 17:25:35.191,-3599404,-15105430,63477340,75449460,23457030,100859400,14794920
2026-01-14 17:25:35.201,-35723050,20548560,28393030,42928770,24003910,1078125,11318360
2026-01-14 17:25:35.211,-2943400,20838590,28672700,75242300,2484375,115078100,78125
2026-01-14 17:25:35.221,32423160,21100990,28928190,40186480,23535160,11515630,62646480
2026-01-14 17:25:35.231,-2011176,-13836580,64349130,75017890,21015620,105390600,83935540
2026-01-14 17:25:35.241,-34513750,21584360,29394310,41859310,16279300,84140620,103125
2026-01-14 17:25:35.251,-85452,5,21848500,29648080,7481074,12109380,646875,15498050
2026-01-14 17:25:35.261,-20713,5,-12887090,64953350,7469851,95947260,478125,19228520
2026-01-14 17:25:35.271,51791,22444940,30208270,7459494,48583980,24980470,153125
2026-01-14 17:25:35.281,131204,3,-12067080,65307250,7450861,-33422850,-26293940,8222656
2026-01-14 17:25:35.291,-3230230,26528070,27299050,3996207,-13291020,-26523440,5083008
2026-01-14 17:25:35.301,-31784420,-35649680,41085910,39530480,-2765625,-57070310,5830078
2026-01-14 17:25:35.311,4030992,23672360,31294140,74379140,-425,-96640620,14902340
2026-01-14 17:25:35.321,4997740,24147100,31699820,74344610,-53359380,-13171880,28613280
2026-01-14 17:25:35.331,-30119360,-877843,6588559,38139920,-58945310,-15546880,41796880
2026-01-14 17:25:35.341,37130010,25700810,33063630,43835100,-53632810,-15640630,55664060
2026-01-14 17:25:35.351,37551240,-5895436,66593360,44121670,-40507810,-13328130,64101560
2026-01-14 17:25:35.361,-27995970,-4255418,66955900,36240950,-27265620,-1078125,58046880
2026-01-14 17:25:35.371,38539570,-2693082,67223480,44807880,-18623050,-90859380,41875
2026-01-14 17:25:35.381,-26292080,-1346542,67361580,34733860,-13769530,-80234380,17685550
2026-01-14 17:25:35.391,39850720,-319374,67404740,45775500,-11513670,-65039060,-11708980
2026-01-14 17:25:35.401,14777430,28481,6733569,72195330,-12871090,-40195310,-37753900
2026-01-14 17:25:35.411,-23414280,517904,67085380,32260020,-10,-25820310,-45273440
2026-01-14 17:25:35.421,42281400,30340340,36952200,47695180,58740230,-29550780,-41484380
2026-01-14 17:25:35.431,19257270,699164,66386210,72014060,26660160,-34589840,-56914060
2026-01-14 17:25:35.441,20439810,820004,66248100,71815530,31015620,-47460940,-10375
2026-01-14 17:25:35.451,44099230,664636,66161780,49088340,-35913090,-77226560,-1790625
2026-01-14 17:25:35.461,2291712,29678290,36336760,7101281,-57890620,-97890620,-22921880
2026-01-14 17:25:35.471,2410830,-1993916,66869580,7004604,-28046880,18740230,-1421875
2026-01-14 17:25:35.481,24954170,28209170,35302680,69338240,28198240,112421900,-31992190
2026-01-14 17:25:35.491,2537714,27632580,34791690,6934689,23027340,1034375,34238280
2026-01-14 17:25:35.501,-17423030,27326160,34407580,26978300,93066410,26738280,29101560
2026-01-14 17:25:35.511,25765550,-4220890,65488510,70667520,-22167970,-14648440,-23339840
2026-01-14 17:25:35.521,-17757080,-4039622,64841140,27472890,-2125,24902340,-53320310
2026-01-14 17:25:35.531,2604178,-31181060,37181800,7175510,-18300780,53125,-61914060
2026-01-14 17:25:35.541,46796630,-4488470,63529120,51449100,-10419920,27324220,-42929690
2026-01-14 17:25:35.551,25446180,-30985990,36807180,72972180,-82958980,-16503910,-24375
2026-01-14 17:25:35.561,-23781210,-5049532,62743640,24763320,-11162110,-30410160,-30615230
2026-01-14 17:25:35.571,-19841630,-5239424,62726380,29617860,-7026367,-8129883,18691410
2026-01-14 17:25:35.581,-20264580,-5420692,62804060,29989030,-43188480,27910160,25527340
2026-01-14 17:25:35.591,22968890,-31381320,37085130,73930290,-11474610,5171875,7451172
2026-01-14 17:25:35.601,22537300,-6206178,62536480,74206500,-21660160,32304690,-19853520
2026-01-14 17:25:35.611,2207122,-6844918,62329320,7446546,-29511720,25732420,-34824220
2026-01-14 17:25:35.621,2145836,23879530,30862550,7461221,-16796880,46191410,-15878910
2026-01-14 17:25:35.631,-22249000,23613670,30662300,31785280,42626950,15126950,25253910
2026-01-14 17:25:35.641,-22772940,26705540,27415060,32228080,10361330,16005860,52148440
2026-01-14 17:25:35.651,-27489030,-8519464,62691850,28426950,9145508,18642580,59414060
2026-01-14 17:25:35.661,18204200,-8510836,62752270,74983360,4169922,11376950,475
2026-01-14 17:25:35.671,-24160050,-32881500,38312550,33430470,-73535150,-11074220,26015620
2026-01-14 17:25:35.681,-24545890,-840726,8,6276955,33769700,-11210940,-18769530,12695310
2026-01-14 17:25:35.691,-24906690,-32887540,38323770,34082160,-7651367,-14101560,13076170
2026-01-14 17:25:35.701,15839130,-8459044,62804060,75483990,-6088867,-10908200,17617190
2026-01-14 17:25:35.711,15312600,23582590,30710630,75596210,-64501950,-95166020,17666020
2026-01-14 17:25:35.721,14829220,-8528096,62735010,75734310,-8491211,-10039060,14482420
2026-01-14 17:25:35.731,14406260,23472970,30595830,75881050,-11308590,-14609380,90283200
2026-01-14 17:25:35.741,-26503550,-32909990,38301330,35506390,-13154300,-18789060,103027300
2026-01-14 17:25:35.751,-26748700,23290840,30415430,35727370,-12099610,-18144530,-79052740
2026-01-14 17:25:35.761,-26967080,23136340,30276460,35923300,-9897461,-15927730,-14648440
2026-01-14 17:25:35.771,13042460,-9322212,62337950,76295370,-99609380,-1453125,-19199220
2026-01-14 17:25:35.781,12766250,22665910,29866460,76347160,-10019530,-10888670,-18408200
2026-01-14 17:25:35.791,12490030,-33610880,38808870,76381690,-10595700,-64990230,-15185550
2026-01-14 17:25:35.801,12213820,-1070331,6211353,76433470,-11074220,-19836430,-12675780
2026-01-14 17:25:35.811,40984060,21769080,29088740,47438820,-10751950,2956543,-10693360
2026-01-14 17:25:35.821,-28045170,21485960,28836700,36865020,-10683590,484375,-10791020
2026-01-14 17:25:35.831,11367920,21223560,28598460,76640640,-12597660,-10089110,-14824220
2026-01-14 17:25:35.841,11100340,-12334670,61656050,76735580,-15058590,-9033203,-20332030
2026-01-14 17:25:35.851,-28600190,-12679930,61552470,37363060,-15771480,-13251950,-25957030
2026-01-14 17:25:35.861,-28767640,-34832260,39676360,37506350,-16201170,-16787110,-32871090
2026-01-14 17:25:35.871,40208930,20287890,27773270,46867400,-14208980,-17148440,-39082030
2026-01-14 17:25:35.881,39995730,-35258660,40026800,46683550,-10039060,-10761720,-38925780
2026-01-14 17:25:35.891,9503472,-1424230,6152658,76709690,-7636719,-62890620,-3328125
2026-01-14 17:25:35.901,-29489250,-14691110,61578360,38062230,-69091800,-36010740,-27539060
2026-01-14 17:25:35.911,8648940,-15122700,61612900,76580220,-57958980,7861328,-22265620
2026-01-14 17:25:35.921,38956470,19179580,26896290,45789300,-6113281,15063480,-17734380
2026-01-14 17:25:35.931,7768508,18962920,26715900,76511170,-75146480,-26879880,-17001950
2026-01-14 17:25:35.941,735420,18765260,26551030,7649391,-77490230,-53125,-196875
2026-01-14 17:25:35.951,6939868,18577090,26393930,76476640,-6225586,-5004883,-21699220
2026-01-14 17:25:35.961,-30818530,18388050,26237700,39115300,-47607420,-4494629,-25195310
2026-01-14 17:25:35.971,-31039500,-17280610,61543840,39291380,-4453125,-65478520,-27519530
2026-01-14 17:25:35.981,41009080,17999630,25918330,41009090,-26391600,-35986330,-24082030
