Frame,Time,RightHand_Accel_X,RightHand_Accel_Y,RightHand_Accel_Z,LeftHand_Accel_X,LeftHand_Accel_Y,LeftHand_Accel_Z,Label
1.0,0.002778,775.4880516670164,-6.523929825152464,-248.60681415284364,254.7162637515773,123.6971973419172,948.4741116942928,0
6.0,0.016668,99.7114312505091,12.670069650701969,344.039696318454,-53.93601905329174,-50.54702250139031,66.81460712351661,0
11.0,0.030558,-33.87900035660292,-84.31846467479966,95.80555329224195,-41.126929342182464,-49.60380236961926,150.4431044188964,0
16.0,0.044448,11.720126881068516,-260.7463477490498,324.714112173818,-145.2113398755769,102.58465114407193,65.10343742413346,0
21.0,0.058338,63.68745632790138,141.64060722901996,142.7630932323224,-128.29125126182993,11.181171553351044,6.032298136783453,0
26.0,0.072228,-39.34202146615891,40.75678720663218,74.83937347534221,23.721649678598133,-94.35132134377142,212.43786262052544,0
31.0,0.086118,123.84241829612124,-255.3035202219778,297.8318296867129,2.384702828257033,52.41714087957179,208.43032944684825,0
36.0,0.100008,-27.33910939766263,86.71116228888575,14.07691382146882,100.92320183248412,-129.009102620893,311.0525368980512,0
41.0,0.113898,-25.1597512237762,223.46012827703493,327.4973391583404,-156.99247613542826,197.5552470535904,-86.42416592290309,0
46.0,0.127788,-217.0270048020785,-93.80843060967943,-45.792347214912745,52.02168825686887,80.89122517280009,167.3334324037325,0
51.0,0.141678,54.85169917923741,93.00175150760631,334.3674773169074,50.31163279125282,-143.9478846341117,87.49949719647479,0
56.0,0.155568,-42.82499097056846,-62.27475391764038,-73.31449793624687,1.8667206926163,102.78213419033392,17.667890984096623,0
61.0,0.169458,48.05638019717011,78.87024453726391,112.77377871106506,91.28705783480666,19.613853471592527,120.5757260047508,0
66.0,0.183348,-333.41925312698004,21.974351755432025,-173.8079842345065,-57.32242994293623,-34.27732861921756,123.52916323968311,0
71.0,0.197238,19.358960958761138,-78.26253031569702,23.50047046946733,182.07691188055145,-4.65355625062864,93.00141487281556,0
76.0,0.211128,18.473557438192977,77.16921911506142,-143.6704008820964,-1.5739511937102506,-58.68834588930403,58.04391638506885,0
81.0,0.225018,-130.98235308584916,50.58307320516293,-154.5851398948976,15.146191451629829,-99.36450190913556,2.2068563494269284,0
86.0,0.238908,-4.448601339808043,29.97269400265964,-81.84999347974238,46.94029384809677,-10.94258599472832,-22.30369259666492,0
91.0,0.252798,-95.3565855576858,-33.87961060354496,-282.4893032233937,84.72945465695604,82.62170425851868,-2.409932495133837,0
96.0,0.266688,-85.3544586758054,45.83246413270916,-112.99216094623335,167.0601152402043,-221.1978287264333,132.20179583433912,0
101.0,0.280578,-70.82967304983208,77.31139783228534,-245.69527607019705,-42.04647812485624,274.3699659458374,-31.61490005148179,0
106.0,0.294468,127.51776999403629,-169.34227675614076,-272.3416971800842,81.07104038624203,-84.31870098717661,-74.19333180056867,0
111.0,0.308358,17.09834396121812,210.0549769451252,-217.66130076469875,-42.5131355316849,276.3605616356954,52.98916983971768,0
116.0,0.322248,-7.916086770327515,164.70217224547605,-94.03432876648316,149.90352784950625,-87.40775915205363,-198.72715373084367,0
121.0,0.336138,-184.2751026674564,-186.89904172593103,-431.9129616620636,23.078854780490715,-41.97656336062135,-27.51371002751715,0
126.0,0.350028,117.8244251111222,41.56413074904128,-130.42455181280604,97.85869331728377,60.71058254095213,-35.00629976953445,0
131.0,0.363918,-487.2620315645811,133.33176477901014,-240.2680415442997,17.661752188440182,-92.54712256878938,-80.91352053686191,0
136.0,0.377808,206.073971366789,52.07841152800008,-265.3868901856904,-27.13538259847442,34.67891060153673,-193.0741846607737,0
141.0,0.391698,-86.69390628987318,13.998961753035772,-172.72773478901718,17.685918570337122,-166.5422496741448,-192.28969804463,0
146.0,0.405588,140.26182082163285,-88.97888274493344,-228.21159954013245,159.14266423022983,-194.8263844363645,-305.4098871727658,0
151.0,0.419478,-56.04988408666048,4.817836700857516,-193.22622210418567,-133.62706408811647,-55.62901709901123,-41.4248447410385,0
156.0,0.433368,106.8122449126693,-52.61062537440242,-169.8797641420983,51.78830927526647,-135.15506796460653,-137.65152898884116,0
161.0,0.447258,28.04433015056584,-24.07150708091805,-194.6198789784796,-75.23864139471571,-32.95034444688051,-285.3638423248126,0
166.0,0.461148,-153.202033670584,121.71083500001568,-238.95007258792748,86.57037717963377,-315.862748364369,-255.7063152513276,0
171.0,0.475038,145.98384711926332,37.20303914529634,-79.81784640390273,-129.43027820274398,-108.5844549872164,-180.6691421688901,0
176.0,0.488928,-205.57196950386128,-193.53207035771132,-362.07190667003874,-74.7311315783862,-90.57657017168988,-262.16239189428404,0
181.0,0.502818,140.680542881041,25.003138777865924,-37.5638011067586,156.51405850895583,-195.46913974262344,-319.8037311393822,0
186.0,0.5167080000000001,93.66241890505624,259.9057533747132,-169.28363425201456,-60.22041913781832,93.44293572123364,-191.4120649164282,0
191.0,0.530598,-116.82259122847633,72.31846988991761,-148.71205582793016,0.2627670866670009,158.72527109545743,-263.6150482583828,0
196.0,0.544488,-92.40533245022834,132.86986499114465,-1.7134678425813237,211.0401664586109,-37.02376120831413,-279.3786601238521,0
201.0,0.558378,-80.67651387456263,41.95421761527577,-29.07606174430033,-9.175443596002182,284.32051791027493,-156.8340962607686,0
206.0,0.572268,23.26532497543312,435.4807168809268,169.49364886874332,319.7347131926547,156.68983301721846,-309.0279025327582,0
211.0,0.5861580000000001,-211.78070365364343,283.13048154058185,-30.7987853683016,161.11765104906166,529.8873330848552,-233.68132413190511,0
216.0,0.600048,-180.86248901143324,415.83906471893977,223.39004179762563,157.89053111096203,506.5578430559999,-325.2113265783717,0
221.0,0.613938,-130.25653045258812,193.9302817216798,-116.68510883337764,125.34976134695296,46.59189893190894,-121.6391674105586,0
226.0,0.627828,-199.337041349144,333.6049690310391,23.483924118322435,262.00186202985697,176.1590337733516,64.04916012469586,0
231.0,0.641718,218.064343933536,237.828849334518,114.25191394911062,-32.38471560625246,-135.1061453841451,15.371267471744549,0
236.0,0.655608,151.02603294315844,-405.7379507247141,72.59213505786792,137.49493293348087,-253.693646965108,88.84483169953656,0
241.0,0.669498,241.0884772248572,294.8921950766692,107.32497069983688,35.254998839411385,162.19887189750534,52.88094743100875,0
246.0,0.683388,55.93940738962957,56.29301366686488,4.839610269815864,95.2302354551458,58.27966621014203,-22.39376834255169,0
251.0,0.6972780000000001,35.94653436734012,50.4483077886525,0.2871354532586174,170.27144590173958,100.41843893012408,-5.543028363739343,0
256.0,0.711168,-13.152895924390762,118.43417014176242,89.29079890872154,173.16829125127455,187.8220828877245,101.00495449363515,0
261.0,0.725058,-0.2232263959126932,170.28048654829377,252.88442861770827,-21.52188621615573,476.8007719403339,-61.89573851431938,0
266.0,0.738948,193.22567566573647,96.51220339754056,188.742383940721,182.59985905633368,124.31302514259644,140.33932102781995,0
271.0,0.752838,33.826593057270145,179.95865288952965,63.91947692563146,386.31609629694617,164.46885723817618,28.748387600427336,0
276.0,0.7667280000000001,-398.5783442147285,156.74899779922194,14.148861192504768,146.9920795073444,293.527819964372,31.951123009697707,0
281.0,0.780618,-278.8265227084944,192.6784516208739,37.49102806140088,108.42345594785871,287.9788491828095,112.66243071211372,0
286.0,0.794508,187.28605488043723,-116.26444236892507,426.0645860900221,123.87733934732546,-42.65207641926102,241.70624402671984,0
291.0,0.8083980000000001,36.004342861255964,92.98539154875462,15.773579275201962,276.5394487886985,121.5752455279396,264.4913553616576,0
296.0,0.822288,-1058.6850777988134,-578.8476014700282,-595.6955716899575,102.58391558144824,158.6767492456677,233.32297970384784,0
301.0,0.836178,331.71331268001506,379.4492746033204,365.29985416212713,159.04810507482148,64.28783941901978,386.5455986010165,0
306.0,0.850068,364.9928238399178,184.1749942045624,425.1458652644186,242.47754359361727,83.03522000188617,195.4906612639805,0
311.0,0.863958,-78.69031819923242,-139.97033316213316,-138.31418565321704,78.01740624241,-69.27846803224311,304.65607816601903,0
316.0,0.8778480000000001,103.86180153307576,32.222501288217586,-135.01505086525626,-245.5763923883362,174.55186768547242,547.5865534787288,0
321.0,0.891738,28.986965794151946,196.3495451290597,64.90143188870482,3.0575655139221425,-51.96178050488554,253.0117319709988,0
326.0,0.905628,-50.528345174660046,48.027328955540526,-364.123764303195,594.5555201100574,-334.6464808139157,191.2542533908164,0
331.0,0.919518,267.7195498865011,-271.7900385568381,360.9770761966786,-178.80403479529133,-120.26927851265783,314.3493002096718,0
336.0,0.933408,69.29279706981531,174.39242609869893,-151.94340062152776,17.924793111032468,-102.90380495972872,428.8862007350223,0
341.0,0.947298,12.222219009162067,397.1095137609165,-524.8576203112364,-305.2632036426491,89.79205873221433,102.04349133227912,0
346.0,0.961188,-217.6395583526472,-1.5099633210356274,-574.0422306181994,-86.85041477835856,-358.4339746997554,366.2226131270602,0
351.0,0.975078,135.31084296692617,471.5303570879343,109.97122311309803,-17.000699659262864,-71.5310197199009,365.0958893576709,0
356.0,0.988968,375.9978660020696,349.5585991913884,-34.50094372905056,-38.68604403817846,-76.58167302697385,395.5647548623922,0
361.0,1.002858,93.2520976794756,374.2698722868497,-173.8542139367385,-362.732364816567,-203.20183967300264,381.680950915238,0
366.0,1.016748,-142.8281853847837,409.0086024945726,-420.6059943429786,-134.2210180546011,-192.2419113608348,305.91408622516195,0
371.0,1.030638,55.37048367494657,-81.90236572140458,136.75829406669934,-321.12781635266333,-215.39226298905905,456.4799196933156,0
376.0,1.044528,47.37182082999166,11.662094512515658,-39.168048770789,-225.94694003282748,-198.04373572943496,606.1754136597872,0
381.0,1.058418,210.05595955173908,515.1660404935742,101.59012928109058,-251.5144752278997,-302.5053951089784,167.55774618757297,0
386.0,1.072308,-62.23419899084338,157.31997016522752,199.7619270780158,-81.89067456531902,-273.57914394946874,499.9050562483415,0
391.0,1.086198,-302.1880645969616,25.343388738181545,28.048364768025102,-230.2256075861365,-331.53029955601755,301.0542758538459,0
396.0,1.100088,-156.1815156988918,250.44679852218025,175.07115048123163,-250.65208506885688,-187.8571912054476,394.0266357117161,0
401.0,1.113978,150.5597449528931,-176.4306405220314,442.0528950411611,-175.06740892538596,-262.84646337436834,321.304362838184,0
406.0,1.127868,-549.9133680239995,407.8116756376385,288.9635318928423,-354.31213755465905,-499.24356186251566,296.7955529146482,0
411.0,1.141758,690.3667206091388,-766.1676302912867,282.30939948978545,-122.37788150313466,28.67030320258938,433.3037158166139,0
416.0,1.155648,-31.351432431802152,114.4922597167765,480.9885208360543,-364.43209118666846,-78.1758173643497,84.41071694658059,0
421.0,1.169538,109.59990717144576,-177.36473119790904,238.2798419467333,-308.7322833371469,-155.72625781705608,301.702989505942,0
426.0,1.183428,-92.5930980379026,32.903881184022545,375.42296754618303,-25.48893575431632,-178.6983613444104,139.06928223258495,0
431.0,1.197318,-197.4023075942484,-132.3900517578363,224.77804943069663,-317.2829756009944,-36.22039039379994,198.5865356149592,0
436.0,1.211208,255.0193807923801,-464.1774535216404,283.7122880551244,-22.98388628599181,-11.822122423765748,297.19446601969213,0
441.0,1.225098,197.22998922713256,-342.26997364669427,167.493065144667,-280.2255312048722,-83.59986902226395,70.25978103186125,0
446.0,1.238988,101.74567433036596,-329.0153346317646,211.8053864862885,-36.481954871123726,-78.99488630586002,132.69810063800026,0
451.0,1.252878,398.1632420734114,-724.5005751526749,181.90311842256733,-158.69552558420943,188.64487210976336,56.95101572156872,0
456.0,1.266768,-123.23585908130669,-61.93222041173796,30.92757420765662,-20.45282454152011,46.86422030141457,56.727250636821054,0
461.0,1.280658,17.90206859453633,-11.516894399704752,16.080145566687342,-282.94920854677576,373.36047651316665,135.00509391890571,0
466.0,1.294548,187.8276451592939,-662.6017608663517,-10.711605102007464,169.9169633830656,-296.5890886906738,51.987750656298736,0
471.0,1.308438,275.82009830764224,-376.3913588743591,-21.487143748781325,-193.17700157002275,79.18248356200507,44.45594235609113,0
476.0,1.322328,235.5891106961094,-366.9887931877752,121.89457701166953,37.17286415385527,-39.12587994662294,66.60646439325922,0
481.0,1.336218,139.7887948191308,-322.7675467034577,-201.6480620182006,-64.04733690078058,82.9580434987328,34.16797043671105,0
486.0,1.350108,173.81444338981504,-193.0693216865465,-1.887771891616844,156.1665620478778,7.188131680359675,57.83327130695466,0
491.0,1.363998,128.5885039799592,-185.9271500339084,-128.1858295907773,-117.32968716888352,-119.74682599264644,-171.26683886385155,0
496.0,1.377888,128.46916308253583,-355.6616189620632,63.28230661215528,451.0221882871349,-87.83240852408073,-217.4435169212805,0
501.0,1.391778,49.58997053436849,-119.85010400457794,-112.12198517806064,-145.48402600846896,58.919374472308334,333.5301118354402,0
506.0,1.405668,235.3307717280632,-171.953667013646,34.31205125286402,58.20974304980986,31.60687422863507,-104.07770764425194,0
511.0,1.419558,201.41865010153617,-269.5814621169271,73.764844358171,202.65951281106783,-180.5686224042853,-2.4241654510888804,0
516.0,1.433448,74.89489507308713,-116.50227624897244,-1.9967801823235725,175.7295883324504,-7.771585861797329,53.45658431576267,0
521.0,1.447338,94.50121525842508,193.6045837693651,43.213575119172894,212.4556463868307,383.9538373868684,-130.6555486630757,0
526.0,1.461228,87.1858828571691,215.7048359716218,39.14467688642232,322.5224290953444,169.0872035910231,281.1764638243324,0
531.0,1.4751180000000002,152.0620757691734,-146.91867224223657,154.03370323482616,271.6561958963004,208.6861894879628,36.75082593912407,0
536.0,1.489008,-52.09548659334577,-167.52053324403124,139.86941155847072,244.73131390580187,180.5448411394097,26.11253358110089,0
541.0,1.502898,45.02389396891911,-234.23311488038567,233.4737485531552,426.4337430850148,-164.13404170175986,-7.199211802993318,0
546.0,1.516788,66.95392440770422,-97.56071370964196,106.82042138522588,22.50435634353641,270.08928476313986,-21.41605929840224,0
551.0,1.530678,-16.334554966673707,79.79509074502243,-25.07781583048246,32.78370618438504,131.50454469179812,-196.05693882531307,0
556.0,1.544568,223.46509003097648,202.8937094838704,225.86435763725547,246.30482322238947,-11.555247042361554,114.08969571466072,0
561.0,1.558458,85.01650790502117,-32.259550656052085,147.01251882038622,88.20035081647751,7.499399324924461,-131.36953815401043,0
566.0,1.572348,118.88015708407455,-52.43131028742785,-92.36085881492949,-62.61149623493751,131.981194259759,-178.08687810963295,0
571.0,1.586238,156.2639688511542,-11.0479548041483,58.46217715097799,226.01674626003515,-75.4330175382429,-88.77163097259046,0
576.0,1.600128,189.63357284845225,-47.47229489086686,97.49365965260228,314.836042752258,36.69102852065614,-191.32992676441285,0
581.0,1.614018,108.29942430509448,-95.26581960898989,-53.346573346381206,109.53488611461928,134.05319431203756,-162.21236758253542,0
586.0,1.627908,26.355814159049025,-25.229091772510067,137.66995826608368,296.18229762145603,81.24432197580171,-523.3164425735924,0
591.0,1.641798,15.628991679726074,-40.37922963191221,87.57636147316866,334.5571656819991,130.45090853602375,-228.7445337512542,0
596.0,1.655688,4.40295016845883,-190.5519826741464,98.82930197878672,190.81184951942487,46.23344914057656,-204.4009325672478,0
601.0,1.669578,74.9912914633073,-53.73536261308108,88.31302125615332,198.0543425902061,-107.22959350934852,-150.40663137586458,0
606.0,1.683468,28.071260110325703,38.989237753818855,80.60935917772854,127.67148116807444,-84.60131360096767,-176.79395103220588,0
611.0,1.697358,-22.97618322617601,-111.110612530441,21.719982726148057,138.93849796123718,-12.688337747498352,-489.6166474359108,0
616.0,1.711248,-41.29872609781759,-150.29028600941774,21.98067043636328,153.2622930623683,-180.25833566941907,-271.2469688232161,0
621.0,1.725138,-103.30778800454638,-3.5612802353473327,74.96938563865638,68.6491878929266,122.21662366600992,-214.2898131509908,0
626.0,1.739028,-11.782697853854854,-69.62213308042439,14.979612427732429,156.51407326015016,-296.6636196208617,-226.484789519076,0
631.0,1.752918,-79.32793519603347,-104.30397784923768,34.69285558225015,175.07570732865668,-40.479708431440855,-176.38132447559028,0
636.0,1.7668080000000002,-80.06584915326377,-101.50765756535596,41.62333525875188,76.54548626235166,-13.042311620487126,-373.272829398111,0
641.0,1.780698,-41.76087203259385,-88.33452919208236,74.97404234580404,271.5098404307649,-168.3852517300189,-88.81991560923994,0
646.0,1.794588,-5.985935589308004,-195.1357612478924,43.70453636967882,53.4821027319559,22.482561829728752,-222.1817493043557,0
651.0,1.808478,-27.13551543726997,144.9377840718446,36.34074916850893,143.2717808890834,265.3734037086057,-132.61669846550774,0
656.0,1.822368,-3.844913251812884,-248.0093821063435,-0.2350428955202801,111.739466029205,-141.12381894499282,-121.28122433196044,0
661.0,1.836258,-69.93559591076058,27.718741285143786,3.4597850141457087,170.96574188706924,161.60715244121428,-247.40881626677705,0
666.0,1.850148,33.2417214610911,-120.32512021595214,-39.9717469533867,122.20983035514342,19.691268722799265,-121.78583178249656,0
671.0,1.864038,-93.77943891364228,-6.389637657677085,32.97663756065074,-43.44688502680994,-38.484660330004594,43.15579237494377,0
676.0,1.877928,-50.78877993298901,-27.189075432386225,75.19045438384198,-33.543696968468794,174.0094687347667,-237.4578459875888,0
681.0,1.891818,-35.64869708798227,-104.87172064522773,75.11351471331052,-168.19880479538887,44.33212063430008,237.6456495126966,0
686.0,1.905708,-141.1130256177385,-84.0324449173662,38.7734957096425,-78.32177533866826,27.111483499009573,-320.4835616645489,0
691.0,1.919598,74.56479937990188,-77.34245183854274,-27.520956836372303,-182.41169601599188,-145.55358473329892,106.48743208004852,0
696.0,1.933488,-43.66032317819023,140.08424817730972,-123.76440496851924,-179.79970368488705,357.9354088025195,-80.44645280252482,0
701.0,1.947378,-142.82035503409102,-136.05100746794938,-103.74033102607709,-61.72615436410021,79.34866132812766,150.31200079499405,0
706.0,1.961268,107.5210663053574,58.51673375674676,21.502014257926703,-42.09356489457314,132.86299597110192,-123.82442750902216,0
711.0,1.975158,-203.31235342628105,-74.16183133283738,-200.9179603651729,-96.7233611612038,97.46938887825206,226.6873664937264,0
716.0,1.989048,94.25188892076042,-60.53324088805954,49.51676542401093,75.17942333542706,20.862738011359664,103.18599658035976,0
721.0,2.002938,-19.23015367179862,211.810578770936,114.92468269977584,-27.780279649693806,155.03075028828457,28.794105009882152,0
726.0,2.016828,-8.102004932741336,-78.55618275833086,-97.56498237463497,-77.21781226293487,23.503554501960814,138.42104150647577,0
731.0,2.030718,97.34071863671606,116.30045853253309,181.8042119751644,-24.95977635361388,8.81606524029944,31.75781065940611,0
736.0,2.044608,-284.20343191580724,-329.9129713050799,-119.11885963017062,36.73846496665318,-249.55463874958164,244.59693958407632,0
741.0,2.058498,119.95939526820789,331.62284072397523,315.6086704715625,-49.33161729524551,-66.01762207546572,-53.29701284681796,0
746.0,2.072388,6.527171106968723,167.94728771501894,46.72085145996852,46.272856985470085,21.10113506108391,46.574265776538525,0
751.0,2.086278,2.4545823969030245,79.45726563403423,100.28113218426886,-35.332923793932856,-185.6536295590832,119.8873267976074,0
756.0,2.100168,-8.928196695235284,148.44474373022672,94.05564590856636,118.98951256902056,-194.1500570057096,-37.018541689367325,0
761.0,2.114058,-119.06890479780743,195.259768211049,-48.67602527182437,-301.62021680517046,16.59166472145426,182.58911905985968,0
766.0,2.127948,224.5361731203429,124.25818901972472,84.49290658288571,-16.390506819940462,-105.64196522873068,-18.65116456533332,0
771.0,2.141838,-71.27474430440952,152.76838005430596,-36.488943247142245,155.4215182542642,-60.3674905905097,27.402476000683187,0
776.0,2.155728,118.24521875740582,51.62576206353483,1.6350268201006557,-223.23589913486865,-59.81761009245133,23.70231015082684,0
781.0,2.1696180000000003,157.97920502175035,98.03024910061332,-80.85785345082516,-37.28015636274517,-6.855860027219141,12.785330612135848,0
786.0,2.183508,201.81439807993684,97.29019748870827,-43.51501694506077,99.43730935980666,-86.07958962848859,120.00208583270393,0
791.0,2.197398,-92.06477714033542,38.86915004033855,-51.55039718579835,-31.213580577914648,-96.10726190705547,11.1698963027605,0
796.0,2.211288,-42.40183622873187,78.60917682965267,-69.77312471217196,-134.77866187276086,87.47933823879382,61.77502355719145,0
801.0,2.225178,67.76914038229718,70.41978491289909,-156.0123984510043,24.32561974675946,-81.25943181335128,49.7967135255953,0
806.0,2.239068,36.8301174029094,-9.9744239119335,-61.004550755903175,-132.37557631292387,111.06770888851278,-17.39915509522983,0
811.0,2.252958,-19.4202726614248,-1.482937239364616,-95.0212416392302,-233.2588029773924,1.0110022064936786,-38.4436233040131,0
816.0,2.266848,-64.35083546151854,-94.59138944127886,-54.88203179201858,309.2914247356638,-117.67617242866632,75.68317206282988,0
821.0,2.280738,-100.57684761508504,5.625190834851857,-74.8655278292843,-142.28344739965618,90.57185386728558,70.39690975247791,0
826.0,2.294628,-33.65145141730149,28.225307183139225,-103.75231880832284,-114.6246449496793,-26.243422144110944,-95.17036971573512,0
831.0,2.3085180000000003,30.73387282540537,-111.73459634235776,-232.3879472514031,144.50414947401,-140.72180750640774,75.99894071545772,0
836.0,2.322408,-2.437679260884387,-184.2323852937388,-73.37613536152949,10.328852743695665,-22.02645276987933,-35.53657524236624,0
841.0,2.336298,197.70219100376227,-52.03939601286145,-217.43570775316684,163.16127736688986,-43.46939432108231,71.40704282223413,0
846.0,2.350188,76.28028381296458,-261.9398357025248,-91.8708862979551,-77.54589059961418,-19.875181259565306,-1.1038159651091064,0
851.0,2.364078,155.39513461993891,-14.51970507976162,-138.0503730459107,-56.252725861089296,-115.8703232847978,-29.77218108806328,0
856.0,2.377968,-51.3648449429336,-124.15734578153696,-54.17579904806004,98.53236458349426,17.628738410529337,110.72753320038534,0
861.0,2.391858,69.37028295622073,-97.8749609116077,-158.8926859615039,42.21089582056781,-49.96784380590117,-10.614969076192551,0
866.0,2.405748,20.246014701573863,-1.7231328927947374,-108.99983421747623,-9.842868648784943,-46.45220720615491,-32.06943739223706,0
871.0,2.419638,33.107948781743175,-161.88226933780174,29.417720805889005,221.41324588193896,61.05164404697724,1.949386403262526,0
876.0,2.433528,-71.14836675230026,33.73573289040342,-25.17830708592473,-28.918611998009737,-204.633825461972,-96.97696341585116,0
881.0,2.447418,-28.965588028731403,-42.57592700937961,-111.1196276509699,-42.39446939187511,162.29187120163851,-93.51266915765612,0
886.0,2.4613080000000003,20.84384402322792,103.80282707710538,37.68327204826343,122.23221085671048,-53.09389672287246,-156.03246826788055,0
891.0,2.475198,50.04635685079942,-62.23475140210829,-159.4372319075784,147.07721565602694,14.32401504332514,-169.8336432053646,0
896.0,2.489088,124.4162331760034,42.996265214803024,-40.471172756347485,-48.68356157280384,-99.249526391734,-92.10151028352196,0
901.0,2.502978,105.96476369432337,-13.436520460402514,-7.003905051687124,198.99085862318995,-65.60285221696793,-118.53286380342148,0
906.0,2.516868,56.44617114544579,119.7794882233611,-46.4021285603956,139.72279611568766,0.3257997260912617,-161.427646355636,0
911.0,2.530758,14.853436055438536,387.5625343459062,83.28488808267907,-93.165426512954,304.62223457571383,-281.45010185070214,0
916.0,2.544648,56.86140419383838,305.95085508075863,-122.86796584962129,174.63293176397826,293.8114629822734,-148.87028453792988,0
921.0,2.558538,-130.3001438641869,204.9252993703878,-130.8516697516134,172.8215400488055,65.47909902018874,-51.40462860774813,0
926.0,2.572428,-13.3731859237148,27.1203477237548,40.45243296351969,170.16220684779097,37.78233949915902,-271.06888534295325,0
931.0,2.586318,-152.6976861980833,40.31184566622308,-238.9016296392572,367.0703412593662,359.95783702490746,-142.1968424940594,0
936.0,2.6002080000000003,-184.7478208503073,319.05390949559285,1.471741311162325,68.97906660654463,276.0671675712146,-210.3015806811057,0
941.0,2.6140980000000003,-87.1182547613279,134.54866529573897,-95.81125506040826,141.1006361041759,287.68001167562795,-255.02295302251343,0
946.0,2.627988,77.09273733821674,23.31118609835184,-91.04007299781551,430.4657749936973,124.27020304117109,30.170222259088987,0
951.0,2.641878,57.70794625344392,158.3940821366915,-137.90002281310285,13.086273817793291,102.9310434161826,104.81824608184472,0
956.0,2.655768,234.7708697734139,224.34358276128447,58.92619418464069,-62.13457902834361,318.5870147436123,-89.03229628951433,0
961.0,2.669658,103.12618022422654,152.1411136860981,-14.576828623917216,-99.5540014600978,291.29401123395394,-15.302276254642358,0
966.0,2.683548,106.5105435847733,243.76015954523496,8.52780000795401,29.08428906831269,198.0708323121281,-16.67944942794949,0
971.0,2.697438,81.06232908709592,14.945737771181992,-19.85405891344932,53.444534950150825,206.49029676051595,-5.204053860020494,0
976.0,2.711328,-81.78274013822498,-120.21715598079224,1.4980588494168128,168.0933189470747,75.0289911928309,-25.44816315214969,0
981.0,2.725218,-48.84352638653573,-5.100296470401052,74.11352438895915,40.87841577362985,-68.08048914848652,33.876101629553446,0
986.0,2.739108,-222.35519077320487,-187.37562691205625,-5.75619791717747,74.32480655407457,17.457686468925914,-131.7847983347946,0
991.0,2.7529980000000003,28.38888634342405,-222.64682319007497,111.61546180800784,84.77596346545779,-147.67245372997343,-14.14203031993658,0
996.0,2.766888,-150.91792877689502,-206.54144782196863,38.59730494561198,92.30232883025838,-123.5809169616558,-88.33771326300273,0
1001.0,2.780778,-204.4364649891041,-294.22444190537533,60.38099588079356,-0.5405820568523723,-179.326435739946,162.41954127902204,0
1006.0,2.794668,-154.4746774350116,-293.52099634888555,14.877643816877764,116.22313768281607,-152.03764603903574,-68.6475157113533,0
1011.0,2.808558,-262.2500511546521,-260.2813455364992,-13.591273019425902,-71.748407603053,-45.59385218564135,101.4889542351016,0
1016.0,2.822448,-100.97635160159987,-313.70284978824026,125.43952231626972,-120.27279611014676,-4.562007843651443,94.37634940257972,0
1021.0,2.836338,-183.3407914505628,-143.0622909258768,123.47547032407812,96.53829614314134,35.297222305130845,118.07424550499393,0
1026.0,2.850228,-130.4234194184919,-203.1625096040641,199.26939263360845,-83.19183378830391,-74.52317395541812,407.1105869893704,0
1031.0,2.864118,-10.879430430554812,-46.520520145125936,60.84422560121412,-87.62981297950671,30.602544936233965,120.95714948964238,0
1036.0,2.878008,88.08916898337661,-63.4532171232046,66.9893781114765,-149.9808150971528,174.98250734335642,213.60726199544092,0
1041.0,2.8918980000000003,-8.410443112545273,27.34757384152879,69.25159163134694,-189.4154327104314,-46.84228249114484,233.0775538392582,0
1046.0,2.9057880000000003,58.53887087936512,-4.0966116087576765,89.09486194435955,-87.72408072904283,99.66549206621836,285.7861984513048,0
1051.0,2.919678,198.48259390251405,73.9426200748693,110.57963464759368,-272.9700827156328,-131.08919898129415,87.68262789574987,0
1056.0,2.933568,61.07144663183679,22.977106677074453,-1.1413778841021855,-284.901003232236,77.1618498635731,168.43010673569688,0
1061.0,2.947458,-51.10248916017897,82.51496082360629,117.86044761065097,-188.3309787205041,-104.49230231292836,132.56251442294626,0
1066.0,2.961348,26.966793890281053,-135.77408503598696,136.25733701389055,-186.7920557935776,-130.73408180887316,158.74860465573278,0
1071.0,2.975238,-142.95437626699996,-41.48817396846363,81.2306132869629,-164.1109410004718,-96.70915908527104,187.2035980125981,0
1076.0,2.989128,-295.3042651252314,-29.070111791987905,365.7128231458788,-225.7471168368188,-179.0539558000917,99.00363259814308,0
1081.0,3.003018,-225.4249551197784,25.31338576686209,268.21577481548525,-219.41598582041613,-310.35904812922246,336.5788714909572,0
1086.0,3.016908,-53.982410200681606,-104.784914350397,184.63051166176405,-274.5999900339491,65.5191776974946,-29.407910997064107,0
1091.0,3.030798,-112.19587694916991,100.17285146369798,96.0495284072187,-163.38549582330387,-269.32316498720934,360.434724079768,0
1096.0,3.0446880000000003,-149.3093075851726,248.2632235617204,183.47703433799973,-273.53673014034405,247.54444568330365,-32.48697783047746,0
1101.0,3.058578,98.75116488011044,-206.62584869074328,201.96881620530647,-156.9995594462922,-386.4672151780276,367.4143329322756,0
1106.0,3.072468,-89.45421130587165,370.39918279278993,264.62611285345366,-183.3458215903763,201.6435800291661,76.96804469820798,0
1111.0,3.086358,62.377363358954376,198.66694187533045,116.56066832528502,-126.70838304049812,-173.63671315007508,373.9413137754311,0
1116.0,3.100248,-80.30342245752317,225.29965370294,401.5685564868994,-229.0087835986258,-97.86543724546354,143.52296077816467,0
1121.0,3.114138,8.815833407383746,-49.45509875467141,-243.0114923022906,-93.82610961799138,-30.58567273901243,270.2961246401116,0
1126.0,3.128028,-42.17150971152101,76.23046370144387,157.6540224780702,-188.0284354777945,54.358211753487495,-111.15912858916472,0
1131.0,3.141918,-128.40911452291732,89.89045641257943,-22.09023044254609,-248.40219553015257,-270.8644539457307,260.0613578699258,0
1136.0,3.155808,-145.77947491420875,53.16887089478294,255.0997403299853,-19.20202066316828,-57.73091576294029,151.8402260976997,0
1141.0,3.169698,-164.21126305433322,-25.1531876307955,67.55295101539504,-266.93848151047587,-161.51882502081963,230.38497814688776,0
1146.0,3.1835880000000003,-69.06543052975779,20.03571838731677,-81.24930997329507,-110.45160996548525,-86.05635497848878,-16.45233042213585,0
1151.0,3.1974780000000003,11.121919094421033,-130.43397976842596,-98.14770435088244,-87.60685179649921,-47.92838336355194,108.30574001606254,0
1156.0,3.211368,3.231691125918968,-102.22728946165655,-42.55565006971161,-44.475193929056815,77.87401693545566,175.35735147987958,0
1161.0,3.225258,-85.64100864339608,-1.2545599633270896,-80.03781044389724,-90.69461248447872,-21.224859491689514,50.28243756898577,0
1166.0,3.239148,66.58755055511176,-176.36863162931792,-84.31019309664427,-78.71339630738723,-43.19530901655656,92.4768784776506,0
1171.0,3.253038,34.48331956766512,-52.08359446229867,26.22908425237823,-6.68395612193002,25.579252996082285,81.67187370914806,0
1176.0,3.266928,118.0032080082472,-43.40755825357345,40.238866241507885,-93.12176962603888,144.59630774700798,-62.95577161369251,0
1181.0,3.280818,317.49540305294056,-301.17313924900765,-103.12289321552606,-206.7011317880821,-139.3334506282074,25.65949883702548,0
1186.0,3.294708,197.94941484645813,-160.96259664338703,-59.343679663158895,35.41605125913022,157.89655515365274,152.0951811184013,0
1191.0,3.308598,104.55669424738416,-119.16458337252456,135.84885088598082,-58.79196538874283,-104.34169433718708,37.31452128662589,0
1196.0,3.322488,126.3481880175986,-70.12221880915175,-89.94646806917244,14.69028080316231,54.16533454913685,7.109029510432322,0
1201.0,3.3363780000000003,-32.76264628722245,58.983797918212005,-158.42000169007585,36.9567203189933,98.3765237226476,78.35711428751999,0
1206.0,3.350268,-76.16826683633099,64.08562551371281,33.648305795845275,26.973282767816546,24.658584506074103,-16.75632306418611,0
1211.0,3.364158,-16.132645071445854,-53.00553108070645,-27.37574031584492,-211.274101134484,1.29251688846891,-80.27132111406324,0
1216.0,3.378048,54.3973575264573,116.13942698995744,-10.60461427125789,-51.24825110283203,67.8165805945282,40.16543121261907,0
1221.0,3.391938,-66.54288282137705,-4.720146818714433,113.29742743696008,305.7005808778178,-62.70963944811484,106.37339716868232,0
1226.0,3.405828,37.8952961154666,-145.99361354146765,5.223060042897121,-172.74539610989603,-67.44301467244551,43.51218599734534,0
1231.0,3.419718,32.55140052957222,55.882582316307776,56.93136893169425,57.54683257348525,-5.637580021582327,-18.970681048758905,0
1236.0,3.433608,67.05164355528396,-15.205524224785954,219.62703887502667,65.57982051344783,-57.97207030504232,-30.42550991304165,0
1241.0,3.447498,64.90527766339466,16.125702691459058,106.18099068059556,277.41553170365125,156.0584085204281,147.05357493096582,0
1246.0,3.461388,96.73749502728506,-34.65565191492723,51.49302244722121,-76.47759244279897,-85.92940667552604,-23.020782643842555,0
1251.0,3.4752780000000003,7.805501957683639,174.90630784605446,57.080639090023006,210.9413542094348,70.85263840923258,23.99736107351172,0
1256.0,3.4891680000000003,21.542152202964783,-59.39209405062569,220.25268005473657,110.73285748964672,-102.76457788464778,145.58512887353402,0
1261.0,3.503058,-11.596574575426237,139.14252471815584,219.04892211628328,105.85204003746824,121.61950665780547,39.49618665401189,0
1266.0,3.516948,-88.23455459097778,110.62375381304308,198.97802684231053,137.03983034265104,-136.05781578644252,11.435463450854565,0
1271.0,3.530838,118.53352814839604,421.6864578767207,140.83300553661837,85.95532578819552,287.70191525337435,212.2784986274997,0
1276.0,3.544728,164.9742923408106,366.4718499982432,131.4821541838734,130.92722616917044,266.9983995135095,20.772571459756563,0
1281.0,3.558618,156.37800607894278,-290.87683476203136,270.598180632178,192.4444645657844,33.67300594285596,232.39701373549045,0
1286.0,3.572508,217.67346576217471,-265.21871038207325,19.26364042424572,107.87906652708536,-27.405048619892057,140.1509491871886,0
1291.0,3.586398,284.54587424720785,75.93788787111214,27.8942898720028,117.1841089451237,312.64023991950546,242.42644055643052,0
1296.0,3.600288,292.4651270402064,-42.43545488596216,34.9997097358104,56.54033139975222,103.96638064240808,154.07475073381386,0
1301.0,3.614178,467.2805316485128,-145.3362300450311,-12.674624254889656,122.37875035736069,-66.64468570109054,73.58006044428176,0
1306.0,3.628068,192.7033425175876,-76.34988793700239,-8.145777217427778,29.057276393375943,-72.25914872623878,-31.21553404906804,0
1311.0,3.641958,84.0207146156103,-86.57858254796255,-107.97341237388191,16.209328260827306,-122.04619848436086,177.58064436750357,0
1316.0,3.655848,-192.5366116450252,75.94693905543406,33.75146325841574,347.3604969940114,7.224717768851742,-37.70321739018864,0
1321.0,3.669738,-239.8097886992061,11.097603961232863,-27.98356448176821,262.6729861002385,-24.94664557771248,144.13043003095493,0
1326.0,3.683628,-131.01383280348625,60.73325948003456,15.535394210094124,25.84371269421318,-18.883931790318783,5.220230161013646,0
1331.0,3.697518,-244.8624528361874,-155.27365164246766,40.07296344687079,257.8087273078072,62.9485687026669,76.47107493534537,0
1336.0,3.711408,-249.29599941565988,172.80467766382154,-78.62550254421254,118.57192921239776,-5.501075412689062,191.04592859331552,0
1341.0,3.725298,4.461952555816602,96.53990197979506,-68.80109421391916,80.96368655143036,108.3338277035334,15.828599707617656,0
1346.0,3.739188,-97.59315424367196,120.89439700552606,-23.17635209584756,116.27479199172107,27.79993886007224,-29.188815037223648,0
1351.0,3.753078,69.8859659772343,165.41462992719372,-27.620254691360607,168.70998344037946,73.2634804583014,33.934801832057765,0
1356.0,3.766968,-89.27675016113714,226.66274613240384,116.63924886960508,93.92022990107304,3.344216082827224,-20.107166537143712,0
1361.0,3.780858,187.7868335576464,191.8423704832929,-40.163000330637104,77.84488585743081,2.4390468526841005,-211.0586971584596,0
1366.0,3.794748,-38.80373926266127,84.74685444211553,-14.315645650184734,77.70885490805242,82.98966318508874,32.58552603256058,0
1371.0,3.808638,16.4392121024309,62.449115875389055,-194.6779413928681,100.00704454233988,156.04394847656286,-277.902509299046,0
1376.0,3.822528,53.81120253395925,33.49080916507505,-173.6234875493899,120.86990225786012,-56.43792825700643,-115.3347130628222,0
1381.0,3.836418,9.189535510408165,-36.84737598079852,-97.04301378582642,-104.52894595848214,-200.29731528161852,176.197580011428,0
1386.0,3.850308,141.9665325360448,34.377494843327,-13.939166091835006,168.45517011848924,66.64368074851765,-194.5748485827292,0
1391.0,3.864198,6.454053512960108,161.31829023770388,-252.0871631825416,-79.14666606088635,-101.20226535961127,-13.078612648068244,0
1396.0,3.878088,68.28567026050551,-10.61077156273069,-232.66347474990053,-102.83045580480442,136.87493855357667,67.3417647268248,0
1401.0,3.891978,3.662832082417779,-68.00970109058191,-242.42977778182183,-28.50183423834064,-106.4723109683838,-23.04971702337156,0
1406.0,3.905868,-62.602610436257294,-139.96429866762807,-227.2724783046092,-69.91793792066261,112.8602484398256,70.31305436046864,0
1411.0,3.919758,-13.309603353196032,81.03919322358536,-140.05328828362448,-245.32373692771483,-87.7135500629904,133.18824664334187,0
1416.0,3.933648,-179.01332738974472,78.20507591697103,-293.4013671370283,36.93448146833819,184.1801956866663,-29.48601931876327,0
1421.0,3.947538,-34.677445150368776,176.74757783373178,-221.1937507462497,-251.18266341827547,-7.5313224188511825,84.79710382697492,0
1426.0,3.961428,-27.73098298460277,-20.9939585186348,-61.598356544306384,-44.07569776305038,126.16780242974332,-42.93004153209648,0
1431.0,3.975318,-137.9607681436547,-165.40571753138494,-474.5352670533223,-146.57721629063764,237.98274102539784,-87.05185839138102,0
1436.0,3.989208,-161.47000353736934,-77.73904478966968,103.60715596657096,-130.0476937542459,-91.5380214065045,-27.44165088349041,0
1441.0,4.0030980000000005,-71.60397843665419,57.65959547526283,117.28920987867824,-95.70485331482692,1.217637626782163,46.91096364762042,0
1446.0,4.016988,-94.51498833052536,-47.86511267147307,259.67063182146995,-112.69418799226824,-78.03100367744281,-57.69012580978352,0
1451.0,4.030878,336.56463659696385,-178.87087358015063,1216.2997452862087,-35.67846494310617,-51.26603305446315,-156.8123793321633,0
1456.0,4.044768,-25.770275786208416,66.38684938973958,413.6152940485492,-58.358071778275416,-37.25177758047822,-132.84409388869167,0
1461.0,4.058658,-562.540839985864,243.25228864854856,-690.3639186865996,8.131997418888298,-148.80172205365452,4.69106483051241,0
1466.0,4.072548,-718.3159343554175,263.5206210849426,-972.7999716346868,-13.196539853719786,-309.8424662446558,60.961365662799466,0
1471.0,4.086438,-448.11866899813714,62.37880558733879,-526.4662391538463,68.2700189352696,20.045321032630824,-274.39035971763127,0
1476.0,4.100328,-110.4352978663905,169.14039201730492,210.92691148145923,-11.791502084313422,-229.5683198636852,-63.302941135486606,0
1481.0,4.114218,10.601181455670751,-190.32475719608468,366.72729525948,7.743668917377533,-44.80555237519752,43.15118267378338,0
1486.0,4.128108,73.75782758891452,-112.81521416505764,610.9382472771923,38.67023882236302,-65.31843998227792,-62.45457387766116,0
1491.0,4.141998,16.671461226898188,125.98097172744488,293.64879882111217,71.68009800063896,-110.3648603916681,-145.5413405471832,0
1496.0,4.155888,101.57791988806764,173.72335473261126,-123.3133887522252,-78.03774393841672,-32.577062466116345,-64.65710258517623,0
1501.0,4.169778,-325.39287493153427,-179.26634981151818,-181.2185975482629,-17.584591678627557,-89.6395115759502,-238.5428531230108,0
1506.0,4.183668,7.1837614585155976,-48.219783717927456,-293.64484200197285,118.36795362846894,-7.507546745436549,-67.8650067124747,0
1511.0,4.197558,-25.11806409430084,-63.19769109006924,-426.1814772882684,-41.52121216144177,-50.39196689718625,-96.77980979312836,0
1516.0,4.211448,89.19730949817765,-44.14273421198613,-26.713090168273894,29.6813099036276,-111.59069040562852,-131.45293613731997,0
1521.0,4.225338,300.82940595814256,30.33970552096628,153.8803807005491,3.96901232047378,-1.539141211752053,6.605185297882471,0
1526.0,4.239228,341.04435485706523,76.2787189184677,-17.554337805624993,119.60888398119396,-65.88524873925603,-107.15361314154104,0
1531.0,4.253118,196.3191025803281,-150.9172357079947,-24.296173872514338,69.2707342163637,-102.6764354016409,-7.618147880891335,0
1536.0,4.267008000000001,214.81048930244435,-23.59790041380378,-176.35606035032964,61.22104232471418,61.328133921293045,-116.50203170677472,0
1541.0,4.2808980000000005,270.63632464878003,-86.29711459374232,-162.43832179620065,47.14482117153722,-179.80396938741904,-62.7502406829838,0
1546.0,4.2947880000000005,241.0752153766246,127.60002086783608,-138.44706032153093,-21.61245638648244,24.18589496410699,34.8128652009135,0
1551.0,4.3086780000000005,230.2524939210022,38.923888522227045,-8.011951508598766,-103.37892612843154,-182.31148268360937,-118.04589240468,0
1556.0,4.322568,271.1624357419799,-106.81094644501756,-32.296908297413594,-3.6812966944212206,-118.18426101910433,-5.260510510059412,0
1561.0,4.336458,298.7650494152287,110.5426572175658,60.6205492108507,17.42914452570747,41.414872912917474,-25.783907996234184,0
1566.0,4.350348,156.306146420076,73.59984856614022,188.11259980395937,129.36148379248664,-42.9769639829838,-83.02689664350483,0
1571.0,4.364238,163.2807918049054,-262.7680641580501,339.33721711224894,2.966247475688263,-80.9627768481187,-26.952400366179354,0
1576.0,4.378128,158.87878365560763,-180.53670661137247,411.31716478748393,110.99861789762576,183.99456110899456,-170.27590874382616,0
1581.0,4.392018,274.5060636955319,-177.60010261475125,359.9204775150793,74.39962036117927,46.74596407487153,19.66038484406008,0
1586.0,4.405908,262.78205950577336,95.77058502041132,272.3156559432945,107.22241734155992,76.06628709849059,74.01046591407024,0
1591.0,4.419798,225.9172667499774,170.68625757575973,111.15412634552466,48.09517264806136,316.29209555897194,-43.51722625014549,0
1596.0,4.433688,225.5627947357301,-103.6467799722462,-31.503687205672765,73.61770037267506,218.78134607304435,20.054880679247752,0
1601.0,4.447578,129.1989771979492,85.32969011222555,-146.71076649414553,35.28931318660888,206.91021212874887,144.7180867250529,0
1606.0,4.461468,34.15535553470448,191.6587220127853,-74.08189224167566,-65.58064917207645,125.66345269622391,66.1583824561731,0
1611.0,4.475358,-873.1639018795278,272.8795802074557,-1829.454427692531,-62.823631517855056,100.960440232968,58.37410580724416,0
1616.0,4.489248,1212.9386133686894,-31.4869311661528,3203.8005384576454,4.247590526166988,297.1849737832352,-119.69121301204612,0
1621.0,4.503138,-1714.639261594521,377.3142316398204,-2556.861075738588,-127.59921494953628,115.36236131269052,4.40158283495844,0
1626.0,4.517028,1240.3861551949994,-45.26496123599688,3018.7929741666267,20.304728534194787,123.3450907683602,48.95124002722775,0
1631.0,4.530918,681.0447419140808,63.54613116637731,1663.6706168232995,49.705457451998,-150.65800760800386,-106.9194828582032,0
1636.0,4.544808,-1212.821430277499,206.4986424321908,-2596.754653925529,107.74664066900856,-87.60125931754737,10.315452875615996,0
1641.0,4.558698000000001,-5.488117119559291,45.80229170534609,178.55569908509693,13.848795121947342,-147.6705408890674,29.280396492063225,0
1646.0,4.5725880000000005,29.8800643223384,-17.007779637595505,-158.0166204488646,70.23021906064659,75.1218610475328,21.921164057649204,0
1651.0,4.5864780000000005,71.28770990301149,-171.48251963273054,-108.42575897428712,5.524584555587294,-76.37240907239551,92.78986350698555,0
1656.0,4.6003680000000005,37.419564665998536,35.77366744162529,33.5754435161856,-72.01422774331077,-114.25280329043837,33.53475436010839,0
1661.0,4.614258,78.44917898082862,-132.6557684561886,-10.495450188043163,-116.35997626045068,142.93117649365885,137.39001808172804,0
1666.0,4.628148,93.58168573287192,-91.9457915960516,163.31982281834206,-135.6746852547434,-24.76646118681805,112.43865377809172,0
1671.0,4.642038,-102.27151549342727,20.494485075572776,34.16631403108667,-149.13011094380977,217.7409573034542,-85.96091767525468,0
1676.0,4.655928,19.702652807800103,-51.6794613432991,184.20121169892505,-210.93923436980265,113.8457083296718,281.975951329678,0
1681.0,4.669818,-29.534683524393746,-82.23315648777076,166.80714037347403,-221.2266073915711,15.292103842041826,-199.41558545749885,0
1686.0,4.683708,1.133357545229121,9.142627265815603,224.26472598215267,-192.10266115521804,248.09864034460315,51.96929131813612,0
1691.0,4.697598,-154.68444791177538,122.93303478981429,179.774024145725,-29.949447687946368,58.47273668425728,-10.91468697857394,0
1696.0,4.711488,-607.8867349648438,-105.10744439614112,-321.60976789479446,-153.90253831517452,-114.33912878881873,-118.1994792133354,0
1701.0,4.725378,884.9861648727468,138.64235247508856,1264.859988000709,-157.19838169136227,-105.82859071758698,-28.039473977861025,0
1706.0,4.739268,-97.8578746966366,-30.74074819538149,154.56774722710307,-166.64710381978998,-142.25705679388187,-68.53230653289977,0
1711.0,4.753158,-126.1277445927685,-77.50022428849911,457.6263931290368,-183.8014912849503,-270.5626082397095,-19.23113368402004,0
1716.0,4.767048,60.86764774659332,-440.3666289327679,366.4703876288901,-121.3274426654747,-49.155738006504485,-5.623490604359791,0
1721.0,4.780938,-146.85305188908978,-247.448376009982,82.38646401073484,-169.10066944740282,-21.17165820618964,-5.105636006228082,0
1726.0,4.794828,-69.22017948496843,-252.1368548714341,203.6864849089776,-298.7079178998427,-129.49259463878138,-136.09162833495984,0
1731.0,4.808718,-87.79628473258323,-464.4370885185385,204.76033914753384,-202.6134868493641,61.17760140701491,-74.24233573098248,0
1736.0,4.822608,-72.54748311439641,-395.967517850982,130.24098008444415,-338.01306111870224,79.62576600546451,-31.00354865292786,0
1741.0,4.836498,-218.5417035269149,-650.9910542226705,251.67442638017812,-327.0557814904961,-28.34734565484878,-116.8377045758928,0
1746.0,4.850388000000001,-427.4968365724861,-636.9131973942804,43.17800068945039,-344.68356286593365,44.550955580576094,-52.74569883797776,0
1751.0,4.8642780000000005,-266.4387519119893,-511.3781640379093,116.82419556314971,-170.83410534815556,61.50890206814204,-103.57962485167826,0
1756.0,4.8781680000000005,-349.5113222893489,-506.174821051078,8.307976793862082,-265.6705627856159,-4.396021234586033,-46.61960782180597,0
1761.0,4.8920580000000005,-271.254703888392,-594.5336552241312,146.71348340514592,-198.3765481034536,-86.21045991341742,-67.72133584311229,0
1766.0,4.905948,-440.8620093463732,-521.1531558510188,38.46870561730994,-158.49960386802815,-59.67856604366935,-41.33919661993794,0
1771.0,4.919838,-395.571663262182,-606.5514083578792,146.49873699761534,-86.8646205557969,-35.872713074633474,-112.91427065496984,0
1776.0,4.933728,-369.4727105657355,-848.6343743826969,-4.669088754613329,-75.0413572127759,-152.38017259233163,-68.48309009757334,0
1781.0,4.947618,-442.9690839375965,-783.3260266746021,53.46681469040608,-197.8368654692677,-69.0581809748326,-107.90136580743042,0
1786.0,4.961508,-352.5062011984536,-683.9272876296127,75.81634897304549,-79.69929397343525,-102.69605628304764,-151.26598990897105,0
1791.0,4.975398,-199.17907495177587,-723.936712783802,-61.79233015790401,-149.17656985631297,-109.63299811078392,16.0231876814442,0
1796.0,4.989288,-371.9671665042544,-547.4430212349182,109.316794532161,-107.16896747349848,-33.959333618123466,-120.63407197251075,0
1801.0,5.003178,-386.2158882002144,-574.8173948837252,-230.71445767583023,-71.50407719553536,-99.20818318356812,-136.55174712002554,0
1806.0,5.017068,-462.7920153059995,-729.2414717751863,294.4481159378936,-101.53604034806445,-27.43567424005942,77.9351069704484,0
1811.0,5.030958,-497.6875968282504,-650.4672488204617,-58.64281445176105,-85.30635882612638,18.11409109292265,-145.35394053785538,0
1816.0,5.044848,-319.52281248948947,-609.6787321396282,-201.5955298190368,-96.86287863372593,-47.00380470680466,-90.58255422111893,0
1821.0,5.058738,-494.28829540865377,-321.62473175024473,-185.78162850604912,-100.130115456564,111.65665457055071,-20.9750522331156,0
1826.0,5.072628,-462.7245314308166,-354.70927359620214,-26.283148298867616,-205.2343272228007,-59.82709357190488,-70.0186176158071,0
1831.0,5.086518,-514.2294872989862,-314.2213544398901,-138.11586955909394,-157.84991799925177,-123.21335140796444,104.7012377877066,0
1836.0,5.100408,-364.7652209852567,-604.7071293444285,102.10840908250398,-97.49245881644504,-83.84550157991093,86.36650554376276,0
1841.0,5.114298,-369.5521396678898,-161.36597346850488,-148.7675995320755,-212.802433125552,-116.43258949461948,-78.4420673415865,0
1846.0,5.128188,-330.75360745651807,-199.93220690390527,-235.93076369633584,-205.2740179326144,-16.704120348087642,48.79313228364397,0
1851.0,5.142078000000001,-248.84734257871736,-173.8103296986348,-356.0751397122036,-198.382982215602,-201.505214543399,77.3982240615321,0
1856.0,5.1559680000000006,-21.93594776784812,167.5602410687759,-66.10803454059692,-130.51456021059602,-161.5818526686793,255.4858554221674,0
1861.0,5.1698580000000005,-59.09780182375415,349.6556726608445,-45.2501951320929,-202.8449652993861,-128.94421276142376,116.27320786161778,0
1866.0,5.1837480000000005,-98.54994233519145,347.2985684934789,58.26332424814413,1.09694851105953,7.874837951309789,152.2593724507506,0
1871.0,5.197638,87.11112722492412,430.75577195741926,-226.7435697714194,-58.16804679665329,-174.19390445368927,47.20932302425887,0
1876.0,5.211528,-202.563587198663,745.2046101663354,30.398304971366656,-26.22523771489656,242.8143390824744,165.2556254036964,0
1881.0,5.225418,-10.735012071092925,909.0428756972004,-318.1151699309054,-80.81883060673476,296.2836634333803,102.25016251870032,0
1886.0,5.239308,-309.75941732231945,281.2533183798075,298.16255002171164,52.05243932282897,-158.18218723127822,297.72092509786853,0
1891.0,5.253198,-13.805544283485013,354.25194634226307,-414.4923318174558,-35.97657180173714,65.78096515226403,333.51579388264383,0
1896.0,5.267088,-327.247431568393,469.3857684905096,-245.13097600329704,-38.63165667040003,32.363678261332126,304.2530658844595,0
1901.0,5.280978,-258.66254143251706,855.0425476434175,-439.3605170429577,-12.798419086762287,467.0277624455919,332.728663969525,0
1906.0,5.294868,-60.87528585281579,1180.218464578404,-370.4516765865235,15.73092922185984,561.8061578087863,257.5853676724603,0
1911.0,5.308758,-201.461080944224,876.6034270831585,-215.0784503656731,44.70364987276911,283.65361140349614,157.2342652910448,0
1916.0,5.322648,12.456652481136636,565.7989951296676,-232.56182191807795,325.28706741172914,-266.04046265942725,30.585672936326688,0
1921.0,5.336538,163.4325359161907,530.452381216594,-284.3680267622572,83.71018363307189,147.7986374100895,-158.20718136540415,0
1926.0,5.350428,115.52412136128684,559.9399647541007,-250.3726635592871,53.7381540218684,31.09564914192358,-97.74211218018256,0
1931.0,5.364318,365.3305011173459,338.82327135674893,-96.95915792244558,349.9661978552643,-122.51297725352192,-159.85476524687877,0
1936.0,5.378208,255.70897810381183,651.9998377734065,-98.4120639643611,306.72256913875015,9.112340103177656,-41.8700631571282,0
1941.0,5.392098,497.9036018177134,550.2646748033078,-120.88185584316842,368.69405928634654,67.04492248200447,14.942089883253985,0
1946.0,5.405988,303.2583317620994,453.9705873197069,-51.366871782838544,185.0046237257096,29.735959362876564,-110.76221774570756,0
1951.0,5.419878,499.6790275043613,305.69247380539093,-74.72226992961383,344.6949567651712,-255.19396116849057,174.84303270341871,0
1956.0,5.433768000000001,333.6080493655569,266.3779959682724,-87.59186590181882,160.33525160176674,24.38429823295853,-41.3393962662919,0
1961.0,5.4476580000000006,561.5912522138244,401.061424097178,-35.300965436547415,153.13246998168347,34.18697154793763,71.91995556507555,0
1966.0,5.4615480000000005,373.4933786011522,455.7041830156296,-120.96471584139483,233.48850408821343,33.98768914343788,-96.56481914125484,0
1971.0,5.4754380000000005,728.0855014840166,266.53803838698127,17.996401242482744,84.89915146388043,99.86701725344882,107.9672356648735,0
1976.0,5.489328,425.5332286543362,231.14041834453172,-92.06697040522278,21.79067286258444,11.423409642465508,-9.316275155921687,0
1981.0,5.503218,429.82610705681645,225.03112021706872,-0.6116518207905912,223.17944733776392,37.76688847867683,-11.692615820741494,0
1986.0,5.517108,558.9553064904211,175.71934366794045,-57.91822272032771,-56.62567972355532,26.775381766916063,142.09665415844262,0
1991.0,5.530998,430.0446581047213,65.26363642653322,-97.39081777979462,145.3328303036719,-60.88351420233328,86.97504132011369,0
1996.0,5.544888,403.3677694057369,165.61414241188825,-0.9290028742164652,-108.586031773656,41.65777955033808,-104.8610868227717,0
2001.0,5.558778,439.8154696832548,126.26896824556104,-113.72215231174178,177.89422289071126,-11.232789605111163,10.893536032123013,0
2006.0,5.572668,155.90950105169497,-93.04247022604818,-93.774538473347,-154.89247331932273,-100.0140935944244,-150.34762796257536,0
2011.0,5.586558,400.11232422322246,86.59745500335679,-96.6322858634005,114.69642955429612,139.49745222238303,-74.89095650999074,0
2016.0,5.600448,305.4616903905628,12.136834948528104,-146.78370606066946,52.50699587441284,-193.6683067592851,58.04020429493994,0
2021.0,5.614338,265.23011202253906,-99.1559268533652,-117.75279208202537,165.97017468764162,79.88532256488958,-334.1738430762557,0
2026.0,5.628228,255.69725668398272,-48.38848606262903,-102.2758006605213,118.03112885628704,-149.12069890675815,-13.197973713482568,0
2031.0,5.642118,291.1684912515426,-57.72580935550319,-220.65686103678857,120.94021814517473,22.27150164968922,-86.59224653746504,0
2036.0,5.656008,208.76639450185723,114.88053668995998,12.273574003421302,21.378554057722475,-6.067547008102149,-209.15586906494585,0
2041.0,5.669898,92.35520337918096,-29.14572153356124,-97.95332930976063,184.6940180871065,-11.54136552235489,-256.9970542479737,0
2046.0,5.683788,178.5237665623912,172.0784644005674,-140.79292675526474,-52.30014914109693,83.55702660493786,-12.040861772666425,0
2051.0,5.697678,103.49473944702856,-112.59953654451854,-152.923673882786,7.303573655698486,82.52840896860533,-376.8620575748836,0
2056.0,5.711568,163.53883709456986,-17.956167889571677,-214.9265261868633,81.63132400006853,-14.81252568724826,-228.08115051004967,0
2061.0,5.725458000000001,-1.7332565481191544,-108.00956155002524,-83.99246498380049,38.95227114703366,55.11352643044464,-313.9457355380434,0
2066.0,5.739348000000001,157.74744777119832,220.6292179617168,-146.81492768187223,-54.66572746305046,-120.60737445402049,-109.72657837905592,0
2071.0,5.7532380000000005,-75.08063577773069,-38.1663990724421,54.36712789404498,-184.7293355384269,-133.15328265342237,-35.78054257591014,0
2076.0,5.7671280000000005,132.65775187181998,232.77016748306724,-150.19508450702253,-86.15332173449843,-20.65220746263897,-111.49773260203912,0
2081.0,5.781018,-86.34661646291639,41.245719702320045,-21.627379984728023,50.88092273382194,101.18659295442843,-140.5242582199267,0
2086.0,5.794908,-119.79509068845596,-19.716063454873115,34.14371756057112,-281.4801386727372,-184.26004446306,-65.37306943815491,0
2091.0,5.808798,-20.99327567244837,60.15765179401722,-21.728512339666626,8.268307978222872,74.23905639550279,-190.70693725097783,0
2096.0,5.822688,-65.89630589295754,123.6849637779992,88.4732515967172,-30.264811571074635,1.652234760845943,-17.45322036797855,0
2101.0,5.836578,-30.73587954469214,87.6990691198584,-53.35448379614469,-112.17309094213394,70.4193559022215,-245.8685865193885,0
2106.0,5.850468,-110.731000986367,-264.5272320571658,-135.5033173299927,39.449951714998775,10.61817243970189,-116.66466708601368,0
2111.0,5.864358,-326.10901983178013,-15.27140846672438,-79.01189682873112,-269.7848392471137,22.090674013937445,21.21868789660953,0
2116.0,5.878248,-270.9883719350795,114.98687824070517,-165.9609075848259,-103.8080857472808,86.95849504438314,-49.69486428383559,0
2121.0,5.892138,8.187251330549358,-192.22518516902048,-109.93121558154046,-69.18061085682156,93.73900974820673,-70.86610409292189,0
2126.0,5.906028,-341.3084292847873,59.23274914436752,-40.74244116044837,8.142804227223149,144.45367225391217,-123.86041170272104,0
2131.0,5.919918,-181.88486363359567,-94.3044446725636,-84.41167573052758,-182.30643476408585,29.078661951063346,-149.01299265316834,0
2136.0,5.933808,-289.778515296386,38.14016338891241,-38.31576631290948,115.23162506940945,154.0021583652168,-228.5067962806968,0
2141.0,5.947698,-273.6387965828657,80.61186924522731,-93.84982225694644,112.39534422505544,153.46966329195044,-278.4320285655134,0
2146.0,5.961588,-222.9684402095218,124.06713931656142,-40.94400862589194,372.47184522201815,-70.8911798734155,-182.38289803795527,0
2151.0,5.975478,-345.9158974224132,-348.22470988368696,-78.02894827259888,151.75386661121794,-168.98582284496428,-311.03539800326394,0
2156.0,5.989368,-213.51546155871492,224.55038343590164,-70.95980595820765,281.77754125971467,-4.458864791967912,-161.7579492471719,0
2161.0,6.003258,-392.6945254071963,88.53631465335143,157.18299308269698,288.17375748216534,101.09488056120723,-166.7258939497435,0
2166.0,6.017148000000001,-165.21282875155777,-164.8665677852091,86.93941920710225,106.88177740989362,-160.35349466661842,-98.33759875830104,0
2171.0,6.031038000000001,189.04988814098,-237.29157057933844,123.84641955579644,64.76419736832582,16.05271916010998,28.680585968240827,0
2176.0,6.0449280000000005,-340.58596678205515,-110.96469901777542,194.83872458743213,90.24215029259614,-76.32150479287233,77.71951885837474,0
2181.0,6.0588180000000005,-53.814162501274986,-308.0910640327974,156.10182104799827,-31.8030667304208,-98.0652072968642,-42.45683089644911,0
2186.0,6.072708,-98.39540624706508,-117.8302849642412,113.13504313208394,-269.473423479697,-191.8250788150738,86.05732226319567,0
2191.0,6.086598,-26.46798305144492,-482.36328246338695,34.287220440139855,36.947733589461066,24.7182255441138,5.465214332729125,0
2196.0,6.100488,-105.42367654797648,-167.76694810152827,76.48057559618366,-300.6249628800816,-44.783984868249206,118.61022318489506,0
2201.0,6.114378,-63.10541861789864,-161.4615019206658,50.35490787384908,-78.64157683108114,-186.0782606705916,9.296743780751228,0
2206.0,6.128268,37.19380281890125,-233.42146227556347,36.55940310454226,-251.4457554353628,-35.18230873599549,134.93211858493478,0
2211.0,6.142158,0.2954764152272222,-28.42010072984695,64.22294851197219,-179.5737315017572,-24.77109024071008,-58.16379904119883,0
2216.0,6.156048,-56.07825122899237,-40.1843082729226,84.89451931036251,-278.502988533859,-108.28131469696292,252.66593897039104,0
2221.0,6.169938,0.0998737333512949,-186.36838635782124,-27.65197231961782,-301.62988954784834,-145.869923196024,56.75744524788092,0
2226.0,6.183828,-183.35094685604395,-34.092854894250046,3.2076580979508336,-262.5493145452999,-88.5028431367135,175.73485924505803,0
2231.0,6.197718,143.55602581762082,26.73123083092063,-150.34346195122885,-155.70280278147027,38.08724027450776,212.25926071495093,0
2236.0,6.211608,-5.486924752736375,0.3993313671962291,55.419663694104834,-280.9213177991044,-232.52718773856628,192.33580945794984,0
2241.0,6.225498,-56.89836220890688,-22.90901297171285,-162.46098160213532,-230.0333462205481,-78.37112813958105,133.8842576322548,0
2246.0,6.239388,14.089678928545297,244.93207418641245,-27.39854042142082,-167.6949377925062,-106.83620577201282,250.50644547738565,0
2251.0,6.253278,6.021862647246968,129.38927156136594,-34.00341158685622,-50.71597358888134,91.93306023891088,-59.96237416281393,0
2256.0,6.267168,20.842068599621363,-0.0296050929179756,-85.31977047076218,-24.881812144525902,-154.4349040622513,260.6055765920562,0
2261.0,6.281058,151.0579455580325,162.0438106805305,-31.17260791034083,-189.219739671764,-5.861949775470382,4.850199485761543,0
2266.0,6.294948,-49.76501968953721,172.08806909426323,-161.5997283071616,104.57433048026068,121.558531936667,49.19617282595189,0
2271.0,6.308838000000001,229.62675864643307,82.26223694884378,-16.597590369002475,46.052761955259655,39.12480851303207,11.698513607348104,0
2276.0,6.322728000000001,131.6323578735243,324.26329874971736,19.777241086663125,23.2098472335214,-15.527569515193074,37.545921408396055,0
2281.0,6.3366180000000005,221.92105835016127,90.78356156512793,24.05553230144134,44.87965221209545,133.5972250685331,-51.97837772725847,0
2286.0,6.3505080000000005,193.44994124629795,112.2761220010736,-45.84764380528463,146.2568865766964,10.09821039058038,158.76810611784668,0
2291.0,6.364398,213.0015469952116,139.76958105156154,33.21449378259484,-55.14336673202629,-33.24839021104787,-72.98382897857427,0
2296.0,6.378288,410.91376276516,236.5562312802255,49.71557467997359,268.86812029756743,123.51712003841904,-93.28615442746607,0
2301.0,6.392178,277.82121160068755,98.882017222351,-26.529420931099608,-32.56329937342948,-2.1927986398544768,52.59543006993135,0
2306.0,6.406068,444.657270676994,87.61886548739328,168.23657306816557,112.37174375765407,23.670189254798814,-96.90602218378528,0
2311.0,6.419958,537.1728142721882,228.7669319843627,40.27522575753844,186.49584253232305,49.9170604615224,-9.17963845154803,0
2316.0,6.433848,315.58581496133013,223.74717017964429,64.64095346216182,-87.29703797455313,-76.07150446783639,139.19539097386968,0
2321.0,6.447738,556.090326386571,224.7669353256468,-39.52270943425496,245.92577520104203,126.33595950401016,-196.37471034834388,0
2326.0,6.461628,576.1773703154265,452.2635251376781,-24.349733089862923,-30.34310653430574,23.742972920725567,65.24018425680167,0
2331.0,6.475518,510.7253564646569,374.3075182640751,-126.5973461295488,67.40798150291614,10.894531729738407,8.259650793094888,0
2336.0,6.489408,631.9453244632779,315.1793430209503,-199.46433130703565,64.10527016304867,48.0519206421927,40.78763288841336,0
2341.0,6.503298,585.9595633367964,632.2570361175385,-251.03152971687,49.28144278916654,-17.48371516463399,168.99537072973553,0
2346.0,6.517188,333.43067662276195,507.9528648536385,-149.82862915242976,76.54885340875201,52.34477822077958,63.22798856230547,0
2351.0,6.531078,606.1625638610244,710.3721292815427,-244.5026329159936,98.8735934777095,85.11249013796854,-32.55560813984321,0
2356.0,6.544968,494.1938598342115,420.4637664467709,-647.274223401251,73.97414116160408,15.918874286280928,41.93261044987881,0
2361.0,6.558858,346.43554477858675,677.7808107272858,-245.3367779430503,92.23360216253676,26.88083520075213,55.967896419874734,0
2366.0,6.572748,14.157986447467966,458.1723742640631,-670.2216149803801,26.970212641233807,74.33891710003635,62.79884451496218,0
2371.0,6.586638,21.60656570967828,691.5178468619828,-249.14491909613065,95.79295162061771,124.27192631123496,77.29709339187463,0
2376.0,6.600528000000001,115.32961267888736,682.6774602713226,-266.4947480731717,161.08529986561612,84.06406804434461,106.205411648197,0
2381.0,6.614418000000001,-62.96632744288414,683.9203905313576,-357.93695375970447,55.335143735013546,61.98120226889334,-15.555007452886436,0
2386.0,6.6283080000000005,-184.846573822682,544.2755053498105,-230.70337018699843,176.59104136995978,6.04471602893247,92.04244083311528,0
2391.0,6.6421980000000005,-305.0901455471675,725.6091657490433,-199.3918858219444,-51.88331103722594,153.68128915131285,-26.22531561852967,0
2396.0,6.656088,-324.0753085777211,496.59804621756,-296.5682544937772,266.22724819150835,-75.23392686146175,225.00885824153067,0
2401.0,6.669978,-565.21611504808,619.3626559999275,-166.4635633798547,-188.97973902240457,161.38474803023416,-93.57071019316108,0
2406.0,6.683868,-389.2569642756772,122.9785908870582,-497.5190234550631,189.00296940982537,33.90706098894581,-2.001777168956913,0
2411.0,6.697758,-402.0894172012274,443.10547238836057,10.769737966672423,126.23159000481984,126.06139142881132,280.08415195424175,0
2416.0,6.711648,-808.6555614913475,273.07934367138745,-449.3921972176125,-64.28429712993368,-140.70173053524817,-107.51227180095756,0
2421.0,6.725538,-558.3752786911793,-81.7440487247937,412.1890867133545,84.3079710315788,257.6853389888141,-34.390323861497265,0
2426.0,6.739428,-650.8565988299213,256.4777273145007,-453.2625173747416,-64.13516552240874,-73.58542074241103,152.12932246971204,0
2431.0,6.753318,-706.7730527337192,3.228302441590449,-252.6601150915933,90.24852841469716,-58.93675723933916,24.32202681635928,0
2436.0,6.767208,-668.6891685205757,-62.490935713667696,153.09257258718276,-28.656434561525813,162.07641278676644,-46.94920419507892,0
2441.0,6.781098,-556.4262334110566,-352.40295735371035,61.26326399713986,-1.0479920343132054,-130.51443150181152,-32.1078411023005,0
2446.0,6.794988,-608.9521269020236,-676.2847389494141,-19.09945166372823,35.23066928983458,-357.2903262235842,8.534084210987732,0
2451.0,6.808878,-526.5278890968681,244.27061959856195,175.05706883651357,-30.02077864860897,479.071119149136,-26.95456617536496,0
2456.0,6.822768,-494.1361999438901,-582.7610273416578,261.36774441021805,-130.69184077631346,-81.8152862632377,-4.895208178551258,0
2461.0,6.836658,-326.17953639659584,-726.1423523067391,291.3086262949186,-62.41918186160254,-159.0947159866182,-107.24352549898856,0
2466.0,6.850548,-363.0586557670024,-299.8753931490599,106.99027724740183,-41.44155136894869,54.02209142820796,91.24309485280428,0
2471.0,6.864438,-343.2758094896201,-523.9566538779333,522.1008430697105,-75.80469553589144,33.18064673080308,-75.64808000627303,0
2476.0,6.878328,-247.0852058750985,-576.3927295351517,174.050216424933,-85.78496830883039,-94.16634101941708,-9.802908156179877,0
2481.0,6.892218000000001,-283.40911646554827,-613.6835055947682,215.8720486574225,-120.1547335747088,-97.76205429522032,-2.6336967522345205,0
2486.0,6.906108000000001,-270.8469366784781,-595.5252393153647,226.37915192281773,-92.63668773607128,-135.60351535267068,-14.227921086103528,0
2491.0,6.9199980000000005,-246.25881336272704,-573.6088267730454,174.9486150026314,9.418212727422745,13.185000183793498,-59.27575895352329,0
2496.0,6.9338880000000005,-189.87566541620123,-556.4581542752549,215.4346615061825,-193.54372886519923,-55.87699159826425,41.99093019303628,0
2501.0,6.9477780000000005,48.48371301498248,-641.4911271495218,509.4969206856563,-48.48099623525524,-26.88966348857676,-231.9793460171913,0
2506.0,6.961668,-63.564950147258,-546.9021904166179,52.18467394904417,-78.2823035900754,-80.62015944095288,153.3156446483453,0
2511.0,6.975558,153.19724196783608,-671.9421591872108,490.65592366172257,-30.67969169516236,-139.5641797409291,-257.91529413873104,0
2516.0,6.989448,92.46034089899511,-496.1465768655395,310.1063138595008,-158.2601856336383,-15.72617393482513,-22.36578705124281,0
2521.0,7.003338,231.22858026983684,-364.928837991726,126.3722009864638,-61.866868822376,-17.490625686277916,-52.41112043519509,0
2526.0,7.017228,267.9286038007503,-419.571273402432,373.9783093277533,-95.31196798497692,-32.218407029613275,-84.90053737090011,0
2531.0,7.031118,242.32203173859256,-200.9282649934057,72.88629908833715,-70.59261011805533,-10.465364553245642,-90.45053599192462,0
2536.0,7.045008,306.0519708989144,-696.0952701237374,446.456447069654,-96.05511150466457,-227.0454957095107,-15.079028813159889,0
2541.0,7.058898,326.6639508002646,-434.6820585269687,345.8305203260618,11.727411448181131,9.449497101440908,-108.60197424013172,0
2546.0,7.072788,294.22382047930535,-113.71797675554036,81.09548354839029,-120.83446430206467,8.083974587159066,-83.67885192965697,0
2551.0,7.086678,-51.545707474736616,-238.14196429984827,154.32163429191448,-82.83673387942964,-102.06735643003256,-60.00917424417706,0
2556.0,7.100568,461.41532282989886,-223.9925869790954,321.5254393673397,-93.4983105825036,-2.433159124760584,-175.45987961006531,0
2561.0,7.114458,331.0622910876143,-183.6962836494749,241.0897856480064,-56.380335997075306,-50.16309023419174,2.437900561244477,0
2566.0,7.128348,63.07823983485769,-7.215671847426467,-13.663828539900564,42.078239938046266,-94.3942989784797,-65.71491072773313,0
2571.0,7.142238,137.4027398241422,-159.68204472535783,204.0054020549954,-63.51252844288318,103.33290066963563,-93.8079772706117,0
2576.0,7.156128,168.0083127414364,-60.060068739087626,156.67133066593843,-60.65610546752299,-38.05230877673017,-128.7559246407443,0
2581.0,7.170018000000001,174.6835041361524,47.895961781458766,123.43132017515144,41.20216088250663,-3.483999881401976,40.55635088298094,0
2586.0,7.183908000000001,-72.58753708006583,-93.69095141779908,46.787328607260974,-7.523489085455742,105.05513885569658,-86.0130585811606,0
2591.0,7.197798000000001,23.17685107338101,-11.50132698564592,49.95129251530573,-39.39639051695656,-94.46556256661584,-161.85096626099204,0
2596.0,7.211688,-115.50409348153752,-44.484086538109615,-58.73182596796992,-73.81993687435559,-13.348844771915209,37.67511810938686,0
2601.0,7.225578,-12.517062029932454,87.12639545773274,37.10188659511025,43.67165971304191,29.871356250759533,25.3805792386042,0
2606.0,7.239468,-52.59523902078392,-47.04960215163343,146.27043812719415,-28.269884299958896,14.334001941628744,-78.08172151018363,0
2611.0,7.253358,831.0996721938976,154.4674362811628,466.8686169909964,-108.15889305672866,-136.08573180573603,111.8730667425877,0
2616.0,7.267248,-894.8282544678689,-105.58075834945184,-598.3101190089171,29.57135580789321,149.6834360197596,-95.3334500074388,0
2621.0,7.281138,-30.88979878743399,58.95475825503272,73.90974778026063,-12.060440574288975,-64.13927247621083,75.63668320490862,0
2626.0,7.295028,-88.34614797852983,-43.96325446364324,-251.48188317290567,-104.89085353789362,98.25391579457276,4.045095072408494,0
2631.0,7.308918,143.92654747425803,-115.5573971303699,-102.282783524763,56.29257761839814,4.048939093168844,68.77785280708919,0
2636.0,7.322808,-5.498079871423951,-48.84539993388415,-112.73876402775196,-136.64301383724268,42.36873005956668,-187.7096689840768,0
2641.0,7.336698,174.4507314208172,-22.42387963610921,33.53566720561537,126.36059231945592,0.0498236710899213,305.8565569117413,0
2646.0,7.350588,-295.3136494124982,-41.518813006134096,-161.03813527631476,-244.54773405604283,16.612188259240654,-78.43638539835922,0
2651.0,7.364478,78.12313373273462,45.35243464844558,-84.40650757827837,221.3319093486375,-26.82527746251264,81.65502279662465,0
2656.0,7.378368,-82.82549656778407,67.17265814573288,-15.63598745590817,-207.4736692628685,109.89749761844516,-207.39435011663568,0
2661.0,7.392258,265.401722330029,-78.31189828326596,-145.42129694115746,112.32049629780774,-14.137134278987652,271.74803041099176,0
2666.0,7.406148,-86.51061493471445,-87.23577691955151,-30.5866969857574,-125.57550709873556,-40.78750052920775,-19.89777841097805,0
2671.0,7.420038,329.43255455456506,-31.368774423355926,64.05998880864105,173.83541185320928,71.81830597089142,102.8682889349578,0
2676.0,7.433928,-176.854300309888,-59.61410414259061,2.296952668540616,-60.02813158667026,29.14721343685937,-83.37236058964018,0
2681.0,7.447818,241.1891718670641,85.3882130517242,150.02434180885223,105.43316683405914,60.183204808985046,83.5587908640872,0
2686.0,7.461708000000001,32.016935777424145,-221.55114892899843,-34.514582766425185,-4.5756346089878175,39.95421151479047,30.517430516279425,0
2691.0,7.475598000000001,-66.56359657879429,56.87833974666151,64.18802863368683,25.606182153481512,80.7016936017983,-13.717537468334516,0
2696.0,7.489488000000001,-535.127460681119,-122.8480197400074,-269.97105729173865,103.69603878449902,-3.711287945315204,85.43540687527869,0
2701.0,7.503378,-787.4175031958966,-147.9295002586876,-217.3615106470814,97.87798403666518,65.75766851293764,28.85171513120795,0
2706.0,7.517268,1087.3842179693745,295.8288507647315,658.5767434096365,99.74148771360392,23.97678291621316,11.76488472919069,0
2711.0,7.531158,61.52244198676132,51.63968368677644,50.28321647884192,-11.123991623300746,55.23453158321906,-85.64049156614624,0
2716.0,7.545048,-17.984948430679452,71.04571944141813,96.42568473316707,124.7517580010188,-20.29335741927869,56.657765893336446,0
2721.0,7.558938,-41.71379697052116,91.11012621906934,48.32578081836725,-16.464493371381458,59.03917608552536,-14.695580213244796,0
2726.0,7.572828,-1.1253865881395413,-27.84721492490317,31.75638807610386,111.09599367076925,3.546264058633355,51.673402491932606,0
2731.0,7.586718,-15.42306051292617,7.605860454578242,-67.4999757590428,37.41746702678996,21.57581664511216,8.04791358101857,0
2736.0,7.600608,10.981720410484826,75.56463750410191,-2.791037004159336,35.47534347825856,-40.697893092080726,55.41857847165068,0
2741.0,7.614498,1.2344619582918588,-24.570678439809434,30.083704009172003,26.811155669170656,2.3450971607317754,-0.3173163799783514,0
2746.0,7.628388,21.73106790116073,-23.7839458373998,-104.2262428524227,26.47322313401624,-35.1593579945895,2.8494329211327427,0
2751.0,7.642278,49.07820897104778,-12.612897220259631,-91.20802861997878,14.88733068632384,76.773118174979,-5.313496841154267,0
2756.0,7.656168,-63.72327892985192,38.96993799434833,-54.94488342746777,3.095893337419035,83.75984567199455,13.200001802638148,0
2761.0,7.670058,-39.29830907749795,-33.12690671213857,-175.73789757410003,23.61324417449071,-66.48465222550894,27.10525404193576,0
2766.0,7.683948,96.22591556448693,11.647483439255057,-55.09826995251807,30.58174720739132,25.47712945135653,37.60497265248407,0
2771.0,7.697838,-2.111369371443633,-57.57780847719549,-69.75176379439557,60.73141755458423,-33.196594312932355,49.619570100449145,0
2776.0,7.711728,-121.84427995396068,-105.17943750669416,-89.52200704180542,-13.950486601689736,-79.70369438394371,2.1206118574423822,0
2781.0,7.725618,-96.56055529076664,-14.877370728354991,-64.18944717965657,41.290557156157554,-18.924580640683622,17.01831842093434,0
2786.0,7.739508,-136.01614017745922,-75.73740301218305,-115.86341115333344,18.59040555068177,-11.466329054782497,-12.59565546046018,0
2791.0,7.753398000000001,227.65251986854096,127.764057825574,18.94552445548575,-6.2020680148201,-3.1355953926663704,-16.64840744502667,0
2796.0,7.767288000000001,-199.34518072818256,-74.5740786947507,-39.184914803452855,20.798825651475862,-62.30192590581861,25.786137227421843,0
2801.0,7.781178000000001,-70.27614933898101,45.01580562417652,12.029430219743515,33.8321806630303,28.697410887973337,10.88627090574426,0
2806.0,7.795068,-40.36794823699881,-9.287883108739628,94.553893895651,10.540101871332013,37.04752754738508,19.53118415475873,0
2811.0,7.808958,-117.48512545088096,-11.572780116212812,29.02733737214915,-31.58370524838364,-57.75175237866426,-23.05772738168233,0
2816.0,7.822848,-69.5790901013205,89.7871031589367,90.80742659560742,5.31498695614699,6.933975763107711,16.61617601319339,0
2821.0,7.836738,-117.7146464864245,36.8233634131396,48.94564644014261,-39.885479235314136,-21.088588703431963,-42.53787666526905,0
2826.0,7.850628,-109.49541326474458,34.66316901837112,93.13837329088288,-38.43573729084139,-35.95147961790484,21.05249944052852,0
2831.0,7.864518,-53.897839475866775,97.6393295573123,22.441724460265945,-30.419533545137146,12.427306635241496,2.783066444148603,0
2836.0,7.878408,-66.2032177961917,5.606375372623697,-8.32910532660283,-0.0413190635070384,-7.70475364713003,28.182720561653205,0
2841.0,7.892298,-163.3441846968965,131.01970064516067,7.316945838227616,-56.0733577388794,-7.535207152950566,-42.4327338009023,0
2846.0,7.906188,55.690837749616215,153.77324210632017,85.58563315746349,-25.11527041437858,13.37536733512895,-38.91385617076418,0
2851.0,7.920078,-41.0514596804536,169.34643091151665,-39.03960911165217,15.72690486604458,-1.8815263750862217,-9.225728145959495,0
2856.0,7.933968,-118.74016482576228,33.16207205343237,144.17181744042563,12.72418282193814,-26.433024204283367,-28.15385413967121,0
2861.0,7.947858,290.6156956989656,292.58985154270454,215.697445557008,2.590736525305756,5.582932128528361,-21.47687129967541,0
2866.0,7.961748,-176.23227539985882,-58.9359543946473,22.20220650463989,45.38267888775886,-28.012050389675327,-18.916325967222413,0
2871.0,7.975638,34.746884005481206,26.94843461653829,182.67494682630823,56.18638554427457,8.416470894780726,-38.7685705361679,0
2876.0,7.989528,493.817061666361,-10.189853488863918,155.23434924327847,65.59848243405001,57.588437334686674,-26.00569990717125,0
2881.0,8.003418,-161.93368113430623,-66.26565156787777,-91.98286344934692,25.161797920402265,30.99418859494636,7.717523344813124,0
2886.0,8.017308,71.46663695672228,-59.54286191374872,-47.97044371947724,34.15691585928539,59.46025158205501,-11.27202327821616,0
2891.0,8.031198,278.7038886573048,-169.3862096056397,12.932012012131068,30.12365130319695,31.64591922005897,-10.01162475400612,0
2896.0,8.045088,213.60367652609148,-56.657173994600655,-76.85196438494847,-26.391575292410582,33.65269749074944,-39.92603224363536,0
2901.0,8.058978,297.4856196592464,85.38025869806378,33.25956134816194,10.050637913713526,-49.07836004069743,99.815290270235,0
2906.0,8.072868,-28.75354711429692,-97.15807878575691,-184.80328543980883,53.84331225889756,-18.385447860043744,106.54516325493536,0
2911.0,8.086758,284.10977113244627,-82.82885035991745,62.85947284025637,-97.22608854258938,-8.240160296487819,-92.1722673433234,0
2916.0,8.100648,103.4315700869921,62.01789714836052,-32.606138063619674,-19.38016697860773,64.9332520858226,15.449105569371651,0
2921.0,8.114538,265.8785832579576,15.156645034515812,83.6770572274902,-0.7676057943860357,4.042071963454251,4.288072505977189,0
2926.0,8.128428,-134.23625311123965,-63.89114283393116,-76.44712113140399,-12.647075234284346,-29.54892672329408,44.905196351814624,0
2931.0,8.142318,328.5489206016578,-20.13909739137565,46.07397400625919,-20.052489641651537,23.145765075749303,-63.60451119146888,0
2936.0,8.156208,-132.19891871206093,-56.44162883357093,-10.269968248004137,18.95076184949729,-79.90219152941721,113.34492674896842,0
2941.0,8.170098,-18.37678005165505,-83.64267439103769,9.772234079757656,22.5641203744951,4.626567043196595,27.297941323538144,0
2946.0,8.183988,-18.474252308232515,-65.58836947187257,-69.63086400992435,-28.248631620738145,6.082775061017815,44.688560636084745,0
2951.0,8.197878000000001,-107.30807733220512,-8.472872680970468,-16.609617149751422,-23.01803206142918,-35.900680810968275,9.40635679482272,0
2956.0,8.211768000000001,105.24752229208556,-27.66562840028048,-121.77897919896324,-40.78736821414152,0.5724316840088051,-18.83370283407688,0
2961.0,8.225658000000001,-99.99553818982083,-73.35654674344003,-18.263951312039783,109.64877626419532,33.69326414514327,-64.02343054748557,0
2966.0,8.239548000000001,-121.23580772412546,-57.61259781377386,-76.02795333111834,5.234604915900484,21.54979754079451,-10.503310087273125,0
2971.0,8.253438000000001,108.6923365707151,-58.482330158822506,-118.9380016520746,-4.763241715450888,3.1600674013017445,-49.01651518048043,0
2976.0,8.267328000000001,34.27095272842486,-60.60089017941171,-226.78382481311607,-25.61611190636261,25.09375043794724,-70.52323783715639,0
2981.0,8.281218,-85.02379506988501,-109.4489877242577,3.059841592712821,8.38264569725488,-34.9255289676242,49.86979280783164,0
2986.0,8.295108,72.69762993899177,23.295405564383493,-86.12708152808494,-6.959386807480122,78.79116887179578,-38.74405585850025,0
2991.0,8.308998,-193.0532256040239,-59.20018525551736,-62.47536681633894,-58.57235576475211,-66.24486576548578,18.509994960901608,0
2996.0,8.322888,152.23449922556446,-9.895797076176208,9.37754731193614,-11.423859312482344,-5.630448913904726,-14.872071789446478,0
3001.0,8.336778,-151.63810464496316,-136.0275388546289,-0.0328751659457755,2.5530957802060588,24.38891275846771,0.9013602544884476,0
3006.0,8.350668,-176.1052084483129,68.22776077831374,-7.362265227973636,74.82585972241623,-21.136202298688925,5.681422744928187,0
3011.0,8.364558,-58.00443421286028,-21.315633043573285,235.41534709760987,-76.92419544437672,-59.84584446022559,3.10929373857633,0
3016.0,8.378448,-154.83017130410693,118.83492794583722,-90.87268053028696,23.12042095090113,8.96535106936825,31.58652396473372,0
3021.0,8.392338,-141.7793920191105,-23.2161149334718,24.536265092396768,-24.40010762226041,9.31547410579502,-17.93464773623351,0
3026.0,8.406228,150.73585285520062,90.67674324171664,116.6607741061488,-41.33039113181746,68.94151972509478,-72.97576390944229,0
3031.0,8.420118,55.733179962049725,-167.7518148809299,16.341680135691085,-22.70685078429604,-106.95355321245634,45.72433211446396,0
3036.0,8.434008,17.197940285598126,-108.69096528357076,115.75682756327942,-18.24288643403117,-37.82048466924835,1.1046921546553712,0
3041.0,8.447898,-16.032677149415086,-167.62006902662785,69.44155412855099,-27.56644902935142,-76.75496116039656,6.105572530647272,0
3046.0,8.461788,195.9421139452305,-130.41335979372855,37.90990001926237,-88.9588313028245,-27.508384024985187,-31.904948394926,0
3051.0,8.475678,-16.7663442627919,-18.031929716411625,107.57788111476164,-94.8967063554459,-36.06534194779496,-0.9650377900945362,0
3056.0,8.489568,141.11252097341242,10.026236071021197,-72.77046952535036,-64.20392839212165,-25.183042164270788,60.45696713273656,0
3061.0,8.503458,212.4885784036497,47.00166894791432,73.78306456029507,-95.00474233846384,-72.94590973595854,-72.37424630375867,0
3066.0,8.517348,22.615704515606108,71.13419623270534,222.29409302114848,33.0260379677014,-12.89849101126682,91.89266070940292,0
3071.0,8.531238,273.3008036850873,68.04840014721245,194.1172828145592,32.77178089677126,201.01255422484584,-84.64025259169792,0
3076.0,8.545128,116.0991596963568,79.32523174654551,118.00036307722316,-74.23055540581171,-27.67036266150491,12.33112902481582,0
3081.0,8.559018,-19.094637967110486,192.3043284921933,221.68359082780128,-30.19498027071976,26.782552980072296,-8.485746857151641,0
3086.0,8.572908,86.7068668015812,17.45559518396891,143.8906533738637,41.24351340443522,19.499134908361054,-41.023007260402665,0
3091.0,8.586798,70.3881278857581,111.95836355853932,82.43428846937883,-11.2435703193642,8.141598461284673,-85.68837190130228,0
3096.0,8.600688,160.278083480965,124.26744689996085,232.59444836077,-18.58166886640593,-65.87406047759798,-4.749088258644526,0
3101.0,8.614578,108.60587873446129,33.24874788751248,196.3953093735904,-4.638084170328519,-44.547057483832525,-5.812700872438718,0
3106.0,8.628468,300.6300327891388,142.9415515205393,216.3744670656235,78.59299908391357,76.62499582475529,-41.90898094280002,0
3111.0,8.642358,88.45641146722392,-178.68823788000157,118.13975049932074,-105.88074007925074,39.13170193741919,-98.64419784324072,0
3116.0,8.656248,274.9293514802308,-252.9888794439028,333.0078415209137,152.04696176261237,13.771504880855096,21.44303529961151,0
3121.0,8.670138,201.5518907247188,-498.8365744420061,286.78303691879853,-40.070198480907024,-85.10715723168758,-13.837558257513914,0
3126.0,8.684028,116.00794383789332,-209.159703033584,196.28807182198784,-59.1864515948625,-7.519526453011973,-30.11045354842425,0
3131.0,8.697918,50.35566041023777,-351.94027176342854,188.45280134321848,-96.42765117886287,87.99226886627181,24.46657889946068,0
3136.0,8.711808,-62.635634689474536,-271.48934697536527,188.4992926494006,-8.744445735276441,57.0795660528788,58.23118558370736,0
3141.0,8.725698,-57.793711262926266,-390.8085043246607,231.4416186482105,-125.07926254055266,94.06585575875742,-11.56927884539036,0
3146.0,8.739588,-274.5593962769668,-538.5797797713778,195.983790997825,16.896972893480815,162.4341599828721,-89.01994122964237,0
3151.0,8.753478,-109.04600712279688,-487.8906714524827,263.6906263140102,50.112502609723904,56.24022343007873,-1.3447518480044174,0
3156.0,8.767368000000001,-262.7092486733355,-351.77923520014133,217.8242977851038,25.95424633278365,73.45832424200573,60.1782124828068,0
3161.0,8.781258000000001,10.99065290562871,-243.790016771026,379.2495224852843,-85.99037928395438,165.81455278535182,-102.15069537906868,0
3166.0,8.795148000000001,-655.060609423221,-497.6521217645558,-96.52687424360543,9.608453636024848,-137.8478006810223,1.9471164281796352,0
3171.0,8.809038000000001,-4.621345076566577,-494.58560090122114,333.16797495056704,62.11608991795354,-111.9683821046818,23.393034722763066,0
3176.0,8.822928000000001,-186.09697288480976,-603.527648519062,-1.1931951864532522,-73.58045603968526,-86.50383742356993,-88.21904566038504,0
3181.0,8.836818000000001,-117.07701336960918,-538.5260473343145,277.32646682583214,86.46167864984707,-80.29323937090102,-9.492153572991462,0
3186.0,8.850708000000001,-321.08728466371105,-485.5759860811476,13.295370018771166,122.63127823817769,81.21082570331865,-14.081406305627889,0
3191.0,8.864598,-147.03838523364044,-443.38316119926014,4.936121744146988,-8.135462359603366,55.26529863214756,-93.41692039691704,0
3196.0,8.878488,-139.13030416015246,-378.9954636951433,87.7628196733201,34.57447949389427,-62.71424954873109,119.57098152299449,0
3201.0,8.892378,-137.4451528832864,-471.16309547181936,76.99078869704395,99.2730003307854,112.88533847394407,-69.48865499968761,0
3206.0,8.906268,-276.61596580270293,-691.8119277076369,111.98358708343848,-29.735343488668487,-181.21076120357617,-8.498363286755133,0
3211.0,8.920158,-82.73032702627438,-352.28640641200786,-91.0905029525295,9.190187971494318,-71.73463946275976,34.24837419969908,0
3216.0,8.934048,-162.70264762944603,-543.4480553070761,-221.82045749507785,92.38260203724928,-71.9861525252444,68.66490458707587,0
3221.0,8.947938,-32.28121080720496,-459.0873691853356,-170.07902907025195,-43.11050782489672,-184.4625140786563,-3.5615587149693475,0
3226.0,8.961828,-43.49937513497656,-417.5189143235027,47.19790786358682,38.22013556505573,-72.26368493919077,1.609925691829627,0
3231.0,8.975718,-191.76000532778585,-215.2451661879093,-216.13214711023832,13.46176582479676,124.59270388974252,49.75646350298838,0
3236.0,8.989608,-178.6727516653757,-257.41076464271737,-84.16216102557249,124.51658351129838,-236.67049618975483,12.934852653492287,0
3241.0,9.003498,-126.32346106022536,106.49175422903392,-104.48604343763373,94.328845625845,203.70774171750605,-132.70593143332871,0
3246.0,9.017388,-197.6848293311656,-195.09301123031705,33.671160467574765,152.71789950141812,-111.02203675420316,105.9699984388144,0
3251.0,9.031278,-354.33189409452183,20.058342229904124,-34.18264703837703,103.11369530256384,103.53778330663069,-101.72913636974364,0
3256.0,9.045168,-269.4230019807196,116.99496673601736,-525.7366218002296,81.29409539820648,128.21671071643007,114.22212739941166,0
3261.0,9.059058,-481.4867459617823,930.959109403587,133.88803143303846,-57.8420471395015,58.67708884579165,115.21039482331662,0
3266.0,9.072948,296.6907615307464,-249.13163765802508,-844.6729467931059,230.2672536593289,132.2676217880947,-70.45755258853055,0
3271.0,9.086838,-659.2081928781591,707.6766304647078,274.23070771590324,-27.662099979837453,-158.21859075895836,62.456168810272885,0
3276.0,9.100728,-331.2244269600629,464.1262785322293,9.628008435399424,-38.8204504754317,29.92754791665641,158.67375502340357,0
3281.0,9.114618,-227.3033497963997,416.2941023002393,-265.7726938954595,31.35587724800221,192.67963243239387,-122.12090243440736,0
3286.0,9.128508,-282.83467920727634,381.9466232781381,-250.6440726607534,-8.028593228005963,-26.18917012906852,19.50256338370009,0
3291.0,9.142398,-184.1141396355125,426.2160696012098,-73.41255281965599,46.91497245619093,-115.64039384973604,161.08630833118005,0
3296.0,9.156288,-175.05841195830877,450.19579257171216,-243.83720582906344,49.00317047602896,82.35654837508105,-149.14861903373276,0
3301.0,9.170178,-287.55825102808853,343.5922598188379,-139.2322984441642,-5.965107042647301,-172.5728471693075,31.10919942183796,0
3306.0,9.184068,-182.8765569992997,536.4833659209513,-190.064472963841,-2.861266792839248,154.0871472849758,128.8981727227619,0
3311.0,9.197958,-231.49031928735445,468.6640630493704,-385.08368746127,-40.036164033707095,-146.82717874182038,-120.97297946198395,0
3316.0,9.211848,-156.99306781660738,595.7556353853421,-72.15594587324263,-34.32996715947891,70.71756744886775,151.16302843080004,0
3321.0,9.225738,-31.53480597408884,211.1509745697277,-536.3786525766626,11.809229639965215,-197.98008443613003,84.64428121654261,0
3326.0,9.239628,-62.0206623469292,389.45801377338,-106.10819765206176,-36.185495145407714,-130.0175680027051,85.29180338897467,0
3331.0,9.253518,-38.000382989116304,270.4193298275183,-86.27103119001751,-132.49500117485454,-201.13282829726643,62.370552375835686,0
3336.0,9.267408,99.21256950370756,379.3906975764403,-168.85674511498144,-18.62511838966084,87.74704559873945,13.023397709745904,0
3341.0,9.281298,205.0600254304481,457.5252472947505,-164.71844927307257,24.304378502999487,-61.64656511522676,190.3935169955219,0
3346.0,9.295188,73.90287907766204,339.6194355074384,-118.91485664451852,28.800456230949173,-88.33712099409752,30.39782863181753,0
3351.0,9.309078,210.0682046485787,181.95363311609623,-58.0150115843086,-63.52642313511461,-80.9310009784601,7.462211174221167,0
3356.0,9.322968,154.19816264994188,288.277217963476,107.88392243242389,-6.06828607805292,85.88636770907112,81.12567575901882,0
3361.0,9.336858,423.4171842647761,50.344930711295085,-166.08669834283904,-14.616999619509343,-179.6419590840905,172.0493296979157,0
3366.0,9.350748,266.62938753341183,203.5003557001404,-152.69382011852625,33.89752438227607,113.56616612676552,-179.39661822682564,0
3371.0,9.364638,32.23173746727133,226.46671072528892,112.32185630593364,12.443949617968588,2.0349577492930138,171.46600607963694,0
3376.0,9.378528,209.0451070491892,222.6933492125436,96.23423663186142,56.91718050079516,-53.80391710308082,85.0236157970393,0
3381.0,9.392418,343.48854811661846,257.78537567452844,-26.145650783657143,-9.293287463582368,-68.41704185684098,-142.14428468926147,0
3386.0,9.406308,232.70872594684832,147.43614596591723,-1.1795029143306972,-46.05018526221302,-139.5119480780723,122.60992241820784,0
3391.0,9.420198,395.7657783751538,189.64114826376888,79.45515961282268,-17.33226109050197,19.17136156124191,-34.00001423534751,0
3396.0,9.434088,292.75536955181013,178.4704482460695,162.69343949521738,-102.31312312872517,-2.0093756891100014,151.04825205168288,0
3401.0,9.447978,329.9985330403554,214.1605817498829,133.9099601214727,-21.31604231589842,-89.98062786234945,-2.196360979769474,0
3406.0,9.461868,219.5337725113385,89.74359061763928,1.4869295159475584,-56.042886261306,46.92600594932112,10.90946073011267,0
3411.0,9.475758,235.9010017174483,298.3662352680028,167.28116110104824,35.88240550664936,-121.32077171900188,142.8931646201026,0
3416.0,9.489648,467.0900791817928,-76.61204368252302,-107.8930331432104,-148.75042658016628,-68.8072063552174,41.00476634570185,0
3421.0,9.503538,-28.751417130688225,220.81569091785727,-22.19416699131456,-98.9421351629456,102.27806183162758,-15.903310901574027,0
3426.0,9.517428,138.6305326057222,184.9764541085245,67.9273759720832,-36.609641127395264,-78.40232457910153,14.67327302298278,0
3431.0,9.531318,319.64623782115734,225.2545860743533,-63.93586462960399,-97.32422693395308,18.3642263778644,133.11773140384832,0
3436.0,9.545208,171.09346086026014,7.435896837042074,-62.86315921941916,177.00950473135734,-60.08047040376836,-1.5304533114500742,0
3441.0,9.559098,113.60863304053478,51.170110639953634,-52.5451883908365,-102.97172197452868,67.38303406114412,16.308224493871116,0
3446.0,9.572988,120.61687989421048,23.011565754686643,-105.9246810179535,128.74021246955283,98.22141683181044,-65.49914580286764,0
3451.0,9.586878,210.5907804503047,-54.43629562903362,-187.2571985501475,59.34734789562185,28.697659548580976,100.0892618725752,0
3456.0,9.600768,118.7386831985371,44.78329013304287,45.23390393607311,-72.06428701232353,5.19392926599566,75.26710838112744,0
3461.0,9.614658,220.6604219896205,32.234354342405126,48.43232704969388,69.00220435855093,122.42366998054491,-192.7219495244534,0
3466.0,9.628548,-67.40059212665288,-17.514247794502946,-12.347625449887932,32.757070582601656,145.96280600401207,36.68913214761271,0
3471.0,9.642438,221.23270545344675,-82.56904305374819,-134.84351476544114,21.663983788862165,-92.46715439192305,294.9295812083834,0
3476.0,9.656328,-33.7590964009754,9.366855344251595,-86.74368877129372,76.81741974770547,122.89779166416268,-314.3695741700332,0
3481.0,9.670218,143.1735297437981,59.14137568949653,21.124385339490964,-176.6368944219712,31.84853969458405,17.419421084919406,0
3486.0,9.684108,-83.27213323102009,27.1942986173323,-3.684819803771037,192.16022596832323,57.03707908440551,36.34885668710968,0
3491.0,9.697998,-20.2948515969672,-28.52575572566997,-56.479842825563104,34.92020418321501,47.23397265135504,64.29129941384095,0
3496.0,9.711888,-4.056191251658456,26.57825963406986,18.200726150665773,39.18998218542749,185.2212381542396,-370.1266527007989,0
3501.0,9.725778,-1.9154745183582425,-1.2012582471862547,35.06428620484438,20.9958458838128,47.207511446261,87.10551025101043,0
3506.0,9.739668,-23.124064054793685,116.6411444471906,-125.22395580386328,27.198076942332825,73.82659839938661,-148.52782981662202,0
3511.0,9.753558,-103.8554088251329,-173.06943922595892,-88.2225191843056,159.79525835571033,-28.71035560972912,-46.36837804261344,0
3516.0,9.767448,76.4233329630868,35.50798820826472,-18.622561189955867,64.91402183681842,152.36475627168366,-186.6143218761649,0
3521.0,9.781338,-114.94505363965816,-24.0566365416598,24.689231778827853,10.286800073069362,-41.21533596918231,-152.02505775032836,0
3526.0,9.795228,-120.71287198467408,-31.73079985959886,-32.26338338087464,93.37797515731194,131.81330055817267,-121.00179545548946,0
3531.0,9.809118,-37.838995031061216,14.41369466175057,29.47525786378475,16.923325267569382,41.49806402532296,-152.30102363366194,0
3536.0,9.823008,-82.42098137603057,-184.9281626175272,-115.16626882826016,17.09170597028321,3.9397602276557393,-35.69560536050321,0
3541.0,9.836898,4.05693175298954,-44.206862986939264,-117.19843728671844,12.474293561401172,-29.034258066627565,-139.53456842022732,0
3546.0,9.850788,-20.46845696896857,-117.00796329263868,-15.047877432618218,43.33823476779399,101.46490348185864,-208.04851280008464,0
3551.0,9.864678,-15.373223543593966,-101.11138380711614,-27.695584954520136,-147.1957722274803,4.258294924523764,38.13127684582796,0
3556.0,9.878568,-169.7476527530302,-15.936131536128327,-11.416558127548434,-92.56559263658426,-32.97019932012171,-35.1854535535603,0
3561.0,9.892458,-33.13750165838092,-119.0971001318604,10.820002910798122,-71.20232522573157,-55.70960023073526,-14.910101453191407,0
3566.0,9.906348,15.817223603824536,-107.70605871140036,-48.47800614111173,-15.116267081822134,108.6791104329203,-44.88656551355657,0
3571.0,9.920238,-127.39270773531528,20.66514784510134,-38.11358086460481,-150.6621103921081,-101.2295829501414,76.54123887841936,0
3576.0,9.934128,-43.32647722289276,-68.92910182657839,-22.57555674564875,-117.22719922388552,-3.99944772092665,25.58321221741126,0
3581.0,9.948018,-78.60269530552677,-160.93054382760943,-100.6960375465769,-78.43915466214528,-16.74581412988077,-45.19230170282104,0
3586.0,9.961908,12.784252056193992,-36.64731393975834,45.96666626853546,-59.32056972333218,-2.133800842056825,65.02802233402033,0
3591.0,9.975798,-48.62260541499447,5.397894019064495,8.793205192550104,-19.35725606757223,-32.23679758194716,-27.33221987854148,0
3596.0,9.989688,-135.56483799397185,-24.043191393499928,25.6988790388815,-192.85132086076328,-0.5575146240884052,43.99435743239913,0
3601.0,10.003578,7.140469195245057,-39.84843511873456,-52.53029547047528,18.201628890192072,-50.80191147075297,69.88036858722516,0
3606.0,10.017468,-49.04182130862317,112.93907858941644,-38.450097743379374,-99.51823424463022,-53.15059023327069,-26.477687205559867,0
3611.0,10.031358,28.76424178840748,-209.22748249086968,-73.73288646084819,27.58719180410753,-50.39496931862875,106.79239603132648,0
3616.0,10.045248,-89.17389507444817,40.23319902668024,39.12626300834764,-57.92501670601453,-103.66169384955332,2.0381537434076336,0
3621.0,10.059138,-70.85572612205189,35.844864321573944,3.0043934968635995,7.806701977458147,-19.20062446607232,33.06666999248381,0
3626.0,10.073028,33.28599161141928,-63.83909530725106,-76.63882406789062,-74.29312170685549,-30.48777438439041,-47.95243189706768,0
3631.0,10.086918,-62.05457750536922,89.49606307401459,68.03951392164419,55.56037118292304,12.921463283260508,39.838704123186,0
3636.0,10.100808,-13.646802853884612,111.25879025742717,11.490691842276746,24.094372409450525,25.11814035528412,2.0033791246994284,0
3641.0,10.114698,-62.55692276554785,-7.565833032723647,-7.663114419997317,26.19769194047804,-2.7342464405854003,-76.65973883780498,0
3646.0,10.128588,-72.93935031931353,10.924885351515387,48.8324059096503,46.61022257664515,-9.321235245831222,46.38579005701621,0
3651.0,10.142478,127.46946934026722,-4.111491458632919,-95.34251954308591,98.87177353721316,73.98174812573855,69.336756388992,0
3656.0,10.156368,-102.72192383974344,32.99523008471269,79.11605783661987,68.1629910542432,83.17510532570562,-85.92450154821212,0
3661.0,10.170258,25.36278865861772,81.47383770650953,-8.252603384854666,62.86470552263917,1.1786572112640492,-124.68187036181752,0
3666.0,10.184148,41.263687977419536,-47.20995718020913,37.7131617566602,28.964506112196595,36.21347530788528,-8.754608430228904,0
3671.0,10.198038,-104.49044174936417,-24.067426449741426,-49.51580102913368,61.28544772913682,24.82140306751152,-6.275561022242531,0
3676.0,10.211928,195.54068096617132,64.13160660810928,145.49369401594174,60.04298127875885,58.20337760577591,-50.718270538621525,0
3681.0,10.225818,-25.91563352891153,22.217196503404416,-27.8532519379094,20.471140732734,27.26318558521654,22.78748853381471,0
3686.0,10.239708,-65.4032813440682,31.373295377190125,-62.17842733405415,66.56157056446071,25.44477675895821,30.722363488097493,0
3691.0,10.253598,115.82725975075044,89.99363821180552,49.853654958809386,51.5600585377309,97.27697691199812,-35.11571765636534,0
3696.0,10.267488,130.52806035998384,-132.582237452137,72.34503034939229,7.232744007952567,-78.35454538929983,83.41242187773113,0
3701.0,10.281378,46.231345513303154,26.491421174753643,82.17294229649201,36.86018759117806,95.81975044277812,-38.26456540346631,0
3706.0,10.295268,81.01512450438739,24.22019140682128,176.19015508923474,82.68022063028249,69.10438526066523,-77.65255955057029,0
3711.0,10.309158,78.19671437090902,64.40059175120828,96.46119274127926,-38.49428084578168,-41.96718481598745,67.57252340784765,0
3716.0,10.323048,21.39021791523823,-63.52562595314837,-42.16597288228291,3.620358069440471,-2.206538725468075,112.12586133831796,0
3721.0,10.336938,40.978784775999344,47.53281121037347,34.7972290704493,-2.3108947440166343,-59.588708070037775,10.446309908454277,0
3726.0,10.350828,8.83024886533978,100.9845445645139,71.74713480307437,-24.81746043738441,70.66133392896187,-17.15292027241248,0
3731.0,10.364718,22.504755499791496,4.304861483421284,-15.33791654319445,27.089560861369613,-22.955298140224727,53.79122082598055,0
3736.0,10.378608,27.944183856243427,61.6607892407515,3.161612107510491,13.813586198958768,-10.377968826047187,-19.60637810589183,0
3741.0,10.392498,29.460516975046577,15.991899346785376,-26.065739216196544,-15.096848789123667,-69.30482006198915,76.96566398318326,0
3746.0,10.406388,-20.072345767797746,-21.29152738210044,7.167377850831096,-17.383629521698218,-18.63591358985883,-26.08513954581039,0
3751.0,10.420278,13.117048350027396,65.27525652424579,-50.08356925791774,45.923891351890006,35.89466648475134,27.458333704675795,0
3756.0,10.434168,17.15240771947729,-14.678836999647846,-38.59159111427395,-29.57424041953831,-41.667699671862906,36.6047367087918,0
3761.0,10.448058,13.240974580545924,-14.788611157621071,-43.832748646389255,-34.12778715867097,1.4699981902040125,19.22745319296668,0
3766.0,10.461948,7.058860313574992,-19.252845587967773,-23.5419824842417,-23.35539115161331,-14.974392056099358,5.4199454113893655,0
3771.0,10.475838,-36.29761480252036,-13.41791384594487,-24.34975244776604,-24.316764543622345,-36.56658746306145,68.8733832777109,0
3776.0,10.489728,-57.97902799079476,-3.821414475556335,-106.0568758316627,37.936030802751525,19.48135144352776,122.50305274151128,0
3781.0,10.503618,91.28306202720756,77.2222871611251,12.556507643044649,-65.15455500322024,-5.896741030504423,-61.24582565140595,0
3786.0,10.517508,-28.246485274302977,-42.031956316794094,44.14738185618796,0.7421435837134256,-18.000370861412872,-15.694151520643132,0
3791.0,10.531398,21.2564134849319,30.266656801394955,-21.26729690123859,-1.330357417481464,15.933088874778957,-25.31560920950902,0
3796.0,10.545288,31.035168672097623,-33.13195637185154,-2.581607363342906,-16.92971057824846,-43.03368721864395,17.20477623523718,0
3801.0,10.559178,-35.24155756146973,-26.861982631462165,18.56304063235836,18.265280929465057,91.03006490844226,-48.69292387130689,0
3806.0,10.573068,102.1802081288062,83.03116344845567,74.01596127305538,26.99921699772886,82.05712254961487,-66.28615910855115,0
3811.0,10.586958,34.89084057663934,-44.12891502849997,14.933400520079372,8.422121811851834,47.00759638624909,-13.60010827772009,0
3816.0,10.600848,0.9986890189020629,6.051340370117265,33.19380867166974,38.27332766597561,-21.229873213538472,10.90390332805675,0
3821.0,10.614738,22.277370639732112,23.724149705651403,9.470418573860035,61.65722041108396,39.82939999580715,15.201082726478145,0
3826.0,10.628628,13.23312508048965,-4.336824010033138,-10.181478852145412,-55.3989492584223,-57.51961434723793,-51.34563343235997,0
3831.0,10.642518,-50.88530541748797,-15.649458100226468,26.460033266329035,-8.24765273619792,-39.47834104386477,24.15521293991987,0
3836.0,10.656408,22.612501978307435,-27.897602230874988,-12.670547942504127,79.2690988181289,34.19265790070816,-117.15016235372444,0
3841.0,10.670298,-71.01663281647409,33.89307607579651,-16.366835192673346,-3.1589972966388578,-39.938579541778914,40.496453738356735,0
3846.0,10.684188,-23.87738258754838,2.739632614255629,-20.881552661151417,18.44334720097659,-42.75931493082467,-26.55486283250136,0
3851.0,10.698078,-70.59023636771879,21.075538833696864,23.11451647346156,-71.6166468575263,-46.095139068376135,17.16081922732782,0
3856.0,10.711968,-23.283567406603613,-26.57385697555837,-17.26700350787023,4.263630486001911,-65.41895560163488,72.06161964739678,0
3861.0,10.725858,-19.574221889985026,-30.31989276434094,-111.91680685163966,9.35330296224502,-25.26727163238562,-29.72841366998607,0
3866.0,10.739748,-55.55532687769279,-33.220295324409314,82.09857241182915,46.06081181501099,-138.29580661382343,112.3262405322732,0
3871.0,10.753638,14.273338913606636,66.6219991834253,47.31285433813195,-77.4781068433762,11.825206908195256,-12.55559841261408,0
3876.0,10.767528,-46.68359008390707,35.48115330728487,26.04387375791876,-77.6314456293131,-55.80636104901789,16.846284344452492,0
3881.0,10.781418,-43.102983638952566,18.6931445345654,-35.600136146030444,-44.60943155911214,-62.76535891415527,104.9118528706766,0
3886.0,10.795308,18.7505762699136,-7.222167604433646,46.661581817741485,38.81293525664184,60.18351863523408,56.78307466963748,0
3891.0,10.809198,15.362229351296955,-11.914612587825944,49.35979086303085,-42.88800762662098,37.417588902206205,-23.72490649059462,0
3896.0,10.823088,-0.5595849043451953,-42.07100094825012,42.741650964659,-7.228227637139278,7.078736521440839,40.3540152243925,0
3901.0,10.836978,2.007396500646056,13.07835576167744,12.813064121637156,5.909457619191355,-30.85994300889051,57.95280910515707,0
3906.0,10.850868,18.59827707104664,32.35505471885516,62.23728779080679,18.47917656292192,42.13486052525772,-50.79591533941456,0
3911.0,10.864758,24.15646314750927,8.980395450331923,17.469489179656232,20.69980886669749,43.61375722448248,-43.94388000302654,0
3916.0,10.878648,4.393858942028517,-16.683396252618586,15.958698347828577,33.278915859675465,11.23748597321819,21.87922250273652,0
3921.0,10.892538,-42.22655879508848,0.6133362976448185,6.754928909342972,48.89670118070548,-16.43190623045203,-10.711444970660756,0
3926.0,10.906428,-0.2750284554295739,24.42941686503086,7.129578085602748,52.84112337721254,-30.310684256872605,-7.055276039491105,0
3931.0,10.920318,13.72546547771979,1.1458561857409677,37.59088959729236,27.65578219301693,19.10719209398614,-61.453412036576445,0
3936.0,10.934208,7.505126400370226,-72.80645967649727,-69.9563629859042,3.65737701088012,17.96057154293115,19.230529605055487,0
3941.0,10.948098,-61.8833598766271,-44.53555440706656,42.838965196385146,69.43381373671427,-4.504936869607295,22.038540204051223,0
3946.0,10.961988,40.19211127022216,5.144978449735284,-84.3026915877259,-6.497654139477051,-26.0982287690937,-20.73185735126821,0
3951.0,10.975878,39.60455871272555,67.74149159949042,-16.93642634183523,-20.24062096228591,15.080791524477425,-29.08945982878683,0
3956.0,10.989768,-23.72432852850405,-30.00088863564969,-60.18976358036628,-25.75961143756512,-13.615120932012074,20.06991857517837,0
3961.0,11.003658,-13.31433342514814,53.79526871465443,44.94565076819222,-20.23554578192749,8.571582419513197,12.0519649292311,0
3966.0,11.017548,2.072076372058996,-13.562193701257636,2.19086022548931,-3.9621092012309047,8.71010308719765,-8.151081879802518,0
3971.0,11.031438,-4.236836707297536,7.01655640413713,1.130639408238567,2.039265788049323,-22.885497639370524,50.919539020765214,0
3976.0,11.045328,33.30338075924756,-3.2913007200726567,14.42835769492718,-6.550951915805594,-11.750977807428416,80.91966116943152,0
3981.0,11.059218,-56.66777980641089,2.865622222199981,-46.63689565162398,-50.692437454026894,16.518109793988636,1.9738910003792287,0
3986.0,11.073108,132.85973699766484,43.818230356272245,79.72661920231907,-46.84474459670973,-43.6613580540986,69.17358720054686,0
3991.0,11.086998,33.57921703433779,28.621937682702868,17.0013587631337,1.1833045720997806,38.93376632677119,-52.40934653833453,0
3996.0,11.100888,32.88162301134686,9.455966564614911,5.356891966491812,-58.43337229458752,-20.65415907948639,27.806693531640075,0
4001.0,11.114778,25.78156910702255,-9.962769819612456,12.70777878091623,-39.95438940990401,-84.2709009426108,106.09992125456648,0
4006.0,11.128668,24.05897406894562,15.930058185767162,34.18567253328962,-6.418709821654702,68.25184637263857,-46.27926155210062,0
4011.0,11.142558,74.41462551438684,14.30076341737818,37.09701460573192,-9.35197573019654,3.1797427724168585,-14.712835546340091,0
4016.0,11.156448,44.16464466747682,-4.977447298669649,11.56445163823548,-7.413920911142078,-44.79324188407151,10.713394032849465,0
4021.0,11.170338,-61.376429840194405,60.66458080088505,20.012910519243377,-9.712634370669925,-3.4504602687975066,34.13080090658555,0
4026.0,11.184228,60.22033582849985,-50.40208741121855,-58.03530400084616,12.02062419517059,73.57952112135919,-83.53314727930089,0
4031.0,11.198118,11.725221876240903,-2.794469967100998,-3.498862614174225,12.89941720519812,-18.206857016579296,-14.466864758227576,0
4036.0,11.212008,0.378687378031692,-3.088507367956307,-7.675583998732037,18.31807428805397,38.96134305353826,-29.99120348871556,0
4041.0,11.225898,20.159066922626163,8.726034440333981,-24.59778741680705,3.575762549569582,-20.122418862970544,15.846622295166608,0
4046.0,11.239788,-12.735665293907102,0.6063693092929139,-34.121684975929966,-12.99563787716965,-9.641895457388191,21.30327674956412,0
4051.0,11.253678,21.28876897471357,-5.979388708172301,-24.97957691245171,-2.440224219596257,54.30341056789771,-115.28565638956611,0
4056.0,11.267568,-11.132499851160825,-26.86228138420413,-18.168632881329085,9.301783799899887,-1.1728348072102666,-24.91740281687255,0
4061.0,11.281458,0.7515388192624712,-1.8314541677708345,-8.298552185546248,-2.1860077880659547,3.808602008945649,-33.08225782770472,0
4066.0,11.295348,7.061176095669264,-2.6932723086615225,13.414115951284089,-23.094009809503618,5.6866624110901896,-19.96821944082125,0
4071.0,11.309238,52.340085870192766,22.739505966441207,6.584511249188916,-19.413460716299944,-0.8565547372284397,-9.359480878401948,0
4076.0,11.323128,-51.3950516514336,-54.462355860594144,-16.455414069464005,-2.3438417200000856,3.07535317496388,-25.66099002242475,0
4081.0,11.337018,5.769632938360221,-10.875739678064033,-8.195473831512556,7.969795249847062,-30.638670099150666,-12.399661850516924,0
4086.0,11.350908,5.738167535625983,47.52842986408781,1.4408496381242388,-18.05045646440159,14.26692658870299,-3.7708848394485006,0
4091.0,11.364798,14.442994550941334,-17.85132899703427,-4.669214619773674,-26.043361818566023,11.540566624840489,-3.392402986344351,0
4096.0,11.378688,-3.2593298394457726,9.8306916481591,1.968437495338258,-13.936450896950962,7.919023322873752,-5.014802606041175,0
4101.0,11.392578,-31.68472227403,-10.52112646025842,4.627283963095356,-12.316829314569164,-22.184042138617748,-0.6773655281156898,0
4106.0,11.406468,43.9814670570027,24.68135813676724,20.10945857499349,-9.78455256229198,-24.247501381568643,0.3583786043025001,0
4111.0,11.420358,-25.032442943822343,-3.6656257807843,-49.546205489573545,-6.58550590916807,-6.93256078415226,9.368076229887947,0
4116.0,11.434248,-38.37872761237773,71.96860673911098,-40.05478235989487,-2.324654804000339,29.849879443767627,-26.451223167090188,0
4121.0,11.448138,157.14209229704096,12.53938682444966,-50.46963876358102,-4.163965528878599,20.82677259470165,13.912210811235587,0
4126.0,11.462028,-94.44420409243016,-16.951211725044587,36.77029680728019,-15.526301564672298,31.762083876349635,-6.807396147961291,0
4131.0,11.475918,-83.99209204246401,25.70141449830593,47.16774199720421,-11.523332851235866,-28.129098087611887,33.14101383622309,0
4136.0,11.489808,11.011465321258015,-44.786150044610885,13.917447691407911,-28.875068187112696,-44.30083939865938,-39.18516604572032,0
4141.0,11.503698,24.1291282952312,-2.652592914728782,22.58876418534309,20.35936062334987,-0.0278347269208119,23.22773446088804,0
4146.0,11.517588,-14.880706576406713,-19.331576015750493,5.298669890900214,-6.695031323910119,34.98996051482004,-12.951740470719889,0
4151.0,11.531478,1.604420698031916,-16.40006324891891,7.079510489271643,-10.08515017734235,21.33011172523529,-10.224907505527508,0
4156.0,11.545368,31.89448367581584,-60.709951091682086,23.8401241095956,-9.711449329187465,-18.471367094823865,24.626500667340864,0
4161.0,11.559258,14.839786741552071,-33.163431724918475,-13.249471555195434,20.034202685376847,-17.10620492080094,-14.30916786864349,0
4166.0,11.573148,7.104197058483923,-12.278167287350051,9.045569924939452,-17.40658394868407,23.869619409920563,-1.4029203528010663,0
4171.0,11.587038,12.743410056672134,1.6545591513198712,-14.399657785903296,16.77223591217855,-4.252972653601077,-18.874412819648708,0
4176.0,11.600928,41.6053918909932,-35.52560049459282,-25.18856359847984,-60.97059642706174,-7.379635662984139,-55.77113326346893,0
4181.0,11.614818,-23.86109019677032,7.960546080160888,-6.198326207567888,75.35195875268079,3.3272049083464097,10.471100142320228,0
4186.0,11.628708,-13.334327292083756,-4.287352092107195,-29.582577946058528,45.37911180041037,7.131957395280558,11.910929993066691,0
4191.0,11.642598,5.972292050853197,20.42116275505039,-4.454661927598722,15.247666135922534,-1.6764329583169977,12.3009789439865,0
4196.0,11.656488,-25.437173256440605,46.36449294436541,-24.024532282613627,-1.870760053062232,22.24364513020289,-15.010797558747033,0
4201.0,11.670378,-3.530908852120227,53.19451752490068,-31.8807877397298,-1.7608266848810548,31.684106743505296,-23.41223208167421,0
4206.0,11.684268,0.4456582842451428,-5.093394327696901,3.6788108620683815,9.431952075284295,-27.02266678389747,-6.6149455424232,0
4211.0,11.698158,-18.18789554222788,39.21409132683934,-57.72176336293619,-8.458840863715313,15.117466681383696,-21.510276582864314,0
4216.0,11.712048,4.302818429090616,-8.846529354928293,-7.445692840824108,56.52598637277696,50.777173162690985,20.47013549255039,0
4221.0,11.725938,-53.04716631981005,-24.603244855339128,41.58167504779868,0.5472553455779785,-68.59489908707477,66.69534223595036,0
4226.0,11.739828,-55.03396599891728,8.220617853440949,23.20928408858631,-11.134080077091248,-7.863800065066792,6.819806211640376,0
4231.0,11.753718,56.01874477092247,23.495092615160832,5.074506091324281,-13.106146712437486,32.92961730296922,7.160903706084534,0
4236.0,11.767608,-1.6178998774010953,-33.89065744286549,9.546597367054252,0.235677445487371,-16.170018250125043,23.12935080880868,0
4241.0,11.781498,25.97112961188384,19.323747036366683,18.22670136043372,14.65603096974078,-19.637110769444448,6.742043652406437,0
4246.0,11.795388,14.005692453443809,19.8163904050426,69.63884864849368,6.500483464936561,-4.140583903227654,-6.106748363854195,0
4251.0,11.809278,-35.70132782292218,-29.278472899238874,-21.46063449421541,-4.244620407574891,-7.719664582263942,21.95059684466432,0
4256.0,11.823168,1.8513929724880889,-16.113606605142625,2.7585731559702618,-3.12642975249302,-7.431366432441601,14.60336861539217,0
4261.0,11.837058,-22.90049309241952,-13.731581633144394,5.816524562531458,17.705371292338157,-1.3231793749128278,-6.1716291246181925,0
4266.0,11.850948,-29.787827962717568,78.54647967111042,57.9244128911124,0.4722210469236044,-3.243307616826224,-4.42024517936729,0
4271.0,11.864838,-7.856060420231522,-55.89109288383841,-37.0052462274972,17.93469069140804,-5.8159377392479,15.168618357553546,0
4276.0,11.878728,15.73547236273463,-21.806217867809004,-8.740461524312327,-12.009748959031048,-0.4459274126485686,-7.507178447961657,0
4281.0,11.892618,-28.51685166468848,-35.35024184019335,-7.062165037517409,14.076885983641844,-35.1680020624454,-8.404039806398256,0
4286.0,11.906508,-3.99225097709489,11.881701682990425,-7.114153125029852,26.091125259523864,24.5419173678327,1.202118786597172,0
4291.0,11.920398,-7.051962524174737,22.13366437869264,-2.3354488575426084,5.6080676774239775,-0.5309702646977996,2.5061204354839965,0
4296.0,11.934288,6.676284728266273,11.686822039820496,-16.982268179069404,6.484175272570784,-0.8109432263602385,6.231860233637633,0
4301.0,11.948178,-19.65948966863732,10.354901096378878,-8.639168362055903,-3.980364983064914,6.217480679684046,-12.29915923095364,0
4306.0,11.962068,-9.94963533205916,-28.16295827513129,-13.0956281932827,11.654719167592187,-9.206489547120013,1.899091996494634,0
4311.0,11.975958,-5.917842989580025,27.876082980956145,-4.909605582317185,15.950844009423582,4.716153783692645,34.43608967104478,0
4316.0,11.989848,-5.014495345856926,-27.062879541151624,15.44967210295814,3.565601032070791,10.910783054480108,-30.947384144130325,0
4321.0,12.003738,-11.26778439668785,1.9795571436498465,-1.464412747208472,0.5001652010596265,13.5394877269222,9.413645084295728,0
4326.0,12.017628,-13.72238150229488,-2.5969336814393555,-5.8387203101412055,17.90433667660995,-8.630308449843476,24.6626241855046,0
4331.0,12.031518,7.731823657454601,-4.194629323443667,2.7761760489821428,15.960460840909786,-17.44180637580248,-25.15166701770584,0
4336.0,12.045408,-30.305043299463183,-30.891106662261542,-14.82289516037386,23.182953614956336,-30.413046056414803,38.92856435053805,0
4341.0,12.059298,13.91792438531399,-28.59783137830883,32.41581452428393,-28.20009427210265,33.54768945462281,20.69363311875207,0
4346.0,12.073188,-13.783456274425172,36.38992071893669,9.930544980901647,-22.516149563255567,0.9754097162264516,-26.890613003010905,0
4351.0,12.087078,4.438043889112619,0.6396494646439788,-2.986183481697928,1.971201025384163,10.258978889599538,-9.277861924911212,0
4356.0,12.100968,47.27230296128591,2.590231496294461,21.17187271898105,-1.404631913135399,16.055776263420107,5.925975461505936,0
4361.0,12.114858,-42.760136889300185,-11.317248699671318,-28.238380487807053,3.429442132352005,12.598965035683552,-2.8036553883993296,0
4366.0,12.128748,7.224165983514696,-27.05111142661737,20.63764328440641,-31.658457639324624,8.44620868872655,8.079760569265988,0
4371.0,12.142638,5.121766884537001,27.44952582852932,-4.21098007072134,-39.74088295742988,-15.778881767169906,1.9080460476978744,0
4376.0,12.156528,2.83197625704062,-10.194244842269482,-6.094164438173715,-37.15414484427898,-22.807396287224627,-18.35310815116923,0
4381.0,12.170418,-6.512011796792345,-3.089833142653622,-0.2140842445996282,22.43690628722292,6.941140648529155,2.4193929375272614,0
4386.0,12.184308,7.4974424090562835,-45.04701714371275,-13.333233597704805,-16.35901220953101,-9.388731294289196,1.6199239186353358,0
4391.0,12.198198,22.21417806728296,10.991657053462404,-8.573414307768232,-11.167354978010485,11.620802387381914,-3.9888972240071343,0
4396.0,12.212088,10.864601855958233,-5.615181873715423,-20.215909319529544,-14.982666227851142,-5.287716061422438,-8.290764109787737,0
4401.0,12.225978,-1.6678682017765365,-10.431288625493192,-7.363785894448202,-12.599224004787963,-9.594786657468614,-8.953701421714289,0
4406.0,12.239868,-12.351736426887328,4.867956003656111,-49.81896460802579,-0.9908766709884822,2.860383368866,1.8793190657206025,0
4411.0,12.253758,19.06326615275805,-0.1093877029913343,34.74345571897838,-6.732946434647116,2.0693160290128048,2.4713998459217303,0
4416.0,12.267648,-33.43745874483528,-7.541438089340069,-17.070137582378635,-8.666425111771302,5.000515849863186,-7.258466761179688,0
4421.0,12.281538,25.7755018144737,13.255350820700468,7.304906490674895,6.261782362169436,-10.645290168022306,-17.336650270551267,0
4426.0,12.295428,11.250305497541614,42.33112565554047,1.3119464445438709,-11.84905751637234,43.3748105748044,-25.23096921917751,0
4431.0,12.309318,8.282108636348084,-2.741982098561142,3.6955719885207454,3.441131462575996,14.065413738128544,-7.207403055493517,0
4436.0,12.323208,47.7940210519986,-48.83687261892497,18.5873349555858,-26.303887144023623,-22.63676313436863,-40.52881253236413,0
4441.0,12.337098,-9.87381717386408,0.6625488066064589,8.304519910593811,28.23046150648332,-23.542224901330982,-10.462477846252089,0
4446.0,12.350988,1.5299473981422709,34.43678658501506,15.867345664147445,24.17882158676037,-24.229741635993943,52.99398977551656,0
4451.0,12.364878,60.64608799544393,35.566028600648224,24.279060114841545,-12.46716733091932,27.39898269145444,-4.889831847820068,0
4456.0,12.378768,-34.70459667812692,1.781320410798651,-5.93799785553097,-18.01737428868069,-14.61494987544708,9.104725655418394,0
4461.0,12.392658,66.75505676291515,-41.83385011091851,-26.943795986327604,22.90645609693892,-20.28509952237665,-3.2016842271584487,0
4466.0,12.406548,29.173625403439985,44.92032074140001,58.70019761763153,19.57603898458708,19.52332753023572,26.76844109303336,0
4471.0,12.420438,82.47519165751734,16.902035046296966,16.41393980479547,-10.551094889378474,1.145216522849286,33.51049604414621,0
4476.0,12.434328,-20.750511332878364,16.167983866109456,-40.81183665564933,1.5618189858621203,-1.1584432941358358,27.030209945638944,0
4481.0,12.448218,21.208083898901904,42.79358180802795,8.304326066569374,3.40357497968202,19.894936367667743,-24.111601158153324,0
4486.0,12.462108,45.56720798416097,27.19259030468989,33.28615704482814,3.4624173092125607,-14.665448950381812,4.325833254635926,0
4491.0,12.475998,83.70424455621665,45.21624237744184,34.76751836059847,10.642507636023833,-3.8005027045197526,10.484183333460456,0
4496.0,12.489888,-29.262450517445384,-58.55917873462956,9.344968160798992,18.68799985900722,5.253793991833941,-9.79692119742975,0
4501.0,12.503778,73.12586983981905,-42.5482329508948,-72.50853292780351,8.923558389800094,20.312124257767447,13.752908029646214,0
4506.0,12.517668,101.80198888248616,128.07856941868954,114.35109274929536,10.133671918887517,2.4603951983587606,-3.013270997538815,0
4511.0,12.531558,-25.877563725257083,-56.946534903887546,-18.34957235856406,-49.114303297355406,-18.55383307759932,-8.411932868036416,0
4516.0,12.545448,-36.31831512389694,-28.44640041671736,70.31716941135991,33.27782031704763,-19.542311264529552,8.645558557601696,0
4521.0,12.559338,84.05722832101031,34.15702554129738,-0.57523416175151,23.368786172685112,52.49075399817683,-2.140832752954765,0
4526.0,12.573228,-15.162540131731468,-31.521790515354216,31.81417481627864,23.88800856559257,-34.875121218881375,-0.466226558247224,0
4531.0,12.587118,39.25201549566357,-24.22455284326072,-1.942483826531196,66.40142955555115,6.805473374208429,-20.463083325709533,0
4536.0,12.601008,-90.46365315871606,30.18336518308444,-29.3726973573062,-33.268864399237465,-81.53311613902542,64.30411716831333,0
4541.0,12.614898,-12.820730690664824,-7.284640470464536,87.99055498491819,27.205117901268736,81.39723151000821,-70.76700248657744,0
4546.0,12.628788,-22.00613071215137,0.3563703414529708,-16.816119373719964,-31.66786658591276,-36.0754977608489,19.8016723095982,0
4551.0,12.642678,63.528234474580735,9.633222830095384,-21.61232003592972,-27.5005270953678,38.19760614504003,-34.50379760042357,0
