Frame,Time,RightHand_Accel_X,RightHand_Accel_Y,RightHand_Accel_Z,LeftHand_Accel_X,LeftHand_Accel_Y,LeftHand_Accel_Z,Label
1.0,0.002778,-427.4795581487916,-457.94892011885634,-70.32541446275833,191.01651610719392,-10.46873663157003,-50.12096681770886,0
6.0,0.016668,-79.29005339487442,-29.788898763584385,-22.92028195127074,-45.94899761276815,-21.926212324535825,104.30672332157904,0
11.0,0.030558,49.477555868430656,165.74160372462205,79.35515567940607,-122.45914055908769,54.42881926020897,52.01767486037415,0
16.0,0.044448,109.66287215659057,-37.01787572577982,-56.98910526421032,-98.59675150456847,-6.737756532150632,-55.44479631588936,0
21.0,0.058338,158.81043787616636,89.1853526438228,196.24741155165748,18.667036133643307,-48.62821091781914,190.53577524608423,0
26.0,0.072228,47.45766059037118,54.66417346110169,-27.158736436866235,5.293864313190852,118.77546596537434,-150.9784083995749,0
31.0,0.086118,140.7132540505837,-16.27046210577902,92.63567687803253,-182.72282548859005,-87.67098791496333,29.25513048202173,0
36.0,0.100008,-77.40550287043214,112.0404093313264,-127.27346056899896,83.90306472341732,-49.18724389318983,91.21984466714925,0
41.0,0.113898,256.9685311206844,119.2364254607476,131.8619986217073,-125.85815877762492,62.92707863728883,46.523877726538814,0
46.0,0.127788,29.5993769959108,2.528738761291654,-38.43208752265435,-77.27558363550236,-44.34306300283091,-90.72786932308142,0
51.0,0.141678,140.9284484251956,124.24363450022908,123.08171575342028,128.76329396431927,24.233651824607453,171.32507159406313,0
56.0,0.155568,118.05277067956445,38.66848918325641,35.464789442307755,-89.73745275330154,-15.830221049003434,78.51016670234294,0
61.0,0.169458,33.189336361833305,-121.67515519414684,-120.38026953279515,-147.173447883449,-31.28018797710171,-67.85326791595293,0
66.0,0.183348,140.8736761322639,41.97105339113187,28.975189960711354,13.773284118514606,78.79208770042706,153.99758616691778,0
71.0,0.197238,218.34704600454936,51.46164298736614,-44.72569389738141,54.68865483355039,-5.579660572588473,37.41867311265854,0
76.0,0.211128,167.13232108482345,173.40327905655266,92.2265606648797,-196.9225808255482,-23.15578352877348,-140.25510409509494,0
81.0,0.225018,-32.49409927279306,-92.6186644376407,-10.938474112363654,63.27527567003134,-52.61619341575022,223.97522911277292,0
86.0,0.238908,212.7294568311811,102.59505994923786,93.747828245676,-167.76767491225866,-49.93150295023016,125.64450291613156,0
91.0,0.252798,140.5505794173663,-33.92214854565897,-77.72023034773832,75.28487712518785,24.45216373934558,-29.58983028320136,0
96.0,0.266688,-105.28433618551388,-144.72942477308692,-47.66783484109975,55.095134197245045,60.84962801821343,-37.53683722520763,0
101.0,0.280578,166.09728526147703,16.16583341686758,12.711296413398504,-25.46434723948933,15.780068829987636,33.252091806532974,0
106.0,0.294468,233.6557084332124,219.13860921947992,39.93239824170689,108.53418976841932,8.404556746414304,-34.50450103436254,0
111.0,0.308358,-148.6994392192762,-210.19858109158423,-52.98089367700062,-108.85350928727875,-52.79461862110321,-72.17016810274558,0
116.0,0.322248,186.5554513923713,23.22188591296642,-79.62969018261721,229.5185251465761,36.60982937178498,-102.05075230090785,0
121.0,0.336138,-29.593779105642664,51.87803043795679,-35.50187549786994,142.49745328416222,50.05438684685141,-43.22650207794149,0
126.0,0.350028,71.98595926118347,63.30312133805571,103.48997867895706,182.7490650187417,43.36110248808495,-90.99731085441611,0
131.0,0.363918,34.74677804563831,-60.028573376531455,-156.6665128884416,86.86032172458047,128.36300010150617,-176.7854814561983,0
136.0,0.377808,28.449448789701083,46.63109314015048,91.74494600295492,96.01359598341494,-8.590360183972791,-49.04754159222944,0
141.0,0.391698,47.665454140125775,-76.46321014976928,-125.16677629977588,200.374167294266,101.43230435863046,-164.48111512724194,0
146.0,0.405588,-21.893162721446515,104.32842429985334,-1.7011928340385405,54.755427036596586,-41.73139956286072,120.90907007590198,0
151.0,0.419478,132.63051853383104,-91.60972817500952,-122.74501064975526,106.40395935968743,-18.319218721148182,-118.49425986396037,0
156.0,0.433368,-123.164892899708,-36.331470853925865,51.03736362778559,117.12529539023166,77.2344620016647,15.682451609162484,0
161.0,0.447258,39.32767519322895,88.05287747558131,-125.1115264525344,-90.77915467405091,55.57691254732203,-158.47681173028548,0
166.0,0.461148,-20.88561077479249,1.853102170583768,46.28100602241325,39.34601171568979,-38.17683630299528,49.143560009200215,0
171.0,0.475038,0.3901767711323067,-33.31065281826177,-2.993816492429211,37.627960943236445,-98.3342307277305,108.20834574304052,0
176.0,0.488928,16.527152744319555,96.2658014423988,-18.39266388148419,-34.042658728828265,50.21661309251103,43.88780469395486,0
181.0,0.502818,-35.10579914477031,-117.25807384659264,3.001421861362964,85.02830986778233,-20.92132977138408,-57.45669352632702,0
186.0,0.5167080000000001,-39.55147578837677,54.34634280436902,-8.631383939423166,-111.66697409053732,-92.64387297545846,103.44730102492952,0
191.0,0.530598,-38.74265180389894,-9.1503684879398,-26.18874327495876,-81.42506387359987,-23.29666344138203,18.375849936513184,0
196.0,0.544488,-74.66916921491568,-12.130141653104282,-84.69961361391022,28.76143115944933,16.035674647141768,77.98903996256294,0
201.0,0.558378,33.865051185255695,-96.7935589627376,-1.5901570993347605,14.055264074183608,-8.165505815943249,47.01967463160236,0
206.0,0.572268,21.86623733195936,9.00368329028596,-68.39900484546772,-48.782613465183104,49.478119284858,-136.95644487198447,0
211.0,0.5861580000000001,-214.4204839441788,-10.37561516226593,-45.80945301489161,-29.27992783870572,-144.7539160083967,181.99386828660508,0
216.0,0.600048,71.56692885368926,18.354126245601005,17.441767218344673,-47.61008609881544,-33.99146546676553,45.19257794077818,0
221.0,0.613938,-136.2284592098169,-103.50583911445784,26.077848106643977,-14.288597238823115,-32.57669025108454,-12.975622428034145,0
226.0,0.627828,-45.20211375067728,92.1376113112304,10.537976934599255,51.77437797625549,-13.425915468910311,-31.097463861385968,0
231.0,0.641718,-168.31134544273692,-122.58842905077918,-114.75369645211605,-70.55477313173162,-22.561569569414083,78.09252045068502,0
236.0,0.655608,-7.233741440351288,114.45766784122664,235.11740916505508,-1.814103081206916,-12.65160156114998,-12.0001144885272,0
241.0,0.669498,-43.70253356651355,-55.91944153746677,-107.35833225561323,68.97753645938575,21.73968647474923,-36.58371943892212,0
246.0,0.683388,-4.443231171880036,-10.555448404815284,168.29299317565022,20.99851993088322,-68.18874585629491,30.74809057714492,0
251.0,0.6972780000000001,-46.14039891843743,-13.921637900771156,-29.85723909703061,-11.428356864450116,-25.882037123352468,-161.88804951931888,0
256.0,0.711168,-41.05364541201718,22.28011502046552,66.6631607998571,44.91750823507845,46.57598289522133,43.15381199570075,0
261.0,0.725058,200.55354891111728,6.93201228764163,41.17700155463673,59.780508275397466,-25.076487819874444,-10.201969946143649,0
266.0,0.738948,-206.45315244222056,3.286289986939652,46.029801151102944,-33.137361001720265,26.24496121436123,1.4574819067578415,0
271.0,0.752838,132.7475395048945,196.24071976672383,102.24130235909888,150.90508206582587,-1.4661520583176362,21.600941800379232,0
276.0,0.7667280000000001,-7.270892066403462,60.54760220589711,-20.095226826727444,-26.29922117046657,-99.15254982535252,-65.04010231890805,0
281.0,0.780618,89.06136531777621,69.14519324210256,186.62065095379387,-16.70774668079472,20.817744091301968,51.58623727925989,0
286.0,0.794508,85.81896392403472,34.26025243521063,33.292029880581346,106.44978146363944,183.96516499083373,-120.16915564513428,0
291.0,0.8083980000000001,110.28147530812603,198.72393643581657,31.957102503304007,63.74469158324296,-44.82762918752918,-36.85132564438909,0
296.0,0.822288,-33.977215387731746,75.88010289355189,28.82291289133593,-39.61335603412422,-18.022891450651706,60.52646243319753,0
301.0,0.836178,55.077848857123584,192.64003741666065,79.21523462118114,138.6554500212603,71.03457845819389,3.3072726020009284,0
306.0,0.850068,-100.32015460609354,-27.62872464176718,31.76086739648316,5.723241231137982,-153.94339848780993,91.90190348158518,0
311.0,0.863958,159.30029357453606,138.29505400467346,108.15584209397244,0.4091195317252118,66.27189397756668,-60.13965939336391,0
316.0,0.8778480000000001,-61.33171381642608,132.39959489202167,17.314161618795488,-57.40436255544089,-34.53479762644835,97.70785557231618,0
321.0,0.891738,18.3487243675941,20.62820886157596,-156.61746040437015,160.69022820768197,-13.807268056241242,-9.042004779238884,0
326.0,0.905628,46.07266542956052,-9.277821204491325,37.5695717411458,-41.97361731280286,-41.61350633247034,38.11109006537436,0
331.0,0.919518,107.22265866953852,123.82370162477716,-89.12335581815441,13.040768057827108,40.99738974880408,56.39666723573471,0
336.0,0.933408,5.967800939356327,133.70353711088282,109.6479602341013,131.69298740408126,-3.515985216265776,53.99698310774048,0
341.0,0.947298,-16.878460087796785,84.13462108427176,-119.711433098312,-49.917244478082274,7.006969783850028,19.53587732415016,0
346.0,0.961188,27.63233380571296,66.9603317498312,-2.4713639774898155,134.17913025681324,48.23824969073972,-27.9735291027882,0
351.0,0.975078,21.188809953818605,114.31965538082616,-92.33133316278077,-75.14886977043565,-109.10625965790815,115.20251036407342,0
356.0,0.988968,36.42700102380712,108.92714408189688,120.170250528379,199.00317478963527,52.66546365821143,222.10871645263887,0
361.0,1.002858,3.9802672930272855,63.28075894209036,-98.66955106517555,-104.1587645348064,-75.46705051880014,-82.01884153348618,0
366.0,1.016748,36.24127950044616,25.29905625170626,-5.026655396525419,65.45563410133602,58.66369549182678,204.22868157101271,0
371.0,1.030638,107.67353188431709,149.9785622865057,101.5332439432418,16.299357882212693,-42.13051003619243,-71.91833126150524,0
376.0,1.044528,-117.82160594035628,112.25655093319952,-4.325441756017604,45.23647932568161,-19.04678307069512,204.13349226930723,0
381.0,1.058418,169.72403091856845,64.34444618634497,-63.6770119915967,15.504499293114922,-25.305755966199428,99.73967786940996,0
386.0,1.072308,-6.0755905333246005,106.43716371559356,72.09976483006491,4.348071547288448,-21.555118791526283,121.21127690963912,0
391.0,1.086198,95.47725238405374,70.51679423074721,-2.7755740839597576,103.0214453645888,119.45982194783886,-49.934925890271664,0
396.0,1.100088,5.127616595337541,47.08899681089508,51.93623391746722,-96.00574504152424,44.81447348689434,85.12653168727462,0
401.0,1.113978,6.585288450291181,108.1039628553486,15.392362336310516,19.236951700541454,112.45308867343456,185.17332107129303,0
406.0,1.127868,354.837031042699,5.635087501486906,133.06092339122117,-125.70397308875644,-4.562703499688766,-43.19714856830441,0
411.0,1.141758,-264.4627095961946,-43.80788755853678,-251.0387793502284,105.21283169993328,-153.56349160151103,169.44655877277853,0
416.0,1.155648,-51.33012446955064,78.87061589961827,7.680454675938176,-97.3266766057781,75.43639091098187,-6.272304150633943,0
421.0,1.169538,259.75111248560853,74.84195979657716,-99.50834737354792,-20.021430712234423,141.31412032813498,55.0899439295663,0
426.0,1.183428,-115.93891089818302,14.637634039036614,169.5844473917192,-201.97484781198028,-63.82682577443324,-28.96792007567333,0
431.0,1.197318,-169.2984211156111,-173.86471048067537,-62.66292142410808,33.73810898256869,-104.68172533260746,21.54215548105568,0
436.0,1.211208,130.4357358808071,81.24232279667373,26.7319360243899,-91.4072897707,239.5152880549392,25.478315729129186,0
441.0,1.225098,-73.97321547305293,-136.77749544988015,83.08263854886775,-51.47317213417164,-115.0683600621268,-45.90662840698988,0
446.0,1.238988,-170.6090418823677,-225.29832342922893,2.0922015560691847,-31.599523363233992,25.860143229959743,74.57407049758687,0
451.0,1.252878,49.19920417604477,-79.20381147804314,-3.16488352242736,-101.93545949886558,58.67762859395856,-31.620097660959868,0
456.0,1.266768,-206.82188689097447,-94.41547315184584,29.479569907052465,-100.67553858697048,30.50746002561491,68.71740464256395,0
461.0,1.280658,-61.85771452459285,-127.24265598641124,16.914771091549994,134.31908876702687,-40.67965009033343,70.72067352161203,0
466.0,1.294548,-128.55970107930142,-122.34291639039856,8.451463839258633,-289.57448142897164,86.25150906459288,-1.0338460711006263,0
471.0,1.308438,-0.0112424806216679,-146.64344126615038,69.99039770902881,203.84795818198205,-60.63686023141311,-33.76325272204628,0
476.0,1.322328,-70.28946846868566,-45.53129062751944,-29.486848884643685,-87.85036048408068,49.2704351291508,47.64554381116535,0
481.0,1.336218,-57.27026399769733,-92.41395935326464,117.3028129429122,-134.32187382992586,173.6326498362892,8.733615538664303,0
486.0,1.350108,-77.17803016611111,57.622973477758805,32.39498887552606,-77.53305184682269,-3.2163075994012864,-73.16145236033185,0
491.0,1.363998,1.9322239439613755,53.7696743584425,-110.59551516535872,13.912126319665235,20.312407035774296,0.4956322929742356,0
496.0,1.377888,57.04971692727855,80.22457685694066,88.69974286413147,-59.218972843512525,-18.57208790094824,47.4351149504831,0
501.0,1.391778,-78.13049522747957,-15.230149925723415,-52.23217641290785,-62.95065302239118,55.32865466738191,33.50102428523891,0
506.0,1.405668,1.1692489540599098,19.287209492475696,45.604710897344255,17.324856443576518,-17.363107143117244,-74.57519141395323,0
511.0,1.419558,67.65602984864105,152.4098245512064,-71.10957774185405,-48.22530197644341,-95.09890911773394,-18.91370830685308,0
516.0,1.433448,82.21990052079568,150.64111157225207,62.400743892703744,2.994782939956988,117.81695635413764,30.992902846935515,0
521.0,1.447338,75.62490843315737,141.26408698404785,-114.92556017088464,-65.52847419238336,-89.93526990219318,-28.18975677545336,0
526.0,1.461228,93.43134642617996,62.33726874941635,69.36832250956931,-33.831173942340484,-18.59920250615758,-33.50033532535696,0
531.0,1.4751180000000002,-47.841997671507656,175.84493273501388,66.16655295220954,87.68380389233097,-85.6213758991316,83.20700362275555,0
536.0,1.489008,144.2778382449672,269.1888335532674,-71.77223482827475,-71.84450143224758,42.9813580136388,11.291868915900396,0
541.0,1.502898,85.63420895796898,25.11173555616664,-40.1540890001554,25.989100300394973,-105.4609836159242,-43.029951816493686,0
546.0,1.516788,-28.896691504660893,180.4564365366643,21.96239607024659,-27.12479423539357,6.489979811162407,141.51866726542744,0
551.0,1.530678,83.20630117252907,196.4413549417961,-54.3710522926678,15.62844782848719,121.67636345866646,-15.404705089123937,0
556.0,1.544568,5.1781894924636,128.28561164279515,197.20075253456508,-24.686109155096126,-107.1723871065955,-4.33257065556194,0
561.0,1.558458,149.62637470734373,149.62615161850763,-12.001678009237114,-40.08538392407173,-58.04955077432452,12.730831269329023,0
566.0,1.572348,63.87473421057403,158.37336377386453,43.52410422501936,-64.07296078802987,7.771924309877747,-19.63547944519156,0
571.0,1.586238,108.13166172315802,116.19330795837304,-13.262750055148762,18.58858796333867,34.49471250184607,81.0493080957857,0
576.0,1.600128,77.34528223320731,147.08404276895692,-87.70478935571428,-229.9764881492934,-42.681993603669184,83.9215633367674,0
581.0,1.614018,139.74551098637417,-27.843990195182258,-26.804993978001264,187.76209255564487,55.0306819056152,-4.0465865201520685,0
586.0,1.627908,-486.2524763312855,873.9027810073617,882.8652823121595,42.37511242519173,34.12179297506138,47.51138039726402,0
591.0,1.641798,327.1203956850752,-371.4727876785148,-734.4037450136776,-79.10677390986358,-44.90302787053915,69.40880153098092,0
596.0,1.655688,213.57971572191823,-138.3463408445191,-321.19063411783253,-17.766279001961628,109.98718615761796,-33.01997637089471,0
601.0,1.669578,-226.3116874258372,274.0570888744961,270.79488626928946,-594.1232618227248,-401.4783390839759,28.68596316463516,0
606.0,1.683468,-47.09459489827063,78.21930406638606,45.029231075719736,605.9554863136814,344.9121818081486,206.195285212398,0
611.0,1.697358,-91.32548919303628,166.5545798322038,-83.47171098558367,-73.88750559803447,128.57123633170738,62.24838295275229,0
616.0,1.711248,-130.15302680289182,254.10388237383705,-127.02708115781589,-101.29861179305954,53.22722099225244,126.73563496505838,0
621.0,1.725138,-101.99654773927264,65.12864447486317,270.5031941270389,163.44303744900597,75.10003978493543,-174.27513169460568,0
626.0,1.739028,-111.36265416687806,147.8295165365936,16.369842099809986,-172.44410534262155,201.53831208036715,234.06746364394388,0
631.0,1.752918,-21.376627608274617,256.4380038560452,-127.04277277594028,111.04657607643333,-32.70610999918128,42.52581687264013,0
636.0,1.7668080000000002,-234.3056922059391,124.60822784771672,-8.041603485254353,-136.85433681287387,7.726865856438923,120.69354917055868,0
641.0,1.780698,-180.3233285243315,-166.316024935102,-99.9775155623298,9.637640263214063,68.1092372595274,26.884197744996182,0
646.0,1.794588,-210.370061829302,270.6432664675554,-32.25802182777834,-2.0526597743689656,135.50806453945032,106.98361351195626,0
651.0,1.808478,-67.51176684623815,27.58770588820424,69.31657865464274,-82.6265032039633,123.54809835437244,216.9641452136649,0
656.0,1.822368,-151.8128400599199,81.59249554301287,-76.58676479187278,35.61635739651193,-87.62826870949777,-21.904245254445,0
661.0,1.836258,-227.2439309396657,162.77718077030906,-248.6086843874844,-19.700811775194246,153.30588314940647,48.340987478713295,0
666.0,1.850148,-167.54783224810984,-120.16612522083354,190.00201216297697,17.701971867263346,-35.94864756447916,140.45308633723118,0
671.0,1.864038,-154.12286266022625,44.5428158698436,-24.10123837554864,-79.29032932621864,-112.40010671077636,39.29928601425679,0
676.0,1.877928,-129.02685164164845,-153.7156594194816,-165.0051814384472,47.83237950876919,-40.76881460449183,124.7909651126606,0
681.0,1.891818,-130.34802722968334,-232.96252195421525,230.7962517078276,214.8372930791172,-111.89243796033016,-21.44659605257192,0
686.0,1.905708,-71.36759038458266,-70.43806096382465,-32.181709617490746,-55.57715042530924,58.46698527638341,59.77614961309603,0
691.0,1.919598,-266.58220677964465,-151.513897450153,-326.8087447255767,-111.62655739823306,-156.1059885845895,151.4921427641363,0
696.0,1.933488,23.65021166506787,-54.75519483050384,209.59293988719017,-13.447255771357703,95.1960915687853,80.56905920297352,0
701.0,1.947378,-249.87688169395173,-228.70201551482805,-283.287135154519,-68.32776094095155,-145.37865840360053,154.00757292774085,0
706.0,1.961268,-119.71284690576836,-374.7702846906602,387.5467411780741,120.30713219871366,-61.11222042032904,69.80861817618398,0
711.0,1.975158,-241.5387119325869,-18.33065168849828,-385.5463101997195,25.690490082569312,36.11008909519757,28.94867375137694,0
716.0,1.989048,-60.463244956205386,-181.4549637873516,82.4208172423235,-85.82184578377027,-8.131877858566796,20.41325288775643,0
721.0,2.002938,-162.80484312587316,-340.1430407410645,-11.845088738117193,90.44896706781468,12.941718686117945,16.34715582421147,0
726.0,2.016828,-21.34585492077484,-139.89665544996842,-163.01362111985588,50.82770705416565,-125.90209190891696,-64.08673675565603,0
731.0,2.030718,-49.399683525419874,-280.9716617864896,234.39593415750784,168.32886918674052,121.06326601645178,35.373380114253635,0
736.0,2.044608,-136.11700927465037,-285.1087650485546,-195.6399007855757,15.028970042291409,-35.77376722917075,-89.61064454169147,0
741.0,2.058498,-22.326775357308893,-195.5708535096161,76.92024320823862,-67.31160212888335,46.44899120086284,43.934848625516544,0
746.0,2.072388,-91.65235727468432,-274.1958280527097,125.25717137753738,179.2528716465983,-84.94625406792852,-75.36079386794401,0
751.0,2.086278,-41.71729807271586,-350.58624742378333,-168.35677020969413,137.9503181183601,36.83042089596392,-107.7058677004458,0
756.0,2.100168,5.893320262708798,-215.2816347062859,346.4803665986743,-110.40100289314157,-18.46341478021774,-38.44411027138168,0
761.0,2.114058,-489.5403795027651,-33.53110929968327,-2305.3523707916893,5.298653292608062,-98.87641238605949,-95.41669738994128,0
766.0,2.127948,-103.59109187532776,-292.51674658778654,861.3514057869077,66.9890032029885,272.116741388458,-191.67278205273087,0
771.0,2.141838,737.1162949038024,-364.0655971200369,1349.775281825761,-28.76090449997565,-88.75867522735157,3.737184938788808,0
776.0,2.155728,671.0377836753889,-557.9994347515014,2311.229641819763,-29.112932325710137,79.44149887552642,-223.13151347201963,0
781.0,2.1696180000000003,678.1112196312241,-261.40196852671016,1592.0151747648622,29.456612057249707,-60.70181497597162,-34.33631833394625,0
786.0,2.183508,-78.31186096271367,-68.02435849490053,-705.643989201969,-28.27983773597172,9.717158856381666,-104.18065330166364,0
791.0,2.197398,-499.3554252907642,100.45840096286938,-1675.456066624052,70.61343095193195,56.28326170310002,-125.25678146441476,0
796.0,2.211288,-388.77604131946015,-94.90836495281286,-1428.2933638146226,-172.2480293063787,-106.7145059819606,-94.07405364553188,0
801.0,2.225178,-205.32464063781936,-112.8754647140049,-499.1484655197562,81.77898267798538,80.8755966651926,-107.6648837524838,0
806.0,2.239068,10.558549253772547,-136.85755957540476,249.6829707982108,-85.15996216556374,-60.910787590989614,-117.9787518025301,0
811.0,2.252958,301.47718271435656,-144.88650238546472,571.6992157874914,37.26648992697672,-49.57547554331093,-153.50524208070067,0
816.0,2.266848,348.3521155863743,-15.021792761735329,524.8246849042376,-110.15461534083737,52.23752867677696,-101.33076994847414,0
821.0,2.280738,310.62487127609944,-86.73176249453148,235.4691110408286,32.2029385777789,1.3231587093039003,-190.2856312026996,0
826.0,2.294628,-75.27576512920096,-17.785197012622223,41.40021958868155,-96.10222019921042,-104.65577893465964,-44.26583957720563,0
831.0,2.3085180000000003,101.73144832926984,-36.50103614158964,-131.71544352100392,-48.737461460551415,-76.96484292055912,-116.4556844114462,0
836.0,2.322408,25.190578676508856,-54.869383829859146,-231.22359995056323,-83.06597808998156,-11.845249354541227,-26.18148789506541,0
841.0,2.336298,-65.16940765658495,0.5275471862441741,-248.4544757467046,138.97923954739056,41.53212357320341,-170.63630301929868,0
846.0,2.350188,55.27654038933791,-78.4090256638394,-37.15747452816702,-123.00868365359028,-75.59197274926964,65.36064553843494,0
851.0,2.364078,76.84030073104259,-26.456503880710347,15.713899154488274,92.75409074156818,43.58283646826642,-159.61492316595726,0
856.0,2.377968,91.3751903031276,40.36305967725252,150.24430728444946,-104.10012748815456,-100.9433701182015,-10.948901343389622,0
861.0,2.391858,71.86444148903126,-62.48648011709119,51.500730286484085,-21.886656906003232,-68.05948965901462,-130.75022587180004,0
866.0,2.405748,30.814960332798844,135.64067595859112,-51.7488914774947,50.20906162602344,83.42002875361214,97.233762544426,0
871.0,2.419638,86.11772828540815,73.2366473099016,-49.68597529669259,43.82481561112064,-14.673413263200214,-45.20818331151887,0
876.0,2.433528,-54.15435471604288,-45.06920979052573,-99.37193341278429,-31.969676632853947,-106.52197942971571,-34.07570860517797,0
881.0,2.447418,-91.30285842040426,140.70152576952768,-88.37052779562445,31.675391305255182,44.01947518968237,-47.82340981529232,0
886.0,2.4613080000000003,168.7663423234804,14.43471478251805,-38.98195739391225,15.82169940545279,-7.112933828916383,-76.05793465239262,0
891.0,2.475198,41.61576605937089,59.96979765288803,22.63505048319876,7.666184272762237,-12.036239602154035,180.36790292387656,0
896.0,2.489088,16.237726661074166,10.161548223505369,4.68714207497492,28.24961154947043,-23.217434023138352,-64.90424699211744,0
901.0,2.502978,66.99606744200935,73.61468518479883,-2.3036425591658034,84.27419974413448,44.90866827723934,-117.41317152690016,0
906.0,2.516868,51.50203241359741,5.375408139954255,-119.71490513351092,-39.6978502603566,-86.88370393870204,46.312361467317416,0
911.0,2.530758,-28.34382571423913,111.82680888019954,-16.984776912302657,101.91895067472892,-12.49492033158048,25.159825908289584,0
916.0,2.544648,98.94460028014416,-52.414068172837055,-93.2969311791748,-12.999287311338469,-3.3052464413533134,2.627534855560477,0
921.0,2.558538,-5.222656603188655,50.64050822982348,-88.46017084041716,12.811581180668544,52.42045684411371,89.5202962438108,0
926.0,2.572428,-76.81896568524533,128.50738349250588,21.880054836172302,-40.28633377246858,-59.633514142209606,-139.96145446741954,0
931.0,2.586318,14.460052343562364,15.988662349251188,-66.09810845104417,139.71287970984116,128.07679352375573,-26.58406655209371,0
936.0,2.6002080000000003,23.33918194102019,-16.624725653746975,-69.07699482804894,-46.20982652735386,-35.03311801904118,49.22952331620473,0
941.0,2.6140980000000003,-19.39639289932679,69.24483576401644,-85.72215334005011,-30.600298490575387,-21.30963802016988,-29.09468032914402,0
946.0,2.627988,-22.76783046408015,85.80850517254947,25.236300259185462,51.19980377753738,52.867725315758136,-65.50617239416563,0
951.0,2.641878,41.97111187037626,-89.12873672831647,34.916311574709574,83.27073256543099,82.1791329671596,-22.32129654045696,0
956.0,2.655768,-40.45066352687468,138.2252520367881,-148.86819795535732,16.97962297300401,33.254574441599985,-49.67425770539457,0
961.0,2.669658,0.9330042082481924,-97.53230511754576,-70.24348640351565,47.74267628965548,51.08165219123411,-43.69083852363137,0
966.0,2.683548,-14.050462641138624,69.01645184740562,-87.41880390824277,52.11014503862357,53.396982546454616,-30.675568007173418,0
971.0,2.697438,76.61037294157947,21.67794418345791,65.3371488455224,-13.123615600086293,43.05237641554324,14.266545322991812,0
976.0,2.711328,33.70661498648618,-113.21326973533247,-32.41273452165456,88.78585378351136,67.02351569391634,60.188777281587576,0
981.0,2.725218,68.05140763992335,-71.06396799974803,53.79451150739146,7.802460325937902,-60.06987816395039,-72.33663546943012,0
986.0,2.739108,-45.1081001614991,73.5318386541354,-95.88834632840047,88.61244008424775,73.82909523421667,-34.0360223956207,0
991.0,2.7529980000000003,69.80494358039081,75.02025700603716,84.39818412472185,-165.52139107774593,100.21326685834784,-70.84560126583673,0
996.0,2.766888,-42.65631191129482,5.725581303649324,-17.837065906465376,-14.139301115723654,-35.85531929576079,39.53304971004231,0
1001.0,2.780778,6.810214120213956,-55.700312147588896,27.91302377567268,120.9236692563598,-43.72338370125691,-10.80692806378674,0
1006.0,2.794668,-1288.2346864389056,139.6457125900691,-3358.216145792,-54.51520013915189,-219.3514814542324,45.35343497702864,0
1011.0,2.808558,1313.2792899100705,-13.451830084278654,3773.196984940033,-76.02005566164657,125.7568842771881,-0.1087681538809093,0
1016.0,2.822448,345.265705103703,-17.180935791338538,-0.5571389768772548,-16.085406343184225,32.23512507374315,-74.5524440019139,0
1021.0,2.836338,31.92480652568035,-1.038958882083275,-104.96200009925906,-57.37535894388136,-27.35203931954446,-54.53489831593232,0
1026.0,2.850228,67.58563941090088,-96.33458699518349,-92.88888630912083,-24.84799084452833,-55.363662588195126,-32.132908006838164,0
1031.0,2.864118,167.83808613343098,-51.12989455327872,-99.97411372113814,-12.461564730510991,-93.05844241959872,-10.781167641447308,0
1036.0,2.878008,136.53470215579324,50.62785934549032,-86.74900347538045,-6.751335361608856,37.63888401155389,-75.94722696721331,0
1041.0,2.8918980000000003,-113.63732035732184,-106.45482811819052,-222.86005713875096,-178.48932229384715,-118.53465114501245,1.2326615323111518,0
1046.0,2.9057880000000003,43.94435569198623,-55.3011956401857,-15.979739656392496,-10.223619806801857,34.85152404514938,-57.674759709389306,0
1051.0,2.919678,110.97317656026644,-77.72006144214585,8.027612792194898,2.5850925858168843,-53.363542345986986,-47.42177682052826,0
1056.0,2.933568,84.22711822836581,-197.6579763785112,-171.45705045192022,-44.63316137921104,66.23755692217199,-22.553825938040767,0
1061.0,2.947458,27.201924821280222,-116.9360057503078,-112.57960127802473,16.18796196389127,-65.47553075796505,-26.034892501910225,0
1066.0,2.961348,-33.085972135855734,-59.85723189127229,-42.83629912651429,-41.74067786137283,7.782645347710396,-65.2256232133156,0
1071.0,2.975238,-32.71309061879085,-126.67574224791298,126.03501778634995,-122.07631305874344,6.369666221464733,-74.41778502095005,0
1076.0,2.989128,-10.673110974694616,-85.48491327663163,-32.578317002035405,60.83785363297181,-31.39541337560725,-39.688905780621695,0
1081.0,3.003018,50.62440085959342,107.16829829601976,165.6759907569849,41.44911513859128,7.007366378549454,-196.11460162158852,0
1086.0,3.016908,-309.8439444961368,-202.91999316302287,-213.9367471925331,15.770969782732834,-43.32788567879653,156.23945225680075,0
1091.0,3.030798,-0.3142491356251184,82.51602956893386,147.72618426472783,-117.07810228071664,-100.21060956825666,-61.87408249997052,0
1096.0,3.0446880000000003,-74.55589191478647,123.1126521163756,-51.83969240881295,-22.76950171414481,-23.131605135699605,-15.432359283543883,0
1101.0,3.058578,-107.03415509400124,63.3645552730145,128.98245794875515,70.70103777743876,19.22929131542861,-48.417350508559856,0
1106.0,3.072468,-177.24451992438793,-105.02206370578344,-89.91199805795873,-54.81607134012925,33.90816905036229,24.96357493294044,0
1111.0,3.086358,-6.960324501246024,72.41546981708413,63.395113056017934,49.91277835987701,41.31292059391711,87.38660483602501,0
1116.0,3.100248,46.527110689798725,17.745259081336144,148.74386208879534,-65.9680840219718,33.46038210034855,-133.79849099307154,0
1121.0,3.114138,12.128689345033974,55.52095734232914,34.97740223649669,182.547147185864,198.72943025585488,66.83217433376447,0
1126.0,3.128028,54.608308937040846,-0.8423196412037681,102.70253234280112,-63.12476236329736,-71.8106036892381,94.0718301497225,0
1131.0,3.141918,52.58314070197319,9.06554631664902,43.805067228532494,68.79021378166775,26.875223509561103,104.28487510751673,0
1136.0,3.155808,115.43576971238504,37.49841762915358,117.61925977678558,-103.77275167646366,-74.90638945560246,-16.058078760868995,0
1141.0,3.169698,-158.7646637767109,52.33057671534049,-23.92039177126795,138.1410330362915,61.168902340850025,-35.1946778658031,0
1146.0,3.1835880000000003,-105.01340087831692,106.65083131251929,-13.476348594288094,-59.94156117242089,-31.679939815839127,140.70148550802955,0
1151.0,3.1974780000000003,82.43630524604265,-18.4349601013172,102.23525042798704,-31.94504867481032,-91.3954575286484,29.552048778205744,0
1156.0,3.211368,33.222465770169094,-26.598923538964467,3.823109558379409,26.02957492927346,-79.56864466163357,68.40103096734846,0
1161.0,3.225258,64.75436332792597,56.74422557097125,11.066139817611472,106.17966374534336,-84.86831928424961,121.4227995790684,0
1166.0,3.239148,47.96424002193002,7.067742530184521,28.160801626755365,-264.59295052678493,-197.55555713293228,-55.14212376328043,0
1171.0,3.253038,-22.31154269365829,29.32755664545045,-130.91383663330848,101.94385792324516,105.74764322498211,-30.26680247833091,0
1176.0,3.266928,95.2290719870596,37.83520730425533,-76.01079667944046,55.47927324881882,-133.17761383656074,0.0808254682688911,0
1181.0,3.280818,12.477293628133392,43.16596123536032,-87.28930210838949,72.13936195004416,104.42057751096252,26.16472156815384,0
1186.0,3.294708,38.59160438059602,90.94218221091823,-289.9099703260833,52.99577160559542,13.904973398789588,-14.172655981870946,0
1191.0,3.308598,63.82494624153834,50.15031633062078,-21.73121585019776,-42.29835749284551,-140.01633413905108,-40.9745216734092,0
1196.0,3.322488,90.5028842373998,53.49502931641904,-52.70737549704934,79.50796712195144,152.13101943545763,-35.66259168674041,0
1201.0,3.3363780000000003,27.5924346296775,-114.9346184827201,-129.85030644537588,-65.1705346279652,-164.89111235814374,-84.86658824311552,0
1206.0,3.350268,-83.71540344176856,-48.0064856721786,98.31928869776588,196.4368675399366,74.95593675635142,-31.328996813622258,0
1211.0,3.364158,127.49151889408596,-84.34141632776839,256.1611474649732,40.85945598696389,-53.430763513060825,-72.74893337315649,0
1216.0,3.378048,-212.7809013618442,-35.263879708746266,111.70298305175648,-35.922327795920324,7.409439050384464,54.1199842216711,0
1221.0,3.391938,35.14652239420454,-43.67098152053951,170.76537836399785,22.012395629921112,82.0920248288607,-20.3802438284435,0
1226.0,3.405828,-7.611551009028178,11.26542930408676,201.8450591535829,-7.717617768429768,63.31470542420077,41.831223697597416,0
1231.0,3.419718,-86.2086477741409,50.463222922815966,14.218281825215731,42.15614439865253,-4.952371430388599,-20.02923827610536,0
1236.0,3.433608,24.20940099146396,51.46478462759648,72.6543849384846,-17.034115936024552,18.78623246347664,39.15794392733277,0
1241.0,3.447498,-2.0947197172250327,-54.6649018851106,35.40861105785346,-15.753409547048983,23.367833849538307,38.20923736884696,0
1246.0,3.461388,123.8620576944428,68.2668381037687,87.68470727916743,-22.787065876751825,43.69777348108437,2.785942010784381,0
1251.0,3.4752780000000003,-63.78786362766943,32.89612307408964,1.0911974755204668,-21.79604620694576,-48.69632669720061,3.6574482487342506,0
1256.0,3.4891680000000003,-37.128073777807394,-7.9553946561206175,163.49645741357253,14.421129556741176,-32.77534509173998,20.959739480198763,0
1261.0,3.503058,40.7601598949175,-174.21276631324506,51.68061472683413,11.027733254564792,-86.45022557866137,52.5468545693599,0
1266.0,3.516948,97.90046146066295,-4.4007034896164114,54.4891958766259,-9.202525933098416,-18.077620677853044,-73.45633066765481,0
1271.0,3.530838,-104.0006450129238,67.3260779350758,-135.8443571988222,-106.87106664580182,89.05536049085717,-85.48571058504355,0
1276.0,3.544728,-46.423057442515656,-23.067656341155864,-115.20666345955902,-56.96103555611212,-97.83164283116272,51.98821995980098,0
1281.0,3.558618,-29.13507548297315,-42.90431074272124,-13.476917966465887,61.40882704411899,102.62473048963398,-39.64997801904451,0
1286.0,3.572508,-42.91985213330352,6.366033661379541,129.62064249560967,119.13127840553526,7.851465575720131,-2.085129588052041,0
1291.0,3.586398,-3.587443808921748,42.27470153204331,-65.66766399786957,-40.31814569452485,-5.566908060154424,13.830517963001697,0
1296.0,3.600288,-71.17355228356081,1.5609904744971033,29.23712181455152,32.83331767798518,-2.195554792352869,-32.2268890753153,0
1301.0,3.614178,-158.28636977872435,36.45434257906079,-117.91870908628522,34.715725732746456,-45.51444950046477,-61.71304730952971,0
1306.0,3.628068,-17.80471694674593,-17.140501699373687,77.00865300760384,25.18626921370828,-120.96384984092488,46.329218642714864,0
1311.0,3.641958,-111.38266852301588,11.2266216485674,22.599805620109848,-4.848502493906576,19.02163991053126,-20.99122667982225,0
1316.0,3.655848,-221.009752514156,30.39452511867448,-152.09957492891454,1.9521157112465344,82.04345327719697,-27.63192428739412,0
1321.0,3.669738,-84.18103594792026,86.24223494430464,-88.34320965273365,-26.606713224015675,-0.6611068550735746,32.29717424189094,0
1326.0,3.683628,-67.9198741937738,36.05367797379901,-23.80774551176688,7.1012577144148015,9.02671088767794,31.157161948599786,0
1331.0,3.697518,-341.4073055444379,6.8039904653206165,-389.4585832887111,-30.79996441152036,14.546246345509656,-50.18012608788335,0
1336.0,3.711408,-61.4645588116024,116.08610969452688,-14.022355663813237,18.90436503380302,72.36448775298851,87.39044331556114,0
1341.0,3.725298,-139.09807523892775,-57.29218738502893,-95.39229036643188,-34.28934064046997,-3.389212339172856,40.819254262653686,0
1346.0,3.739188,-264.3057768481752,120.8850365499867,-280.78578119880706,-5.462492559464688,23.686872850994583,8.865438449057509,0
1351.0,3.753078,28.488790089718545,-0.3142439279303097,7.765192393789533,27.651785871966936,53.34209459828839,-60.99634732419405,0
1356.0,3.766968,53.603569751404216,43.59677222124835,-47.386031375308974,-16.047577811791598,85.59632414912198,48.71206351838662,0
1361.0,3.780858,-59.51223367431233,27.26766130810186,-340.15065562861,19.88545441575326,21.10826681198072,24.348855237101304,0
1366.0,3.794748,296.2523547015164,145.3157076113967,295.2928582613408,35.31996999738358,37.037024308980826,66.73182560566514,0
1371.0,3.808638,-67.02390028104293,-65.34707133994453,-455.7496894333116,32.982549131154315,-10.804866302261525,17.76944635505344,0
1376.0,3.822528,398.138025301684,71.87221609347108,583.6921484540109,50.03756309147081,56.74063650131468,23.43454126639768,0
1381.0,3.836418,-97.31005979646692,-154.2093325796652,-426.1787424757712,71.77488089976568,3.4810458431822537,51.4557913271828,0
1386.0,3.850308,561.0380287485351,84.19064245668173,509.5276750227052,25.16538569391394,31.119686469588405,54.39019723543392,0
1391.0,3.864198,-106.0836345405667,-166.4625093519309,-299.51731691012327,22.43634402061701,-69.50946422633868,60.88999391469559,0
1396.0,3.878088,293.4281649817547,3.2468214206284145,301.9501628020874,79.27718561192637,73.42900650817697,79.80416543181494,0
1401.0,3.891978,-102.4807000930223,47.56713572202994,-142.48266191393094,8.713189880850434,89.04214884689034,18.802969987193944,0
1406.0,3.905868,291.31059713016793,-73.16464144917916,229.6157762251186,-58.295402241513216,-35.222840698141454,43.00423368863268,0
1411.0,3.919758,-144.69996101909783,-32.83207596283003,-48.14304125748546,39.97457803806201,10.645260318846285,-5.262505112813601,0
1416.0,3.933648,190.99089524834045,68.51184986257765,175.61794733288292,-6.674996950315188,136.71324397487737,86.21278856489735,0
1421.0,3.947538,-115.24681783471632,-114.98859502675737,-103.55089189925496,-88.52758981688673,-71.21164626879748,-80.29508863610445,0
1426.0,3.961428,42.437424094592046,69.83488933021985,40.410011064015805,14.008725510547343,0.5302688527473416,31.5028850690667,0
1431.0,3.975318,55.11247852198595,-46.90594175546578,81.58732187985203,36.814838231243854,15.302004083046956,32.884663865907406,0
1436.0,3.989208,-48.1559126254967,-54.84123526973467,-63.55684854499902,-46.897509228507744,-14.8496537737457,-89.79184712373404,0
1441.0,4.0030980000000005,64.52012583120958,45.37071643055109,83.8232754961931,10.986453637634533,-6.434019738125302,36.72203770246894,0
1446.0,4.016988,73.80179720221611,38.77511119495637,128.4337466005597,-56.18210160763026,35.73336137114558,-90.35549673694152,0
1451.0,4.030878,-47.407988714871166,94.8540536681991,-85.44074216881735,1.9141803771595705,-31.48363518114062,-28.082060072596807,0
1456.0,4.044768,-16.010219580018948,-89.14530991452344,-73.09048148491019,-8.575024996767056,10.164324254996377,-30.374759871635845,0
1461.0,4.058658,-89.39724009364802,-103.71273337099838,64.63056410067445,-4.475427510609208,-112.60555171460882,-75.91043773801174,0
1466.0,4.072548,42.34484266532631,142.66257037812017,-120.19267226501704,-175.52128155991392,-58.29154419497946,-80.78878146714383,0
1471.0,4.086438,112.00302337897554,-36.63309833253031,56.07306063664362,97.9451296610101,-22.8226148263641,-152.08483228766306,0
1476.0,4.100328,38.497939828812136,-65.16149114095813,-66.0176994861062,-16.659942363008497,0.8096492517472358,45.10777543316762,0
1481.0,4.114218,47.36947465084795,-43.26300918139,-232.90449387110823,-13.832247481801474,-9.40217116130377,-92.83212223184792,0
1486.0,4.128108,79.09764438900321,-91.49355222600332,-5.4453574615126605,0.2259225467955421,-75.73588557514381,-49.02994406652708,0
1491.0,4.141998,-16.477809374566373,54.477776198965984,-166.31856992759828,-47.9578988176154,-98.82178662249254,-45.96243114287287,0
1496.0,4.155888,-42.03042903549384,-141.2922815778083,-19.26704629211403,-20.82959824361384,-65.09832647917546,-122.7781087444572,0
1501.0,4.169778,-30.082205721565764,-150.71871330223067,111.63405598654272,-104.6851150455158,-132.01001960799945,-70.61433235844274,0
1506.0,4.183668,-138.00010191802406,-40.09448681500323,-287.3975229856992,74.55403488493309,-10.357789028290746,-60.35495215623976,0
1511.0,4.197558,7.163091032130012,-63.69912790074133,46.24291079638685,-63.8595512737755,5.8096638753158665,-189.7478353221528,0
1516.0,4.211448,9.0105309809577,-86.88305282002516,28.65084508894797,-3.5352182755101182,-68.71119164249427,-81.89932105423534,0
1521.0,4.225338,-43.024265279351866,-95.65684355171686,-84.82099320319547,16.25382594313357,79.18057219914027,-76.97827120307763,0
1526.0,4.239228,-25.0038227510687,-69.82697473100835,-177.4836415883779,-155.4377742217209,-93.97215630794958,-130.47430308843605,0
1531.0,4.253118,-159.05638830498725,-82.44022756264067,-129.13102053904873,82.04982191612004,76.91511953507202,-33.724912334644486,0
1536.0,4.267008000000001,209.92393757851664,-107.30404491701644,127.13875087907424,-13.271441185115377,46.40871344851869,-129.15682931129868,0
1541.0,4.2808980000000005,-70.60308324713911,-131.34024469938117,-211.983816165813,9.424852529663738,-14.251589416006812,47.25354506868101,0
1546.0,4.2947880000000005,77.97456034830783,-154.29530621555006,54.16899256879896,-94.42282837068365,26.47060115003312,-161.3513823492366,0
1551.0,4.3086780000000005,-76.85545557546655,-63.65694623516104,-102.54659043129725,55.347335490984776,-0.7100691165282769,74.24838484477549,0
1556.0,4.322568,-53.94330695740684,-152.695992139486,-56.72781475335323,-41.0423747919366,10.654051714753727,-20.519580878367435,0
1561.0,4.336458,-9.366156522257365,-11.578946093957246,-76.53375664449938,151.27881246743144,110.366501166808,-52.33621945885766,0
1566.0,4.350348,-84.7954277291092,1.6385397147697134,-28.89146786745877,-119.62649137524332,0.7366277361194591,38.80612401809272,0
1571.0,4.364238,47.62162274227386,76.74932005164676,153.6268603889895,112.35136669067276,139.87697621258604,77.23703451508119,0
1576.0,4.378128,-80.30789768778419,-8.101692272157955,-30.316772463766675,-111.71358065746868,-52.69541900374813,110.80393963143428,0
1581.0,4.392018,-73.99167470303844,110.7928556954627,39.032176862742126,-5.511400592370958,-127.19943977124248,-15.808178729945515,0
1586.0,4.405908,38.65380214896007,-41.58280243444184,159.15899089655375,242.5839598841618,122.52926976793036,80.45964542137314,0
1591.0,4.419798,-216.2122667018501,235.49059585102088,-213.3921961134765,-86.88509380351937,-4.424882288586503,16.11871802902832,0
1596.0,4.433688,17.47628225187301,178.88895402021677,207.3744804896849,64.58948285416398,23.162731026639893,69.43757762883428,0
1601.0,4.447578,-66.11319571749628,226.39107345200307,-41.647145678632015,162.80476614966602,133.26101120478106,-38.798784836639086,0
1606.0,4.461468,39.78596288998031,58.06247170248383,107.1258407754336,-109.42076830434486,-140.96692279796798,223.4109521335756,0
1611.0,4.475358,-59.54008411176926,216.81586553197377,-81.9508124059341,-7.493785435293587,6.845001252701721,-129.70352011394354,0
1616.0,4.489248,78.9021875067972,111.53448145766468,47.36581475280355,121.7246964652688,40.37290883273712,110.09300619449834,0
1621.0,4.503138,-0.6601927903817959,185.87178394982587,41.77801341689698,12.685991485280615,29.005488406919987,-12.172732463457216,0
1626.0,4.517028,197.53118813693783,80.10229920900406,44.31138809089354,161.76557761266162,61.49483720819621,93.18124695197082,0
1631.0,4.530918,178.37901346902447,11.09631662531694,35.46407071282432,-97.08557897411926,-48.818897898259166,-44.25666584909113,0
1636.0,4.544808,212.931038506966,-1.7439710781144502,149.08107153709824,-114.01091233922683,-128.12781401170065,-107.57688549356293,0
1641.0,4.558698000000001,131.32144896470226,12.34244619598569,41.25080617562335,37.09250485391396,93.61773655906975,15.52878753189936,0
1646.0,4.5725880000000005,180.29481753929133,122.66200326821026,9.342008283531882,46.66869931743989,97.31738500050164,53.63445670794097,0
1651.0,4.5864780000000005,223.72877861873692,-20.331086659774336,-131.23507327668946,-11.072012023533771,-37.1077808503551,-110.56574088805178,0
1656.0,4.6003680000000005,351.7378537154241,-87.09973387229974,89.33558056460463,-50.42157500009996,-6.557964072439827,-11.60878750449238,0
1661.0,4.614258,71.0358089901815,107.33116317964462,44.35974809370019,76.31051469481355,187.35678688977708,-61.90015079845215,0
1666.0,4.628148,75.09572448411745,24.231750985307244,-45.92000666556562,-258.0131026670649,-117.53710412854662,-126.64857344417268,0
1671.0,4.642038,170.67989809924995,-148.59771752068207,-8.91633078285843,219.24731025268105,90.9714822681248,-43.21755110359426,0
1676.0,4.655928,-73.32238427564022,39.02489221286864,39.28205451460594,-12.777924683526386,91.75669891958252,-37.65470730269324,0
1681.0,4.669818,121.6758177444596,-54.435167579196886,73.52257319447993,-44.554087666079546,-94.64450053229471,-78.87445400716788,0
1686.0,4.683708,140.49301164855012,-110.73871745988492,15.080765205494032,9.01585410652089,-28.77092330874564,-27.411107083057303,0
1691.0,4.697598,316.2264959019797,-219.43845910201424,104.15860524156196,-78.6404567558503,-14.973391111335207,-143.92522626763144,0
1696.0,4.711488,176.20070245609762,-52.96843708577863,-25.68493737421914,-15.015855778503187,112.00098040464098,83.74577155375633,0
1701.0,4.725378,-10.320696702041644,-190.2358712007404,-84.65950447684939,-45.955722588379246,-68.97742807704824,-23.694801087955813,0
1706.0,4.739268,135.9697636452335,-153.79946683117984,201.7388586541489,-36.21628296393402,3.411079086832302,-35.3094860294747,0
1711.0,4.753158,86.9082721219552,-315.17448771228555,148.05966258840965,-170.90049315476185,-119.46492534045711,49.98660066631854,0
1716.0,4.767048,35.75360450253215,-53.46963518571816,-23.510777875934384,2.646852236691256,107.87790061297945,-10.08971800543443,0
1721.0,4.780938,-77.30163586466945,-87.09795856972369,29.6964775939245,131.3547357459869,-30.958487051489524,-39.50337806146968,0
1726.0,4.794828,-102.42632447659294,-132.9168395633388,11.117088202358438,-107.64244435352454,-23.21920054563306,81.39142192796061,0
1731.0,4.808718,65.31612188399755,6.358580573497406,127.7573873846248,52.18107796540532,-127.910702022794,85.0936265477127,0
1736.0,4.822608,-50.51288889191224,-76.08427712998521,49.661055851887184,21.63871641429977,-69.85215427904267,-115.68952490368542,0
1741.0,4.836498,-70.91326329539139,-92.954118340334,52.67110963025101,51.78281715727913,-7.33636196283927,128.9235692329413,0
1746.0,4.850388000000001,120.41120648351968,0.2013512333695288,240.15805205583487,-152.63629406368744,32.192552461365366,-131.33803208372467,0
1751.0,4.8642780000000005,75.77054452165744,-35.99894240750743,91.48993922647232,79.10957215746535,-112.02931901022792,47.27497731483896,0
1756.0,4.8781680000000005,344.9726965069629,-22.228427581072616,315.0422696031756,-3.3892172111312746,161.06427317723637,20.639687609210974,0
1761.0,4.8920580000000005,421.86649087207087,-184.97753391307128,288.34389785822697,16.700507360815536,10.443934698921444,-16.783768057248828,0
1766.0,4.905948,342.6364511217438,-195.9480276494179,368.8609106364232,-2.41670845540336,-113.06776469380436,143.24576052435037,0
1771.0,4.919838,241.44090424772176,-426.0749608472297,295.4591822459156,28.55758323416405,12.489782092134568,68.92194730234075,0
1776.0,4.933728,202.37613748227048,-373.0832538650081,305.54595298292645,-15.35386248332654,167.3406479834673,-146.07408283779927,0
1781.0,4.947618,56.71790775514015,-442.63801778146114,-35.018887695835595,-72.06486935361971,-169.7621692252174,38.72298457061321,0
1786.0,4.961508,199.29314755939453,-517.5500933675285,591.120424801609,-61.86408420046487,-52.08127630591107,64.92089662956724,0
1791.0,4.975398,289.130865932,-653.3225192248476,787.878959793697,62.508441277228336,68.67114212366512,65.67344529981546,0
1796.0,4.989288,-295.8745660941031,-500.50428178616016,-30.67291566091002,-93.21489293444584,-86.91583744659481,-26.216667108085908,0
1801.0,5.003178,-254.90896224462475,-843.9842973546324,239.5395644481779,20.46996227341758,2.4407417244196097,-133.4485908783086,0
1806.0,5.017068,-291.0586618127596,-585.1428317221599,236.80899110179092,-164.45277322754893,59.72066141289832,9.52259021494847,0
1811.0,5.030958,-260.9445885177843,-785.6482531548004,169.56048592527569,-20.3563271219256,-164.03426155383028,-9.915432055986182,0
1816.0,5.044848,-475.9240936638453,-653.790652347014,335.1835923472166,31.97902585008404,69.26589502545602,-45.98006390903369,0
1821.0,5.058738,-477.6592646368331,-548.1483206085716,40.68711779761678,-197.65228539186245,128.40086824236562,-108.91420430403542,0
1826.0,5.072628,-420.2968681020426,-740.2425559726935,175.8736938208192,3.112541865650458,-54.71953526473053,-17.542400940167468,0
1831.0,5.086518,-589.1041670641766,-668.9923975944023,186.35593673286823,-7.99557643614547,-9.827904466710688,-69.32881109071646,0
1836.0,5.100408,-429.2383561403324,-500.888862826166,-30.50211705290325,-144.58052806952824,-53.45564349322314,-80.09940238760925,0
1841.0,5.114298,-652.8398060507309,-449.66262438822673,-50.67409668655024,28.479950481328665,-1.3160836651549026,-222.8022954601329,0
1846.0,5.128188,-604.6018637647238,-423.93671958506695,91.20698375866344,-67.63762646971993,-37.093327356792415,14.698338927778842,0
1851.0,5.142078000000001,-493.659687696627,-379.3433396255925,-174.0485435724121,-99.81478638277224,-43.62928221128991,-149.8682638024344,0
1856.0,5.1559680000000006,-502.7183524712399,-499.2020594700757,-236.5263773941849,-6.412982156931797,-147.29632856625054,-10.742594572826944,0
1861.0,5.1698580000000005,-458.2451182408021,-155.1755770047985,-101.93676590599476,-4.622167259405364,-152.10223536027863,-54.077951647315416,0
1866.0,5.1837480000000005,-491.425172366758,-156.30026001856058,-293.4075228276914,-136.25941322382846,-65.84221387165975,-49.54967112378346,0
1871.0,5.197638,-575.8096658533398,-2.874024371696692,-209.4808318722061,-18.113592823064486,32.33264189978213,21.51967416298855,0
1876.0,5.211528,-547.0097363492227,0.3922851681696411,-220.7387964636813,-80.3586181321208,-12.461616926304,-98.40873402079626,0
1881.0,5.225418,-462.8481096847432,218.08849407511377,-196.2499070937356,77.20345627005285,122.7338914442679,46.75203296318317,0
1886.0,5.239308,-576.303052251598,161.51756190338654,-418.8906982311778,-8.465775679539504,-144.92438511038023,-150.98955926181904,0
1891.0,5.253198,-371.997774184222,395.3754717177514,-303.47556147295984,112.16884353699112,40.9715536189825,60.76401111326308,0
1896.0,5.267088,-459.7936537432024,433.8741038939249,-458.1741052576424,-62.45041473087366,-52.05305980530065,-25.991992160359885,0
1901.0,5.280978,-504.96430242670334,615.6686144446986,-306.4456458005691,61.95403282997211,29.08914822274208,24.06748500617678,0
1906.0,5.294868,-317.7127162091928,387.4338288297352,-206.7932961715013,8.747594151474853,18.8747583122093,23.996995143090928,0
1911.0,5.308758,-252.32671601919265,535.4482438487755,-355.6477767048965,207.4560183224445,95.27812093730104,-88.7785153962037,0
1916.0,5.322648,-282.8182622861593,542.5008296642859,-229.9414136012749,77.83915773744316,-71.45985252913063,120.2590711480792,0
1921.0,5.336538,-370.50335857756966,349.5779897111313,-123.16000269774352,118.98890316114966,12.960655489715052,53.99069063665545,0
1926.0,5.350428,-126.61369205166484,503.3833229201949,-465.9171473574312,136.79269665539246,122.58358282338028,67.38597431890744,0
1931.0,5.364318,-119.40667076919507,787.2158818365414,-323.87898943027983,198.8148859490437,219.16736351627023,-74.84531312577074,0
1936.0,5.378208,-217.4357464399952,636.182283469008,-343.11792165906587,192.45999783302568,233.7196726026609,41.49973923738748,0
1941.0,5.392098,-108.86942527008604,315.47690280975803,-387.8665953980964,290.7346813756394,-207.18482067361748,103.2990169862034,0
1946.0,5.405988,-501.9580379053272,659.0712134927414,-329.51794796234634,71.08544030178797,348.9576456252015,15.885573958745864,0
1951.0,5.419878,150.99342001650615,404.1890316345513,-417.1667747411234,300.8873771718352,-361.3363434758031,56.85734760639964,0
1956.0,5.433768000000001,-4.747346232209864,607.6614068281121,-405.2561636198361,187.13441340640549,318.4265251318727,108.02084131854969,0
1961.0,5.4476580000000006,107.7458124084715,698.9099881711529,-323.45823638303364,94.69288149673298,-49.92487257465409,92.7787093022138,0
1966.0,5.4615480000000005,30.04603486402233,749.1646080761375,-275.41519010408666,122.5651635263076,15.311919778462851,105.84491151554896,0
1971.0,5.4754380000000005,179.47557358820427,634.8796692172464,-167.17317150375086,204.8508152422897,217.0767117700097,142.51165877902156,0
1976.0,5.489328,359.05659319454725,495.81778502865615,-45.707798720117,57.78395754558705,-101.29272039668854,43.23610532971399,0
1981.0,5.503218,320.19099912007283,466.2677610784526,-140.22787638138567,-71.98863591575702,-75.63562942191744,58.81379208187541,0
1986.0,5.517108,351.5658549102399,566.5452473100181,-80.93894097548196,223.6615184663962,269.85415904969415,131.00427437406685,0
1991.0,5.530998,470.3193190110893,314.981701664718,33.42172042244644,-118.21278459785763,-132.11872917253564,54.0562734963278,0
1996.0,5.544888,457.3881548930747,273.60721163217886,-66.38081882520005,95.82315649248926,2.15892555135342,-34.58494066018322,0
2001.0,5.558778,482.3348120307495,27.59432199956308,12.435186360236244,-129.44817781346535,-233.3940359695879,207.6532777386817,0
2006.0,5.572668,465.44123845448377,226.92101103842955,155.14983214365606,-96.57068384346744,-41.71118782913388,-93.79804185250111,0
2011.0,5.586558,554.8636367752496,16.77133412416226,190.02852786285652,141.0577692555131,-25.15973216680604,170.66543954199233,0
2016.0,5.600448,646.5960243925329,-34.9702380774363,77.12813915084132,190.3741492323379,18.99763901585724,145.62422378561308,0
2021.0,5.614338,637.3753144954233,-121.36406473371105,185.29943632971137,-146.49613083865086,-67.94580145350994,4.44225920797817,0
2026.0,5.628228,491.8898025299342,-135.44161907045577,233.6209172551732,29.006332575111514,-72.19713702000095,134.93740335784184,0
2031.0,5.642118,535.8927826869335,-41.50334122060195,376.0003992744604,89.16203204268739,7.389494333306494,241.41841291700177,0
2036.0,5.656008,451.8758396571257,-50.15035778515994,279.63806588406135,-3.768376731881439,-33.19319898108358,-12.392481662702224,0
2041.0,5.669898,504.02113993847325,-128.8572836795518,286.18252773937,75.13874169899033,-33.96032180360031,195.9919884303211,0
2046.0,5.683788,423.41555624054473,-48.14738701547323,177.4882884836939,23.185752252511072,70.29987717024045,183.712475507178,0
2051.0,5.697678,547.5268519869032,60.90922834103834,398.0702407590719,51.45135735676803,-57.629688280381686,55.45432567551663,0
2056.0,5.711568,319.4128699806162,25.569255798396693,197.27640930653672,77.22459516414742,0.7901730680353687,221.9201675670331,0
2061.0,5.725458000000001,313.2096554507208,123.1099219564903,280.42738291320273,-456.03489101765376,-173.19158160683608,80.40557460998829,0
2066.0,5.739348000000001,103.60205876827504,-42.032930313104245,222.5291345960297,21.018887546938643,-94.87698544582864,286.36568722781266,0
2071.0,5.7532380000000005,197.1473305398559,285.8833697425158,496.6058223976755,232.2068206823648,164.38626982320702,158.39857285995137,0
2076.0,5.7671280000000005,-27.97905875549404,-30.61347571676285,141.6469904208463,-207.1835157100596,45.226254934363176,150.85027738784177,0
2081.0,5.781018,-30.42260585212456,148.89411481621642,373.01246463322366,-114.61202889807583,-30.925569169108737,116.12236574984875,0
2086.0,5.794908,-130.33076514326734,41.75363867163782,287.7148995224868,-14.10958924136537,108.24535909622077,89.88724407468284,0
2091.0,5.808798,214.36477323642595,7.243184748973917,267.2974673912684,-186.7139707139557,-122.54078472775016,26.151611196326424,0
2096.0,5.822688,0.8374707819882019,67.26508512061785,172.62419829961493,-181.67772806005067,-25.39068694840789,63.13120614700934,0
2101.0,5.836578,-127.30469560919424,-66.16393051218589,-10.921410144819404,-99.51532658842032,-105.8012965836139,-12.78413172454308,0
2106.0,5.850468,-74.28388857021118,116.47735060696228,275.4998580932198,-243.32461356821764,13.438097238964485,-97.84948577943342,0
2111.0,5.864358,186.5035796629878,-45.77350222441852,3.842142050446274,-135.1171062710191,25.08476142859148,96.06416091606523,0
2116.0,5.878248,-38.60684336804973,-9.5498655068029,-44.6045552500229,-145.93033024051127,-49.56481798984163,77.71887744908229,0
2121.0,5.892138,31.026008467042512,6.434881248298881,-69.91012322692475,-269.4398418517668,3.2676014578658084,17.63661257511663,0
2126.0,5.906028,149.02818419355123,-26.295024890135977,-129.48527135543296,-166.9256507740316,59.393463202944,-13.960959639513812,0
2131.0,5.919918,-24.41468048385392,-6.138935214230742,-82.20549432868617,-322.8090048149668,-203.66433843763383,62.64221620059979,0
2136.0,5.933808,54.077099903749335,-78.57707456711296,-117.4620911609806,-285.7661213489328,-92.01601314981964,95.65403213424791,0
2141.0,5.947698,156.364410691833,43.029904665516256,-43.31938127896277,-225.5388499434133,-15.824953141939687,192.82155981294144,0
2146.0,5.961588,7.072539692397463,0.4193364636048819,-116.76197732408632,-110.4552448582093,-33.84289247801781,-71.03009068005245,0
2151.0,5.975478,155.1710080479709,-226.21470151169427,-153.89057158891296,-47.77789518792069,24.555275739084,-25.615604077807944,0
2156.0,5.989368,40.77475221819309,-110.83350756372778,75.52870141675872,-86.90704043737412,31.577989847780643,41.49997746771531,0
2161.0,6.003258,-26.91310770326457,-76.4693867324946,-88.55288711019341,-180.24705094592247,22.16737394670209,138.09095824159698,0
2166.0,6.017148000000001,-130.50556448743177,-80.91295002975386,-120.86259479114388,-122.30337467212684,-43.812818477762384,71.34311288595191,0
2171.0,6.031038000000001,15.319862251569688,-119.93414516472112,-115.82958329247587,-145.98974939128004,37.52689746415909,162.46363482579332,0
2176.0,6.0449280000000005,-181.37647996922868,66.05370463256132,-26.714275995085504,-141.37903845473755,39.73543568218767,-39.79614257225312,0
2181.0,6.0588180000000005,-3.0456871136953367,9.321252673693266,1.3408493261171657,-2.2855455563063813,47.92507287026927,85.91733089887683,0
2186.0,6.072708,-258.68653310397104,122.905806714756,-209.245716041457,-161.2648614512911,50.45039761603583,-42.05860790715378,0
2191.0,6.086598,-145.7267759825131,-169.33341319981574,-90.94202385775289,102.57370602638416,-24.08307337086076,-38.396862091828815,0
2196.0,6.100488,-133.70586768270886,-48.1739852953358,-189.2639024353056,28.94511502310285,104.68861179187654,101.69503641068788,0
2201.0,6.114378,-122.4659968269915,-165.76136373038997,21.31274834701884,96.95747444800436,23.25114508625112,-171.49365398273108,0
2206.0,6.128268,-203.02635270823063,17.91674035882637,-186.3458377768092,-16.299271540239815,-28.45235757041342,59.41684282116466,0
2211.0,6.142158,-40.12727705094154,41.508458824151134,-94.25686658816292,93.54813570953206,119.14025008132488,-117.18410498433974,0
2216.0,6.156048,-206.90690654512457,-54.63865315136167,-38.34432856759084,71.1934857063365,89.67296339952398,-20.67344187382413,0
2221.0,6.169938,-203.74259858255155,-57.78062331746184,-82.38590581792661,169.1161421210316,63.32700955765871,-34.15300029406328,0
2226.0,6.183828,-108.4215750052575,-99.58508422678617,-189.1192487141665,275.6517965955545,163.58182165947483,-44.61533183785514,0
2231.0,6.197718,-186.9094243552179,-64.2445808953371,60.5771626535079,270.6040085628481,175.64648209842088,-207.3724436247536,0
2236.0,6.211608,-98.33140474357096,81.9337112236874,-136.72838855601336,397.158917838689,147.05593392586198,-215.2498662158359,0
2241.0,6.225498,-183.1219277911979,-143.12946652629685,-62.40783075377232,288.2470696850727,101.01794475259564,-175.68391271998087,0
2246.0,6.239388,-54.51029710888531,-58.681134813018176,-97.15227303575492,317.066001147454,145.04101055124625,-341.2395105338604,0
2251.0,6.253278,-72.05248129418561,-25.319543967757028,150.821821638824,171.1184969345648,119.12876926415584,-147.30172807287028,0
2256.0,6.267168,-219.86290603707124,-53.67080539060585,-54.31586128655859,320.48688104381256,51.058535627739815,-142.4229998265519,0
2261.0,6.281058,71.22439770487432,-189.2952268332736,86.46790632694392,69.71156772286085,22.843800768213583,-128.31840437857463,0
2266.0,6.294948,-395.6640086394299,146.97535447273302,-25.694941472293007,72.89481040888889,193.53917804236625,-95.40266604688004,0
2271.0,6.308838000000001,295.2077112627656,-203.6296395481461,46.837783536415,117.77921387900436,198.43969099013464,-111.2340685981869,0
2276.0,6.322728000000001,-169.53588272649978,93.7309078704131,40.837918521263965,-134.23038179372773,-37.41731099470185,-81.98970021975096,0
2281.0,6.3366180000000005,-56.71205925318712,-40.84330613461708,22.301935789149265,-37.678701335928025,170.7404074581271,-3.0870235729870785,0
2286.0,6.3505080000000005,2.776820583857944,-56.06463505092552,-37.02430943793132,30.07863086051403,19.06470104587951,28.006357615973577,0
2291.0,6.364398,17.01398240611261,214.23775293415383,121.61951309910164,-27.03093338606605,201.9510251805898,0.2736254925140136,0
2296.0,6.378288,63.74136367752608,-29.980634778955544,-93.16844721255492,-82.1090898780523,-68.00020301600391,-17.64509745575789,0
2301.0,6.392178,-24.23490914462497,169.59675646273183,215.01795865767127,84.5759667784134,182.8503202347433,-49.25038005843911,0
2306.0,6.406068,234.1721542753276,-33.69664281888827,5.862517694297175,1.4196830991602454,-158.50507137001205,73.02847231427796,0
2311.0,6.419958,-144.08125968900217,108.07438078708844,235.20873204380385,-0.4765243798035872,-51.725256599551486,-4.072450880475209,0
2316.0,6.433848,141.2857153482729,192.74800710397187,78.11803416572705,-21.68803227924529,-178.6754578012447,-0.7463715421321524,0
2321.0,6.447738,-23.96069157566856,175.4792338332603,48.13037181254657,22.243536222857937,-135.65805503791444,66.57951727497857,0
2326.0,6.461628,211.57739573706243,-89.32013496384916,35.83650671565785,-20.318337923173416,-96.69850060038723,4.604925676940276,0
2331.0,6.475518,-87.63357848317779,195.93955314050424,224.62870899588967,-49.72924458212258,-176.17314167222082,17.3922088144918,0
2336.0,6.489408,102.72217719381304,38.39111248121689,-176.6384427119424,29.00404882363575,-173.89395603500327,18.045264298280923,0
2341.0,6.503298,72.99957958954748,134.79067720925224,73.13215880162159,-129.3401675206695,-335.9521513730137,130.80684432602615,0
2346.0,6.517188,107.14426407438287,-90.05424127480762,-105.96379535110944,-2.467375418071104,-70.66062050774455,6.596278699794762,0
2351.0,6.531078,-10.42953109467766,-15.477598591973909,-118.18835521808364,-16.97035733483033,-182.95001642529343,-82.54231815939093,0
2356.0,6.544968,2.5456065798516505,22.8345170770212,-89.46965856367652,-40.66367495966439,-401.51213459386486,122.02920514780192,0
2361.0,6.558858,213.27643985176064,-45.81108734078547,-73.00360772645142,-54.87410615434876,-47.2455077578667,-51.70208251626888,0
2366.0,6.572748,95.7174746293568,-135.4109716917237,-50.19344718549124,44.37914686429337,-253.8078123596997,161.18484282759528,0
2371.0,6.586638,37.09422489425951,15.672255353644182,46.53306149755036,-173.56840164529865,-17.52939246325267,-60.41235205519631,0
2376.0,6.600528000000001,104.74459161142956,12.95525605565539,-207.90001318045412,-135.27402815891833,-87.92356515994322,46.48855020822472,0
2381.0,6.614418000000001,72.26746314309159,-79.32130692008047,-76.98729035192088,-115.93698289945884,-222.2349866794554,2.651181252302777,0
2386.0,6.6283080000000005,124.6594467811684,41.738619313876974,-51.93592770443034,-139.194351596464,62.09094113409003,143.22280047490685,0
2391.0,6.6421980000000005,109.34387065876616,38.8218413285897,-20.94198716799056,-86.62171448294963,-146.14229998089985,-5.762292600459901,0
2396.0,6.656088,40.46795647073051,-47.03382852266786,-122.11857734093492,-81.78130820922543,164.01024019781295,-120.048709776275,0
2401.0,6.669978,97.91622737818598,-83.6690309069262,-37.31166367220391,-358.5525108042698,-376.6064397606754,135.90431152804533,0
2406.0,6.683868,35.384417901088895,80.1598550740094,-47.89014906340677,184.97595246470104,251.8127004699964,-28.02109689396313,0
2411.0,6.697758,59.13985081306604,19.50925867212294,-61.63275193129793,102.3491341973642,235.7842488991563,-23.834166767958813,0
2416.0,6.711648,111.6960323687673,-27.892551838931343,-55.32349312139562,42.70791814064007,-91.8812128593855,149.7359479099899,0
2421.0,6.725538,-43.92843069139913,99.66272887043012,20.78702629619965,18.41109879699559,214.71898134773363,-167.98403305664522,0
2426.0,6.739428,101.44368675716768,27.350617117383702,-108.2394326989722,125.7491256790922,117.9768656627821,-105.69100060054676,0
2431.0,6.753318,-87.06497077324788,14.07308985944179,2.245943357470102,153.31877006347975,64.5317080176281,-10.664637703685084,0
2436.0,6.767208,182.3590393746135,25.57644207381288,-42.01726152258792,175.18782730932696,151.89560863158002,-94.9750603808216,0
2441.0,6.781098,91.26236419839452,32.532580126654864,19.70503649840288,156.08802682798256,130.67811416153404,-72.87860931113572,0
2446.0,6.794988,-142.09493834516854,27.303026487773423,-23.189237758581275,120.10774898938216,126.92018860234003,-195.09451164625963,0
2451.0,6.808878,59.67867818170949,-56.41318892163079,-65.18399857664403,173.98274966413007,169.46946566418993,-52.27324245378775,0
2456.0,6.822768,-20.96839042567637,73.30902798202024,88.44282700180435,267.1725932916661,89.63350099541097,-62.79783640642548,0
2461.0,6.836658,-74.00677588350457,137.98592797723887,18.29232862320632,-93.16800885644984,24.85205366729745,-109.57735105357756,0
2466.0,6.850548,154.2469246238202,29.32752624162177,71.28271278786426,68.20401918924335,66.64045531143937,-53.06235904455102,0
2471.0,6.864438,-178.94687642698673,-78.64952445824804,-32.432951595996514,114.49553378459584,-55.33121598074259,51.477476163765566,0
2476.0,6.878328,47.42113870785085,76.36776404135327,194.6347881740994,7.168505429253679,112.68356782900128,-39.17172902548427,0
2481.0,6.892218000000001,-94.35983975777064,-36.017971048633434,90.16312843025324,-71.95558338304086,-28.70408398922775,-68.26143522595916,0
2486.0,6.906108000000001,-3.5631162862854886,37.475610798747255,62.74215994715208,35.43383354262868,-42.93924092395056,23.59693631859353,0
2491.0,6.9199980000000005,-5.439650312745762,20.341168321060376,18.80429701048032,33.782240463665595,-18.929120531033416,137.68594055067734,0
2496.0,6.9338880000000005,-152.3438515265653,-101.43401549869506,68.69807666495998,-161.93833041338172,-104.16855299673418,56.285183897386574,0
2501.0,6.9477780000000005,-13.306863135610556,-15.916883467012866,-23.077531322164724,-1.8228461337419648,-30.63599508993086,7.167619623698826,0
2506.0,6.961668,-11.811390603405336,19.953049400908743,-8.333242632605506,-142.12376296046514,25.44938942082906,43.06080442404435,0
2511.0,6.975558,-73.2095544366266,-19.287047868434133,51.54625952083092,21.14002793601319,-32.164909722598225,110.07327825715032,0
2516.0,6.989448,16.39545885239641,-11.754233702758771,-100.0126357843077,-145.7075605646484,-28.613936572935017,28.091855074813104,0
2521.0,7.003338,9.939704532835592,-40.69217212063349,91.3681797803748,-65.21504499702961,-18.36198379130858,49.52418446730911,0
2526.0,7.017228,-111.21098066281688,6.65356220425279,-40.17746957945583,-116.90776169635672,-46.730197857104415,69.51755280629658,0
2531.0,7.031118,-56.79816373925467,-49.33810300432346,-23.766441947802544,-58.24620179778182,18.66826610961654,-8.092132116823116,0
2536.0,7.045008,-24.470997029665405,-7.636763052797477,-22.669420810199544,-4.161983633518342,-35.9932790837632,-9.48014901568374,0
2541.0,7.058898,-3.158767130272099,-52.984353052538616,-18.675369988244945,-32.23634496968184,-52.56013196023754,30.316769088901147,0
2546.0,7.072788,-100.07979053731891,7.41029490015549,12.09475516947088,-27.11506026203496,43.81574865105337,-43.620136094170064,0
2551.0,7.086678,5.171172474265756,29.25806208575087,5.4605194793917,-175.89969642041206,-3.299427991931772,-76.96184877086378,0
2556.0,7.100568,-18.29882906504671,-9.804719207391578,-34.068116753462434,68.84467546111624,8.699906693236073,-16.138817743974357,0
2561.0,7.114458,-70.03960931954882,-22.076614594259805,-3.368728112267241,76.48185115609701,59.04056407401927,-40.15197819134618,0
2566.0,7.128348,-40.28829263306292,-43.572061459481006,-11.791425524246405,-13.301099543289586,-16.57186839035552,-21.814225223521703,0
2571.0,7.142238,-60.097274797332176,53.593045617859474,-0.8718248036534479,28.547213407602896,37.95099381918603,-109.12157372944009,0
2576.0,7.156128,-16.771278709222145,38.573614614315474,-51.39864977662027,50.86306862187576,75.05687469753866,-119.07208047959114,0
2581.0,7.170018000000001,-20.9919991065924,-152.02886319624722,-92.37819865171392,37.08758243620771,25.12951487478146,-52.800606145437314,0
2586.0,7.183908000000001,-5.243400659193471,0.1257553433094393,25.993338976581853,2.500165912300031,-3.06377459038874,-15.39814730527821,0
2591.0,7.197798000000001,21.399433619904,30.923917995779,-2.801691598682696,18.18137643992829,-17.867438893344442,-38.6652682606486,0
2596.0,7.211688,-10.602718963518033,-28.51480382059752,-41.27774261968833,-10.72446535709802,-0.3838919256950778,-45.30144968539182,0
2601.0,7.225578,-24.772246830488413,-7.534313075328228,-31.18594373502804,-33.67247659765854,1.520438135699866,-36.16090596328311,0
2606.0,7.239468,2.942374714960461,-21.556602104331805,46.05693733802265,14.01730929092221,22.529058583369284,-11.980821006499973,0
2611.0,7.253358,53.05616260565763,47.02527951424784,41.9629560923994,-3.4663779648049378,24.86723943914614,-28.434160401645624,0
2616.0,7.267248,-18.11962917490188,-28.86900396489314,-61.84411490506893,17.388363445468613,-4.374988675513776,1.9753635402370888,0
2621.0,7.281138,15.643526970438591,46.94181525963329,-19.57637291814904,-134.58856512209354,-92.9308092423228,15.331293329633834,0
2626.0,7.295028,-117.77866013393532,-109.78607593999926,71.24381096533891,1.89666324990913,-8.107939252063726,-12.16570910643975,0
2631.0,7.308918,81.98869937854224,-2.555869161975909,-12.30027051867635,-115.6159665320708,-32.81579080689831,-12.208416713498472,0
2636.0,7.322808,111.3028785287958,71.55228314212694,79.04676855574203,57.21532391985743,39.34791758048013,120.96760226911869,0
2641.0,7.336698,-16.924462514441384,56.55592814523053,30.109605939309724,-16.138535070520533,2.792411081161566,51.08809399531066,0
2646.0,7.350588,36.10172925146709,-30.88437763436962,-5.783008183796346,-12.899027477992874,-7.226723729964679,6.675383198457397,0
2651.0,7.364478,-27.982424376695818,22.0238148759342,1.052785362669869,-10.005601816798414,-4.247625806640858,25.57446307526884,0
2656.0,7.378368,36.153787588997496,40.254281463069375,82.07127809934663,44.3167124010679,-7.368462256969216,-14.261664953526257,0
2661.0,7.392258,8.747397370499476,-13.60418180172226,-1.5816713562159208,-13.02020901266433,-30.509732722077725,45.92379507909064,0
2666.0,7.406148,2.217661788434321,28.77741495888052,-29.185484623233563,48.19062259484188,27.52945779547366,36.733010247152606,0
2671.0,7.420038,30.90294154027065,1.260620364276118,13.54438694873336,19.299202832741653,35.19967947011233,26.566626078909152,0
2676.0,7.433928,-79.50526568065021,-63.01185703754056,-70.20529904075808,15.716715296913554,-0.971740790139828,11.119142830179529,0
2681.0,7.447818,79.93165799533143,43.071023376523385,31.632333187872504,42.124368827542106,24.377999218979603,10.866303771350738,0
2686.0,7.461708000000001,20.91864832713997,29.893653612184263,8.369388159995681,113.11758063213117,-43.21238038135195,-9.609651236429336,0
2691.0,7.475598000000001,10.47056213186951,3.611325834379709,7.584137996136409,-7.795922267767634,75.94597342696571,48.95299875218093,0
2696.0,7.489488000000001,-53.99515499235654,-38.52570434451097,22.87237132041264,8.487475042665269,7.907692869473306,32.114422682029314,0
2701.0,7.503378,84.84641205453818,46.54795118257376,-28.04498055633058,14.195731863303,21.695255277494688,32.89059188374298,0
2706.0,7.517268,5.8412618560692895,1.926307666172464,-13.187423580474007,-19.82428617101744,-19.10471399351369,-58.29369793224332,0
2711.0,7.531158,43.66208728367416,-10.345985063940695,-16.55348652005551,-7.387768770263674,6.473674303065243,14.998693751145405,0
2716.0,7.545048,-11.649482934923622,1.7293602595092814,19.963900953107167,8.389925939822543,-7.855251670468052,50.850498076645145,0
2721.0,7.558938,1.0053468493733848,-13.19610898313633,43.587698408979215,7.507314157848453,-2.4561235149399607,40.86592860083936,0
2726.0,7.572828,7.012629424098822,47.98927934662216,1.4037516022073255,-9.67078868346746,50.32842725335361,-48.73966145218239,0
2731.0,7.586718,15.361143632613564,12.004934012719298,4.944877284583447,-26.187755107406897,-19.9980007560374,51.145520759570445,0
2736.0,7.600608,-5.952076563686839,-10.007651881882577,8.767954061451823,10.660786632484976,-16.956311669601916,-6.032269452585546,0
2741.0,7.614498,3.3492762585071985,-17.467346027889068,6.318761738540518,-32.7541024734017,-43.75563880826219,58.37418416567114,0
2746.0,7.628388,8.686008038751742,19.374155348276474,4.966216335112368,31.844579582947294,9.357068217744866,-106.14307413777784,0
2751.0,7.642278,-7.7155339906066995,4.121439370263699,2.000613086594211,-4.586328529920984,-17.91394346712005,34.35050784043537,0
2756.0,7.656168,5.804572412471682,-1.03043086762414,20.30863278372228,-41.0264236778982,21.86742394115462,-1.1994271303561543,0
2761.0,7.670058,-16.80211522998994,6.523796436563842,-10.903965529325804,5.565744992029742,-5.730537524593513,1.0360311001697884,0
2766.0,7.683948,-12.521135510931488,2.11368318807071,-2.154464463317188,3.276977924805041,-14.063892651921664,-5.097734719299812,0
2771.0,7.697838,12.96476784531964,-20.382684233261312,-16.050244543597262,20.367669239232644,-43.893255395097285,-25.3217013753552,0
2776.0,7.711728,1.8936841966221465,-14.731901836779125,-1.0629413254911748,-2.9744293312044885,29.688081932745035,-32.29866570031568,0
2781.0,7.725618,30.184386362052503,-13.419114919193968,-11.13667158993922,-11.35190772302056,39.29575162646223,-12.641966144770077,0
2786.0,7.739508,-56.840207395082444,68.98274725660742,63.0284421717069,-8.489757687692546,17.920039327825258,-6.983967135044814,0
2791.0,7.753398000000001,-68.17914723877118,-14.069672269664764,-22.51312722294428,20.7268070874127,-36.71043881591582,18.748410944651987,0
2796.0,7.767288000000001,84.15995309273256,-33.56000637873341,-24.97068572757961,23.054721030132523,-24.790585742043724,-3.9351078318675743,0
2801.0,7.781178000000001,-36.04204668537432,-11.509369584982595,-32.38235672662712,-1.640506250509688,45.381838173414366,-24.377369041894248,0
2806.0,7.795068,14.39969487472237,-31.102163775414223,24.917718325490178,-9.087693145749215,25.180634683370624,-13.415211965954835,0
2811.0,7.808958,13.110592667298889,38.12909452280348,-16.836604800540783,-5.895373833397939,52.44195924842307,-29.37769460574951,0
2816.0,7.822848,28.049580529887,-52.11335893713012,-14.734324273043958,-8.087938888539892,-23.567383563239243,38.520473764503166,0
2821.0,7.836738,-21.1705694433465,-15.164693228870188,-19.010399695072564,-3.094809957910296,-53.818481405754085,5.128231959196917,0
2826.0,7.850628,-24.2265132330626,-33.29838688923084,22.055317491861388,8.10492615614114,-12.927190413129033,46.91456916947345,0
2831.0,7.864518,52.37617059255208,62.60467050416196,45.857051466063325,-19.376951163575303,19.70529952719816,-40.541063801975625,0
2836.0,7.878408,29.24845976960041,20.893400272726392,-24.563851605113697,-31.378826276752463,51.439413702779575,-15.515259048464024,0
2841.0,7.892298,-1.4923466095805678,-10.27147702419554,-4.466484390913927,-0.4838071066961209,-23.444894392523,30.27692152689378,0
2846.0,7.906188,-9.120525566076749,2.084858819890981,-0.1009326346037267,-5.1536575843414925,-10.887937126401514,23.387854115638085,0
2851.0,7.920078,7.286000391138308,-6.276807050503804,2.6113741215125685,18.94428263222916,-23.796824957771047,-41.20154990787741,0
2856.0,7.933968,17.936854588780996,-0.1855594121679176,5.292219004750288,-50.20327797270028,-35.81948177594936,72.17993837322356,0
2861.0,7.947858,15.729934506069696,22.262257300087263,-2.6511441691759297,42.198732448810205,63.26656726688553,-61.73142471399176,0
2866.0,7.961748,-7.050123514149688,6.614109160237371,7.888120816392234,-4.836885348314006,-0.9997476141871182,0.813074454719465,0
2871.0,7.975638,-6.640345741390993,-30.947506703759995,28.08883417650651,7.981354572582704,-7.108150649910527,-4.666314357643169,0
2876.0,7.989528,5.794244900677919,15.61105433407652,-17.931302776433608,3.1602070521322823,-15.794727366388924,-19.37320964976362,0
2881.0,8.003418,28.90668186731285,-3.2089315037091444,-12.262049256951142,-5.799999179407537,24.54772875794835,-39.23844318981104,0
2886.0,8.017308,-6.227397607780015,24.836215921223697,3.107820575253431,8.49575298098501,5.489441444562693,9.571669582854572,0
2891.0,8.031198,0.8665283952662444,-28.203213351810387,-12.112286685781308,4.311074492484662,-31.50754922752533,32.564367415768324,0
2896.0,8.045088,8.899515550535012,-12.355611942449867,34.38525883686907,1.011506411715418,-9.684448732511337,8.715101430085113,0
2901.0,8.058978,9.3727536850337,17.00582741918653,-3.0049374638149047,-10.08865020866736,10.5571702514902,-11.694364192541824,0
2906.0,8.072868,-13.246350797587397,14.318514105589372,-9.96129768925168,-18.17187348506241,29.4163103240531,-25.081132189370585,0
2911.0,8.086758,33.7725677934245,12.477353514734666,43.88887587356586,22.79600204317704,11.958771555475812,-33.590029595542475,0
2916.0,8.100648,2.3841117928967424,-13.17237159486375,-27.49854035149465,9.82907630226071,-7.88682406900779,31.0953549871524,0
2921.0,8.114538,-5.682021094779802,-0.3283460072712607,-5.171362688104795,-15.322924416308634,-24.17618147196253,17.46101896717954,0
2926.0,8.128428,-22.73519412921868,4.79160940597299,23.19020762669972,46.22870996587149,57.94112157819001,-4.06754246634069,0
2931.0,8.142318,-16.895808649867078,4.09750437081167,-25.299012339788657,-37.21827345935387,9.956829964351844,-18.9891785896976,0
2936.0,8.156208,-1.2225220099863128,1.4822440243384256,-26.925755398201574,-27.222977836399032,26.57795924880311,-28.48513699239253,0
2941.0,8.170098,10.599999629261935,13.13210700843819,9.07273916088281,18.69747101433656,-24.72575015280214,11.325713655515962,0
2946.0,8.183988,-2.82583832579777,-8.433731969594639,-10.164301351560535,19.58329086374728,-19.595219733409177,12.987910504803438,0
2951.0,8.197878000000001,-1.7309962991620091,-7.673702175916986,16.83705779884997,-0.4296357369768788,-3.1037496546257417,21.977901440674856,0
2956.0,8.211768000000001,-28.922382909751114,-13.80618886921394,-9.75567947049953,-10.37712133901042,-9.240289747957164,3.1531201319465056,0
2961.0,8.225658000000001,0.5647581874602252,2.5936250051699155,2.7891201691608707,-16.862028087248145,30.284639264590503,-54.417680410309146,0
2966.0,8.239548000000001,-3.5058466254742244,18.40413739741545,-20.847652608965507,22.524777490987464,14.54494888395842,-18.86085496269113,0
2971.0,8.253438000000001,-0.604939916977675,-20.2531641737028,-8.411691910829393,-15.529626480010377,-10.022223497479636,27.97873727732876,0
2976.0,8.267328000000001,7.245960239293206,22.53488359852673,26.57806291048797,5.485986098952536,-41.82484546997854,29.827738446576525,0
2981.0,8.281218,11.889369281027571,-11.815967020248832,-8.895808653408302,-16.543752673331955,24.52225415458777,14.801352169462852,0
2986.0,8.295108,0.4129257802572983,18.83319795520768,35.30203263593222,-2.8840125352935626,-9.950847743027596,-52.326090940033694,0
2991.0,8.308998,-3.84935650205236,8.38091531152013,-23.643309412725426,-9.58021066932141,18.859988274031178,-26.23858692941352,0
2996.0,8.322888,11.281427478561186,-4.454825788958134,17.146706650020366,3.082743215374584,-12.816289434462592,3.8699551951794895,0
3001.0,8.336778,-2.749175561777905,8.520962183496266,-8.045013211721479,26.610267442564734,-29.716880879597205,30.63745810682876,0
3006.0,8.350668,20.73981586261393,-16.070182458960886,2.8588873357682,-3.5770396977062706,-0.6353424631843181,-2.805753007736943,0
3011.0,8.364558,-13.225599386303305,-4.650093799059194,3.674760269083485,-61.82843718301989,1.8135781624532767,33.11943674048101,0
3016.0,8.378448,0.0161142229140454,10.055890159076665,10.748978383427891,22.651996571010063,8.635516042394352,-43.64021091419225,0
3021.0,8.392338,-0.3315441930033989,1.080119689057944,-10.475525630159757,6.146173211551595,8.855828834281589,-23.947086322647085,0
3026.0,8.406228,10.642240646760287,-12.21015305450863,-13.132619912210286,16.71633196886305,-41.72368319202447,35.84914362983875,0
3031.0,8.420118,11.644256668835611,-30.83754826115926,-16.23757518209645,2.250806138587476,-8.521642255480451,-0.233995739573066,0
3036.0,8.434008,-13.599560055747478,24.848815655901344,2.0334613003027826,-113.43911457574676,-26.72306255166784,-23.92001193841564,0
3041.0,8.447898,-4.169788525786849,21.904719258371387,11.138664459316836,57.21780646084798,71.77576595247814,28.16629080912499,0
3046.0,8.461788,-0.5910415458613469,-32.085532477435855,-13.933407862963408,28.577404775021044,-4.925089773326737,-6.898808135642715,0
3051.0,8.475678,10.090052743786892,12.85083489232428,-10.747770021185415,19.92173112266535,-6.136962257730151,-4.68515116059147,0
3056.0,8.489568,-13.115415041621414,8.414693170554742,-3.960088848106441,13.97395898742133,-3.560413882975957,-4.763912154436012,0
3061.0,8.503458,1.733791969824078,7.3211936367763855,-7.208342939906889,-3.928551153491471,6.87682760603678,-1.353030123143497,0
3066.0,8.517348,-7.636974354934585,13.496737476429905,14.69837935089789,2.5472326546038966,15.978437086305314,-0.8528252647121715,0
3071.0,8.531238,-6.619895571460484,-5.869617647210657,7.716896585448175,0.8202771621932294,1.2331151705396974,5.55164575386484,0
3076.0,8.545128,1.198892517178872,-6.949320990723905,4.889263116388092,13.32812322193493,6.054461267286053,1.3983477021409323,0
3081.0,8.559018,-12.563673856832343,-11.130214446284524,-4.251188874805331,1.6802690519068886,-24.92116455187316,-18.95461796943027,0
3086.0,8.572908,3.574041539353191,17.094935627326702,5.017511091718564,14.023731798545096,8.393641785433603,-1.4283574216368016,0
3091.0,8.586798,3.1639345719873115,-4.240037109688625,4.644905453164522,-13.199334725931736,17.87518237038704,8.770049889680523,0
3096.0,8.600688,6.718097919377284,-6.529319582719086,0.3551043767642046,15.214678503804103,-20.766273444539245,3.607985262328425,0
3101.0,8.614578,-20.175353488022253,-12.718729030217274,-3.424951277156885,-2.999298038638374,-13.421409830727686,-7.528676255306378,0
3106.0,8.628468,1.4353698026758437,9.035287945662477,-4.307319926841787,-5.122369964041676,-4.215942117619052,4.500779336480131,0
3111.0,8.642358,-5.301218871480266,16.388902384526272,-2.9418743426982594,4.4678376796010895,4.129269384051419,-1.241276761567236,0
3116.0,8.656248,12.451855220508335,-9.51945062307913,2.425392279816977,11.573947493867763,-1.3976290164315175,5.266134017337931,0
3121.0,8.670138,-3.94359976168564,-1.0552878151622007,8.699450747247614,-1.388922798738605,6.30220896512507,8.825460846816746,0
3126.0,8.684028,-9.473760132815142,0.0768027609086274,-4.790662668322362,-11.52103955389612,-15.61733433466991,12.691977371137192,0
3131.0,8.697918,-1.1682026536489794,12.341745301130434,-8.684004638984199,4.13946682836122,5.954961378929218,-4.698084387461566,0
3136.0,8.711808,1.240918904505082,34.87471148919498,28.23324947065652,-5.892193469146555,-1.477803733920798,-15.40249182252385,0
3141.0,8.725698,8.497857563856675,-25.72653029158122,-33.842646402797904,13.695010838708452,10.369500298757874,-8.584324947088547,0
3146.0,8.739588,-3.70489472950166,-15.32386059025905,-1.234188962368079,4.409438384107162,-17.31331797947955,17.449501496873854,0
3151.0,8.753478,-16.351354222997216,10.624886589868094,28.258982602779355,8.449618582680612,-3.7573418929780287,18.010155516781328,0
3156.0,8.767368000000001,5.865121302103637,8.45606255239887,-19.934446597154004,2.903027850251957,20.12381635369017,-4.155370733929124,0
3161.0,8.781258000000001,-0.0119608026063908,-4.8837840525449145,-14.201371988031129,-13.258319208482405,22.476007279898354,-38.52883664313815,0
3166.0,8.795148000000001,-10.472908433359198,3.9083122161471664,-10.900832218634308,6.425599630265576,9.183784832761166,-17.78848432366325,0
3171.0,8.809038000000001,8.626190117325292,-19.490525608175588,10.9848146767047,9.333052056988574,-25.010017464006893,16.28936599629101,0
3176.0,8.822928000000001,8.90461169818882,-6.922551674193091,12.063072792975964,23.23650118273041,-11.388833469012356,40.902537206730855,0
3181.0,8.836818000000001,-3.814918449239903,5.9150367507710975,-10.87679080807151,14.86598805583839,13.395510545112856,7.64373678785087,0
3186.0,8.850708000000001,-1.2286179555753105,-7.201253186388238,-12.280446911827044,-29.609854991741656,-2.241028222559541,-14.811647392889483,0
3191.0,8.864598,-18.34266738936271,12.007110422391488,-13.201022050086769,6.905694880171144,33.190079904602655,-44.31781857225197,0
3196.0,8.878488,17.16582708913034,-12.870723763197658,-4.834076149962376,-6.250982034216271,-18.550257762956207,-6.905899347234177,0
3201.0,8.892378,1.8312173154364968,-4.145165925910701,-2.8697067499150184,-4.482666660515454,-8.858495971928825,14.182267348772845,0
3206.0,8.906268,-7.861843066123367,-8.18953390245286,6.919324486793303,76.63771029642236,20.85004431943944,41.03659911095814,0
3211.0,8.920158,-16.577654082961526,-4.0146737063353175,-7.218420973119713,-77.12976008486015,-37.52725094313601,-6.355939376814244,0
3216.0,8.934048,19.67849553576148,21.887792464339487,3.76253746483521,-24.41304522717939,22.148544626967,-0.4938281205212167,0
3221.0,8.947938,-2.81140714211328,10.532271785988968,-13.258707201649372,0.0232383640874154,19.565552629234684,-70.68394341679755,0
3226.0,8.961828,-1.6761551483344357,-18.94279004815564,2.0309741261385383,10.464900020548994,-12.660935056489334,-16.233621901419212,0
3231.0,8.975718,1.7798773671463668,-1.6542280378018943,-7.354699374756918,4.904809638420771,-20.04149354714482,17.428491477266896,0
3236.0,8.989608,5.9568186106543575,4.118409047922276,15.67929336517337,31.27176887803926,10.1499395057998,42.133952099833344,0
3241.0,9.003498,6.308022733366567,14.243236540003338,3.631224838952856,-24.3119768407031,-3.203011187135523,-6.986468361513413,0
3246.0,9.017388,-6.640102045825211,16.28702125920715,8.495998384162867,-10.650120070565618,3.889669630518735,13.141538241803708,0
3251.0,9.031278,-11.69545251444794,0.6390747370101826,-3.63558273120016,11.710346631404407,28.241293671559003,-57.87025102971443,0
3256.0,9.045168,-11.255891911227904,-2.5776831597280387,-1.9388254369538205,14.075885471548352,9.427997446058798,-2.539662948244924,0
3261.0,9.059058,5.572993218141509,-19.73067862934796,-3.9435032642628816,-2.3110091803179547,-19.73156008079978,3.773877161956488,0
3266.0,9.072948,-0.5062294185294105,3.167551730054103,10.836941778127269,-5.738337709583878,-13.589128354173306,22.22306676995973,0
3271.0,9.086838,20.36795561736323,8.483493468343255,12.242406588997175,-0.8725938466584768,1.8560145299195645,33.669804442757815,0
3276.0,9.100728,15.671380011001228,10.085366124216511,13.19149614026805,-17.34403788313248,1.0750692133148996,-21.08737229587993,0
3281.0,9.114618,-44.59266310552323,-11.010607067478755,-60.04660949728686,-18.54956547592736,1.7677474628576366,-15.888918361873596,0
3286.0,9.128508,17.930347729999475,-5.661155719972626,20.261512284921324,11.366127560812824,15.533754397190386,-8.347705411289397,0
3291.0,9.142398,-15.636297820290974,-40.7605031420282,-36.3227197603902,8.816899378994501,-6.594799467991587,17.63217080096208,0
3296.0,9.156288,4.831996854949702,10.851606549535711,30.5698567231884,14.04090832677154,-16.719462125379877,34.588025638010805,0
3301.0,9.170178,-14.209098746807872,-7.077633273593413,1.0571818047974908,-17.110186860210433,10.314743811755443,2.086571456249942,0
3306.0,9.184068,-18.616114154063105,55.428226101945896,43.936785782486325,-4.912112010021986,15.479709216556444,-33.00253487435732,0
3311.0,9.197958,-0.0251190200213109,-51.26203195220516,-85.07604042324172,7.768856701209627,1.5282333547309732,-18.430675262205146,0
3316.0,9.211848,12.811934881431796,-0.7637090882488913,22.32497006174433,-13.528582472548257,-3.611881828338295,-25.99282293982329,0
3321.0,9.225738,10.604037571212752,29.50705566665416,-14.421323130800571,13.783967904933448,-11.80083806715176,28.233821845734425,0
3326.0,9.239628,22.23340153976566,15.791692747433862,31.088923544493102,6.165242352924963,-9.95249298182518,23.403532992532305,0
3331.0,9.253518,-6.345735044127908,5.459338888924719,22.09110909336133,-9.448914427178526,15.241117324972793,7.870845076755067,0
3336.0,9.267408,-1.0277277275367451,-13.258753556787957,1.4978060284234795,-24.068703566649937,1.7079851485339748,-35.5754723607513,0
3341.0,9.281298,-12.000505121229276,-19.592957180322504,-12.23003771684894,-4.309108890587412,-5.0661264171847735,-19.8681189304889,0
3346.0,9.295188,5.21618209532144,-25.308121146031244,-0.3815147440328248,18.094976571095145,-36.462765714410494,-16.938459548097086,0
3351.0,9.309078,-2.3188896617593784,20.87778473552688,-12.159406482846606,9.790748148359311,8.992456605864882,17.313125320640374,0
3356.0,9.322968,-9.5756700808816,18.3973125698434,-5.289718488314612,4.476008739612771,16.130311468860782,24.687619605796776,0
3361.0,9.336858,38.38908651813576,19.195354786352528,69.97865720249472,7.1428468933679365,-16.605337482930377,24.47648810066557,0
3366.0,9.350748,-12.24990115754719,-9.668887167352628,-39.49024743308209,-8.77134359129883,14.647681524006233,-2.6444639402670256,0
3371.0,9.364638,92.9384057276649,6.99742054746018,58.88432032964978,7.51995054806104,3.748753451861505,-27.15821374598789,0
3376.0,9.378528,-108.57788154980572,1.0712077759090786,-96.39998269234584,4.030277268237643,17.04344827990363,-13.358568709698003,0
3381.0,9.392418,56.25703497374517,-18.453991728220767,51.777581168906245,-5.307400362032707,-3.7034182950670775,17.248490950455867,0
3386.0,9.406308,-65.07911725296754,10.81855298054305,-40.49482702384201,5.186134860313451,-8.764577894731959,41.93136378237033,0
3391.0,9.420198,70.81883266292712,13.913012000968653,45.26716809800352,29.80319700585251,-26.10940588963132,22.01539641140548,0
3396.0,9.434088,50.373757897182415,-0.9787711512374256,21.588789418335026,-9.810839052231357,9.83044108887157,-3.3781503255278995,0
3401.0,9.447978,-40.90328745140259,7.146066864349655,-34.21475713412836,-7.96746515312418,23.7324492606393,-20.20644697716921,0
3406.0,9.461868,-13.550834618054456,-37.84391917763425,-20.64547535470804,-2.0678383297025387,1.5302312455338591,-33.63075133115545,0
3411.0,9.475758,10.203641563014395,-26.52387111354128,-8.825465798625153,8.315982588367223,2.9247589656400894,4.15629999705733,0
3416.0,9.489648,-24.131453782845995,39.71840739887127,30.947853361191587,5.902546087122265,-5.735345520517459,41.45028865822791,0
3421.0,9.503538,0.8241344179612069,16.253175797052794,17.486496753411018,1.2580500664996532,0.4300170212995997,29.076015447776896,0
3426.0,9.517428,65.15091719088397,1.468493883870206,41.62801413230294,-6.1972159682953,0.5634990283166257,2.000775725646304,0
3431.0,9.531318,-65.30270649536389,-17.381504823381256,-72.38360314674355,-12.625658970717344,6.247245903922636,-31.44906217026161,0
3436.0,9.545208,9.402258838125256,-27.378544316862897,12.93026266539017,3.652971115526729,-8.53319199443635,-57.7236322303694,0
3441.0,9.559098,-21.483640849022425,19.570642161847303,8.786360123603576,5.723599081715904,11.668199430852068,20.44959318052105,0
3446.0,9.572988,51.9551363601128,-3.579379202801208,35.53850750649265,0.1124476800050948,-11.33010114259842,44.76111953643294,0
3451.0,9.586878,31.61438258037984,34.38585389503935,22.319400216528063,-0.2021367926641781,-6.051771923825861,42.74230576799295,0
3456.0,9.600768,-104.0136686095868,-1.087983584934057,-65.31732123908064,-15.935223660753714,22.84458433073059,-63.96654427397948,0
3461.0,9.614658,16.235251411870706,-40.32041667486944,-30.02661670195327,-9.74530013990878,-9.924651593912884,-42.74172944473074,0
3466.0,9.628548,-83.26418884189926,17.446863147683594,-28.10827949390155,10.586605878287829,0.0856255398244898,-5.48590015123021,0
3471.0,9.642438,26.411838628284524,9.225290644268654,17.606098121342818,7.989493774417458,-14.203524465438544,48.494656419982064,0
3476.0,9.656328,-9.806747358599862,-6.276113579944116,8.637683011569681,-3.515006578756447,-3.1665053172265827,41.35529204876953,0
3481.0,9.670218,-7.250365766062707,-32.899776890246635,6.389356864661824,-27.575914216905232,32.213802671541174,-47.93873946686924,0
3486.0,9.684108,-50.95530496863216,-25.635017830805943,-69.57067798135843,-22.667098172810626,2.063869623407382,-12.484148482642524,0
3491.0,9.697998,34.1705563582626,18.68425653187449,22.30838977684503,20.976222986452385,4.685921930448784,-23.67144764077979,0
3496.0,9.711888,-10.866755376958686,-4.223874756083531,-4.272208761113932,22.22252995774502,-46.76014546984136,37.26537559026698,0
3501.0,9.725778,10.991456599896267,34.90802073000291,25.8922038691934,-7.055866649131176,-4.999256213677144,24.48586750873308,0
3506.0,9.739668,-5.627866089907164,4.530350830216079,12.799001416653669,-27.99632971385469,29.91223877391764,-30.45055158241067,0
3511.0,9.753558,-6.473009100949271,14.757677494464318,-2.4136798415022667,-27.81117848768445,36.7799704820828,-20.613558867603054,0
3516.0,9.767448,-20.43726510907004,-7.787179566423561,-7.424186536572571,13.60417220442937,-38.20337327518577,0.9263351475991763,0
3521.0,9.781338,8.803171280195375,7.886350861129282,12.363703195567204,59.28140349701422,29.11201341440223,-2.17482891719063,0
3526.0,9.795228,49.59154233066352,11.320040431007454,48.30552596721462,10.015838723197044,-66.97454192982234,20.42905606770056,0
3531.0,9.809118,-66.18798004566324,-3.15195134344375,-31.74510489441608,1.9380708527723025,63.31106131255146,11.078470779527189,0
3536.0,9.823008,3.410769504793854,17.11279876663441,20.22198354306166,-47.44129054070609,36.29972485047654,-13.811643618606308,0
3541.0,9.836898,-35.91700486756863,-6.775987223794648,9.963179221186952,14.77285402346773,-15.147230929857932,11.039067964594086,0
3546.0,9.850788,41.74452113571978,-50.31547615077765,-38.50745353451168,19.162611655071327,-54.5562993035926,-6.491969663551117,0
3551.0,9.864678,30.11759888337375,0.3191524147029181,17.922852508699524,-9.088420430579305,5.331942463802941,19.482226086097075,0
3556.0,9.878568,-68.60887133528612,3.529731265316467,45.90478187801433,6.249952807167688,33.526235401384724,-0.2754783260447819,0
3561.0,9.892458,-38.46831905098435,47.76407373064245,-65.86369534846101,-14.219400028752144,14.100022538759903,-23.190177239719443,0
3566.0,9.906348,142.66817911185285,3.403857103991093,-43.02021371163973,-1.1857609820826407,21.85195267944257,0.0275668924581768,0
3571.0,9.920238,-63.15036626437176,-19.49204566160868,2.7098578516213667,12.720056543079576,-40.86801742430789,8.764558713326108,0
3576.0,9.934128,45.272252208381445,-18.684864917035902,6.801670290840981,18.99758128405132,-5.3155501557130345,25.051983153460817,0
3581.0,9.948018,-19.036288404762843,4.545305599037977,-2.73927173853446,14.990336520847272,-15.475579864181888,-21.43973367143823,0
3586.0,9.961908,-29.706654539579223,18.311737233524447,-2.679089338426337,-11.60844368127859,7.0528169678654855,-25.21209799120589,0
3591.0,9.975798,41.69370623488384,17.903107365711236,-30.525240818361425,4.239380029639346,51.96402568005249,-2.428318662358848,0
3596.0,9.989688,21.35459946689032,27.843753924706213,78.2247250436057,-2.719687345171608,-74.71196342361137,30.51488592509233,0
3601.0,10.003578,5.171200295938866,-55.3317630966599,-27.198104546006995,2.2826024290884668,4.843372793338219,28.487267766416288,0
3606.0,10.017468,5.043629098275525,-19.18385902089058,-26.93004955268536,-9.233428776285692,14.696530503982226,0.6163245925834424,0
3611.0,10.031358,-11.80651721593774,21.368643059102087,39.39470488926901,2.294095706614004,23.685143648525568,-34.85680928988631,0
3616.0,10.045248,-4.567127195486936,14.104233568871742,-1.1841603950360715,2.5753636901452825,5.37657870293786,16.72178167831149,0
3621.0,10.059138,18.875308751808213,-1.5666543165076483,5.2545264790565165,-5.569087905086881,-37.37042076830252,25.978596744584625,0
3626.0,10.073028,6.4770767532707785,-1.6768655871009868,7.404030707171648,9.154339532823428,-3.662365204759303,18.8850457044654,0
3631.0,10.086918,-4.166317554314107,-0.335756035585756,3.3722723555813943,-2.933443568901234,8.309073029075794,-15.595310912670008,0
3636.0,10.100808,-19.27151701062588,-19.35544081363968,-24.6248976009146,-12.151504872098291,0.7126853290434219,-34.41423538866388,0
3641.0,10.114698,-17.585966509181734,6.330372220127197,-0.6462591801708872,-9.880181198094446,2.140852828736074,-5.511949635643759,0
3646.0,10.128588,24.92675832969543,17.485050410688537,6.255374654644669,37.23569906628268,3.9921447553304654,28.39520402421286,0
3651.0,10.142478,20.886648074576986,9.288463352355311,14.268339786145596,-9.04578052449268,12.043973365015637,33.524223511857464,0
3656.0,10.156368,-10.009100408229544,-17.70626256735894,-0.6810288783378136,-16.135018588954278,-11.479691069789547,18.931326031931405,0
3661.0,10.170258,-13.740543093584652,-3.5854677014652347,-12.831276234432892,7.443787134319081,-12.4469522411271,-42.534192309368336,0
3666.0,10.184148,-31.873658860795583,1.283557379624959,-14.293073628806509,-13.734903157115948,13.77023338702942,-5.977005706028168,0
3671.0,10.198038,-14.244124402109891,14.446784629952134,-11.098097586635012,-8.141761499411116,-14.869660274610968,-15.89641531413102,0
3676.0,10.211928,-5.682861406289698,13.619169157255763,24.747908918161723,17.39143151805094,2.198832915637609,17.67550624329608,0
3681.0,10.225818,20.133705270383324,-29.43082711454894,2.82489541561912,8.946675913548747,-5.505788085588552,29.603074711719643,0
3686.0,10.239708,-9.360162843664709,5.163220434025996,9.90205349074496,22.46171893842785,29.02780036105824,20.659682689197243,0
3691.0,10.253598,-38.35404701453873,25.242285551226,-1.9238904426378325,-7.88750984521855,-9.182053182397262,-43.81836670978043,0
3696.0,10.267488,-23.246087684910883,-0.1404613313085716,1.7092558217766338,-7.447784434648437,-16.044241803396083,-19.3100417561394,0
3701.0,10.281378,-54.93264233622702,23.636970905717483,17.721611397512106,-23.99510792110968,-4.584315810249933,34.90414056820777,0
3706.0,10.295268,6.007089514683727,-21.51848015596924,24.409860975751705,8.103056804852796,12.60397911604412,-65.35755128677951,0
3711.0,10.309158,29.762050319914188,-4.507702049403806,-16.358069359269663,-3.5710498873291634,-17.000051746943484,43.46057801741094,0
3716.0,10.323048,-33.204111836792706,23.033121000084336,50.7581771218321,4.48620448016969,3.151225939805279,-18.878429903419825,0
3721.0,10.336938,-12.190816869515388,-12.218408826919344,30.47104468625617,-2.698926132350831,21.413314333256835,-0.0743082222951188,0
3726.0,10.350828,10.565866505800518,8.33342889186121,-33.190755960126864,-9.440561990287168,-9.10390967540298,-8.793495099746629,0
3731.0,10.364718,-20.803727303099578,17.34935921948621,57.09057952063148,-2.974116584461568,-4.353269697052667,-5.22941355826168,0
3736.0,10.378608,-133.78124827753112,31.944834291521232,15.207177319778443,-7.575108650111609,-13.26978850681122,-0.221598571523945,0
3741.0,10.392498,52.32062379364311,27.849814547722488,69.5118021960808,-6.317366060998555,3.573766203009624,10.071199081863384,0
3746.0,10.406388,-72.79650619710796,-77.34413487953549,72.83249696146261,-9.870461004396596,21.61237579302188,-6.957274801719834,0
3751.0,10.420278,23.861259947938336,66.89248714454187,-52.69332509774067,8.672911675380448,-17.946016155906236,3.722124880876037,0
3756.0,10.434168,-42.37151532463119,-36.22115487047055,50.08790650517578,3.862435584343757,-3.0259155990921704,-22.76277158208261,0
3761.0,10.448058,-150.78738910378752,-12.89255558327268,10.527391160456514,-2.813034741034716,-13.296552469357106,-19.55303607034912,0
3766.0,10.461948,104.90034941694952,93.34673640424997,55.90647354339568,-4.9826829331680464,26.30070085788043,-2.0273495895091145,0
3771.0,10.475838,126.15440295577515,-40.23755781009736,-94.85616540191276,7.639733528969267,-15.836534981400408,10.146734832451228,0
3776.0,10.489728,-143.60758469122925,-24.823719231757952,96.6856617046445,17.554074707954424,-15.750247749602584,-4.727793540384882,0
3781.0,10.503618,-3.820485135992543,6.357910398897663,-20.47557587237528,-3.5802777483016497,4.98457980384606,-25.26497782482259,0
3786.0,10.517508,-78.65010417355305,54.282955279656974,-36.28525498203443,-12.5830240987806,-17.875023374515727,5.221430111992962,0
3791.0,10.531398,108.8454381003041,-102.47623501448464,-30.43818010604568,1.011270438303737,31.428623148559574,0.8375812997778045,0
3796.0,10.545288,3.8092342610680654,29.63156362124611,-4.275470936774246,4.149448047278359,-35.922498034564654,13.245689331597186,0
3801.0,10.559178,26.205404596269403,-9.85990508930478,-24.774731226567173,-11.341815733967058,-29.61637883188236,-2.0889759414614715,0
3806.0,10.573068,-36.76691699357158,-36.93407470100709,-2.1140981528457696,24.176530289216,-21.78556763251656,12.706597318164444,0
3811.0,10.586958,7.058963479776757,77.77969996384724,-95.40343555505096,-45.57554713397066,0.5759015744618221,23.963376656364968,0
3816.0,10.600848,101.6251962306609,9.62750876663056,-46.24445409380782,-11.945877280784613,2.646970668151866,-27.005755258202463,0
3821.0,10.614738,48.115917379778026,-79.65336190343383,-43.762051218595296,-6.268810613681322,0.9440866524648026,32.4245447844538,0
3826.0,10.628628,25.746528737859148,-22.09949645169549,-43.23875011850877,-17.842872764207286,13.431879702651674,5.224896416001752,0
3831.0,10.642518,8.85145423452288,50.7975627589841,2.629269971355953,-9.205161071161475,-0.2522923572202211,2.533311577186557,0
3836.0,10.656408,36.56848862594665,-35.440488156278064,-78.59698107987855,-31.769625719365937,-3.64509659334284,37.08468098407815,0
3841.0,10.670298,30.98349625945929,-8.092553096906267,-30.223845764531955,47.154183946537735,1.6011575403106626,-6.7229033759065615,0
3846.0,10.684188,7.536488195438912,1.4276919745890204,-96.2250953984495,31.462840605955098,-10.358323371987767,23.46968449946539,0
3851.0,10.698078,61.23905577859462,13.550744215863462,14.156687333703683,7.837910867736301,13.064128151999894,-42.395829930683085,0
3856.0,10.711968,29.622983003006475,-27.425661355725207,-46.975380801186894,-12.847434670320489,41.96953929932988,-6.634437028523969,0
3861.0,10.725858,53.1847964813643,-15.516195309325363,-56.16522415140806,8.190852075558865,-11.099268009097589,-5.1871984102788,0
3866.0,10.739748,-17.791845899672506,-30.88764787906545,-7.964737164914126,23.41742669026216,-38.401297388447816,-13.134321745769933,0
3871.0,10.753638,101.5961558360212,-1.5579645777540172,10.321329288973532,15.871703390964912,20.618169025208168,14.71731188588966,0
3876.0,10.767528,111.56857816570268,-81.3935113898167,-140.65698000184472,-4.896206334318182,38.595929206107485,15.101653480199277,0
3881.0,10.781418,-146.211105541043,104.89471657707853,87.38749433408877,-10.846479110361544,-9.792680547641693,-15.720921381996272,0
3886.0,10.795308,60.02245660675965,-12.413139508349987,-26.558428229616755,12.81885687267246,16.140540781007708,-26.388879813947824,0
3891.0,10.809198,-11.16594883055146,-27.741261890790486,-68.22368161890326,8.410055748040868,-29.86153421909627,9.671148730032067,0
3896.0,10.823088,-23.32860976756632,8.921407413161337,85.19191296048699,7.20897109244821,-16.432793099624206,46.677388952993816,0
3901.0,10.836978,32.23585429535339,36.700642183822296,-26.737874999987145,-26.565120678146407,13.283889273616506,-8.8886561656828,0
3906.0,10.850868,-9.1263251538814,-21.074249439312933,22.32388457281488,-20.21930121998817,42.98996921188291,-12.903928770855774,0
3911.0,10.864758,141.77975848743213,-26.31565769765025,3.9530669959534848,-14.290565808122786,11.33287396532335,-21.30331702959869,0
3916.0,10.878648,-124.9318108811625,-25.43213212975193,30.16772201729684,-2.948217008517598,-58.66078839324376,-3.988145615681086,0
3921.0,10.892538,-2.762921557583404,26.784777333754825,36.92670867081458,11.80002452261267,-21.860626775197865,16.40062551808142,0
3926.0,10.906428,-16.14442758184293,39.02159995868095,35.401468313478375,11.90169443762883,24.14004220696404,-0.0710940603788219,0
3931.0,10.920318,-21.016760159446967,-30.74587544059185,37.66952820356655,-33.65157410975901,44.36524092151113,12.10405781251128,0
3936.0,10.934208,-37.55807535548316,-39.88332729392154,-46.29161017072424,-27.97895956585691,44.18635632238862,17.138652361222114,0
3941.0,10.948098,-45.95422332278967,27.59785982702645,50.04912576338771,19.840441250747347,-54.50805934818349,-50.21840095588029,0
3946.0,10.961988,8.630322325930589,-23.87393977619502,46.71248696356135,24.12012204862214,-24.608874190214188,-11.603672878037978,0
3951.0,10.975878,33.19280090661663,-56.94601251220688,1.493423335793957,15.67638081543102,5.936638260572547,9.144473938500184,0
3956.0,10.989768,-21.958962613466003,62.25295624851193,15.020803425748849,-6.72558978903583,39.81896054504988,-19.466711838562944,0
3961.0,11.003658,-39.62274321896479,-37.86826477957802,-47.9351038245704,-9.747803877085849,17.136072940887434,-23.1579498846622,0
3966.0,11.017548,-15.474369057284772,60.98326294479589,79.88929607157135,-68.05860163988154,-15.155547638398303,-52.01834881190209,0
3971.0,11.031438,-35.41215482513374,-7.160491841880418,54.40114381659212,78.77835818491428,-34.861280313339705,9.04924130873905,0
3976.0,11.045328,25.90575599660141,-9.59906025751812,-4.402347656153106,32.765432635395285,9.727824002748246,7.05840182630137,0
3981.0,11.059218,-21.888878668428,16.500660669329392,0.331480602249397,1.7850895489853649,1.7254867258390354,-71.45216118801775,0
3986.0,11.073108,-20.91266736316035,-17.779310616076522,-0.9335520818683232,-31.82738187004517,1.8318575784314444,-17.540970536339014,0
3991.0,11.086998,0.6139326744691296,-2.478456453055161,20.742723980636704,-3.402929798294103,-18.043094988028045,-41.72905856708815,0
3996.0,11.100888,2.677049278585824,19.326524997679208,12.580632819093784,71.45389662470737,-21.89760678408335,-26.12924275885532,0
4001.0,11.114778,-71.87310233984965,5.854752605898906,-12.744697908416413,-10.400179048231564,-37.045040801622434,1.0529029773542948,0
4006.0,11.128668,59.14506720617813,12.84070420491173,12.614673776303135,10.11377515209077,-17.633423234143237,-16.00439166148681,0
4011.0,11.142558,-5.357525830073562,-1.1639430815396037,-7.499502192866327,-31.37750936596313,28.32311933155814,-39.34947857168024,0
4016.0,11.156448,9.328344381754777,-15.51292013462237,5.281412185832192,39.5847662324333,-13.93881095561498,17.74528517784588,0
4021.0,11.170338,18.90691587865997,10.67153033749203,26.133756672797265,-6.249666395998897,21.571070979126777,-19.77861010905274,0
4026.0,11.184228,-16.649717936438513,9.055790665660522,18.02010149463756,-2.585638743305074,-18.57576309836101,71.53110406609999,0
4031.0,11.198118,20.927822639984097,-4.107232395339009,-22.972737498381846,102.85645135162568,72.09994653443266,95.43966561424014,0
4036.0,11.212008,-3.79077950777293,16.547314376902747,-4.883098850947208,-48.0040175176702,-37.2784329099373,-48.35520976120959,0
4041.0,11.225898,16.65572305005202,1.3111100876738262,2.446708703705176,-28.19479069520242,20.08357729102636,-13.646692115167395,0
4046.0,11.239788,9.649579858932732,3.684258484772184,9.032476907106462,53.80053746276739,35.627287297603296,17.222398176782335,0
4051.0,11.253678,7.224385860294856,18.108451355392,11.980838301247084,17.979160748439522,-8.025515158550022,71.90367833079904,0
4056.0,11.267568,12.621637699086028,-5.497561115631539,11.463464927928513,-34.40924849984485,-36.06366384731702,26.251843017326248,0
4061.0,11.281458,5.143582702696446,1.1936620708382772,-8.314158335347027,99.9820689937599,58.122829045180254,4.549605834977362,0
4066.0,11.295348,18.588992703812828,-4.176140442460592,24.886890801495923,-46.59476772878855,2.5803787824975988,-30.570485910832083,0
4071.0,11.309238,9.37496913646472,-7.422135596596622,99.00605324853234,-14.155035002403809,-23.96035142680695,12.512476819168665,0
4076.0,11.323128,36.52422324890891,22.668227040925792,-100.00776949931706,34.12287829487287,-57.368562032006736,23.16566928537768,0
4081.0,11.337018,-9.049317859912357,56.43932210066782,85.81440133170773,-70.92721867958178,0.7754066568101159,-27.374227497998707,0
4086.0,11.350908,26.934693751001568,-34.516183769238744,-64.55813111212913,-2.5040829087622214,4.417282690578278,15.564850029212831,0
4091.0,11.364798,25.28532159482753,-4.449376650466734,18.55124547993075,-40.26929193153528,28.431284806006985,2.934085355539061,0
4096.0,11.378688,34.12186537794011,24.65140872721805,0.0578901486908023,115.28298530792276,52.50680687627984,24.955723921134936,0
4101.0,11.392578,-18.133270820630493,-1.1211982587015117,-12.524740269549834,-143.54921660103747,-68.26515141856945,8.077335761726683,0
4106.0,11.406468,-11.320043691180226,-30.411568681664583,9.202100095501091,-60.85998262273215,-27.519292433970023,-26.142850897430456,0
4111.0,11.420358,-2.2656580861883606,-20.3563939588712,6.178749905416001,46.8391138276861,-17.120944269051254,44.389637712440575,0
4116.0,11.434248,4.640651539381579,24.936721105814936,7.4701151109001716,-50.68365410632784,-5.188302831837433,4.7918113075946245,0
4121.0,11.448138,-0.6407043581430982,15.005846685323464,-7.282944769556727,-30.266955204468843,-5.569099622812139,-37.8730760613182,0
4126.0,11.462028,58.312274869964256,27.2740873157447,40.30496325546324,-14.396531597880688,2.5043757832276903,-1.979075499011741,0
4131.0,11.475918,-24.189392676642782,-8.557162329697393,-7.27144459182804,-7.214261495154393,-24.99053545310821,77.41603670183713,0
4136.0,11.489808,22.709116104804515,-24.453424564251144,-15.237057017627892,-4.320405565086365,-16.038832254870997,-16.353236541931913,0
4141.0,11.503698,-51.869031981269686,-23.887955069649983,-31.0105946268106,-17.104950536015625,19.54560436401293,9.709011500090464,0
4146.0,11.517588,-18.92820990368129,16.657379038903827,12.96296157020302,-16.65706660229945,9.751295014786278,16.8402407370954,0
4151.0,11.531478,-23.117510322986497,6.956157321305274,6.527364873736024,-39.26051411576828,-1.2254951299161163,12.438927445717216,0
4156.0,11.545368,-39.1165588074857,-14.67971914692793,-0.6739528205521736,6.184843991713655,1.6608314516344906,-34.68394347917028,0
4161.0,11.559258,-12.00639001780922,-4.517642621470447,-10.2194520627022,-15.603397687982802,9.33823344591712,9.253359605005588,0
4166.0,11.573148,-2.422543098036723,4.500424643304145,-8.858428203084374,-57.681047803065056,-51.19817727932255,13.83053350208808,0
4171.0,11.587038,3.063665253008982,0.5917033173457664,17.736678509986817,27.4869178744769,18.68540060314632,28.947466953657184,0
4176.0,11.600928,41.762176388471055,11.069035020687192,60.11524412525477,-25.77465094971817,11.374904657552298,-10.764020126046743,0
4181.0,11.614818,-57.42772695840519,-23.036007732357568,-90.42864665293824,12.42052840815098,-14.495333451351112,-66.84809346349108,0
4186.0,11.628708,-0.0988931730984941,-4.679941177833351,2.728909512226694,-12.998471244162149,17.887928079716012,0.0654351209906023,0
4191.0,11.642598,4.830347697497543,-19.700196342146363,-34.96053134217723,-102.01972477954745,-25.48850342351256,-6.362054142949306,0
4196.0,11.656488,-5.024632682620874,-17.332216557688838,-6.1061037103595215,-0.9396637625242714,-18.654344214751127,61.71402263972659,0
4201.0,11.670378,22.315396158654583,18.69441042045345,-1.4237819487602588,41.109620439806825,50.37527171196075,-15.379544606616768,0
4206.0,11.684268,-26.126343125829173,-4.465980121766822,-12.893265570837269,-6.414822443139135,-28.61697088618054,37.11487025694231,0
4211.0,11.698158,4.526329315285511,-21.421056155996872,-22.321509773179464,-13.541233820415531,12.84622595878104,-32.816541309007455,0
4216.0,11.712048,-16.630368865665197,-10.601399112762104,-31.624201349009475,-9.179270402289069,-22.804143513512628,53.2778525605784,0
4221.0,11.725938,5.4569380137328185,5.607774620025354,-6.266246770944038,-11.52393492091054,-37.429088272448965,57.01688864076972,0
4226.0,11.739828,15.3824321706953,27.710421411898214,-17.378773255233924,-40.44246892538965,26.46698605236656,-118.02321360382524,0
4231.0,11.753718,-13.730398089329691,-2.389227206638389,9.525056174472796,55.59688800534212,16.586396397245412,2.583766468763248,0
4236.0,11.767608,-13.987176067247,-19.322536649384965,-21.05895260621812,-61.515340875655504,-17.783331504163918,-52.80428676629168,0
4241.0,11.781498,14.906720030312115,-42.46909894383511,-9.631252038464591,39.422327278445614,51.41074873716733,65.67788811026763,0
4246.0,11.795388,-4.279814910626071,-0.5176726530353744,-58.56981765821837,15.67208434316632,21.44588881839164,-11.813673562612497,0
4251.0,11.809278,118.51072862427228,-11.870500935487875,24.922170428914832,-28.17295168092778,-38.24763641916003,57.87585005863457,0
4256.0,11.823168,-124.66319137712574,29.863192913873768,-11.141303783141558,-35.2392418240118,4.153140646081287,-12.78650078682415,0
4261.0,11.837058,-55.49094361702196,-10.898345932191264,31.61873972442512,66.95145744209756,19.62806281776169,25.362858561178907,0
4266.0,11.850948,-22.183650631997537,27.78743682924504,-68.23836432659742,-56.22113048341295,-16.250241144154586,-48.829866179878266,0
4271.0,11.864838,62.83655373682724,42.53312515267726,-16.62754308858357,14.617194871361336,-17.14676499827713,41.48262837423312,0
4276.0,11.878728,-24.68181036860384,-50.60203129445074,40.07249463050589,58.11593117341738,57.43065734034015,-33.762211980986635,0
4281.0,11.892618,-6.294635639282571,-11.893770704279534,-4.017233767580283,-14.215229519072256,-5.20479547226453,-0.5922231125682718,0
4286.0,11.906508,15.244970184275076,-7.142809341012899,-10.738064005730807,-11.411361375272644,-12.262937803977865,-22.22200238497789,0
4291.0,11.920398,10.686718177789414,-15.270247874494368,-13.5700225375169,-17.602365331793017,-24.01244762258029,58.56653568454232,0
4296.0,11.934288,-2.3223685185517384,22.728252683060017,3.815212052070345,30.90703153203424,111.29056568151616,-33.63589270364446,0
4301.0,11.948178,6.257628465262444,-1.4184034828897136,-11.257085631946865,-27.193081865980567,-73.12451528643402,1.740460656575788,0
4306.0,11.962068,-10.920220869154557,10.222832927043862,-14.72101943217606,45.00994905863711,-6.131823506409582,26.063257692426795,0
4311.0,11.975958,-96.10821102390084,-26.50779590782936,-57.1906123874358,19.99832337681403,-34.69306575301078,-15.645953904115174,0
4316.0,11.989848,57.80347130177896,27.65214360946761,71.97756037426784,-6.084735322656469,6.399481351072299,14.3344622853838,0
4321.0,12.003738,-0.53028832976341,-8.830610710301375,15.103540926299882,17.759731332081515,32.27415478468513,-0.8187879598937648,0
4326.0,12.017628,5.746831119383868,9.948718136411305,8.845623474588288,-7.1691714071964086,-10.547706936695253,12.125851565722671,0
4331.0,12.031518,-30.02219807383611,54.34989708366531,13.547559926489305,18.195435016859896,-2.5401198833463194,2.6236877989219587,0
4336.0,12.045408,6.656413713153,-18.30441935651492,15.323683642781347,-41.07753787103818,-26.47421927281766,-2.386197958865936,0
4341.0,12.059298,-24.86035672900864,-29.857943571842387,-59.65974765459243,63.56319677175194,-24.209034169632268,20.561656028102146,0
4346.0,12.073188,-1.0429647035543286,31.89051058040261,69.60885971588753,30.286750439585617,20.88434349890628,38.45176808546139,0
4351.0,12.087078,-4.523764982099893,-1.2519255307409365,15.981484359698268,-9.4835070675668,32.210580510429125,-16.338454166353053,0
4356.0,12.100968,7.128020980323384,10.13960405702298,4.399463556436199,12.715428017650115,8.151862610569239,-13.935013545412051,0
4361.0,12.114858,-13.97628305705718,-1.153153888256751,-2.9817970996422947,27.2139502620199,-9.569652838546558,19.062347197653303,0
4366.0,12.128748,-17.272541067396197,-6.390340348162859,6.783537546344721,1.3762085151590178,-33.5450918620766,16.45781290693742,0
4371.0,12.142638,2.495798113236944,-0.4201961276187926,10.48868143314574,27.042049529859742,31.247888902230965,27.534208503154016,0
4376.0,12.156528,-0.3037997079996044,25.961857771999824,17.068458023978067,14.98782300821812,18.530619930650047,2.112292228259573,0
4381.0,12.170418,-10.267576533578165,19.66536136134249,24.16292461355298,-0.1662205881024228,-31.93236913418028,96.26850822452056,0
4386.0,12.184308,-1.6834635004277931,-6.87827453057406,14.124254676251663,46.08081129496458,47.92108210499758,-73.8123809469149,0
4391.0,12.198198,-23.45142282004864,-33.006362768541905,6.855997154551485,38.46375927541032,-5.223210975981342,-19.19761952394453,0
4396.0,12.212088,11.163704156779843,11.34311167250805,6.783486305952557,35.77593604451052,8.192712794100844,17.588532394444517,0
4401.0,12.225978,7.470806529972802,12.588849738358649,15.984652985038,18.14615352819477,17.553594411956006,-19.29151185655711,0
4406.0,12.239868,18.56855075866721,25.146993074480385,69.56346067441473,11.259990391792794,12.71207383687952,0.4508898181074263,0
4411.0,12.253758,-26.19338534359809,-73.28566269373815,-14.916139425105074,17.25031795787375,11.030456398764398,1.487964542646896,0
4416.0,12.267648,-9.034583984959156,36.14009831812646,24.25431864892564,36.60991516025685,21.682045165899545,-70.32127485118075,0
4421.0,12.281538,-29.63294583563017,-29.84054143884299,-14.774871515501784,-2.301542847383522,-48.1493911143281,71.16559560829508,0
4426.0,12.295428,69.07680420023124,28.09282874838392,60.17636029393484,4.884233693997857,22.30318833010348,3.6152818143096015,0
4431.0,12.309318,-8.53142174207671,36.31060667913293,-16.33081146282148,-24.213683793809984,1.5352982471773835,52.67055085494657,0
4436.0,12.323208,-5.029187002940272,-19.30725550305558,-9.951788958311395,1.8223577381488665,-9.064513469150551,-31.99702198179548,0
4441.0,12.337098,24.57875644414193,-34.74310509199769,-5.059635632014742,-0.4435407517882463,-18.06858799283071,20.91150061827624,0
4446.0,12.350988,-18.3093770674202,-21.37240405587579,-4.59837188028118,2.193144256123184,-1.3470043923528108,-14.538220822096772,0
4451.0,12.364878,-6.84408585033769,9.81108991185248,-1.7204224666530037,-1.1634486307156813,44.29305899663425,45.587964003679474,0
4456.0,12.378768,0.9540409304230656,24.92860081398473,-21.635000395365644,36.10354619823434,25.06354808133178,-8.98798130111513,0
4461.0,12.392658,49.530281142503874,-12.240338115268216,-3.5865232604424166,-40.29892183724208,0.192170263303975,10.680168834672331,0
4466.0,12.406548,-16.010389801633153,10.031040307857197,-8.63561178733245,-2.979050827022254,-13.447008002018134,-21.1047554798082,0
4471.0,12.420438,0.159859737529485,-34.58564940258523,-13.731305960937924,1.3581366851960333,-56.78926011908605,6.705456539518227,0
4476.0,12.434328,-12.477013080933586,-19.073094205970463,-13.383208198038544,-17.29067189409876,1.6989557687846948,-9.927026890153538,0
4481.0,12.448218,4.894523097933879,15.8212493136701,-13.299086675444478,-11.490679167999076,15.511175814977651,-8.170090920266746,0
4486.0,12.462108,3.292060982734688,31.28268587823989,-16.058747776974528,2.1542952740205235,-15.924377770620978,4.255979234467066,0
4491.0,12.475998,5.282302502372613,-15.428900587549272,-15.147223232727976,-19.07097523220668,26.11584927486443,6.751397893387586,0
4496.0,12.489888,3.85440501635452,-10.639514369816707,-19.41233980014588,15.726847277132665,-7.680175594032711,1.5524876980579414,0
4501.0,12.503778,3.90760860513336,-20.399055543966,-11.669118676321826,-7.720771466278943,-40.05790937093737,46.28952239342524,0
4506.0,12.517668,7.344920353533064,10.97813463505573,-0.8316597080871571,-12.962940477280563,32.727443048655374,-55.64658636249312,0
4511.0,12.531558,15.02216881927606,10.657778785266888,-12.829417684142818,28.63665356684336,58.87960197387845,-0.8633088240503355,0
4516.0,12.545448,9.223013606585916,9.538215894860423,9.57039833233413,-29.18640540077061,-47.28140477439622,-31.923179265406542,0
4521.0,12.559338,-28.1991496968878,-12.34718583969402,-21.52622507286081,-9.915920908372083,11.896533014265817,-5.383891758643991,0
4526.0,12.573228,-11.7759889533819,-16.859119648575643,-15.85763086367706,11.633845952798076,-35.446751103288115,-26.526400114067577,0
4531.0,12.587118,4.672596757291203,6.208405453756758,-3.93423364187032,-3.996048110134709,18.174785748700003,-19.612373988705293,0
4536.0,12.601008,22.612119563237066,0.0975134563616233,10.234563038939342,-3.220378789769023,-3.015196798106318,-1.188938697366294,0
4541.0,12.614898,1.8312727119794443,16.390652860692466,4.961265541617539,6.355963860130951,-8.514498434049617,-2.41883298943604,0
4546.0,12.628788,-27.295944386068985,-12.189942769703949,4.503765649573216,-8.131479792936451,5.465595016875775,-25.212921436285896,0
