Frame,Time,RightHand_Accel_X,RightHand_Accel_Y,RightHand_Accel_Z,LeftHand_Accel_X,LeftHand_Accel_Y,LeftHand_Accel_Z,Label
1.0,0.002778,47.42932700725928,45.212840943783256,-10.163380598809844,-177.60999287147314,31.677400233027747,-81.58306882460786,0
6.0,0.016668,-1.3002385321842205,20.644583132919777,19.55815817800517,3.6685604072721816,6.152437300638908,4.951469694952046,0
11.0,0.030558,-14.325297360565536,4.871019692335313,-2.986629609521888,2.40822275618844,-11.4509149080051,5.946035597014591,0
16.0,0.044448,-34.94723798251647,4.721134355007994,44.36344148075318,-15.577479471545685,-28.92586391452272,24.90820980320621,0
21.0,0.058338,19.381219426560943,5.427914225788967,-0.4227224415022466,-14.631467315668296,-10.650093994893057,-9.38645720341722,0
26.0,0.072228,-8.61873460575203,-7.925855342674108,-3.987240779037693,-14.562800039580496,11.863566754271682,-28.136637768208,0
31.0,0.086118,-10.047485948599704,-2.010295147008052,7.020742154460506,-10.010300949144174,-8.920342356596356,-0.2268912463544379,0
36.0,0.100008,-41.68510272257984,40.188560227804594,26.274919563856024,-56.1273483434995,-17.476344014149507,25.06771965658881,0
41.0,0.113898,46.42826324368559,-32.29844273266725,12.152009391555676,27.706067654719043,15.519657070850062,-32.554218890455594,0
46.0,0.127788,-18.41160014668269,-23.50822397828453,3.115352584882848,-0.9822465393146832,16.119107867298045,12.390466692778665,0
51.0,0.141678,22.355090211320856,-31.207928689922124,-35.02416407467593,34.58419956478378,-7.696609653699452,-0.5623189334057432,0
56.0,0.155568,38.04341901002194,42.48628294228951,32.54733661077256,-43.15270473813885,9.134907930000775,-9.32920679891659,0
61.0,0.169458,-11.270202935057243,-52.5415524415045,31.623636694542547,31.194873089685284,-43.59016422742946,15.767178023130516,0
66.0,0.183348,-14.427038186995986,88.57735921673844,-62.417325198429154,-23.92739202036105,-3.317982656847005,8.87943189521443,0
71.0,0.197238,3.425822108464649,-68.57989687247529,9.131757358628333,60.44497905502807,-44.33808960829279,-11.315454668400502,0
76.0,0.211128,-43.890092956486185,92.35035160569448,6.496870240161538,-64.67753801650358,98.64316234463357,-3.977600932463577,0
81.0,0.225018,-1.741087548796326,-12.210683508866351,-5.673164912666991,-8.770955852166853,2.628263318541549,-17.102171243924627,0
86.0,0.238908,9.54431757258924,8.04787175361019,-12.50998052887303,14.569735916099956,5.694742363314637,12.84759145285083,0
91.0,0.252798,-1.2683954699769997,18.66345984699997,-9.023744693588151,-44.58331094699136,-8.590183002237199,18.069266741940552,0
96.0,0.266688,29.39589336514496,-55.67001094573814,-44.01585776368959,19.036462199743703,-29.224994903677644,7.218583448960818,0
101.0,0.280578,-8.079808039568526,27.6653878165886,5.316587980086648,-17.71967004961315,23.300498859210418,21.177668258095714,0
106.0,0.294468,-4.372579160450374,10.031857250049915,-2.4321987656861506,25.75147179189277,10.15201180224773,29.388143309064446,0
111.0,0.308358,-44.14237514581106,23.239712859566435,27.99437953747544,-11.145480437803696,-3.258947769577357,-15.59942923736115,0
116.0,0.322248,2.036893692908082,5.801505264256571,-13.003107896461884,6.654187877038908,24.38602215238039,-7.364502133814263,0
121.0,0.336138,19.9088183989697,-68.12565048803648,-8.069098591130508,-3.97883204965944,-31.483103650585623,2.008159604044068,0
126.0,0.350028,9.772519629902934,6.941981055437323,-15.624579509411998,-16.560554028930508,-18.46597629486693,-7.170492865562254,0
131.0,0.363918,15.37786842341358,7.755918782097313,-13.885913530894213,24.638270986670072,29.84483472943047,-27.21120154633322,0
136.0,0.377808,38.22605457745846,7.886316111368465,-0.2973423952337573,-3.177837127476446,-3.5108985012957348,-5.38392585044529,0
141.0,0.391698,-18.06803251501242,-27.420129593123463,-36.60015564705584,-0.6938428080182024,12.873015006809734,19.27918114835888,0
146.0,0.405588,12.616812260611557,9.753000851686464,-9.34251301722512,20.708630567155872,-31.07360584831284,-5.799445437813013,0
151.0,0.419478,23.09427088885104,-17.13111807479141,-9.91025360129027,-41.80374572623912,11.35495851199813,-45.16682459770608,0
156.0,0.433368,-17.67205142647864,18.62674360846727,-11.797038431956386,-10.273639987987274,-3.372707777148364,12.813952208134111,0
161.0,0.447258,15.425330390451162,-24.913904615508613,-26.500158155290013,18.75245098565086,-20.222651517434706,-9.01088779115554,0
166.0,0.461148,-29.592610731511765,48.59462825928226,40.65343641247236,-31.526485835665788,29.51253111462012,4.5683597397847,0
171.0,0.475038,14.964728441520592,9.5043871235745,-12.69447043478564,-27.1647094568447,-28.878907013803875,3.7381183154629,0
176.0,0.488928,45.29159030337131,-23.031907680352585,-3.320707669665399,-34.409225947491954,4.839507529550416,-8.928599222120399,0
181.0,0.502818,-5.271910162485291,21.14501992134322,-5.3431302537186856,40.90251906153652,19.973811836462712,-44.78116409192232,0
186.0,0.5167080000000001,-2.6709464489483947,3.244991086578732,-9.746169902245354,-21.315895089140813,5.820648766756698,23.73341989855481,0
191.0,0.530598,22.0979181190958,-25.087234848974795,-8.337329600366079,-11.144991633615266,-1.153197918242796,-1.6017841783717897,0
196.0,0.544488,44.43373617121949,15.82937528910426,-18.03691935697622,-34.07231998210093,44.68703487383957,6.260047436477116,0
201.0,0.558378,-0.8896066965596532,-23.877079450613643,12.862437278804467,48.811941392206585,-56.14480290536276,10.680653519317296,0
206.0,0.572268,-22.08534398616951,6.064563176529013,16.805271589454716,5.916866743510045,-24.11732601559747,4.952401153202189,0
211.0,0.5861580000000001,23.221801858269,28.473055900993693,-22.854987312520933,-17.953174624533094,69.4958140983755,-45.773799029091,0
216.0,0.600048,-18.63488715267939,4.7385261400229455,26.20998874248504,-11.43244749423965,18.419760749771086,-22.20857091305598,0
221.0,0.613938,21.594686052823867,-17.53312365993121,-26.873712335375053,12.625458968954526,-21.217606566128453,39.33008211819119,0
226.0,0.627828,-10.50276674986304,-9.066299804071006,1.649954537525493,8.338059029091005,-15.05840444436132,4.021203502497959,0
231.0,0.641718,12.887605455241566,9.365823235630966,-12.103088835113834,-2.6760608305968816,20.57376915211101,-2.451723877178559,0
236.0,0.655608,-6.0959583113080384,12.808653933484043,16.346577705072853,-19.613034472873995,-5.420474419329572,-38.45483156687413,0
241.0,0.669498,-7.352842114299332,2.9615207060320343,2.655938297883316,34.682040122533486,6.623637439388993,-3.630106406442817,0
246.0,0.683388,-9.66813201196528,-11.72317378185582,-14.038834107211784,15.122460550241817,-14.16468446797537,22.01127698373214,0
251.0,0.6972780000000001,-27.841412176166344,-19.62817440177844,-17.029550549528942,-7.9119794900632145,-26.347954507228884,21.960896236685063,0
256.0,0.711168,-4.620973777682066,13.41443577952873,-10.557823850825551,14.034022537999896,8.4829833210424,-19.92138648641508,0
261.0,0.725058,7.740733651884109,15.314119888109666,22.02706596919217,22.519169119186387,1.1892842363040437,-3.338540087398924,0
266.0,0.738948,-2.740966145462961,12.643299095971788,-1.6806424643110898,-10.201881033231963,14.122151935951782,-4.659054737760206,0
271.0,0.752838,-9.00581250785934,-18.98970108102322,6.163289593970564,18.224758502944745,-17.16057343587508,36.49869041451512,0
276.0,0.7667280000000001,0.6268593730722403,-3.8829323218221736,3.710879162564799,-17.518047213558532,-33.601482785724166,31.744406037319287,0
281.0,0.780618,-12.012225517759813,-8.731877566336635,12.551510222173052,43.70277141030126,17.954608361065624,-37.31476178082029,0
286.0,0.794508,-9.317930633193937,27.11147965516819,-3.590483205012376,-2.520760340880498,17.83081251977648,-20.152227680113413,0
291.0,0.8083980000000001,-2.168454639234165,3.286094839006536,12.917169760184864,-5.238807310566371,22.5526247787554,-2.332509174207728,0
296.0,0.822288,-11.802681573001925,-6.370551764006694,5.856782598081263,9.329618265086372,-10.463666183347442,25.50841962387972,0
301.0,0.836178,1.8559200125705368,-8.163876408021164,5.8602055937143005,-8.300459131830834,-37.1870339252293,14.425747161127576,0
306.0,0.850068,-7.054724479326768,6.757668763172,7.030036628781538,18.80434318036696,3.713312889922349,-6.569657094740058,0
311.0,0.863958,-13.4683152789895,8.447108142077667,7.019545796143868,-6.3972358445494,12.816994556214429,0.7505717609999181,0
316.0,0.8778480000000001,-11.644946772828996,7.030628681874042,19.461979326596555,20.107033548334645,22.14473039480549,-39.76591540214263,0
321.0,0.891738,3.2922474588021,9.860487823769212,11.760971731028642,14.788861196032558,-3.841388847853153,11.136804973184717,0
326.0,0.905628,4.848449422714543,-10.08716483911886,13.386019413142884,28.790444011678048,-15.213878548468657,-1.2653757842379547,0
331.0,0.919518,-40.010069755379575,25.90688885991065,21.37436342292655,-3.5242527733653923,3.690458212977691,-5.770487315057629,0
336.0,0.933408,-14.511094526430067,-10.917781188653318,21.23009019455653,-3.79643087175085,29.848040404288728,0.7051396999616486,0
341.0,0.947298,45.12714667844338,-6.69480163053353,-23.99304926733413,20.996864372279823,-2.752307555707226,-14.21061110804878,0
346.0,0.961188,5.931448379775267,-35.43595183725056,15.58772917560454,9.669320602139605,-5.512759375317359,10.043686054389376,0
351.0,0.975078,13.739651858684738,25.52198599045395,14.640158905215923,5.931636073445304,-9.182304780556752,21.269556675082423,0
356.0,0.988968,10.587766422919294,8.905618876268255,19.97387712437597,-20.11546132449981,-16.731122457305844,-15.0226507226451,0
361.0,1.002858,-9.13854358748844,31.630534437099875,24.98093075570788,-12.172226706484274,39.67140968790802,-25.0422719583199,0
366.0,1.016748,9.480929282426704,-13.021353108634967,-31.286119485949044,30.384696867607552,-13.2378870801431,29.755686838771386,0
371.0,1.030638,59.27751995250058,9.321728920984595,14.317872195424368,2.735577983325509,-9.38343135837784,1.244055793636985,0
376.0,1.044528,-11.167626085170902,-7.360937038914214,2.495973182148191,-23.523893691251786,-3.201337182700051,3.2930799193943736,0
381.0,1.058418,10.763152443089616,-11.866816166717792,-14.491866703895573,-14.149916882732969,-9.376685372370815,-1.942047734969087,0
386.0,1.072308,-8.270292428499832,-41.1300879742127,31.215689414712795,0.4829171276462836,14.224746205713927,-14.360252039483246,0
391.0,1.086198,2.3536973736020697,61.70288104066664,-38.73153965291458,-5.447177001946026,0.8704833016253399,4.31712407350501,0
396.0,1.100088,17.847030010525827,2.1868075389578707,-1.643931475813718,6.515269456561759,-9.807813110787327,6.031480809444597,0
401.0,1.113978,14.82596249159264,-1.4628579386917666,-11.229074585321415,-3.5378749312722704,-6.428643317311247,15.617947144473538,0
406.0,1.127868,4.021436654734352,4.226041190400489,-3.653186968536244,-0.8264134549997392,3.470431428806907,-7.165601880483292,0
411.0,1.141758,6.895742057905228,46.130431797821046,11.870572025198506,-6.878738493318041,17.20910824130606,-12.53699840525169,0
416.0,1.155648,58.01784244299627,9.918941527944671,7.929314655535608,-2.442824434317717,9.226979298366196,-6.338049443325073,0
421.0,1.169538,-45.34913369927628,-53.580784980792735,-31.445720607137183,9.770625379803882,-20.680075755013227,7.840855715990482,0
426.0,1.183428,10.325668212668122,20.131490146433848,-7.550395312652337,-14.089381911701514,27.88799575599113,11.586114025027412,0
431.0,1.197318,-0.1429782738134274,-70.8067294795,-19.68509300999749,31.22346692396646,-52.30839121704789,-8.542348408601203,0
436.0,1.211208,-10.90015871573997,25.14906537701861,14.660171806386714,-8.599582668938549,49.76050965572112,-29.925521783467808,0
441.0,1.225098,3.6075670372973847,-16.641864008344484,-9.69619168906038,-0.7015872740015521,-8.246529583450297,4.303871895206733,0
446.0,1.238988,-0.6959375989033019,-3.229304221859054,4.557167319503632,-22.777825386118195,4.640555758208405,-8.02260112953262,0
451.0,1.252878,6.196218904159155,7.674061623290013,2.34718393728654,1.269848601722912,-16.783134234951618,10.864318658858952,0
456.0,1.266768,1.1996967381984307,-2.0739046518157505,-24.604724236719505,5.784946310597851,-8.193156660764812,-3.6982017243324674,0
461.0,1.280658,-3.8791546627416,6.133290144733273,1.2141887818081525,-29.50295820186973,-2.4990774012317347,-21.120282424730505,0
466.0,1.294548,0.7525779242960389,-18.14335958182401,2.3025500798626,-3.904572670276364,0.4547278495585169,-11.115300847980288,0
471.0,1.308438,11.923671641896355,-5.398028045913631,21.56594863167476,1.4710336396670192,9.546387792721486,20.13382273317308,0
476.0,1.322328,10.132526090190364,30.36917153824204,-15.786358937958264,4.171443381372961,-14.8774576634807,4.464245656362039,0
481.0,1.336218,43.87838519553164,24.950768375896665,11.711668729400072,-6.165844026535022,1.6613684542436036,-2.58810374442022,0
486.0,1.350108,-48.25487732947084,-10.7845835315876,-22.885861014068524,-13.918256618456311,7.082129275777915,-4.058218842420076,0
491.0,1.363998,-9.099322369026408,-27.871614137593177,10.537082016579214,-11.455397364637392,3.002810716788656,-6.099538814507095,0
496.0,1.377888,2.965160715511897,-5.571329010140897,-8.833191857614743,4.734253871782205,5.353626321207891,10.385913643606752,0
501.0,1.391778,16.05988213394521,14.420427890749862,3.0857905196263005,-26.547483441459384,50.7516896984966,13.632319356193564,0
506.0,1.405668,29.347119485248456,-29.65276777591185,-10.271530772154492,18.804888072936905,-50.07820616045845,0.7465673127550274,0
511.0,1.419558,5.25404666698989,-16.471696338077955,13.197152998304093,-2.417156141073983,-3.643675438813326,6.331766061688636,0
516.0,1.433448,-17.346587438893685,23.6652981785501,1.6994488837896853,10.744045847695904,19.70554183593285,-12.148023602662832,0
521.0,1.447338,22.018324131694555,42.24247367368193,0.8650662440381769,-10.790575358108285,10.527416479964767,5.902075049277367,0
526.0,1.461228,-5.807173784205499,-1.3606436359608445,-22.394857589798665,-21.517918029222663,14.70758176538964,1.8707332979499105,0
531.0,1.4751180000000002,4.96041657912332,-76.79165804673966,1.5774300066550015,17.966748360016172,-93.665912020081,15.355482172113035,0
536.0,1.489008,34.183249551516205,20.30033730411608,12.974030084628422,0.0503299534280392,0.8393164168923488,-2.5065795200006846,0
541.0,1.502898,-26.241439302559083,0.0305316197011675,27.51186591496618,10.05041626873196,13.425369606218482,-24.55001965190045,0
546.0,1.516788,-20.44841319845462,-1.0433448678624582,-25.034704315312144,-24.85780830068349,16.843861177654805,3.1905971340757,0
551.0,1.530678,-8.118438146178066,-2.812535960727317,-8.474976674842685,0.2335154419563014,16.570568610449634,-2.0654368374525127,0
556.0,1.544568,28.11901364149976,-46.32801602237344,14.34704259467472,-58.16855731562938,-43.02875259120465,-7.604887157812211,0
561.0,1.558458,14.616974072075346,14.858944670281808,-26.166850930066783,111.50854144158797,-1.5021096983917408,12.943965493301606,0
566.0,1.572348,-22.781426813481545,28.087574187653424,3.0529407480996547,-23.61165012163306,27.893542703672,-29.638780996230505,0
571.0,1.586238,11.752279407439632,6.449778784709787,1.1051074731730974,24.52712132712501,13.026813183464494,12.882600768651358,0
576.0,1.600128,37.0924874585197,-18.462334258985884,-35.25230784418634,-46.68383309051718,-0.7447497910976546,-14.459404812648152,0
581.0,1.614018,10.83918692901271,10.812882061885787,26.485091550214303,95.23789547739187,-9.293710923180338,47.43907893682852,0
586.0,1.627908,-60.05244365101941,-8.767374910416777,-3.585295262580241,-79.45595740283173,-8.912673064163284,-50.48759597739583,0
591.0,1.641798,4.380367106610152,-14.694245693835144,-11.203500032933771,28.49978556083726,8.12997948810527,23.19010978485007,0
596.0,1.655688,12.7602374783721,-1.99298586022442,-11.769510541097931,-9.609100271411013,-12.96585295037143,12.834092431321489,0
601.0,1.669578,11.965048268938643,12.352579288671556,-24.926729039829567,-0.9829925414623966,25.24668710343409,13.193146874284816,0
606.0,1.683468,-51.490234783755554,-3.666054471720608,10.729558025676049,6.0813753864564015,-27.98069915113176,-4.700917582206903,0
611.0,1.697358,-7.8684957363486046,20.163465380186747,0.355562368481765,-7.004082658780317,-0.3525625019336296,-21.32013108842396,0
616.0,1.711248,76.47025428338445,-28.43828720058886,-6.254827737854178,-6.195884325022055,-1.6010396836684806,2.8502236556653866,0
621.0,1.725138,-65.4313310973641,11.618352439150014,15.879519321126509,11.64451661064282,-17.460545141891103,10.268776526137408,0
626.0,1.739028,10.896772461610468,11.209083921173947,12.85247402420061,2.1207616272737337,6.662343214629487,26.05192716511537,0
631.0,1.752918,-7.7069748830807905,9.853132816810051,5.024003253125194,-36.93603670596477,46.07209484080714,4.525367311400901,0
636.0,1.7668080000000002,-13.2957350799328,-19.30704421091594,-4.747294319575431,3.1898304098709165,-27.58182103516436,-36.0747547674899,0
641.0,1.780698,-6.245166249351694,12.190096310378214,60.85962653422549,5.174856843688588,-28.477775851132574,-26.985627669242987,0
646.0,1.794588,39.41732983814416,10.601045617765624,-30.45706297904553,13.118196622592276,23.692210082314656,31.143803614940843,0
651.0,1.808478,-39.99041625442767,-21.09418966965732,-9.053694664612406,-0.4413344939255639,-4.947535335051131,3.364526814285596,0
656.0,1.822368,-17.442205146008057,-24.31389502543975,-2.698017835924004,-1.6109933838345452,-14.599124350103692,3.758866578439102,0
661.0,1.836258,-0.9613004871485736,-6.380114554081903,13.764510393917035,-18.8538170192826,-19.38193488966101,-13.538469342727051,0
666.0,1.850148,-8.412954146513787,9.656133487303258,-0.3801762738176233,10.060667753917553,34.96840958630098,-19.80024953332432,0
671.0,1.864038,-12.743960220574753,15.76117125654369,13.005511776237851,22.83657958279817,-5.555383525289969,23.88750691235586,0
676.0,1.877928,-11.820551079965847,-6.741735669079442,-9.91727071865646,-4.46961281027084,2.241106579497492,6.002806266597506,0
681.0,1.891818,1.327638191195268,-14.81624192831226,27.044217282381407,4.266288092862615,-19.32158996440869,27.939476624004712,0
686.0,1.905708,-0.5504130628795796,-53.33092934382087,-22.61040148445831,38.4444295074618,-67.52118408401248,42.65283980071888,0
691.0,1.919598,-11.996552363382207,65.93116877261556,6.0395154488252425,-32.08057021050226,47.57664102759638,-40.34668556005139,0
696.0,1.933488,-5.844821334938397,15.037179646961668,9.186993627872486,-10.519800849811242,24.89690542443992,-11.91054278642747,0
701.0,1.947378,-10.45816176381584,-20.65980574683384,-15.821168512076763,16.3896535254071,-35.361941347512456,50.2841208698609,0
706.0,1.961268,-3.432182638402502,-18.45511847160562,-3.4359388723819744,4.915586250495396,-27.19937134273541,-2.3769129420051485,0
711.0,1.975158,-5.222394839556526,25.79696553387459,-1.2051727687764389,-3.166569093377605,38.2006586311102,-27.702817083729222,0
716.0,1.989048,-7.467700716967224,7.737414688221782,10.62454628638818,-10.610689163350385,19.76134116886089,4.374852551809543,0
721.0,2.002938,-10.180613850288896,-7.309895744571234,-4.823108912623587,-11.786543995804378,11.16956845340389,27.048034839062307,0
726.0,2.016828,-12.141186543961629,-4.505938133488158,9.235601700161531,11.111031769083423,-8.82170954741732,-6.6172264657104005,0
731.0,2.030718,9.189299900394971,-22.18215796382787,-1.4674035301655102,-11.046798976500066,-24.32826632972941,29.081979245656235,0
736.0,2.044608,-8.204256172308362,1.2724600153384469,-4.006650962576134,32.64521764904085,11.89870560271658,-10.506624299215984,0
741.0,2.058498,-3.017763421160053,7.846282386792827,16.957238558769653,-17.25241632000273,24.15102303059528,-30.985436232098863,0
746.0,2.072388,9.730517172203504,-29.96813952955092,-35.210962362889354,-16.787122455384434,8.001402061439737,-2.731716627609515,0
751.0,2.086278,-8.499285778522452,-5.598306941685838,6.365219052364425,-12.06377999107512,16.82978241213973,-4.908027155116892,0
756.0,2.100168,-4.391677039657649,17.08230807177461,2.4410135494735057,-53.71872776835416,-37.37086120843385,29.452958949390265,0
761.0,2.114058,-30.11876169109756,-8.839344831966075,27.77739410755149,62.96972549633001,-13.108983049697638,-33.93864589938367,0
766.0,2.127948,-51.15127761898743,57.51461950916422,49.86129944989256,-37.83456184543645,23.863766214042894,-31.12413311791261,0
771.0,2.141838,65.89075030442413,-7.009652917612696,-46.839973866999365,29.028377864621824,5.944838848455005,9.399253192059012,0
776.0,2.155728,-0.6350878079831676,-16.43714429760398,-4.284647570790737,2.46181294784971,4.605126315664919,-9.21563690831472,0
781.0,2.1696180000000003,27.322142057109968,-52.2845143823566,-10.646749829302196,-1.108521637960789,-25.066574437269416,8.37505921726374,0
786.0,2.183508,-27.742990476300964,8.80905092279533,21.76063653854889,-11.440676803711822,-9.003709371496514,13.514926838203507,0
791.0,2.197398,-7.324840154644693,-91.69876663846924,45.00682552309863,-7.253556828323695,22.483712549677914,9.0239079680159,0
796.0,2.211288,27.098412159399807,59.59044739140377,-64.15209621219725,-9.91907005517131,-4.219831885529254,-23.06891061351387,0
801.0,2.225178,15.53277044632106,29.220743551801185,-24.66461746597856,-0.3794869325442662,5.543607903402352,7.086899939636247,0
806.0,2.239068,-16.14704636077406,-3.94480522596086,0.9239308879979498,-25.512415043652325,5.93671321273913,-2.186459526569511,0
811.0,2.252958,-22.266777863902483,-2.5967061631915813,27.221241579581704,11.360243973500207,13.65617594476399,-1.9515835537298267,0
816.0,2.266848,28.098005872457144,17.533269921262395,-32.23959741865572,-3.062692627499759,-0.3607527243170025,-1.2167264612402513,0
821.0,2.280738,4.115795438135102,-21.905954241571525,-5.618477388328999,-0.304147724508911,-11.790228058267214,-1.3546497802859363,0
826.0,2.294628,-3.619899943058937,0.3160017651316122,-34.67017677467095,12.890260375331176,-8.793038660232058,15.488983072285476,0
831.0,2.3085180000000003,13.236482200740884,15.126370760354412,11.76635272964765,-26.209578787202943,1.2817748737314218,-12.184816601811091,0
836.0,2.322408,-7.610060625130795,-8.414044736494557,-13.65509240269035,14.463163244476974,26.529722866674867,-1.554637537720568,0
841.0,2.336298,4.985681680767329,5.248680714142546,-11.020328166278569,13.469844470614609,-3.083768494316955,-15.475090228302848,0
846.0,2.350188,3.5936952785008787,-16.52166514941224,-8.622988906669923,4.563705881578716,-14.370920778787555,-6.314643861442017,0
851.0,2.364078,-1.784506705724793,1.8590366834120973,-16.451526553740575,-7.638946378307708,-0.5159934255929732,9.069640701774423,0
856.0,2.377968,6.519570530474363,1.3348757141275662,4.319985384326393,-11.057743457018374,1.8694583831889409,16.42651494002958,0
861.0,2.391858,-4.09222206148519,8.032994121130313,-6.101069341652417,12.09782181935207,1.663825505061716,3.4048745261283413,0
866.0,2.405748,-20.540753643572224,-8.522370712174851,-19.16498577587068,-26.84238744344379,10.002945786895182,-23.10999180465434,0
871.0,2.419638,27.13171368347933,14.929457506768086,-10.729721269628287,9.452869576562843,-13.999962646442013,9.593021780789815,0
876.0,2.433528,50.37944381564927,-20.53170322061281,-32.6164014209907,-12.880397025688795,6.622580906336612,5.761628698111176,0
881.0,2.447418,-44.26208450886456,6.664517548399108,21.621016785551056,14.590807564771051,-9.894385409435698,13.359223287539669,0
886.0,2.4613080000000003,-9.040178252165475,61.09641103351247,18.123438601519467,-60.450126649410834,-77.32967028381555,112.28641084506634,0
891.0,2.475198,1.8533234414804804,-50.25078877704354,-9.44617172541252,8.238081093196314,56.59121294969904,-130.2780770265145,0
896.0,2.489088,6.338577431315523,-15.694773936215318,-19.07646324249282,30.925762015296502,22.254141363533737,7.657620611930719,0
901.0,2.502978,3.2583456034248828,21.25812130706916,-4.784474006775506,-55.77471168946224,5.697765335721141,-30.89321516611889,0
906.0,2.516868,17.519141095879196,-36.151277285514375,-7.437292853793648,55.74689131721394,-26.49914402937263,50.85947947752699,0
911.0,2.530758,9.38155323279893,19.145923542032644,7.484239804359228,-8.471597035253021,-8.995681266468926,6.225199021613084,0
916.0,2.544648,2.422120182195738,51.90786965626377,3.2791251355301405,-21.41884134147599,22.81383165955237,22.10535597222246,0
921.0,2.558538,13.545969394498616,-34.8735602920212,-8.192727378723635,6.466981842230554,-7.274306067476596,-36.51088849722085,0
926.0,2.572428,-13.323604462150367,7.783990691982617,1.1294822348092683,6.345448342214701,2.7457958971561816,-16.629358846676762,0
931.0,2.586318,-33.25191499887585,-9.974988390855062,0.4395431851723579,21.19700861575891,12.365216630599482,-37.8342923858417,0
936.0,2.6002080000000003,-9.479021418228466,-21.69316501015553,-2.484387720520833,-45.26871843765235,-28.225017439527555,-14.160882199733887,0
941.0,2.6140980000000003,11.689691457122589,32.87990921653214,18.8009443034642,37.96374344495708,-11.647233263993996,18.21247386431734,0
946.0,2.627988,17.026447760288583,17.938059673341904,41.20253433822144,14.610790614257152,16.28266592644871,3.040395938458933,0
951.0,2.641878,-3.2223798232930028,11.240291300888543,3.307271369513842,25.623989711763425,15.838715139574369,8.876819827404876,0
956.0,2.655768,-9.02721094962514,7.2122197193454465,4.323679143811035,-3.982866610867568,8.54397100350745,-24.13231652967619,0
961.0,2.669658,14.47823044548336,-6.782215800954545,-13.10159372549338,-0.4638345745918628,-7.089553750192699,-24.77200957283035,0
966.0,2.683548,11.33190100010498,24.788302096200905,2.3641917000051818,8.989310900755603,-7.308281839812658,28.45718356406756,0
971.0,2.697438,-5.035684758734556,-13.483198035427698,26.88691085733898,-24.24972475666821,-1.9547227981770905,-5.268489898525358,0
976.0,2.711328,-1.7369138292057942,-8.862063175801989,14.99145161518217,43.15635218541695,10.406364039921636,17.981540337807065,0
981.0,2.725218,6.8995838680434485,3.0980356416590635,-6.218780087432883,-30.952736461843585,-20.177330283745032,-1.541214302695015,0
986.0,2.739108,0.1765205036193597,-10.477688861855723,3.768651808903632,9.83829637059485,-13.636790716000396,7.8955153606635555,0
991.0,2.7529980000000003,4.468767984044716,10.246942187499409,-4.077673638188469,2.032531638700819,-25.953399183203388,12.24360019846198,0
996.0,2.766888,-10.4389410257506,-1.751691525382474,11.450217778189218,14.617973047347409,-15.028240564040996,3.938789910578585,0
1001.0,2.780778,2.0048233808078835,12.494713987826731,8.106927243080403,-25.672064552630992,43.86358213070185,-38.975219858365534,0
1006.0,2.794668,-2.4703847708806337,2.066879235634007,2.593313932315279,36.5792799063999,-3.971119042452744,37.38227855531137,0
1011.0,2.808558,-0.9361803307040696,-10.97182409338307,-10.145861102650908,10.813717858226616,-12.22967536032829,0.3028521916263589,0
1016.0,2.822448,-10.43571762887208,-1.341344331849113,19.832500753343744,8.759937542128263,-1.4298423640146858,-3.761500259989458,0
1021.0,2.836338,21.83992011096136,-4.874226154096535,-19.72978871606137,9.941871518175798,16.84662327612841,6.587924100013038,0
1026.0,2.850228,2.6501602084032427,-6.185506765250306,-14.515133652076168,-13.44524802042827,-0.3232913979630565,-9.918235730647162,0
1031.0,2.864118,-32.30268417327332,24.80429896509468,23.703797378198907,30.70675919740668,23.88079191409274,-1.1807395897228217,0
1036.0,2.878008,6.206340888692247,2.2718368767650112,-12.263564245065892,-0.9212225938523382,-16.910812541630982,-13.345376550105028,0
1041.0,2.8918980000000003,5.854233208257021,-12.716933916946653,3.463741657952612,25.886575045745964,3.4797840297723206,2.578266108185307,0
1046.0,2.9057880000000003,-7.424534813223239,3.997342126570472,-5.300730780732064,-12.501779739711166,-31.32407864505632,20.970957587407035,0
1051.0,2.919678,1.2746061826548152,29.87734668676303,10.535055065082318,10.475682436969045,18.73007974774357,-3.749466144147864,0
1056.0,2.933568,4.350232860965985,21.01069152600973,-5.516080535380429,-0.3663238746250301,5.454095227100655,-11.227123798444628,0
1061.0,2.947458,-7.643397149181888,-9.008379483997642,-9.26830020757154,-0.8681206965202963,0.0347771616803718,2.678785792139922,0
1066.0,2.961348,3.0993090940340213,-10.766552314052571,7.452244435753079,-7.926697535013341,-7.455667336713187,3.183497963573305,0
1071.0,2.975238,10.10884872138544,-1.4057613266400215,14.66129271318977,14.388179844312534,-21.090077806513392,11.627805443744135,0
1076.0,2.989128,15.471728692355349,14.730729168767295,-3.580606662019481,5.682283328847641,12.54387704537431,3.224638705417508,0
1081.0,3.003018,-4.137217339399317,3.285313694216415,13.093409424812783,5.960337737041214,2.5152017043381862,9.746997277393035,0
1086.0,3.016908,-28.30612003030896,-8.869421895269323,10.7791525726469,-19.480435597015514,-2.337187941563071,-5.493902884256992,0
1091.0,3.030798,69.67005192461957,13.172637663862972,4.600034250741029,8.240413347194838,10.04655407299138,9.466132764072096,0
1096.0,3.0446880000000003,-21.134323391117988,14.018805830038056,-26.738402922454604,17.353217067268087,-4.550051242380832,-1.6942513305098466,0
1101.0,3.058578,-8.523459417800183,28.331397647107234,50.787919569709736,24.036784683602683,16.785721996281286,-6.286596908467718,0
1106.0,3.072468,50.89922622361826,-14.783497554536815,5.061073149857334,-16.95499129434205,15.655772401036748,-3.707222301233863,0
1111.0,3.086358,-33.30663398346596,-28.73215508625433,-27.42411071042884,-10.565487621761037,-11.949112269968143,10.569352027418986,0
1116.0,3.100248,-10.532326926849102,-2.1422179206455705,15.40863488248898,6.256320254412625,-12.941675234124691,-11.041581118825714,0
1121.0,3.114138,22.9942315918628,13.707577784573711,-19.30232422315355,24.97177391722696,0.0979535872166099,11.745438900709017,0
1126.0,3.128028,17.41310817400864,6.674471771310815,6.135647112404394,-17.700475466659178,17.249982381027408,-18.824207766538404,0
1131.0,3.141918,3.4450704898714424,20.754691141399302,-0.6030487038840506,11.3376505638052,-7.502826996409585,4.306317918306235,0
1136.0,3.155808,-13.964091188702843,-11.718195205403056,-9.255155906180471,19.210660619270623,-3.5303565734026403,-26.71909489969552,0
1141.0,3.169698,-9.337509259539477,11.72779874797592,-34.79681327070045,-16.932563913476372,-21.19104844704073,59.846406083173,0
1146.0,3.1835880000000003,30.97657100492028,-10.81434103404486,30.9217146037369,-46.85993814050049,30.93617235532681,-37.953320157023306,0
1151.0,3.1974780000000003,-22.78685362767582,-27.530654957460108,9.911284554884752,-13.188196034407424,19.141399152949468,37.265743493131446,0
1156.0,3.211368,31.20592823370902,-6.073174501452293,29.224319032078647,31.22038048667604,-31.102936709704743,-22.77313438603962,0
1161.0,3.225258,-39.32321705367206,14.117397431382344,-31.80500131685787,-4.268082592745476,-14.98976471069958,-8.422597774982851,0
1166.0,3.239148,-1.4566130475239527,-31.71569289711028,2.395174649396441,-9.90224144341321,-22.12853188538929,15.404830600578832,0
1171.0,3.253038,-29.96675230031704,-2.827867977657517,10.969523306522063,-0.416584905426399,17.428912815881084,12.070352351874144,0
1176.0,3.266928,35.09706583721189,-1.9730703358242143,-60.08472658317466,-5.111830558578474,2.688217187669951,-12.517585845215024,0
1181.0,3.280818,-9.410370400414877,-3.456598177411312,17.61778382255831,10.059451635934328,25.34826817322671,-7.225887445031173,0
1186.0,3.294708,-17.64365864051782,11.97972437358501,-10.18344763080755,-5.316380776834781,-30.31125157479328,6.645525378771539,0
1191.0,3.308598,1.5874698101995115,-4.19247410119166,-0.6187910261277345,18.74000179101831,2.6977950229948604,0.4468696968012686,0
1196.0,3.322488,4.538320793322495,12.943103137810732,-9.449398817875178,-23.07888858642677,-14.550213337499802,18.22390190490252,0
1201.0,3.3363780000000003,15.338006963651864,18.46131472786091,-17.685692523804835,-1.9399120190296548,0.9474438079567872,-3.115316307281031,0
1206.0,3.350268,15.899624310069951,-18.580889526951267,-3.002120966391465,7.615342440077877,11.402938393942378,-12.499985563708025,0
1211.0,3.364158,-53.075403589168594,-10.457387891734266,-3.708563294816071,2.9095112443213185,1.7881543659415904,3.254921515057399,0
1216.0,3.378048,-8.46641153260477,-9.33633711928895,-1.4920195538439405,5.280564610105822,-12.502934115587529,9.050729585950442,0
1221.0,3.391938,3.341903339148485,3.795767571502188,-1.7487292696142482,-17.550925414049583,4.787357791593568,-19.42937152815654,0
1226.0,3.405828,16.889707291067353,1.0775147548745547,6.496748410117814,14.733395249343712,12.29198705934702,1.6672032884470092,0
1231.0,3.419718,-9.675461559067603,19.002097022287643,6.567174582621203,-4.745105525244126,8.347759839800574,0.873229132459354,0
1236.0,3.433608,-1.365430543272483,-3.986153976679678,-6.08679971340035,-9.27469221028467,10.254242968561988,-5.309311750500237,0
1241.0,3.447498,-10.878733217592732,-24.036251256753456,-22.78085103991493,-17.457170845060958,-17.31724291302166,-12.21755742868959,0
1246.0,3.461388,-0.3419095224050936,6.924397180059378,9.03933395500322,44.34260292770821,22.493384890976408,31.598445467611285,0
1251.0,3.4752780000000003,25.839306287953622,14.319116799330388,0.8741419213800876,-43.42256963551697,12.757569328052885,-45.83219950428072,0
1256.0,3.4891680000000003,-11.802161515862828,2.669160657468993,-2.6828089487112887,8.808236673557504,-29.579776298012128,20.14043259241408,0
1261.0,3.503058,2.5169614404025262,-26.918308674100377,-19.492784934767773,-21.81099188414317,-11.213205918535342,19.844487338407333,0
1266.0,3.516948,-40.50650736778046,-10.94875632367263,20.887249829954666,-5.753347169484369,-9.887502843486358,-12.352686738148174,0
1271.0,3.530838,-28.334186197226675,26.46019818231301,9.582955494501412,8.174832589261094,13.729820792083828,-11.09205732563593,0
1276.0,3.544728,23.716702607431195,13.633144579541732,8.73506094444783,-9.332819000820727,4.490276323058668,-11.401317336011866,0
1281.0,3.558618,-11.90534732221582,3.6075346736202745,18.824000920156376,1.4537524701978168,-18.12991393478753,39.16424590522956,0
1286.0,3.572508,-2.353533267562007,9.926304033587517,8.954644840416687,-1.1523913289458072,7.719726243887916,1.8355159835879435,0
1291.0,3.586398,43.20970562483805,-8.975158975239436,5.879527296358886,-12.726223117157964,-10.811545570100751,-17.10329786041299,0
1296.0,3.600288,-15.524298734083866,-14.902250727532172,5.400199195197788,-22.5898288355386,10.480887938102224,-24.53065828650641,0
1301.0,3.614178,-14.454647615635215,-12.066860450261409,-25.26928326750641,5.754131811236354,-13.395276066388083,3.151295009723377,0
1306.0,3.628068,14.014801158264069,3.352674384111438,5.6294110883414055,46.562665721969125,13.337687115367352,75.91261567539706,0
1311.0,3.641958,-4.833803165490048,24.343366573406737,22.39455258268337,-29.59480025710114,-13.648215258899873,-37.39392246246377,0
1316.0,3.655848,-5.033108949888934,19.40518433622936,-22.975678176035828,-7.179466950790268,-17.96162885626079,-13.20623198557577,0
1321.0,3.669738,4.133614687107396,-22.58421457871093,17.060757732672556,12.241290414384714,13.204092111445703,15.049882287799258,0
1326.0,3.683628,5.588050948212213,-7.689951648365861,-24.83519242092873,0.2136731685181141,-0.7906835041691185,4.451000457591042,0
1331.0,3.697518,0.1831264546520028,-8.655310908801512,23.40326941785573,9.520880925483066,4.390879674119878,-5.000610484182637,0
1336.0,3.711408,-13.582349380108388,-6.724477643110139,-7.987339231149376,6.258934314714187,-6.513714787681323,4.4896967879699545,0
1341.0,3.725298,8.874012461761602,14.562004158230998,-7.068684995802616,-2.0703324175224087,-11.045245882871123,-6.750297507486534,0
1346.0,3.739188,-13.475128340452072,11.805386372676736,3.8455123977801113,-4.718000928020282,-6.022577447092532,7.629898322557576,0
1351.0,3.753078,10.353727826225178,0.1400907106987121,-1.7162790806538126,5.357588611033984,12.882729585016936,-17.280156103002607,0
1356.0,3.766968,-9.902751255381736,6.211637957522672,7.553686348206224,1.330589479758094,-12.452648585018808,5.922006709728718,0
1361.0,3.780858,13.319156648807905,-25.591846276991383,-4.248703471600513,5.362121365591987,6.220003466085259,-6.028219949146344,0
1366.0,3.794748,-2.0984801621754734,-5.389786811917972,5.246394978618587,0.2887304322563202,-8.265155063997312,16.837680101168313,0
1371.0,3.808638,-8.688998147600893,5.644056089465535,-0.3735020816185814,3.052235251397033,7.199104119501925,-3.1280463060442685,0
1376.0,3.822528,7.487989917997501,2.42995928792436,6.575956619732445,-9.806353520543592,-5.86235441569856,3.892736274504076,0
1381.0,3.836418,-0.0242137111270426,-8.841613959802544,-15.521129551517484,5.060217272076853,10.6183801933585,20.533446180772174,0
1386.0,3.850308,-28.190513581673617,-18.93578368733492,15.408777446001944,-4.591071450221385,3.352170881368597,7.867325797593262,0
1391.0,3.864198,-14.717538426633494,-3.972420426529701,-16.428378256571897,-3.24154049676918,3.98692108227912,5.664156874323284,0
1396.0,3.878088,31.492544982360545,36.39017898127547,19.545055433145617,-14.662875018105929,9.090452521188208,-7.66980082197268,0
1401.0,3.891978,-25.842729943595675,-16.335271075118907,-11.96820895919441,16.467017456456986,21.36643785130046,-9.519123062167075,0
1406.0,3.905868,-0.855725130357742,-19.417705465954853,-1.8716462554057305,-9.386703099051944,-14.98776277284907,5.588144243404507,0
1411.0,3.919758,11.38334169213076,9.031452712367772,4.7776787248364165,-14.160810248864152,2.753686860723345,-16.72793165959442,0
1416.0,3.933648,0.9585986008704072,-6.868643426685384,-17.662588576997493,-3.92541452477996,3.211956517835622,-9.548836001993775,0
1421.0,3.947538,-12.93427062103786,9.557643019536483,-1.2016777963803444,8.911716496573874,1.5221633196944957,-18.01582871941041,0
1426.0,3.961428,-56.47071131129006,-23.97753801593608,-4.62065011846723,-3.991036269296648,-10.892049819925433,11.82529258591702,0
1431.0,3.975318,40.42008056275965,-5.502493514314233,16.778954338908434,-10.455039267856392,-4.089904612386237,9.60761688106627,0
1436.0,3.989208,-1.04932606894171,5.451718871915189,-14.234952542162342,-6.205955242811624,24.218134774043364,-0.6487091728746237,0
1441.0,4.0030980000000005,-7.035244268982783,-0.3938250830089294,-21.556412523372376,5.321821225177912,9.162864290847,-20.99823813907424,0
1446.0,4.016988,-59.7247608641518,38.88982118029693,7.883696514655122,-13.01613483836691,9.05672104727592,-14.259171622390408,0
1451.0,4.030878,70.50395853938923,-66.31425523578905,-16.606820583089885,29.850716618934143,-23.913499521005456,17.708762525833897,0
1456.0,4.044768,-35.67284895504622,45.6317267920173,-4.266724350983226,-16.647228421633308,-6.68062546206963,16.854367623206596,0
1461.0,4.058658,17.355532916846673,-15.874599355158654,5.65470739178302,26.13004640308117,-22.23842835392902,13.570458264481646,0
1466.0,4.072548,0.1209236293683879,38.67285530156136,0.3422119513601764,2.213709587261965,39.45653193505376,4.293578054461082,0
1471.0,4.086438,9.455024027230897,-54.46643342301959,5.211771625910835,-1.736030407163204,-9.343164246301969,-12.61912571396587,0
1476.0,4.100328,2.965631865360402,-16.513025200394704,-22.58920875502145,-1.1273316037604966,-33.23622351180062,-1.1134249389173156,0
1481.0,4.114218,-2.487040057915106,67.73534531102192,-17.80901408674326,20.82841099056061,18.9246102140692,18.59503735926183,0
1486.0,4.128108,18.59480747994151,-2.7520881129364216,9.520569601267798,21.3259673951063,-11.304853914171728,-0.7897962891200176,0
1491.0,4.141998,-11.88686075923176,-17.005627398507237,16.498529680159617,-15.015077343856133,24.62563909803047,-2.453848553530397,0
1496.0,4.155888,7.404031450430331,-42.33638552201566,-15.894810475119217,-9.154584614667964,6.31624208908359,13.43885464862086,0
1501.0,4.169778,-36.83257665946762,16.425380318642368,7.892816634098697,12.02978897178749,4.881167626439701,-30.556026984769847,0
1506.0,4.183668,2.184598897593004,-19.10021035413176,-36.99335779442103,28.846973332727107,0.604637615777424,7.83484067859715,0
1511.0,4.197558,-2.009683830036604,-15.031469301593756,42.070009037619045,11.94450085519146,-32.930579632012,22.1920107964314,0
1516.0,4.211448,22.110134413104323,30.984627628401054,8.444086877380746,-4.398699028567726,12.084967988922044,-4.542982177460996,0
1521.0,4.225338,-0.2980112816379314,1.7942622963842243,-8.68970263695175,-28.87683299726144,5.228508470252269,-9.23742947299428,0
1526.0,4.239228,0.7669975818384174,-5.629427136331988,-0.0438805195340676,0.7663397394877407,-7.125104182574924,-18.01188848002159,0
1531.0,4.253118,3.894366837347659,3.497280672687196,13.429566499723633,10.894502841013749,5.61793628305053,-3.0997856924568112,0
1536.0,4.267008000000001,-8.48910004422303,-5.922898409529688,9.12291619762206,1.1558220381647717,-2.261268418204524,9.241902627267349,0
1541.0,4.2808980000000005,-0.6570037778083955,9.801940820047946,6.52918514404941,-20.567582399404955,-17.414421349289263,18.185498837041383,0
1546.0,4.2947880000000005,5.50958551723442,7.77872579373122,19.06567133044525,-3.4248803768985367,9.453470941048844,-13.579046878745167,0
1551.0,4.3086780000000005,0.727184252849554,7.69977164540362,-1.9093599881660568,1.88899085975734,12.61549525523237,-8.187614787562579,0
1556.0,4.322568,-31.421489985612062,-37.097421879912034,6.568606866555921,7.2226325668005,0.0666972882872629,-2.800734357422133,0
1561.0,4.336458,6.400534776326339,33.8379551417888,-15.86804830374096,-11.859942955502149,-6.402705445405216,-2.0214577059464567,0
1566.0,4.350348,18.38304952674272,-50.58506680880461,9.882290663021486,12.1045090052182,3.416718334163648,3.7433537889567634,0
1571.0,4.364238,-0.7024271910233102,30.65886025716771,21.14116680494027,11.151468697288358,-25.350398080066537,17.174299820258803,0
1576.0,4.378128,3.0012699220963897,11.392343966886006,13.66462033506722,-6.314933504932622,22.82393217442672,-3.2343657247219086,0
1581.0,4.392018,-16.59186078573472,0.0667228986559149,13.532964236583744,-8.320692002546394,14.306455545495911,-8.818488025708755,0
1586.0,4.405908,6.956736908390573,-15.795492590525695,41.40905042578394,-10.515616268878816,-0.2530153257377242,-0.6514138164481915,0
1591.0,4.419798,-3.9643509057666577,4.46550007589734,-71.42693335876035,12.38053221612275,0.5974747746989229,5.755324660124979,0
1596.0,4.433688,1.396785810329095,7.173232810287328,3.0988966884540528,26.455311965447045,-15.53167811487543,11.703089699873736,0
1601.0,4.447578,-5.272034522740022,9.045588941144974,15.43386176976668,6.165914195688581,12.807220960499418,22.814728229915847,0
1606.0,4.461468,-7.349921461535689,-20.65140099427041,-0.2113176396973886,-26.71518306540346,-0.253189704782347,-16.80342983048208,0
1611.0,4.475358,5.481432426456236,-13.988369308113818,-16.045581674300102,-12.09601704316572,10.477218733371906,-8.245858505254047,0
1616.0,4.489248,0.7995132163677559,-16.79803653854268,24.212940795962133,22.88020957554976,12.627565253363995,-10.310995304690408,0
1621.0,4.503138,-19.670529484642213,-6.020264356705752,-55.91441201299866,-19.118904329642906,-38.80040808162078,21.335665823515463,0
1626.0,4.517028,-28.90773536778565,-0.1168595389006608,-3.1131088828337807,-3.580461612785075,-22.280278508271564,10.145636953994725,0
1631.0,4.530918,35.31320890197932,37.7136262172458,17.624472666544733,-4.162673588664143,10.836179495231134,0.4521446639233399,0
1636.0,4.544808,-13.751814889951284,19.997400388646867,6.415450747122094,-7.139128281296234,11.604262235559048,9.517410574225972,0
1641.0,4.558698000000001,1.7031121012624588,-3.3703138032937603,-1.30556724084171,-14.001373550830426,-0.4179549876979873,-19.963347183329105,0
1646.0,4.5725880000000005,-6.716979438296279,-25.0297311504912,-3.4072039148721505,-7.569356717444933,4.2476833960270834,2.1305172542933377,0
1651.0,4.5864780000000005,12.763712825697407,-5.8176884192447975,-16.05519709891929,13.196156173269852,-19.34843373770305,11.799905513282107,0
1656.0,4.6003680000000005,10.643919287152794,24.61385352848269,23.68065370846958,12.55166573535867,-0.0483625547384232,0.8080982668356462,0
1661.0,4.614258,2.064263782419673,7.067002936225726,14.290010999546036,-8.763896634670896,11.440220554695015,5.04754458494633,0
1666.0,4.628148,-1.9550097603174343,-3.1838361584886954,16.102369544158623,-26.775802103560963,18.405399621946664,-5.128575083804024,0
1671.0,4.642038,-55.29731281681959,-1.0272798421016542,-47.234028632301296,-11.34269782226491,22.704805200883555,-20.538296208746537,0
1676.0,4.655928,45.52163931289036,9.121845804384629,24.654640033999865,10.777255068259649,-18.863447310791383,10.132621754247722,0
1681.0,4.669818,9.487167281686666,-4.761439219403325,1.3926069303577775,-7.493370099484579,-9.41117563898925,24.208573087328013,0
1686.0,4.683708,2.304023808747442,-3.7740727354458254,5.896542358464783,9.157593868078123,-26.64961663374504,1.88917880034064,0
1691.0,4.697598,-18.31011203816642,10.40683260532134,12.11472680756374,-9.227415715674162,10.679140529720746,0.4921361253123422,0
1696.0,4.711488,-0.9217674232429188,21.88431698514632,-5.971394354342569,-22.91923928633763,31.532358824110126,-20.98018264871929,0
1701.0,4.725378,0.5698992276693291,-10.329644647061606,-19.295763851132666,18.05402091692917,-1.2456167289508795,-11.544915638659129,0
1706.0,4.739268,4.763139327981174,-8.541012937479266,0.9909153983014848,-6.195753717056144,-11.31763920288279,8.780897912434417,0
1711.0,4.753158,-19.55201101785288,15.964169897700495,2.880793307709596,-0.1070825920155645,-29.590203170127847,4.64606994547375,0
1716.0,4.767048,4.712659852387653,-10.018897897043528,8.618668432192472,-2.9831090434354883,16.477856743391246,19.736085719074644,0
1721.0,4.780938,-21.34438682943586,-3.235800366622964,23.62088577121289,-27.83981835228993,9.612049810035025,-28.78659304176368,0
1726.0,4.794828,11.669320274716128,8.086531819252599,-17.18345006663343,22.07056885347599,7.122885581860947,-1.1710441278249355,0
1731.0,4.808718,-3.89087813082057,-14.273432582454484,-6.768344912564012,-1.3889323964723146,-4.971843496037655,-0.4338931200033826,0
1736.0,4.822608,-91.65711522728932,25.4778809865924,59.03631370634553,-8.31506867194662,-14.770482831811355,24.22739207494449,0
1741.0,4.836498,50.00107880894213,-29.459932958470905,-53.07989138994619,-0.668711416337695,13.992680932322394,1.2593092607709444,0
1746.0,4.850388000000001,42.50008973473729,1.6855669205303183,10.666757622874837,-44.07439174896086,-8.603298677724924,-30.989549393874825,0
1751.0,4.8642780000000005,-2.6616598888614345,-3.3075343841125573,-1.253349193488348,22.31721713276275,9.343621335635744,26.563774212576178,0
1756.0,4.8781680000000005,0.429742322115902,16.371810759818633,4.616839893695671,20.59415432067264,-2.9588181141717413,17.450733194564563,0
1761.0,4.8920580000000005,4.730137230663299,-10.394996352666537,-7.760041968937283,1.369963174989287,-24.161124897084765,4.106715344766919,0
1766.0,4.905948,0.0892931570763133,-5.652927108314518,-6.848638372041563,-8.440924518145753,-18.92600787943411,3.78937993894238,0
1771.0,4.919838,4.72953133028636,0.7276181662437633,-3.411924380253189,0.4250971555612031,13.45012674894629,-3.921368870889245,0
1776.0,4.933728,-13.923910011781114,25.370064503842805,15.647373752062649,-32.65322433743953,8.487409924257783,29.123689406326235,0
1781.0,4.947618,2.01536693979752,-6.246965946122099,-6.838765416952249,10.351582089750314,1.4873042792995577,-41.29720309096581,0
1786.0,4.961508,21.03347060500253,2.4064336892355342,2.560261655861944,44.44757236530999,25.053669945729304,-38.64130258164423,0
1791.0,4.975398,-8.571805068372633,-0.8183165777987309,4.298669643401119,-12.876716195306615,-26.48130253105101,40.26664504699217,0
1796.0,4.989288,5.862024679858688,5.107198281845488,7.621333440209001,-29.979811581510464,5.8517382978356745,7.721519180967839,0
1801.0,5.003178,8.84058819846528,-9.103907728946254,-1.0061322700718538,-27.530974129608715,3.7013522456018606,-40.81926706181309,0
1806.0,5.017068,19.45945023522723,17.599120816844444,2.3304018203459727,-29.873794132617448,42.11271070295562,-17.627463505182067,0
1811.0,5.030958,9.283059934782017,-23.23197023527935,0.9299154463765056,30.027339159618226,-32.08613627003355,20.376238501446444,0
1816.0,5.044848,-4.466593620006831,4.995941128464316,9.152773063683588,16.311501547325427,7.285575058768144,-16.19798501738019,0
1821.0,5.058738,13.09870238640519,-17.825494193774446,-3.882457691175008,-8.294624954189882,-31.40488213694509,-2.468641072551496,0
1826.0,5.072628,-4.057685429713587,26.32772449649708,15.931142645609617,-9.790781111209627,17.75666286689819,-3.842802764254209,0
1831.0,5.086518,0.0560933362881739,24.23519564377408,5.124742095957691,-22.69913488796028,24.90664198987121,-5.274676775055182,0
1836.0,5.100408,-2.953487176111816,-15.66936618662688,-7.629773416738809,0.3558348352511604,16.817037545439188,35.5946040994063,0
1841.0,5.114298,-15.387902335717705,20.403855599837048,6.494833385610634,6.017432607309833,-26.081475314373986,-9.491127174033128,0
1846.0,5.128188,19.468655129101315,-18.89445296340232,7.920000706597354,9.673714060545992,-49.49971384828149,1.0975869677528842,0
1851.0,5.142078000000001,9.800066178501886,12.33529630300793,24.23579286956577,19.273192173812856,3.3484174715081134,-2.7578296998194687,0
1856.0,5.1559680000000006,-1.4994546358649128,-23.02340812140466,-18.04766542180917,-0.6387067040353083,47.16323568989964,-46.3744610603279,0
1861.0,5.1698580000000005,-17.505835969849542,7.883025141682275,2.3014725555224764,-9.438930019014736,-12.74733208525811,28.45562375510004,0
1866.0,5.1837480000000005,6.390580186140566,-18.46617986894376,-15.086958103061908,-2.684514122249607,-4.846330630709639,-7.328138494965713,0
1871.0,5.197638,-5.351895936386007,-13.761546788017233,-1.576300203698866,-9.832998679532292,-45.04431967835028,14.710083045698951,0
1876.0,5.211528,18.36109767696964,8.882194032050613,20.28764677278972,23.10344397473346,8.924161389920158,-11.677966762581011,0
1881.0,5.225418,-13.17793025263401,-10.496621191084332,-9.620903378947927,-5.11705376012803,12.480705209471118,-4.854471928415723,0
1886.0,5.239308,-10.415787774608043,10.3396558819477,2.0960585403146634,-26.568109839962045,-24.42953442297813,12.692001666510397,0
1891.0,5.253198,-13.698499420752404,-9.837500376740689,-8.811494395271204,10.31283072351336,58.377825854939374,-44.42001725064093,0
1896.0,5.267088,6.590654083934913,-17.71773137440569,-26.204167455321056,-3.2483813329140045,-53.77792097246763,23.95981442600489,0
1901.0,5.280978,-3.175870305202621,0.996971317989992,4.174087984112044,-77.31290668500563,-11.471460634240149,43.75363294311224,0
1906.0,5.294868,12.71674628441301,10.676649023606906,-0.4027054787194841,74.61165903691108,31.574562301806445,-39.08595932031385,0
1911.0,5.308758,-3.2902590049758125,24.6535694853967,9.900556051705712,15.402677319388449,-7.953980745886676,6.7311347526293135,0
1916.0,5.322648,-5.549949745336456,-8.876708332999295,-11.204140233208058,-9.131663383255225,-15.800895292391306,-0.2686787948472831,0
1921.0,5.336538,-7.430581255521084,-20.53422143797017,-15.430050396882889,-1.3545191843196798,4.510559256827055,1.751647635046519,0
1926.0,5.350428,9.574266060632224,2.0155098472219604,-5.691144673479898,-10.84461008396537,15.705088007068223,2.967050151397874,0
1931.0,5.364318,9.425780270210424,8.59145073857361,3.342259113441393,32.7996434286193,-2.159765493750231,-4.13740505701178,0
1936.0,5.378208,15.852402692075207,13.403323677801795,9.936671792635066,12.963241171776009,1.8977821680679168,7.725978114765844,0
1941.0,5.392098,-5.825154927371346,3.0843518036757382,2.409280795141892,20.76964412156915,12.920821933676086,16.599770954568488,0
1946.0,5.405988,-4.28338983895013,-14.188393272162395,-4.39782508626547,-20.093728894989773,5.447856441476912,-23.82148528433825,0
1951.0,5.419878,5.268608123718143,-23.17489362890739,-14.813146980775867,25.60543916790673,-8.73655421939009,16.784461389270778,0
1956.0,5.433768000000001,8.584406618048014,35.56143028915786,0.8173861914822176,6.022107546783736,42.555593046739205,-19.282500828882608,0
1961.0,5.4476580000000006,3.878082172018512,3.6897802285000414,0.851822833275618,10.04273995267861,-7.357454160709982,3.122326209886749,0
1966.0,5.4615480000000005,-4.887052673252775,-0.1833419894310877,3.888081942777578,-16.13668817317386,-13.793731256615812,-3.5661678182488963,0
1971.0,5.4754380000000005,-4.798794339825138,-18.090385377893966,6.969979892009259,13.069464618832434,-1.3119376383111856,10.59729203978448,0
1976.0,5.489328,1.94032815771281,5.666810965628981,-11.842259484181188,0.5644159570467044,11.445452738332945,-24.0427707419632,0
1981.0,5.503218,9.51287820168582,-2.768530786087343,-9.28197595150651,8.297287598543853,8.450042840017348,-12.790721950228258,0
1986.0,5.517108,-12.7850413439841,15.124017507508032,-1.5254282999427824,8.898609896118337,18.074180082721327,-8.07401210214165,0
1991.0,5.530998,8.208292126427683,1.4192685518757706,-4.219514254706148,-26.77315421774521,-17.968444078356697,18.78336191199893,0
1996.0,5.544888,-2.33463838432508,-21.76536946350328,2.8692149025101523,7.797676986773999,-21.608517736785416,11.409000186960956,0
2001.0,5.558778,2.2293776328744688,-2.720610046381456,-2.886676486047879,-3.460623473537315,-21.37282060063236,-3.519282120023452,0
2006.0,5.572668,-3.1307187892864983,3.4164491614300445,-4.821251881820782,-9.090203838047238,6.442204140887464,-3.3599297123455467,0
2011.0,5.586558,2.8630414035477285,1.723548321503663,-3.113948125680336,-12.653685811171371,12.981405001131256,-10.002713584705258,0
2016.0,5.600448,-14.942095471712404,12.803987863017142,9.02137548630214,4.72488814166268,-5.6395567780585285,26.189223359078404,0
2021.0,5.614338,-9.221092322340056,-5.510619003372163,3.997587537311162,-2.17225835003908,-6.440751355668144,-23.39603591581572,0
2026.0,5.628228,-6.229843221903181,-27.69270456260228,2.4815948675345965,-40.8691753203664,-8.950076343102143,-12.661819483336377,0
2031.0,5.642118,12.738727468031508,0.3305740877128829,-14.771219067148088,45.53313449104952,10.998312942669395,51.11613229584091,0
2036.0,5.656008,1.0522347953034732,15.200979546407112,-4.867989393063321,-3.63359439626311,12.705694539297015,-36.8950894022123,0
2041.0,5.669898,-10.462047350010996,3.87545265162574,-6.199205203213385,32.21885239422117,-6.416812150250243,13.537594033737877,0
2046.0,5.683788,-0.2834606664381107,-17.904555570440348,-1.278500930702713,13.911814075301791,-7.0118328492205375,9.659860694388891,0
2051.0,5.697678,-5.445390058097908,-9.865026769880322,-5.766214433801702,2.1416484372737155,2.810744216539992,-1.7833302466097267,0
2056.0,5.711568,-8.970231363430164,-0.85913921584745,-4.769487208078708,-2.1530710275585223,-7.866171024754457,9.662483698883031,0
2061.0,5.725458000000001,7.2588944789392285,17.220016537966497,6.589744846198231,1.1709437134559972,8.525173962307345,-12.836153543336524,0
2066.0,5.739348000000001,-8.209877343190254,-14.133380155612326,5.563918772866249,8.824113714202193,-4.34388285040727,-9.788340274064137,0
2071.0,5.7532380000000005,-2.373734859733819,-22.903415566882185,-9.849478526558078,2.996743159193417,4.417928593964478,2.094822440554016,0
2076.0,5.7671280000000005,-1.970514136283814,8.66390244456612,-37.86202592858186,-0.0350330201055417,-17.529695009593283,-11.86822599422648,0
2081.0,5.781018,-0.7946013541889432,-9.860923887258524,28.80836111686059,-0.7096724033884008,0.8554620599881919,29.00862211130248,0
2086.0,5.794908,-62.65028345804884,-17.902180898583318,-12.554938398215205,5.771099707040995,9.145868823502203,-15.311447840390876,0
2091.0,5.808798,50.73725449855574,26.003410826493425,3.921799671007252,-0.2776194948590298,10.952534240964386,3.7252810510719385,0
2096.0,5.822688,-11.512254177934524,-31.78019641053995,6.055653686660904,-11.190103631276198,-16.881210437134257,6.429168378965717,0
2101.0,5.836578,0.2134910463003887,26.05661368908792,-53.51636751625239,-3.996277656116847,9.133906721512634,-16.830943937495427,0
2106.0,5.850468,6.303726916794691,-1.5844177104608823,54.00652958669016,5.692710361447815,-10.009033336695165,12.464614246454794,0
2111.0,5.864358,0.4602547230199292,-2.862450758722721,-1.2095482295224649,11.864525079836742,6.41998668792364,-10.120348115379947,0
2116.0,5.878248,-10.81471695396425,16.899132944589162,0.2747874449239322,-10.164192940398053,7.808310637485565,-4.677349321680757,0
2121.0,5.892138,1.2905241066078643,9.539235013285538,-1.706526991776133,-6.00191544838329,-13.79178869640587,12.441915239444242,0
2126.0,5.906028,-55.52505832653171,-47.3201202691772,-12.12814718914442,5.3275333684601325,-13.935176105535673,9.959007272043626,0
2131.0,5.919918,65.07191727331454,13.02699899426546,31.340356297449297,8.372629524129195,-1.9497127335384352,-3.9138657968921695,0
2136.0,5.933808,3.0749247365966013,4.591468170764132,-5.686246038875733,-7.014501938551784,13.827994695616791,-11.34211727190025,0
2141.0,5.947698,1.8402353386902208,2.6997155400303168,-12.038430253980486,0.1045487616654039,15.8661195281773,-9.153333631315178,0
2146.0,5.961588,34.94914147431561,-34.26130619386834,-16.7747534736745,-15.538045314735028,-1.4694346082590513,16.423476450826115,0
2151.0,5.975478,-12.4794757659288,36.05689931781146,18.19320969380816,41.025648231880936,-20.711536151844644,2.744990182221964,0
2156.0,5.989368,-0.6278338136333343,5.592945531214174,2.069699316198942,-23.03217122790216,-11.851598133770816,18.213620355827743,0
2161.0,6.003258,10.640413002496206,-15.65530746719326,-7.021040557199289,7.390062673261557,5.966485773363677,0.7705927456361938,0
2166.0,6.017148000000001,-4.3513825790725935,-1.2385694427772775,-0.5762199757514139,-2.1788698579857497,17.960148724323073,-10.450299202712984,0
2171.0,6.031038000000001,-21.65697255235993,-28.95534489290684,-22.015957878304363,11.467694976843491,-11.180283478431251,-1.328317812651789,0
2176.0,6.0449280000000005,34.48112717941146,46.46953647034256,9.77890638184791,10.999088517940235,-2.024675868478825,8.470207167833461,0
2181.0,6.0588180000000005,-16.709467884821567,-19.61611974380164,34.99303946944816,7.313733316704271,-9.56066722441424,0.2293741126560418,0
2186.0,6.072708,13.309314526504382,46.92209413840386,-31.732919291325704,4.957255733767289,11.746014624181528,3.725686637909207,0
2191.0,6.086598,-17.301017221584566,24.227377890734687,-29.879654278098503,18.065833190571155,3.167970057743986,-26.45749891482513,0
2196.0,6.100488,27.867001512599,-24.7217053420595,36.12230518536337,-0.829768954780076,14.831032336010129,-0.2479114451135569,0
2201.0,6.114378,31.769078104064548,-8.444253139018135,-3.078806027974116,57.29409180485449,17.319488913133227,-49.894046772462936,0
2206.0,6.128268,-24.972684058173417,12.09909161418892,22.27285412322381,-29.135291906777883,-34.46187294812509,62.37135809699519,0
2211.0,6.142158,3.614767833280804,-0.5630097624424497,2.517569074723076,1.7130429954493902,12.478346926938004,17.300515929971624,0
2216.0,6.156048,-4.271709841275291,-6.647910454664227,4.171682448733701,-7.307090436313619,5.944126270895705,-10.545360653743549,0
2221.0,6.169938,5.648863188459801,-14.341066526630357,-3.439415371106964,-6.528223167116579,8.260938204219237,-0.6103394478011279,0
2226.0,6.183828,0.0971978135884334,10.832580344556147,-0.1809178244882296,16.27903927248812,-46.974849605728096,35.43993334907511,0
2231.0,6.197718,20.27276357803811,-29.32937204924204,0.5053181966098235,13.435907164700708,9.80690078381584,-0.3419963388662892,0
2236.0,6.211608,-9.362361593683492,20.51404665653557,13.310525689519093,-12.858661392745582,-6.488526777794816,-2.836552095880837,0
2241.0,6.225498,-12.886501637087244,13.74772932519832,3.4766358050065644,-11.22915125266807,36.63145775392082,-18.47989596590177,0
2246.0,6.239388,-1.848456039040106,-6.093662893884007,14.488372458501232,-24.47398319057504,14.25307960118567,-1.562960669056885,0
2251.0,6.253278,23.81974239913329,-5.513331702956868,-26.155518959897485,5.586175392031053,-29.67306097882873,8.703425671651088,0
2256.0,6.267168,-7.96237063405998,-18.446250171432013,3.817738432196636,20.58161544376214,-36.33529626485822,-5.7524186226277,0
2261.0,6.281058,-3.3173162798229705,34.64653483270528,-7.591907016526011,-23.59479874285216,30.5910167806094,-8.951193220262585,0
2266.0,6.294948,-15.248941635437172,-4.233517140491194,19.15285666041105,-12.60759876272406,13.42255450375314,-21.91185036777216,0
2271.0,6.308838000000001,10.50146376125373,-42.82267037412181,-4.9586667827082245,20.849628927993056,14.563542176713938,3.347196177070828,0
2276.0,6.322728000000001,-11.506383526311224,12.15631225122024,-6.059974290725694,-18.98049414609188,-33.36827031442455,11.20303841279655,0
2281.0,6.3366180000000005,46.29520630213801,-15.01989524341147,-33.6743921783693,6.539155047591843,-1.3677684783403603,9.118114446328352,0
2286.0,6.3505080000000005,-54.143161921936766,23.957437499876743,45.01213453913917,0.8685215290750166,15.36679578405994,13.602581408531652,0
2291.0,6.364398,0.9955680532198574,15.482668579107871,6.04947035385439,-39.42469021470985,22.417663689644595,-33.018856469890295,0
2296.0,6.378288,21.17088275789997,-35.683805529960615,-32.43653182024392,19.17889681007141,-21.41351154767844,19.01537981556853,0
2301.0,6.392178,-12.269190607989149,-4.54478438050552,6.30208438235354,25.01661278313573,-18.45628419335366,29.423278553004568,0
2306.0,6.406068,-11.191271149078585,8.594182094484928,13.146385170754616,2.296722488042178,-16.196771515411985,-16.9802545156696,0
2311.0,6.419958,-7.601628340920389,8.469832592906473,15.69294591570685,-31.07228597680748,14.758994128712644,2.7594102901262403,0
2316.0,6.433848,-5.48521825505186,4.632325226541639,-3.154456630228357,27.19094620619633,-3.7509544417982656,27.87048738196897,0
2321.0,6.447738,12.496701369269484,16.02335825682451,-12.950877432040343,-15.307654000452777,-7.163085754689621,-2.09424774530053,0
2326.0,6.461628,4.729981738671601,-6.531498578311847,5.507877027307028,16.31833262728709,8.290253580876865,4.701362212627132,0
2331.0,6.475518,-12.725605883473843,-28.99664472660564,29.347689696150645,-43.67864420236732,-14.730882891021608,-3.1876085380717987,0
2336.0,6.489408,0.9606332751707748,25.22736045976736,-10.677454833815029,-3.2666487475803514,14.983957703090937,-13.071910986394712,0
2341.0,6.503298,-18.993631110440088,17.267478792925647,25.037254576247427,25.54165506797587,1.149111265366816,12.408559384534705,0
2346.0,6.517188,15.310228632857177,-25.782204833251367,3.816108020337728,33.800589037058465,-28.84693820100704,7.85920575638875,0
2351.0,6.531078,29.961790037952014,-34.25128464367087,-26.27238575705696,-39.36567992349877,7.961604548825132,-7.86369864543921,0
2356.0,6.544968,-27.657441354908705,21.32886718705869,22.53380224356682,-1.5214865612117865,-7.291585157857398,-1.7016194036792225,0
2361.0,6.558858,32.86406271909561,15.120530310748157,-7.275869529142898,9.433658815435198,-10.516737426807964,3.990914662912575,0
2366.0,6.572748,-1.8634561452721403,24.012550371778893,3.2717070572924483,1.6937737147127434,27.6257845960412,-8.055186734924513,0
2371.0,6.586638,-11.00618766770895,-2.820348939384061,6.124565448054042,-0.6081405788930958,17.058923019563604,-6.489793217215195,0
2376.0,6.600528000000001,50.75717043959452,-14.913519532296483,3.979778326315902,-8.460189257698996,-10.107336323357323,3.932340493574781,0
2381.0,6.614418000000001,-42.7130674649445,17.620750012839643,11.892712659692688,8.95651431578678,-4.811790650245932,6.25330995779696,0
2386.0,6.6283080000000005,-9.894581564490188,12.19948582224484,12.957168130977688,0.2067241774162341,0.1714076846326904,1.2318451127260484,0
2391.0,6.6421980000000005,13.054303609758096,-2.7509985533367987,-10.382059394451968,5.771942518726978,9.66143561910981,-4.805705773401867,0
2396.0,6.656088,-11.948817783042877,6.302951914892249,7.630165170671873,49.10189563355259,19.86749236939988,-42.35456559540111,0
2401.0,6.669978,7.979895830348298,-3.3985673649609303,-2.2770607896441426,-43.90061889447879,-17.79143384286692,38.30845367614356,0
2406.0,6.683868,6.425540037290826,2.6521298525659,-4.05594876275768,-6.037619233114272,0.3291964885148347,-11.728847116511634,0
2411.0,6.697758,29.637503868007705,19.3930736743523,16.898648732534127,8.94501288391168,12.496790696197234,4.182792611202618,0
2416.0,6.711648,-6.983380080986876,0.8222860946023127,-0.8160964236325416,14.948643257485353,-13.760887770862492,13.658478892210113,0
2421.0,6.725538,-2.0429538162363734,-25.51199536698829,0.4816877273534448,-12.655400344017774,-17.45729975180066,23.77786644097556,0
2426.0,6.739428,-32.3007375613598,-7.020420805240869,-14.224384595356677,-18.6715400991786,14.687808694222154,-16.577921892546208,0
2431.0,6.753318,8.723197849308784,-13.302440517941095,0.7516761139140247,-5.051507415519623,-10.749467298600548,-5.451609131353779,0
2436.0,6.767208,4.68677748328021,13.11904973634417,-7.4363858071470545,19.062171578089064,21.36905516372412,-11.972947876745632,0
2441.0,6.781098,-34.28735664886603,1.1290448314920387,11.355066499063444,-7.508566242490883,0.4167370881375758,4.322050762356724,0
2446.0,6.794988,-6.438880225254961,-0.3419159761188011,-1.9689561626081,3.145027557011404,-1.418007217883824,4.497552344735989,0
2451.0,6.808878,4.611526901978078,11.567888061655005,-7.82036739016149,0.0584069272135225,-5.24099582801119,-4.395686363193883,0
2456.0,6.822768,-0.1138818071484468,-14.955539892505902,-14.88187821071888,-5.286789254349217,-11.36106293668818,-16.52691897315998,0
2461.0,6.836658,3.3722981368075864,12.907094859447492,1.329570474924671,-4.992435390156192,3.2693601793563,11.609708109093644,0
2466.0,6.850548,5.357052821143516,5.576175251608159,9.94021882159956,26.28222416893894,17.155209954955588,-0.9556972673776016,0
2471.0,6.864438,-0.6265698051935622,0.6461207716507182,14.102313008201724,-8.130619173212864,-34.95542831300814,5.375466316545246,0
2476.0,6.878328,2.17236318224354,12.363677847010656,-0.5185204083413111,8.037112022484353,21.706043518934944,6.102484558087898,0
2481.0,6.892218000000001,1.4922987687013016,-10.932501060926873,-0.1352008740644685,-18.29203269628537,6.753419864145655,-11.417664910736526,0
2486.0,6.906108000000001,12.264819703077826,-5.093887858342173,-0.3918764069302567,0.2689215837931495,-2.360377690194377,-8.398992821881244,0
2491.0,6.9199980000000005,13.961494220845466,3.467347819094467,13.624313966718834,19.47845387208441,-11.314828485608905,12.307030885645654,0
2496.0,6.9338880000000005,14.642829353749208,4.725894155221644,18.677521854234936,20.993572987245628,1.7079963714505446,24.20565030880931,0
2501.0,6.9477780000000005,3.084519037377156,-16.927817521386658,29.73671308351528,-29.83455832283961,10.48201469463741,-29.852313003018125,0
2506.0,6.961668,-17.51262233394677,70.77516738051159,17.768987937062,14.65707473269414,-10.074296059270472,28.59210969897521,0
2511.0,6.975558,45.8954171638644,-8.528503599771174,-40.78609351829034,23.05201496111183,-5.8024988735001335,7.193630696298012,0
2516.0,6.989448,34.1716515863378,16.83284461830218,17.169795668715675,-15.439203121295597,3.971851282119209,9.39818874096135,0
2521.0,7.003338,-41.66995958424805,-46.70591608577912,-3.8060693741272287,1.772287820747609,26.40459419065964,-6.880287472758129,0
2526.0,7.017228,1.0143312324771416,-3.871228420249727,4.145359761059435,1.833768082671142,-39.99000867284071,-9.7339709587529,0
2531.0,7.031118,-3.696993763462336,21.94721475530232,-4.281004622455238,-24.989975916693417,20.97723946985682,-8.73465982325368,0
2536.0,7.045008,19.280003454141948,15.70454334519306,9.344409837774712,3.8762777034618296,18.439476198895303,-11.807340323112394,0
2541.0,7.058898,-4.366012730160927,11.887800053632688,-9.183479974970371,-2.822810005750618,8.17856400373859,-10.151722896374029,0
2546.0,7.072788,18.57169617898083,-12.21117185961486,16.17415195888277,0.08754265210237,-22.591477289303427,3.7577864367684577,0
2551.0,7.086678,25.01776903589535,22.27857781757876,-20.40470764633178,-12.423576378674898,-16.22643549266173,31.030238462881627,0
2556.0,7.100568,-33.742999597021466,-35.98824680209124,-0.3411226438022936,7.361954865711737,-10.432679961899332,-21.961180964488506,0
2561.0,7.114458,60.302154049351806,18.593252619477767,7.43240331285668,-6.872007949002311,13.895087958009553,16.242310235678886,0
2566.0,7.128348,-88.7421385770928,-30.19948898465639,36.76056216771713,1.4414399054215994,-3.874225807210502,8.583347924456056,0
2571.0,7.142238,-15.465288556764222,-21.1907264213762,-19.29453928260718,4.924743887214095,0.6138240857261925,-3.614112991503204,0
2576.0,7.156128,24.969676956331448,-0.1530831774549401,-35.223856459511246,-10.536307977244178,-8.2224242061023,7.518037938733765,0
2581.0,7.170018000000001,-17.870033155665446,27.538916543313302,-1.2524350219170834,6.027501985849058,5.297019917119052,8.704953586039112,0
2586.0,7.183908000000001,-0.5046285837322229,-6.277557595945419,-9.608970723620514,-5.998303589528933,1.9892605463505384,-5.766533062603654,0
2591.0,7.197798000000001,0.2136728901788807,19.830024710241165,-1.3516749913539,5.181758901232492,0.6586204483708217,1.0280478488336584,0
2596.0,7.211688,-10.18077813825343,21.21801287577146,-66.20566930615496,4.315245425090714,-0.1806441253274524,19.31160227172047,0
2601.0,7.225578,-25.650340861781853,-60.71187428035665,21.18193767549711,-4.049773037737779,-2.89235009683468,-2.0726141286178947,0
2606.0,7.239468,24.31682537314648,-39.9651550648464,2.8386821202491603,-6.779012092316661,-12.16316017064734,-22.7266965611896,0
2611.0,7.253358,3.006231723853336,20.6831810919823,-15.795677080867732,-3.623136655955701,-3.6686341553947854,23.397209294317094,0
2616.0,7.267248,-4.234335132591031,4.023875357481149,-7.532105346261979,33.39156434544999,43.65705015563789,12.580181153793102,0
2621.0,7.281138,-29.008891845096187,-18.457392640478,13.870337105551885,-19.04644696736853,-29.634393587226324,-12.665591106283376,0
2626.0,7.295028,-29.126754570127424,-6.297744974819795,17.760634505079487,2.2130156035494046,-17.50705150511095,-1.2363151089119917,0
2631.0,7.308918,20.34067525930165,8.314265524993424,-22.51179891729501,-15.04382906647064,-0.9741062369147642,-18.15834574225037,0
2636.0,7.322808,-10.03659075375872,9.25480536382018,22.970823670557248,-10.998061332143076,4.40031207258371,4.078577524411273,0
2641.0,7.336698,-14.230693231911324,-3.963516144499121,2.992212524856222,3.720276828929574,44.06023037718445,11.20866226846604,0
2646.0,7.350588,-8.208810059061006,1.2899537129813448,10.30401323958021,14.833960594403957,3.5612785580801205,-14.390925104050682,0
2651.0,7.364478,-1.7224013544179777,-1.6746575910054895,-1.4891604187455507,-5.068172676049168,-18.377866415491265,10.340278230654723,0
2656.0,7.378368,-3.6965026736431454,-16.18518940998443,-0.260025126708448,-25.522422276715066,-19.413854590332097,15.972976080590984,0
2661.0,7.392258,6.506922190392577,17.91840372752005,9.725995779388851,20.44997350852813,-10.839528571645904,-7.738860280293416,0
2666.0,7.406148,-3.1002980037031733,9.008341500197826,16.5228771739538,-2.9666927268238843,18.94162882856234,14.7505125739866,0
2671.0,7.420038,14.347597111647502,11.087813644992268,9.813752704457489,-8.447624781871538,9.674736435623126,-11.83392017441826,0
2676.0,7.433928,-29.979915140539187,-21.00386529503408,-9.127126638432786,-23.979509946871904,5.482116189332351,-10.98358030678699,0
2681.0,7.447818,-3.730375461285648,-10.8991919418927,-4.153724459083032,-3.92915466041076,-2.2043790820650413,3.4628657305607176,0
2686.0,7.461708000000001,6.414100892039847,17.261903740002307,4.228397267714225,7.285598693130586,-15.377393944779314,5.816265534208884,0
2691.0,7.475598000000001,1.400260948443032,0.3991995156985242,13.3486177521316,1.336956672104204,-20.891322892260256,31.397959859037613,0
2696.0,7.489488000000001,-17.586045332188174,-1.8762834098627712,17.725044890257127,-11.175637780409174,11.662966684035048,-5.004504574996666,0
2701.0,7.503378,-15.559418479976287,-14.379556268517163,-8.872322445112307,-27.618157601663444,2.2225278331999903,-12.217470965603471,0
2706.0,7.517268,-43.321229144750845,-14.939719704124355,19.48785356139392,-5.97330905228378,17.544823640373014,-19.929895439189004,0
2711.0,7.531158,75.01524665965132,13.618506600900908,-62.91154105819031,4.664647407520255,-11.833613628471804,-3.751140410763796,0
2716.0,7.545048,-16.26116038031804,3.3714048099284435,25.075860404389083,-9.476849821003086,-21.69818956889469,19.509339066297905,0
2721.0,7.558938,14.040333050812912,-3.520336525163269,-11.903687141082337,15.562810330705858,-4.281293285294085,2.503212618216889,0
2726.0,7.572828,-73.05922407005608,-37.97435789663732,-10.703295950510473,-38.17698984327965,14.17696282498446,4.873509069171202,0
2731.0,7.586718,24.75534996309302,-10.253516708375988,-9.455944725943064,-47.51667613466934,-13.29539068343636,1.2108971581315435,0
2736.0,7.600608,6.190950484916833,27.25021051817757,14.028948766340218,13.787489211224152,20.026941076263377,-7.128324722599919,0
2741.0,7.614498,-5.732741433189334,-18.296030783245666,-25.74085608206871,12.42367782493156,-4.379715939978432,6.639866328366628,0
2746.0,7.628388,-30.84378053372461,-11.640988179342552,28.931069223283902,20.17464607220947,-5.762477396222816,6.255308857726037,0
2751.0,7.642278,-11.244540860584785,6.644109183930517,-22.389912142552497,-11.371899895839542,-14.028316856138352,-9.624306369071451,0
2756.0,7.656168,1.6693709670404364,28.180125786078133,-12.567794667603073,-1.8348624280463284,33.810792235708035,-19.164962420597053,0
2761.0,7.670058,13.577877951945828,-4.864661188836925,-6.48489606324368,6.382004427379143,21.32337299054275,-33.54397401988108,0
2766.0,7.683948,23.15814676864296,-15.929596542754936,-14.41071227841138,8.639427587955915,-15.037594350050597,35.00219014335219,0
2771.0,7.697838,51.99980424818196,-37.014483980016784,-68.50689202263528,22.05579443712708,12.30307563668718,7.904973402371959,0
2776.0,7.711728,-119.16771936327412,24.83637019394656,106.25120573323314,-6.97912966416019,-16.29343760944411,-0.8221521278591091,0
2781.0,7.725618,59.430842957426805,34.04562559903623,-39.34553489181359,-7.5957814543552065,7.710078688356566,-1.810382532103844,0
2786.0,7.739508,12.218645561923768,9.062339253606709,-25.940643976898745,-10.389282164805197,7.461213478560163,11.96771821350294,0
2791.0,7.753398000000001,51.338955982584814,-0.1248258390417955,-5.443377477876616,31.70521557696232,23.57231601811036,15.287123433266125,0
2796.0,7.767288000000001,-19.67502900228142,-11.355786699028078,43.32887927298914,8.54973664056175,-17.50292687945179,2.752856163120037,0
2801.0,7.781178000000001,-5.119170229775737,-20.326213031667184,-5.424986583631961,4.11408389440637,7.0758474594352805,7.264581193346011,0
2806.0,7.795068,-29.11622720872231,-0.927556976336632,-7.079265393994037,10.082390479857295,-7.72801589704493,-0.2421944309628365,0
2811.0,7.808958,55.89052394890673,39.52092752453194,29.81309858316955,18.17811569571168,0.7917515562871111,4.985804569194743,0
2816.0,7.822848,16.014624995473667,26.53226271860428,1.922153185014092,14.19660025609785,18.85207674012219,-11.515326929378368,0
2821.0,7.836738,11.504135667192864,7.923408073167229,-0.1405920197378933,17.349566261331233,-5.212561967452249,-32.76863770059938,0
2826.0,7.850628,14.420656907169128,13.515121699319057,7.199663340807139,3.1260607074036164,12.273067880314386,15.64485650476123,0
2831.0,7.864518,42.7261647609824,12.329086413560963,-3.3542714802710307,10.223436135971058,5.923128627745949,-6.986093384445267,0
2836.0,7.878408,-22.44145208263293,-0.8395877040913415,1.2269167399733147,9.39683266280974,12.942688873492203,-10.869838343117706,0
2841.0,7.892298,0.2600192759114321,-9.741000129286093,1.1847241765073289,1.9129269707140453,-4.274935672046822,11.48104309707468,0
2846.0,7.906188,14.205440896261122,6.615041448942318,6.980488765166973,-8.048407833238668,-9.79355649366211,-6.91548042417962,0
2851.0,7.920078,-11.278262287299166,-13.932001130065904,26.18923817198099,-7.704122441046174,-11.450346747185163,16.0782004758566,0
2856.0,7.933968,23.01995039798901,23.548741443658205,-20.183661577862885,-6.0964476163941095,-11.729514316069732,-13.904223520697364,0
2861.0,7.947858,-0.6623328673009179,-13.310825133681265,13.317829439063992,-3.054212773175072,15.155557837983151,1.651324877284793,0
2866.0,7.961748,7.635744663012012,-29.87609261320359,20.31518069930631,-7.434886682946863,0.5552820841350621,-1.121008690161616,0
2871.0,7.975638,-4.341348080824737,19.34219183011618,-3.566071785810294,-33.48596010545335,-39.476601717048936,26.89510648570561,0
2876.0,7.989528,20.277059037363003,6.344863169832812,26.191186808526247,10.54096667148778,-0.7896053928993947,-4.769555298337384,0
2881.0,8.003418,-16.490970214710334,-14.087086261025853,-25.20749475684367,-12.972195667267416,-44.72322765771181,59.058999347320274,0
2886.0,8.017308,-29.76136268176372,5.487492820619824,16.89882115089946,17.84929691997391,40.12481266052558,-86.26709978305934,0
2891.0,8.031198,24.761294938409243,25.091086450598016,3.2250455722938725,34.628203687400124,22.0053152596502,6.720727011013057,0
2896.0,8.045088,8.616461538730036,16.282191641665584,-10.520470274534624,15.660549467324907,6.454810090903779,5.427093895907819,0
2901.0,8.058978,-76.90691387959498,7.507415838405778,50.00385116884495,-9.905841678565656,-9.834103948317477,-21.386562549164776,0
2906.0,8.072868,46.46435910794417,-14.379763105850548,-43.8286700260262,-7.114699627274207,18.13052360399391,-16.61094655438431,0
2911.0,8.086758,3.201349980260641,-10.28187170229281,-0.1582509254631831,20.62893845199784,-0.3795056884650343,12.723167878390162,0
2916.0,8.100648,-17.8277027537306,-18.56279019009315,-13.98989280000363,-0.5033409575214876,0.4775662918280829,-27.36722980548432,0
2921.0,8.114538,-28.223441341201216,-11.126964270601675,-9.772967771203083,9.49666822682959,7.588709543209923,8.952732158238799,0
2926.0,8.128428,4.489733501229575,-15.39887120330994,6.515292853532211,-1.4751261603009524,-1.6503759556503446,12.126491517959524,0
2931.0,8.142318,-10.948244995716966,-1.6072998898319382,4.170797982410159,-12.32553017193389,-12.76435356787956,8.767339991099346,0
2936.0,8.156208,4.53575640858563,6.918219003950345,-14.720845870971408,7.022711553956239,9.905755412378475,2.763811977122013,0
2941.0,8.170098,3.3172834451464475,17.85037737981155,7.377025594464072,8.236416544314705,17.697229901562334,-23.478616701732555,0
2946.0,8.183988,-6.427120794931053,-33.67425872231482,-2.6294183408619727,27.71519695570705,15.538159747405366,-33.90932525299292,0
2951.0,8.197878000000001,-15.250541778366802,-17.111707765269646,-27.34363146867318,-66.41216240712166,-78.75415767882998,94.80414304941164,0
2956.0,8.211768000000001,-0.8224720911775627,25.837023443059287,10.207805156432649,32.94884111232403,25.15947504678506,-39.79610858608031,0
2961.0,8.225658000000001,8.333306819818763,-1.919733077488404,0.470406782149956,-11.578240175781438,-12.735991791692896,4.977848565305088,0
2966.0,8.239548000000001,-6.93172446922282,-4.367259121917202,-9.345963667059744,10.22896794866363,9.66040943912878,15.368942660753836,0
2971.0,8.253438000000001,-2.3054639761405333,-1.6016051236523752,-19.976873533180555,-7.133531505384642,0.4283114773023371,14.510342999510756,0
2976.0,8.267328000000001,26.74547455395578,-60.54196530056427,-40.42433880008657,-3.67028963765589,-21.420856067380363,10.247327424118968,0
2981.0,8.281218,-43.77710902762194,6.624236325761059,41.627518344135865,7.677655151539581,-6.922370280979661,9.709556883752605,0
2986.0,8.295108,73.51777887192836,4.975754839177478,-42.07514800228199,15.25353305396768,-3.0193683206026445,2.067006518070952,0
2991.0,8.308998,-58.86899410265384,16.846062221160963,59.25685631954304,9.160436556309005,49.21737694345841,-4.331488276501833,0
2996.0,8.322888,24.338855280025506,6.646761361430402,-38.03570910231549,5.239977223573295,-9.272821876723658,-17.400193935601923,0
3001.0,8.336778,-18.69166688647467,25.033365004171607,26.35577808064384,5.030717365294819,5.505478889037418,-4.332362736748751,0
3006.0,8.350668,-4.998777371898176,-7.688110647064178,-2.669235103823662,19.47487833632752,-17.94164518197375,12.222134797430115,0
3011.0,8.364558,26.891458505381696,-11.135201160724144,-13.19844810212863,14.80769489444059,-2.163122495471012,-3.601210547313453,0
3016.0,8.378448,-14.081485590789809,28.75452908787276,-0.8541795043943416,-19.2476798019964,28.70472034610157,-3.236694981170757,0
3021.0,8.392338,-22.688853596473347,41.05114152799683,13.959301951923951,15.575480463720268,12.610627622860456,5.584161509044877,0
3026.0,8.406228,-6.344172143060212,-11.804953612582237,5.373974536031701,-35.865909690165445,-36.27837157218636,7.395040747658897,0
3031.0,8.420118,4.840267438218932,-11.40188969656966,-0.1821177700306777,5.49619088575759,-42.38501524441051,-6.666451390212544,0
3036.0,8.434008,-6.967654835040878,3.819686041534613,8.313527541260084,-27.42487168986093,4.559269460889428,6.60961899500028,0
3041.0,8.447898,6.087025728219853,25.5796604552362,7.756772513279306,-4.9362587911440485,3.914679846684382,-14.493662227923682,0
3046.0,8.461788,1.777501145134881,-13.945679835260416,15.105834130134568,-3.250482915977869,12.85151618374788,17.809106512153942,0
3051.0,8.475678,9.829990779566016,-9.098679782237443,10.607915198632895,-9.090959347676597,-3.79074526508069,-7.11725116807057,0
3056.0,8.489568,7.964016772499226,-3.428154418523131,-3.954289649228194,-2.299744730421419,-13.900915815244067,17.45482005844976,0
3061.0,8.503458,-11.350989818502343,-19.993270862334107,1.3874528127931436,-6.768126266715537,10.379242740395016,-7.901612662221387,0
3066.0,8.517348,-17.99212656909458,35.7301667621558,2.8065977310869545,5.349165835101241,23.13886345025305,-3.9263007709589903,0
3071.0,8.531238,7.442719738331915,3.833513563079822,-9.976051275012944,3.485562845424684,14.655890672819265,-2.8570006057545374,0
3076.0,8.545128,-9.60699644601872,-5.865322707366076,13.528933637639298,-20.72764138065307,-10.44535898893615,-4.386922510239499,0
3081.0,8.559018,32.68329056101972,4.351502877540993,31.99423632206715,-0.7070962141875601,-22.865431332044,15.101160710077938,0
3086.0,8.572908,-48.08143479934645,-0.1643249547829826,-20.20299314137955,-33.592510477935846,-18.02593091240244,-23.167267161993944,0
3091.0,8.586798,12.52527230890405,8.99308755454812,-4.055649586852362,4.073120316466584,4.415304429196107,-9.174007926331106,0
3096.0,8.600688,-9.108639091758311,13.923322805817982,-11.628423820496783,30.727316848865485,45.928125586939245,11.56609846568722,0
3101.0,8.614578,-11.000348501920104,-23.29582381173125,-9.358545398798116,-1.8830407631110848,-1.640586353125959,9.322186944673302,0
3106.0,8.628468,0.5473000284993179,-9.754023979649126,1.3043668883523047,9.494924556852617,-10.94307116784491,2.1795458937508734,0
3111.0,8.642358,0.4998450488832473,-5.391048168205362,-4.181967032406259,8.319371396575145,-71.90303983084269,55.39001750693487,0
3116.0,8.656248,10.653352449422652,34.79145015918395,12.88921164453235,-27.723990762819945,58.83759474519083,-84.59651733810013,0
3121.0,8.670138,-25.472520886102576,-23.102381325789683,-14.137470877797618,32.40852187338501,1.8234099393940435,76.96700487473066,0
3126.0,8.684028,-29.94215079333288,-4.723385479255819,-16.29252129090367,-31.92224930036831,29.832475996917346,-36.494620301839056,0
3131.0,8.697918,26.726189010951128,-4.669495348914478,0.8812189711295964,0.979508588150301,-22.35352646917168,11.470905847354956,0
3136.0,8.711808,16.899549580560933,7.834029960835581,-18.92016290422924,14.128794122717338,0.2139293177218935,16.992010353970176,0
3141.0,8.725698,1.472231898556386,-4.620486566181532,26.19218840284353,-13.677914929029516,-7.7683415371581,-10.509144301311968,0
3146.0,8.739588,-9.8865333165465,-42.209677220850125,41.35225400357027,-35.69147415938936,19.29661465288792,9.728502665714872,0
3151.0,8.753478,15.530513301692972,11.878571830291673,-26.63346151241053,4.534299117768189,-21.00935113338824,-4.41517930327854,0
3156.0,8.767368000000001,1.2556651849595255,14.293187466884492,-28.330381370925167,7.574804671769737,-5.845311329800154,-4.31323264856947,0
3161.0,8.781258000000001,5.278552056330513,-1.0544650709577288,4.940563187080619,4.180857300909125,4.689334294646157,-0.5515803065949592,0
3166.0,8.795148000000001,4.137917391031555,16.00695067710364,-18.01971097653611,-3.243868625202671,0.5972406272150579,21.78545199496948,0
3171.0,8.809038000000001,0.378443503824986,8.07280336563764,12.468718212801974,-25.677317807620977,-29.003154761468963,-11.741909960404804,0
3176.0,8.822928000000001,9.151851542400811,6.67869522795869,9.104401581742747,27.160068344183426,-16.91056481933137,4.824163150858855,0
3181.0,8.836818000000001,13.04121160296564,4.564243328686459,-11.003425237036424,5.03958112693394,29.36948013551125,-6.765158298806096,0
3186.0,8.850708000000001,-7.984138185166168,-0.2224199682821908,-4.342104440560913,-7.390221072214638,-0.1411375688180918,-14.962015727355872,0
3191.0,8.864598,-7.278899012860249,-4.828944890613084,13.614530367258588,6.804039124142314,5.729420280175807,17.489658876759254,0
3196.0,8.878488,23.996475637263703,34.02384354146534,-18.253679934899264,9.496075276189067,21.105890674613534,-21.59668926417016,0
3201.0,8.892378,-3.442549757493179,3.424452359808649,16.661426429289154,10.471324607728796,-0.6852929964783963,-8.928515570115252,0
3206.0,8.906268,13.307114263791805,-9.508046082729768,-0.4051716422549161,11.63095057341144,-1.7726730349211777,-2.1774180689866407,0
3211.0,8.920158,-34.86769465611698,-12.720217982521604,-3.365893300409552,-12.38813810899519,-14.942296250127338,17.484697734947524,0
3216.0,8.934048,11.310859762588432,-12.741209216021636,13.955210104972291,2.8674781550317663,8.384192478488682,2.4731718083846923,0
3221.0,8.947938,2.2409239203658906,-32.97024343385493,53.35828447073041,8.453283383700203,13.858886129529402,-8.033588834208357,0
3226.0,8.961828,-3.093250651690484,24.356617562303096,-45.96441110276018,-8.80822570049197,6.538320628465866,-6.088457739039253,0
3231.0,8.975718,19.423900391044228,-24.140800263546712,12.341916297216676,-1.8751366459472232,-7.664391745725366,10.476175386290969,0
3236.0,8.989608,-22.858553079090704,13.308315264976244,28.68616957143147,-3.019500192646335,24.703754695761187,-14.7448195816297,0
3241.0,9.003498,38.95099921005185,24.96170372069956,8.167710546092456,-6.494367823050196,-20.514703354008777,14.28190110390092,0
3246.0,9.017388,-23.05727342346767,5.030439698213273,-8.729174087729591,12.02985743923739,1.0184297050554854,14.017860398541156,0
3251.0,9.031278,-25.530059318676003,-21.597768494873016,3.6547545790984985,4.834607638452306,-7.3698456347632195,-9.025737972772284,0
3256.0,9.045168,9.400482402019335,-11.344284653202614,-3.1774437793716817,-9.759362485785983,-3.6411529068591726,1.931941149793889,0
3261.0,9.059058,-2.43923464384432,-10.098979946228464,-14.936218564170662,3.769086021048964,-5.5257369395321,7.613339367671863,0
3266.0,9.072948,-11.360139537757076,8.004203037621952,22.099242029642983,-9.298013989342849,-19.818578581577203,-4.822822237851156,0
3271.0,9.086838,5.510809917439461,24.754319337608067,1.7334316742499478,-25.319330895485056,-17.368175598629517,26.833711930402075,0
3276.0,9.100728,-13.130570807723728,-16.35099920526101,28.783034393279035,-48.33479698641816,74.2209335632435,-128.79320660018726,0
3281.0,9.114618,-17.030363438832683,8.663490417234101,7.838256705448689,73.64280407008609,11.827497758860176,41.029402475173335,0
3286.0,9.128508,-31.34598931307798,28.403269077678573,18.834286986704296,5.009291935148638,-1.1418903788190269,4.7331600751321234,0
3291.0,9.142398,31.953566612664662,-44.58537811800088,-0.3346308783172994,11.319712310016628,-16.288855724808606,-10.398858848587412,0
3296.0,9.156288,4.835432096903814,60.36563349171214,40.45568787013448,-11.557680456233786,14.92415810696729,23.552498153837305,0
3301.0,9.170178,0.9333316339894367,1.9753296905040507,15.038565299622649,-18.099373553772484,-2.1381049888559263,0.8774952820625699,0
3306.0,9.184068,20.35171480607726,3.442293665857864,-21.2363428248865,17.285264721752526,8.167895822412984,-25.328184459021124,0
3311.0,9.197958,-19.15584110014748,-20.45873680221356,-5.179160852578139,-12.378602615029532,-17.58781696902389,-7.957167498902426,0
3316.0,9.211848,-42.54581486747399,-29.867554757681432,9.89401344839877,-27.870851048727296,11.496666477391155,-0.3569631444074224,0
3321.0,9.225738,-72.60573475713318,43.86582551554672,65.13970151499187,5.550782916604112,-24.9460941163528,1.7329214344386186,0
3326.0,9.239628,129.22776121920225,27.517768255961137,-74.1367967408042,-16.403955745470363,-7.456914068761353,-37.93199511410282,0
3331.0,9.253518,-77.7911270642719,24.61088524763749,58.98430811147306,31.57732592968535,50.24597508176466,-5.877048090402845,0
3336.0,9.267408,36.83872150844794,-67.02094343877468,-35.35378620603405,7.216744611969849,-71.10690794772577,72.21809556203598,0
3341.0,9.281298,21.406844478458744,-31.724668190163182,-5.5526437542942215,53.98211120009205,-8.378964223887458,-22.61736916793824,0
3346.0,9.295188,0.7810461358421155,14.805625622902422,-21.853931227554742,-37.65543088143345,43.4009136581481,3.5611266035076223,0
3351.0,9.309078,-22.661789851422853,62.310127876083264,31.860302291795406,-2.116677169418012,28.6960766674858,-20.114574206374627,0
3356.0,9.322968,24.07691107757594,-8.800890097462105,-33.00643959399716,-14.766627353648872,24.60666787517767,6.240605726938362,0
3361.0,9.336858,-1.4235634657455556,-19.724649261916312,-4.378141414998527,-10.682760907058436,17.14166850908333,15.90046041102572,0
3366.0,9.350748,10.24445412661182,-2.4711105087496925,-33.16405884618812,-1.7035067721894692,-14.72916569889754,-25.644387027743864,0
3371.0,9.364638,12.022391337875264,-7.723948414227374,-4.959708911676347,37.71949624519988,-45.38558109889482,24.34089437046852,0
3376.0,9.378528,8.300652063236654,11.078024373532353,4.238361402271801,15.835858284043644,-26.883541438191298,29.716117861896425,0
3381.0,9.392418,-22.48396321860409,-11.514525349755887,-35.69433939102006,-29.57080877840336,45.40448466570625,11.677310663914088,0
3386.0,9.406308,5.179793696013379,-33.542498301870765,0.7109169193963192,-17.621078285336395,14.866317704872962,-30.673458447982068,0
3391.0,9.420198,5.68407494196648,-10.603480367576102,25.76446862592195,13.059592664346765,-24.252859668113963,3.0673396800384216,0
3396.0,9.434088,63.0698494522812,17.506668344650446,-31.874764902665376,16.074421652263755,-36.29992240488848,29.456200762969942,0
3401.0,9.447978,-54.07555882738632,2.670092612609574,-20.603744856334707,19.09322375742547,-19.64914911693293,41.17288647125886,0
3406.0,9.461868,-5.536682738671431,17.876549927240376,-2.662837013611046,-3.3119889441696664,-5.351297739054846,-12.094069259067192,0
3411.0,9.475758,-32.59304386591571,-6.148861689902409,-9.830138085786642,-1.8596041800253325,31.09323015516473,-17.105049653801586,0
3416.0,9.489648,24.585520510829188,-5.179742411400566,-1.0975441707066151,-4.866749965087566,31.27317983364906,-8.137084669739856,0
3421.0,9.503538,9.48267129998625,12.31932289278635,-14.28411238651577,7.7317651370055485,1.7385377551946224,1.846756092615108,0
3426.0,9.517428,113.17790179766688,-25.477175927327256,-42.21043095759648,15.291027657845436,-17.473598123249587,37.02368427326868,0
3431.0,9.531318,-114.17262796043111,7.396865764899982,69.21445874260127,-6.396701829108821,-1.2924255639065478,8.840984482303726,0
3436.0,9.545208,-2.0499705426646893,15.718129654934652,27.289562393245443,-5.190136836221274,16.378380262533106,-15.959634625172988,0
3441.0,9.559098,26.23423166339625,25.61311676374521,-14.344414849494612,-23.46166955635091,35.214812819633266,-19.5998061907472,0
3446.0,9.572988,-22.013483765314128,-49.05908247817682,29.077193976190426,1.659050581372524,-7.937657900904472,7.009921023233481,0
3451.0,9.586878,-5.460439889798033,-9.697530770844864,-5.677231906495582,27.818269950635187,-24.866290239629272,-1.6391905342209654,0
3456.0,9.600768,-7.57232564130709,0.6082199492484786,17.735098366409716,30.744001014262658,-34.00283648500843,7.533911229712121,0
3461.0,9.614658,-7.451727810967431,4.829295721541281,13.148140224801786,-26.68762087284589,25.379431445054664,-18.57499146020742,0
3466.0,9.628548,11.294534200797123,-28.520714235677715,-4.658855091985395,-20.631076785152867,19.22740707618202,-24.60726845870872,0
3471.0,9.642438,-12.079055645198988,9.297468521632634,5.953139200687268,-11.992033353252436,4.4548119396909005,-38.042412734361584,0
3476.0,9.656328,-35.189234192277766,-12.687903653809787,8.894171550378859,58.679150397016805,-8.844269618195055,68.81771631412713,0
3481.0,9.670218,22.986039195017742,9.238119627498785,-8.298573922984573,-5.442902194091142,14.5401793896784,-56.81614491697176,0
3486.0,9.684108,-20.07209098280024,-18.72254882744944,7.102999055412573,-2.846736293762264,-11.932933795993751,13.86936306573091,0
3491.0,9.697998,-36.15218371052308,18.495752391231903,21.60463812148525,-15.946805524825612,38.95563746704697,10.813713989899066,0
3496.0,9.711888,46.86289643541735,9.156398724636349,-18.175860630156368,-3.321661645261365,-19.736207499385653,2.407246356883604,0
3501.0,9.725778,33.3218794878226,-11.69152842839826,12.515467557131016,4.012281682792494,12.746801229935336,13.015189568395073,0
3506.0,9.739668,-58.71177204739047,-19.8716017085745,-56.0738975577228,-1.4173539746853017,-5.65769723846743,-36.88112488624415,0
3511.0,9.753558,-0.5333090820041404,-16.69091975452931,29.62717239396386,3.955194482387873,10.828661809046883,-10.694385030765416,0
3516.0,9.767448,3.477138685527385,-20.6405857413264,-10.515102491797428,-18.335483983202565,11.828755730138615,-15.631087989356208,0
3521.0,9.781338,9.343648537539991,-12.300457290603353,-0.1873011042233834,-26.371766463537643,53.05058144268382,-44.17768653942797,0
3526.0,9.795228,32.82787744779918,-27.337970773814856,-49.51284241022246,68.58295265980959,-51.64777709135723,52.93692210042301,0
3531.0,9.809118,-40.19394981042889,-10.059139059531178,48.57708562703245,-3.155344898603868,0.6181804450114061,-7.614395321072013,0
3536.0,9.823008,-51.20172522614909,-15.193255748964544,-44.61641208814978,-7.182616752101781,15.285232313342624,-2.633682885410828,0
3541.0,9.836898,42.812912761974985,57.78626270086053,10.80821136811148,-11.396660920071549,7.054994720406671,-25.47934372385186,0
3546.0,9.850788,24.10801185867449,-2.1314549101527813,-19.96577606680404,35.7427069559516,41.73501893750758,8.078893293678503,0
3551.0,9.864678,-47.9324907001016,-34.044488531553,-54.76591731541615,12.683659164157472,-19.059708809470195,3.931666847988331,0
3556.0,9.878568,33.839100151258464,48.22915381856553,79.40016911224254,-7.682788439381549,-13.319112598754383,-2.823737215038,0
3561.0,9.892458,17.475721966374984,-9.02833634310125,-30.555001222657985,-7.239922524937548,17.19694677331532,-12.565777014420853,0
3566.0,9.906348,6.51937329445834,-11.007861142333542,-1.171770746772156,-18.12257343381951,-26.405926664852807,-21.302927081407745,0
3571.0,9.920238,23.812699609491244,7.031055963454218,-1.588268988717379,35.32476989445304,-15.731997608661835,-13.412171422366235,0
3576.0,9.934128,8.342390638353802,-17.94839506655446,58.11515900179994,-24.25409292097043,17.69882801909513,13.436803003791974,0
3581.0,9.948018,-15.810380820967245,25.55431330315202,-79.37795149367297,-18.434621939460577,3.640506330848351,-20.95267344311632,0
3586.0,9.961908,5.799567326859666,15.917113957830118,-4.69727263594487,10.06987226902297,-14.957350209372349,25.600847579233925,0
3591.0,9.975798,2.6132132957516268,20.21967564240132,3.4798919299131734,8.509056637112462,-25.47596534314371,8.758346520040464,0
3596.0,9.989688,22.33112138989031,-10.63169093545287,16.41899665313488,3.062857028788153,-25.239213261768576,15.146491120600004,0
3601.0,10.003578,22.89350399574268,-1.8702134210163752,29.55840384498922,35.37560415113978,-3.875761682835624,-18.947551497880266,0
3606.0,10.017468,4.167888685793979,22.64913031024902,29.5150872078886,-20.256257710013056,39.71703774089733,-17.644542968967794,0
3611.0,10.031358,57.09567315886182,-12.091672581334972,-24.66274090380864,-34.58277917745986,-64.8310689588714,14.346509803448267,0
3616.0,10.045248,-30.09033573211304,-20.50471513899314,109.63997340336496,14.154398934052976,24.10176345292385,10.733943745113203,0
3621.0,10.059138,-20.97133339749525,-40.69444513766137,73.74497642703949,-24.71831561678139,10.790747456641029,14.66225854893522,0
3626.0,10.073028,120.2346427187486,-137.72721475130965,-54.34801467972417,15.01675727782036,-53.35944909584539,36.34042604738846,0
3631.0,10.086918,12.175271839658151,108.12816802304006,158.6679203310612,11.19575554977738,72.7554850881413,15.265880010481364,0
3636.0,10.100808,156.76720243061712,-186.27731280776376,52.26358180196026,-28.934276145007743,-3.4412141119809725,-27.327080316791022,0
3641.0,10.114698,-112.68292016769163,125.32499100360454,-47.11336262288997,-16.607435056709686,141.87943586731387,-83.36593404422013,0
3646.0,10.128588,15.559596865058175,-0.7872876167457186,59.3687754348869,11.97954499193522,34.100475340201726,-34.8000310615136,0
3651.0,10.142478,-30.294713607068253,104.45152093254376,80.22810279644585,138.27213862561794,43.45311062751831,69.31591934954542,0
3656.0,10.156368,-30.429709671034978,57.03165508588524,30.26468623231816,47.258572070809294,-19.719359613172777,12.649269402208894,0
3661.0,10.170258,8.553638346286803,-35.89380209386093,-121.08563515054338,-102.97178680003604,-64.37819818020807,-28.32928169539812,0
3666.0,10.184148,-11.371674495657285,2.0850838292487035,-47.37261708637283,-105.39491982206208,-13.423124187549558,-131.51545303475606,0
3671.0,10.198038,-59.07562373799048,105.45154699756932,-44.38531918489308,91.27960141111228,15.865319522766583,41.40711864811294,0
3676.0,10.211928,-68.91776230582846,41.47910043175956,18.143582939639323,13.906137918995288,-35.51127872245233,-12.088844337069585,0
3681.0,10.225818,-172.17578217057803,95.8185665352498,-70.89681622484787,19.547839171652647,-4.982812546004736,15.667272501872876,0
3686.0,10.239708,5.914523748855601,-30.08493832741386,-100.36632161357434,12.325659231291407,-22.245603608737067,2.421910413219125,0
3691.0,10.253598,1.9844774381122825,29.39538746287748,4.296735140181813,61.425184930776965,24.14541063122787,-6.260782496782459,0
3696.0,10.267488,-22.8075243326532,-54.878682273058,-35.48057490742255,20.866227167373857,-15.350555724438571,21.531462662401964,0
3701.0,10.281378,-28.12510597558733,51.98291985682606,-178.9579047507155,-9.692823688079486,30.60433353664756,-3.305898639801912,0
3706.0,10.295268,-62.90593796630253,-125.97021514240242,-50.36138206728357,-57.95415681491478,-63.47277947744607,46.95341855233536,0
3711.0,10.309158,-36.682234213752906,-87.95113825118538,-56.09423473972542,-11.8636313301434,-50.83160987681322,16.48045413319219,0
3716.0,10.323048,-63.64333269016549,-76.29497150937048,-31.825653241051,8.686805302653383,-19.825650197255523,38.85957586957216,0
3721.0,10.336938,55.971163430201656,-15.512953251498567,-70.01885747448179,-14.64466419753174,-17.351773732825745,55.89815790111805,0
3726.0,10.350828,-31.44396419503789,7.986702813337438,61.44790913066094,7.504654377611514,-1.275288603830496,82.74772108351604,0
3731.0,10.364718,-18.03397430109441,-74.08576223669792,26.16474141995638,-71.1526143838299,-3.723869450139365,-17.14998337035612,0
3736.0,10.378608,-44.916743484760296,-57.17441147281665,-115.50699025175985,-2.983301234231047,-28.309633933347698,29.322539705742063,0
3741.0,10.392498,-45.01968219088286,26.171575151609964,54.203011768610885,-11.088513661438943,-16.849077316687165,-33.2704968806098,0
3746.0,10.406388,49.64139386579804,-47.159021259541205,52.00699456436381,-14.15708620741147,1.0761318083109297,77.3579623915817,0
3751.0,10.420278,56.34355332241587,-22.306258279305464,-1.6478403287797043,-46.8253022982546,-40.85907139075167,0.6185783138998637,0
3756.0,10.434168,4.287557962814894,71.67076779465063,13.44398013272241,18.22371021503715,16.32552953462678,-2.2671578696648567,0
3761.0,10.448058,-28.868435759084623,8.657208561730418,84.91769375220491,-18.52385201203148,-31.46357971622578,-24.675440785991142,0
3766.0,10.461948,37.52019904765893,33.97537505930428,20.90293829789484,-75.27877951084571,-51.67393317931474,67.2625207639613,0
3771.0,10.475838,22.28301090027628,22.67742316620428,-24.97805430961061,-4.875889378079153,22.06269792642852,-11.858898530184604,0
3776.0,10.489728,-76.4074104010178,60.64415587464025,33.25587233192713,26.515942643639978,6.236534522827266,-13.256110148732173,0
3781.0,10.503618,118.3112635030902,32.899782841349,-0.5236296370616564,-34.044416172373744,19.72719564575571,-27.62226352919378,0
3786.0,10.517508,4.155202811950038,88.1264437450171,38.69512967642072,5.734345843417339,19.15282651703336,27.070482685973097,0
3791.0,10.531398,-0.8997189329974158,35.34582485152854,76.88195234837109,29.062128079040267,-71.4837756876714,56.31343644398459,0
3796.0,10.545288,-40.99321676803651,-40.06466642180538,-20.21795370749837,-41.87399310175546,24.32890607838803,-72.30038830800724,0
3801.0,10.559178,53.264219534872446,57.6196379078628,34.57976476519773,11.73067938482722,22.94800644097238,-21.248257429750765,0
3806.0,10.573068,91.73811958486804,3.7064265185447054,-10.904443582893265,-13.427722425327383,-9.892132736227405,-7.5330171064274944,0
3811.0,10.586958,27.38717811786814,-5.703423925587296,-0.3311872394506832,8.939182973183263,4.244831944455387,-6.315572793130542,0
3816.0,10.600848,20.231335753111143,-33.612485831059686,14.789466779155436,-85.36414926638275,-63.75182970912782,66.50862174919516,0
3821.0,10.614738,26.89410246724021,14.621470114229322,11.72939888758957,86.70774819164211,55.7731342341212,-83.98695690232563,0
3826.0,10.628628,31.24077536060387,18.06113057740633,5.9313436642625605,12.12610524755597,7.654461098361098,-16.365979665048435,0
3831.0,10.642518,-14.35478317643802,35.45855427129881,4.382437570607427,-30.25588747012877,-33.15250249142912,23.391012200543187,0
3836.0,10.656408,55.50358666291384,-38.861324117330646,-7.551957671709589,-32.10877579011225,-3.132399477484201,-59.58624443947612,0
3841.0,10.670298,15.968576488109104,11.0789659353603,8.85749298267157,59.298092154496345,13.440509975886387,41.86355910147199,0
3846.0,10.684188,38.71588788050066,-3.8943645517856647,6.563240559471565,-1.842736341442528,17.65092697732433,-39.41715206378686,0
3851.0,10.698078,5.9747323949907365,3.1278041505404346,0.6419166099280851,30.47992901427659,-27.94719709715641,31.12942956063224,0
3856.0,10.711968,27.970427211484537,2.624894890706196,-31.04213021034638,-35.564532184144305,14.506288233622591,-38.26579306491282,0
3861.0,10.725858,58.69028235569208,55.91192463831409,26.412158476112364,14.121459438553906,37.77898299285758,-46.47466862886521,0
3866.0,10.739748,-28.667460956510087,5.765070370643068,-49.61269178681128,26.570068007527723,22.035831507041603,8.771892833388133,0
3871.0,10.753638,-36.08218133837221,-24.443370949744807,-43.36499019080004,24.84693161206408,33.247001286533575,-55.397897834368784,0
3876.0,10.767528,45.38993958301292,19.339443491122267,20.211178726757407,6.926516887416169,-7.384750631406032,17.45746404630347,0
3881.0,10.781418,5.46263252119345,-51.37863494008285,-25.00605938789069,2.6474691866522155,-9.211232580122006,3.470845347128705,0
3886.0,10.795308,24.073356470872604,21.920874446696217,-17.737436535747293,15.245493825924584,3.3287377301831693,8.887682500135615,0
3891.0,10.809198,51.49765873700753,70.82924368428347,17.801108226270898,-0.3620749687559446,5.541641204660868,-6.255442110202467,0
3896.0,10.823088,15.9161135031937,-54.81792464863333,-44.95543339904492,-7.449725201643079,16.70390901369454,-11.44077365984154,0
3901.0,10.836978,39.28815971315902,-6.83058515976203,44.30885394015405,1.2086841813147595,8.576381257859097,3.752902047367478,0
3906.0,10.850868,-78.84786487811138,-7.350400421739975,-11.05560464556449,3.8437668891834513,-15.39213611111019,4.779615931652254,0
3911.0,10.864758,-20.38218845109209,-4.849718397990692,-1.839861390716504,21.0901952613809,-11.931626561741624,9.711093824328316,0
3916.0,10.878648,21.02346744519477,-23.32434465611236,-11.276743888030673,-21.457072984357225,0.8295225201838949,5.360495167322429,0
3921.0,10.892538,18.234374201163515,-12.597957054478847,-4.711941310576448,14.69148233138988,-20.01256880475396,0.1158012535180237,0
3926.0,10.906428,-0.1010542860366516,-5.82239870637066,8.269644068350772,2.487540055568085,-28.389289252173203,-9.637131596640517,0
3931.0,10.920318,13.032740348306367,112.49707119066264,-6.276328384664526,-3.3635701948141863,42.103516928236274,3.3081613154371947,0
3936.0,10.934208,-15.196338599002276,-8.112891526963839,-8.007858153506895,-0.1879046519684912,13.717811761726368,-0.3998828319467487,0
3941.0,10.948098,-92.14721652718715,-30.944263559567947,-9.417450411693766,3.276547229002597,4.633498120917398,-4.224755751282218,0
3946.0,10.961988,53.51976151184735,20.05500775669785,25.90911338497688,3.814706658893323,-1.8691155415654024,13.0344198743939,0
3951.0,10.975878,45.10688208226792,37.9902021223065,43.8133645302823,-0.07193378459481,1.675746635217303,8.768528407511228,0
3956.0,10.989768,-35.66286631147681,-73.09377416687806,-6.679897702813651,1.9743672835616264,-3.626971694025356,3.462010801456816,0
3961.0,11.003658,-10.446022744841777,0.981990633887194,2.549130018227891,-3.610468678232042,13.634248941594027,-0.8951383432564246,0
3966.0,11.017548,36.90752958063192,37.14124213141688,-27.773423540695585,-10.723620889793011,2.4504264615469227,-10.5694357602707,0
3971.0,11.031438,-26.77008829282024,-39.56550196071376,0.9321982247974194,10.32481067717145,6.923630230707225,2.130220662499592,0
3976.0,11.045328,1.4490214836813742,28.06033992800785,20.24201070615389,10.659602864559949,5.12299195343984,3.424201872832326,0
3981.0,11.059218,-1.2287373542877391,-35.023494063932304,24.41446900346557,-1.0147825524728162,4.656335676367286,4.489106128340519,0
3986.0,11.073108,-9.261407332835976,39.91507507439228,17.884974605907292,-6.343811829248422,6.367640863270015,4.550900584049756,0
3991.0,11.086998,20.446653742818125,-24.938100732678805,-21.883104860979167,-8.505381875221026,-4.659750124666854,-11.586234714852312,0
3996.0,11.100888,6.017772455891688,9.223300992747554,16.25280529510879,-0.0800731434061656,22.416231425799168,-12.501099647014632,0
4001.0,11.114778,-9.249567740837415,18.221371088831177,-4.573328149889978,-2.8967659590093184,3.784644250776921,2.3818518924449807,0
4006.0,11.128668,-85.79006268578476,-18.2897093585804,-2.29100060890831,-0.1219022183747142,11.439736649814533,9.759536634174124,0
4011.0,11.142558,-11.647840586158363,-48.68220076426198,7.232675881133293,-4.119843181714901,-39.09066488250248,5.260538151145108,0
4016.0,11.156448,-9.061841271090213,30.62716481145888,11.135480157500291,-3.8730220768007713,-7.0666481107989085,-15.131372872865835,0
4021.0,11.170338,19.205818252876693,-1.5738200131542732,-31.67480412933408,-10.850773719094828,-0.0239944875288351,-9.419613930186255,0
4026.0,11.184228,-3.0651405381942887,14.601461380072898,42.65131718812434,2.7578261538877564,16.995203355913112,-9.42805086734949,0
4031.0,11.198118,-32.471007857446985,-2.128422823030718,-16.55054489455697,4.319543951907093,23.8240046167178,-0.5638970331174447,0
4036.0,11.212008,36.22492260914521,-2.184724562034024,-37.20998608749849,2.763455019524028,-25.863782951743485,11.386516370775151,0
4041.0,11.225898,-34.87679207180775,-23.53721930274059,20.448739907352188,-14.713451001526291,-12.944599763816647,14.681997442577629,0
4046.0,11.239788,-6.154242678666522,-31.79199312395445,-6.668478377455847,19.349122855273365,-1.9900132688116203,5.677621670740325,0
4051.0,11.253678,-18.92241375978721,8.235783204694583,3.726474538205178,-15.050431277464478,11.37044673013547,-15.970197643224555,0
4056.0,11.267568,0.936597651542696,2.6423088615150467,-0.9170381813865518,-15.83167357956701,-3.122941715870408,-7.062155508809319,0
4061.0,11.281458,-8.747563709717129,6.048632794480871,1.3546045943627298,12.00216091171323,47.51462477981203,-21.808963448071708,0
4066.0,11.295348,-20.51686442508023,-18.594976821997808,-3.989329256203487,-6.168552494322547,-39.86882870870929,34.22197378830104,0
4071.0,11.309238,-10.836812893229954,-10.254710026099664,1.3580336989890274,-22.5063863860485,-18.0052725037117,17.106835236767623,0
4076.0,11.323128,3.736530945177929,-8.94958789205085,5.722140739300251,14.482896738011345,4.475095322228513,4.573150170432545,0
4081.0,11.337018,-22.017714459109825,17.39984385754964,8.282280169192006,-13.769375048477295,16.102057324014744,-22.797285479480948,0
4086.0,11.350908,-7.276570605387864,4.721451772262009,-23.2285278065701,17.947569846279002,-11.21210593070725,4.154927070996688,0
4091.0,11.364798,-0.4322847195036559,1.854418673430644,-23.877404542034927,-7.605266974996948,-12.194121892303176,-2.385718298074755,0
4096.0,11.378688,-22.8500329755955,4.259697412591232,9.73575895824537,-2.400795239896789,14.786992385996887,20.78319619090845,0
4101.0,11.392578,5.618910243057678,-12.455653539567503,25.169967386050345,15.507723028268568,1.4165191654403826,8.121752862858552,0
4106.0,11.406468,13.198562509201388,-29.975746338208367,-4.697094578752811,-5.4701607807877135,-21.557029823204463,-6.582425740279973,0
4111.0,11.420358,-14.01661658183476,8.717967044819476,-24.836166327641862,7.600042961939666,1.975313386593029,-4.269318592802892,0
4116.0,11.434248,7.895282683493288,26.96742145264665,17.832682720453647,-4.287047091119526,14.605092673747178,-3.747877984243323,0
4121.0,11.448138,5.986028584552294,-15.781897159047563,-2.9381604385360154,4.928671216151617,8.014011132586381,-7.575163283638423,0
4126.0,11.462028,0.4195638793317008,-4.657212806195358,0.5118314190687121,12.969024133748691,-15.828333433887927,9.77702666669887,0
4131.0,11.475918,-13.105566682918736,-18.738604400915875,12.6213963782001,7.097492384537917,0.6949226870780305,0.0272462794012664,0
4136.0,11.489808,9.865313961975918,-2.0496179236931003,0.8132283297395766,-5.071985319650308,-21.72525479241019,9.9527866981197,0
4141.0,11.503698,19.470989925847466,-10.452888378845005,-7.39975278471876,0.8226519754854567,29.701104588290363,-38.86616872945893,0
4146.0,11.517588,8.990909021298645,33.85761869575381,-8.211451437884392,-31.26425793440632,-2.6693709448574947,-21.861634838216176,0
4151.0,11.531478,8.538312234749721,-12.546323677934826,-4.308304699077508,106.1444635388408,-11.335084249037664,54.21224376708077,0
4156.0,11.545368,5.693238041745103,-9.884394717724938,6.750262010618659,-39.098259202480286,-12.093648409836218,-11.409436733744236,0
4161.0,11.559258,1.7933348845219277,5.339445539742676,-1.2140943881157118,13.216861277345526,3.248523272076833,17.1693088827736,0
4166.0,11.573148,12.709144889365422,9.283199116319912,2.399468902063952,62.43621562438254,4.170244986569069,13.932066101294286,0
4171.0,11.587038,15.922398672013806,8.198795462339195,-4.973084214039216,-69.5596720281712,24.684580096477983,-51.968903625563456,0
4176.0,11.600928,-17.919856436203197,2.3169519119844684,26.226078730200804,-6.670561722122198,-12.62094831752662,15.68017548153156,0
4181.0,11.614818,17.393108459067026,2.710065788617129,-8.258372763913211,38.06650705075913,-43.74879418236755,29.053680627726905,0
4186.0,11.628708,60.50077961130656,44.4408874976746,-7.9099683334321504,30.81357562581631,14.435580456672884,13.534470734423806,0
4191.0,11.642598,-39.08007806030285,-37.1964948334671,-0.3909423968343795,-25.95575874823176,39.543423659274,-24.887566230305914,0
4196.0,11.656488,-18.70997868387384,-20.325601647893457,6.937331937041471,32.6837985260909,29.636525604685644,-8.195071646177444,0
4201.0,11.670378,22.412406920072463,-31.47125742307366,43.73079316105776,-31.205951166777112,-39.50651258572799,12.503612740929093,0
4206.0,11.684268,4.824368315379491,9.170276469339738,7.845813308278295,24.61961773689054,-21.033759350248417,8.209444689918474,0
4211.0,11.698158,-0.2384176470716941,36.12019023581869,0.0057508318904218,6.865037588728871,-15.00694003197824,26.349468304255257,0
4216.0,11.712048,-14.593209164237605,-4.526700519242747,-10.751971772048233,-4.163583172188874,64.433939307605,-78.68806160472971,0
4221.0,11.725938,-5.862603619955795,5.996277565564767,15.657355782460456,10.17130624634,-23.524343871418147,56.64819377404845,0
4226.0,11.739828,14.473370436917197,4.165758480095884,13.187556198202593,-10.822453103206604,-12.076111355329198,2.3438133071569567,0
4231.0,11.753718,10.90671889242153,14.396957710938434,22.27853066379604,40.94695092935771,-1.0756145757915512,44.693715045808574,0
4236.0,11.767608,62.23079207757265,5.947746233746456,47.10835585828541,-15.827325751312191,-19.16516669930556,-8.74311456302035,0
4241.0,11.781498,-31.21206516691285,-4.1501427932208905,-25.309900130724994,-17.23672640921993,1.4352488836159765,20.26566934939899,0
4246.0,11.795388,-67.46437914946165,36.01596629001952,22.55976230224006,15.387797415598367,29.14772181926565,-56.16827813480654,0
4251.0,11.809278,33.73613039581298,-31.64588460997636,-10.242231439035546,0.0680191957080023,-35.90241749591151,84.31757940803786,0
4256.0,11.823168,-26.3134850950291,-51.11871942356829,-31.13042371726396,-13.604214283276775,6.87556600727701,-6.027782503849161,0
4261.0,11.837058,-62.95236656922013,11.779545489046368,72.70836817502905,-6.761824428316626,-7.012052144947948,14.85873215817919,0
4266.0,11.850948,77.69828077444146,-91.06851807361063,-36.70718668601229,-12.922407561272824,-5.432980879709273,21.264673300371744,0
4271.0,11.864838,-12.732814537170416,30.96161654478348,-11.516742440022362,28.668285826279813,13.38640726185461,-16.4257541439301,0
4276.0,11.878728,3.469939003433812,-3.843785756635423,-12.18599581539998,50.00263565174588,-12.511251045616904,37.49174491930461,0
4281.0,11.892618,17.937689992365332,36.27986538493912,-7.069533455577957,-51.82276507382304,31.359509296017634,-47.19141904697337,0
4286.0,11.906508,42.88313167312096,11.89421444229238,26.44766719399157,-1.165145706904804,7.697223036187292,-2.6861006560298444,0
4291.0,11.920398,-28.10452144022774,-33.01649896656751,-13.414136411886004,-15.195191070871374,-16.617164167427575,9.10229149116445,0
4296.0,11.934288,-38.91669041907959,-4.385814672630774,2.858420922254493,17.555390033257506,10.137891819369692,-57.65506809637871,0
4301.0,11.948178,22.65674751650884,4.036702893025941,-11.019534817724882,49.44658951031991,-4.133335839348455,34.7333942147003,0
4306.0,11.962068,11.692765732632088,23.83226966626793,11.11900836085146,-42.44679438449479,-18.254330105692947,-23.971119919454623,0
4311.0,11.975958,73.35822783805256,1.804395785341125,-21.676531697508864,-2.0600836375248512,-2.275316440727913,-13.923480966399849,0
4316.0,11.989848,-6.924778151734838,3.906700282312645,1.741785786298383,-39.80608396668258,-12.529107427602453,-52.82117594392757,0
4321.0,12.003738,17.875164915025096,11.83504062108921,-1.654379749247651,9.392323832043314,22.06444325080176,-17.675203306340318,0
4326.0,12.017628,-12.069830480739627,-30.79172218491429,-1.32216922844842,18.663617013814594,-0.339121701529864,-10.773922076030004,0
4331.0,12.031518,-18.90315197508388,-22.93827889365664,-38.21713874348377,2.977365963682395,-15.220993110515268,-8.598892021953096,0
4336.0,12.045408,17.5935502838032,28.129602094665223,-19.68532242455081,-8.687742803913565,-40.55095102164109,35.15855526514305,0
4341.0,12.059298,12.851874122966084,-35.770349452833386,9.922320254185212,-30.43986821963602,46.315801347435865,-25.63642215398061,0
4346.0,12.073188,-7.493924179874992,-34.82436065473688,-8.368006254071439,28.822015773971508,-14.498629624750162,-22.29610920856988,0
4351.0,12.087078,-6.159619108194016,33.4916796345167,-19.141857636932016,-28.26672040862267,33.273763595487715,13.014230417171008,0
4356.0,12.100968,67.82093020601457,9.161915267765403,24.704894540110203,10.091348995663235,-4.935763500135445,-24.11541811037594,0
4361.0,12.114858,-66.37219264489022,2.967636799907808,-23.118303529869014,57.18739893736743,-45.488297122425465,26.846650274563032,0
4366.0,12.128748,19.32913984631638,1.855340887223217,-20.707533164707264,-17.150461005526694,0.8886100200116283,24.058224065022912,0
4371.0,12.142638,-5.176043832053412,-2.3797771980976474,-5.310822881662402,-9.017755844843643,2.8263620345811646,-2.913828144928152,0
4376.0,12.156528,47.95277653691932,-13.562092495342766,-33.21757450888163,-3.1901441337529555,-53.48396635572166,27.673187489193523,0
4381.0,12.170418,-48.68926544920399,-20.97269870155808,-0.4100489557884599,-8.849756581937987,6.573664538422947,-16.134389108699168,0
4386.0,12.184308,-16.987280104206203,-17.87309515544206,-10.967515599301526,47.437318846747246,-23.137802446177663,-6.750091981621377,0
4391.0,12.198198,-7.937778240370303,-19.806954896844186,-22.03235535599944,-64.87292674961705,-34.320611819277964,37.1083178766663,0
4396.0,12.212088,-36.8671450216534,38.93862016902939,19.5878839796564,-23.18995570000192,27.78015522376712,-19.0982385242888,0
4401.0,12.225978,49.42815818426891,39.893039886364846,13.820990823120098,44.75427355064616,10.350710709544211,53.6740116389184,0
4406.0,12.239868,-53.786977449240936,-47.6884307964777,-24.562916141809392,-46.18031060517963,-12.907892939129116,-75.23137081173192,0
4411.0,12.253758,-23.03272928209605,-13.653928382733852,-7.365072751424251,-34.47825575854135,9.57879782295363,-22.71742285890671,0
4416.0,12.267648,-10.278345315960104,-31.23144308721105,-2.3873269763886427,25.058368534856488,-59.206886955213136,9.69649725039557,0
4421.0,12.281538,-7.36531247700316,29.898004583043644,3.442551541209052,-27.600167049287307,39.0180228026556,-16.104394526616325,0
4426.0,12.295428,-9.582272072100976,30.93950077974653,2.547433354688779,-6.1403760666669465,-3.8325956752274974,-7.894990705561854,0
4431.0,12.309318,37.103471376935886,-73.12912582638954,10.74095785832887,26.43988462220712,32.613995774761015,-14.92994365055038,0
4436.0,12.323208,21.47346179693322,28.16522544306936,-28.932935220702248,-40.71643811492385,45.14099012741708,-17.211036915809615,0
4441.0,12.337098,-42.78453307913311,34.138166490220215,36.75865517992601,11.210393038484236,60.06064841274777,-14.94768095473196,0
4446.0,12.350988,8.767350861874943,-23.566909242045902,13.801960447612949,8.411300627659406,-12.20951131370807,8.747171248648199,0
4451.0,12.364878,14.035849747426774,10.178247711362868,-19.59106659758972,-76.36021433417991,13.059164262756916,-52.37778651234928,0
4456.0,12.378768,17.542055391818867,-33.37328851612168,-6.298641710546324,67.99371874607039,-38.17542852294788,45.61233205704799,0
4461.0,12.392658,-57.4899802433833,28.33162029675732,42.01295938282634,-23.99990787416501,10.174684269887615,38.98438518649454,0
4466.0,12.406548,-10.544634290491732,0.588163793742984,-2.0502450026602856,-11.30908666575841,5.773813788373162,19.75747925172372,0
4471.0,12.420438,-39.85951766020232,-10.722813101539725,-25.99203913008595,-19.8635471277482,-30.10183202927051,-34.93036630854175,0
4476.0,12.434328,14.098542365527932,-43.350387600875,-42.062706727589045,15.440703347162422,-18.76494742601812,13.72834137242874,0
4481.0,12.448218,12.526953889455156,40.65222332194448,5.008286929559609,6.506088693017653,1.6386533825945335,3.5511707157843304,0
4486.0,12.462108,3.698161023704179,21.100689708595503,17.23027467265861,1.105167460005168,-9.06107624095755,-0.8044837212608327,0
4491.0,12.475998,38.31840847427205,33.645069169513654,44.7846562312095,31.18022021690297,36.28757337624924,3.738244996724776,0
4496.0,12.489888,-61.37584109232228,-49.267522447901726,-13.15597469046732,-15.593233441886204,-41.32727835934995,27.39832786214111,0
4501.0,12.503778,-10.996166765995492,10.111108781656943,17.876810970367302,20.18862627854749,-5.874564604458729,-1.7745497300701285,0
4506.0,12.517668,7.132422944049296,33.986918475732075,-25.806972483244664,9.239190504080272,3.10288387542634,9.428627562788211,0
4511.0,12.531558,15.283698107836807,-24.14214723938944,-24.261981250205576,26.36648420483468,-21.17466155435734,8.94031342838156,0
4516.0,12.545448,3.388869803600619,25.95694396421468,14.158141884452991,-6.479886025131723,32.13370656572056,10.56421895729552,0
4521.0,12.559338,10.88105819411522,9.318984663471774,17.475100437284752,-3.489176415676755,8.984553436236451,14.618810949158782,0
4526.0,12.573228,18.758310621020453,-1.9232308737212829,-10.899957659098614,1.656836740465501,22.957753493796552,19.23704493536928,0
4531.0,12.587118,6.873662530539066,41.46266598057179,-15.451060551176926,28.28657667903792,13.441425717224952,-1.980542714569653,0
4536.0,12.601008,2.626761788165769,4.08220951617712,-11.3485823965353,14.33191759096036,1.8371429781109248,5.01628323050263,0
4541.0,12.614898,-2.5595654621803554,-9.594697504900804,4.675085122838063,55.32120027989144,10.437349329138131,3.393020369526419,0
