Frame,Time,RightHand_Accel_X,RightHand_Accel_Y,RightHand_Accel_Z,LeftHand_Accel_X,LeftHand_Accel_Y,LeftHand_Accel_Z,Label
1.0,0.002778,132.05732260663032,45.16874699870942,-316.9436536338404,-573.6209406237475,280.6390584032179,307.57219361197906,0
7.0,0.019446,-57.27745238103073,116.95963446180188,-222.0222335205065,85.55460163423791,85.62192554832316,-166.48511072356536,0
13.0,0.036114,53.77398452440775,-74.8596945180035,-82.86315279796075,-2.02120948016335,62.50946608750355,-46.90015881558178,0
19.0,0.052782,-1.88104819774442,-14.94623998026254,-180.42864695316428,62.065121152079065,228.81754335116727,-119.5031300342122,0
25.0,0.06945,-81.71503590189127,-0.8899426327975855,-52.20948958305033,25.4868738031596,164.10527398967685,-148.92516457451842,0
31.0,0.086118,-96.63507649036524,-47.475538832573655,-127.61622225623596,124.416240603361,40.132599099649845,-325.29936628028645,0
37.0,0.102786,-127.96264367245094,145.73553035117175,-41.82492378804286,52.80258332567,181.287339405393,-315.6886850910867,0
43.0,0.119454,51.34092531813012,-62.30034525712828,-120.21039205312952,195.54845791814748,74.01193750950893,-256.8273221676469,0
49.0,0.136122,16.395043582569386,13.41971894256405,-63.4668719570123,88.34277011460291,124.93471354608336,-690.5692818205297,0
55.0,0.15279,-40.630782114110914,-23.961969236987898,-111.26431709767026,-11.263055398499333,-60.453494072783606,-173.087613021221,0
61.0,0.169458,-181.72349461519428,132.15130332700048,-3.8038956105241297,63.23580119785844,254.17307271795696,-555.8165839563933,0
67.0,0.186126,-97.44344500192986,300.6750812846941,-88.16604115149688,162.06315572453127,244.1916142144571,-375.1309835700378,0
73.0,0.202794,23.58926321527805,-18.243426792962616,18.3118598067346,100.75829898039729,-29.0243548148248,-274.9615457362121,0
79.0,0.219462,-82.80620866439976,-107.8733110452154,44.22612380697837,56.58808245401789,153.1844784180985,-560.2401878195723,0
85.0,0.23613,-258.5903467184597,120.87917428427944,61.77485668878195,147.56257389685362,-144.43723390215126,-624.8072768349202,0
91.0,0.252798,-80.79832749772514,108.99086619496842,76.53950623075627,8.035558388553717,177.48092263333342,-434.39754893725694,0
97.0,0.269466,-148.48577382308395,65.3040585164022,25.35452356767776,87.77949129774603,-178.32920310483905,-547.3247283398903,0
103.0,0.286134,-83.09546698436397,3.3080576452218007,-46.230280496105706,205.41281397407263,-124.24962626280616,-756.7380172346973,0
109.0,0.302802,-96.71588134189594,75.82469053284305,86.62735715951679,-93.79116100910431,128.62516330747084,-314.2021263094021,0
115.0,0.31947,-104.07854656748722,7.146423811702952,-33.59105030383488,75.90912745546669,-29.93449404106553,-433.7153569294565,0
121.0,0.336138,-100.00478057778614,52.5476120940543,-44.57025237546963,69.38937926287859,-81.15257533020133,-471.533358199964,0
127.0,0.352806,-39.54314578767233,-26.646587273096017,-47.509842320979246,104.19025476072466,22.97867308135131,-541.7120044666203,0
133.0,0.369474,52.531496987685244,-37.45126066542297,-100.34700361093728,-22.272122742709616,126.5136255281929,-399.8070268829082,0
139.0,0.386142,27.72217167613841,-41.15349441768632,-90.79779903261326,-54.529659956893,-10.04037563100809,-169.772565125055,0
145.0,0.40281,-15.412685653940908,-43.92310831785196,25.31595791402867,83.20613169407055,76.75123214810353,-456.59290296526217,0
151.0,0.419478,117.37012038884644,55.805719976632105,-61.337766617950834,-6.914813092971741,133.83487839008376,-126.0322239030792,0
157.0,0.436146,-13.323259991583344,-10.87642398555289,-100.18415932217356,13.272919431498394,210.88178778114013,-100.0686662517858,0
163.0,0.452814,-17.49769729060278,-85.7347978282108,4.723493146003122,-48.95693747498352,229.68085792053773,5.864770702022469,0
169.0,0.469482,174.73172706035615,-44.29170912928159,-145.21500035321412,-5.823003496088241,184.77432927651768,-207.66364069240188,0
175.0,0.48615,-72.7827544797656,73.51073434149686,-62.38982107524859,86.232964115937,218.6354282827137,5.378300219858598,0
181.0,0.502818,-17.32069004322453,32.24242680192125,-9.376227007343688,2.4283999231250952,164.73636247772998,142.8275815913729,0
187.0,0.519486,3.056642221298631,76.40954762705567,-11.23117532170373,41.26760498187759,210.79314998802,110.72002823737564,0
193.0,0.536154,-12.10498597231106,101.95636123681906,-4.39520546365371,-40.36388023460823,180.3277256978016,172.46046148190118,0
199.0,0.552822,107.72935199453136,30.508465765442736,-5.9398060065233125,-28.094568196033727,18.19845360393974,354.404265519683,0
205.0,0.56949,-18.72189385956574,152.2410175488085,-5.135357091547972,18.90929592867305,191.46962248512204,115.25924926722016,0
211.0,0.5861580000000001,55.467326903657415,93.82250784307134,48.55229268256343,-42.671243358838055,1.0133277383432642,448.9211999758129,0
217.0,0.602826,-4.435188310617118,293.483954045852,24.95087108360611,19.77364566674504,37.10707501887279,362.0008494010765,0
223.0,0.619494,11.00070783858142,21.57361333544721,91.22447931102433,-10.338975517968244,-37.96014600474758,373.751743817389,0
229.0,0.636162,-37.04579605194984,26.26998821069437,130.0125722877472,38.72910153780387,-42.57323496221852,290.79219810408875,0
235.0,0.65283,35.72697170707787,145.2053701979433,187.9668845794172,-115.75393913565964,31.667246546294464,346.9934732545461,0
241.0,0.669498,-25.618337082208345,-45.48847589585074,164.6983548863966,80.13000235105692,-183.5432771213438,403.4998364942837,0
247.0,0.686166,-23.832969101451525,-92.43236641596526,146.7805042222357,-82.21454654586857,-147.18592181910972,402.893196545206,0
253.0,0.7028340000000001,52.42681946509788,-78.22642995083149,174.29191272822484,78.1138281519327,-200.49232213728084,454.1821120908337,0
259.0,0.719502,57.45977094218325,-154.17080605885414,144.91652189041872,-87.47284564468816,-194.5139218201577,325.9942915643834,0
265.0,0.73617,14.943017864543949,-251.71193745989865,216.36069461608187,-122.1159160085862,-164.01432338149863,308.8111783837152,0
271.0,0.752838,209.1017497154736,-82.10744662206875,166.20385394180846,101.01330576780636,-375.241765886096,508.8123144048873,0
277.0,0.769506,203.0750199339699,-116.37831420824506,233.298165744046,42.85856674421162,-192.37774627169264,315.20347277369933,0
283.0,0.786174,-9.681313888554666,-281.39061232541343,233.46951973562372,-82.63563380694993,-246.5866293599981,471.2311140980838,0
289.0,0.8028420000000001,91.9445815647228,-229.27031731380973,224.26566224952217,-4.516721313332942,-197.81159202066925,381.39403467659446,0
295.0,0.8195100000000001,-37.12711931013107,-222.73054262881607,208.3814031455544,107.70658946498544,-225.9275228651956,444.7311219997805,0
301.0,0.836178,174.58219335478597,-184.31187673174185,125.00317393449056,-33.27495454487308,-101.683451508213,231.94367740336625,0
307.0,0.852846,135.10215493629892,-295.1681143862729,163.32548855558414,63.687865247973626,-99.31894249810982,327.74564388675765,0
313.0,0.869514,95.2059961560456,-153.25149451354255,105.8673229502784,32.414516914054914,-197.55589001831703,373.14351648220736,0
319.0,0.886182,83.33429805969038,-223.56952984438217,214.77786059919865,180.25594358019904,-81.0098787919969,174.63206809265313,0
325.0,0.90285,54.06034454027781,-143.49001283605952,76.05663691531123,111.14693933770111,-73.36809501199664,228.0042059291519,0
331.0,0.919518,-115.55324368203551,-94.4034046952506,307.0485174523625,6.003337820683001,140.1188980688425,170.19806652643032,0
337.0,0.936186,161.30059495101585,-244.53051763291484,38.36468154043538,30.63250819231365,-104.06783766892416,524.9490987085273,0
343.0,0.952854,-7.199883650456243,-134.63306158075824,334.2755879793691,364.4861114099155,-118.6116084158626,175.70608531790356,0
349.0,0.969522,-91.71847319911524,-28.95620186604808,122.67698862992404,132.95445400375354,-32.42624659914956,245.23344511216692,0
355.0,0.98619,112.27316218673352,-78.60208060961193,62.97538302715057,50.37444045804381,-8.772283003452642,250.5826430215224,0
361.0,1.002858,230.5855716166053,-60.818520171041285,104.62196885763382,-48.90406300372638,237.6868248238532,87.14539211111585,0
367.0,1.019526,91.08982659479906,-29.651057235668645,42.60423901207432,69.62499894452581,-31.77745377761148,80.1462788732857,0
373.0,1.036194,-83.1830474079802,-49.686920479964336,37.58483219668112,7.938733741931287,107.29306204605942,21.0517393367412,0
379.0,1.052862,-0.7808239458260005,54.81227153797154,-91.36277190251512,59.58938952843436,145.1101183892112,99.7280417925358,0
385.0,1.06953,50.29744600873846,77.57732189373493,100.16548957467124,227.882246251236,88.33939219827147,-46.16328178711038,0
391.0,1.086198,74.61589050157289,275.40774359957175,126.87242886282807,40.33221483906787,259.2401043133055,-42.66177622945591,0
397.0,1.102866,-31.353867225148345,-120.61693062114456,-110.96345495220552,73.71273532242606,172.05066833687613,-91.72826700617642,0
403.0,1.119534,28.2208582230594,197.2051086383935,-28.566869578881374,115.12747710238652,290.3613195795997,-154.7664543380172,0
409.0,1.136202,160.94614205954912,137.90973421113318,-101.11357573155408,203.50448905887063,185.29716473996208,-381.7463552301919,0
415.0,1.15287,-46.31659457918382,280.45604349061887,-224.62232310676467,-24.13015000319249,389.6495496171581,-187.3077659788116,0
421.0,1.169538,61.62441413146921,235.6982721521312,-166.06580021602804,132.53079296478984,140.5480287126051,-372.2740367877483,0
427.0,1.186206,61.16283507412723,194.5217137688701,-103.46689939347604,125.04603372609544,393.2153728635655,-198.49453351857687,0
433.0,1.202874,135.23496633869945,257.5884806935481,-378.8194674343807,195.47144921900244,178.87473951018862,-385.8190340387449,0
439.0,1.219542,163.93305945365316,247.8528220344588,-309.9434609516354,48.251552190472296,231.02652357685224,-391.8910454986824,0
445.0,1.23621,-167.3291806116883,31.09963302866481,97.69980395098573,101.0570002714648,106.68567413958236,-398.7113437391713,0
451.0,1.252878,103.63790080164088,324.62615559923404,-608.8775148315982,159.44764382053333,142.86514978624464,-231.3628839560871,0
457.0,1.269546,13.89097906784032,27.824527914176,-25.413468304533023,-45.36019006059831,27.737810134447308,-488.2981897965941,0
463.0,1.286214,148.22768442120145,70.65517073343759,-430.1796270119279,42.37126322544045,21.076480826575672,-428.7145488052274,0
469.0,1.302882,34.13198560690065,-19.78089702833348,-408.60058161820416,50.88870208310266,-133.17122066968673,-254.5106728160056,0
475.0,1.31955,137.9309895729759,-46.89751920916825,-324.76259626588245,-160.75009142641832,-108.08431673862276,-440.8706714529167,0
481.0,1.336218,19.5842921069202,-26.50651592481993,-290.46940092015404,9.229895159841751,-238.8460066799995,-268.70624565157766,0
487.0,1.352886,88.63944877983303,-3.5515839994303184,-435.1399341692551,17.118318561397068,-94.96143943413088,-430.58452864154015,0
493.0,1.369554,193.1900473325616,-138.61245956703397,-179.14184408599738,-228.74683043409823,-200.5633764359988,-211.53747629680865,0
499.0,1.386222,216.0223017368516,-95.07293621422085,-368.3269962559157,90.35796121979332,-139.4771500227377,-303.2181013412748,0
505.0,1.40289,-256.6332031913822,-222.46112520564685,238.0660196310352,14.371083416609622,-220.2206130532889,-191.7502847447802,0
511.0,1.419558,243.6278932006024,61.96714233369859,-397.3067160276864,-12.87636871696374,-133.47083763104752,-193.4974353301407,0
517.0,1.436226,-26.29723937533524,10.859596718551394,-274.8555301125925,-53.1066746343072,238.16703885576263,-105.37728923019716,0
523.0,1.452894,88.40590782695847,23.271578311006,-196.6768259413672,-52.71656784219296,-139.79597453174512,-142.01897893661035,0
529.0,1.469562,16.754572888493065,-11.83944529524691,-213.361089461642,-114.95115673839226,61.40583091303154,-229.94311167622465,0
535.0,1.48623,-20.160699941990824,145.58065749349058,-121.00729070380098,63.01645883134857,-8.568486298970328,-104.86167882880332,0
541.0,1.502898,-86.38669732803211,97.38485538122508,-148.9021821793882,-145.6056755257412,301.94052557709165,-113.72424485721116,0
547.0,1.519566,-37.27346782770224,110.35849504707684,-179.48824921763435,-38.41380150016194,98.8984544614526,-86.32239501069401,0
553.0,1.536234,-76.43236923987659,55.17245692222614,-47.827460357752,-35.881630992974394,157.21520393610518,25.938499193286965,0
559.0,1.552902,-19.93067123217857,133.29783248232346,-72.4508136667315,-26.14255452959761,10.617307840740608,-19.33699285920724,0
565.0,1.56957,-117.2634014294027,18.32165153903041,53.3520916229009,-90.52112128280258,146.98301447073047,118.8145667498136,0
571.0,1.586238,-175.17137422865673,-212.4107088938493,77.93025657516058,-86.8186840453682,-29.755904938654623,86.49957395331239,0
577.0,1.602906,-107.74154668865444,996.0552647864898,65.2544582268707,-56.88526914181398,1048.269859417857,316.5159980476972,0
583.0,1.619574,-135.3370937487449,-110.44984764853533,41.32621836086004,-43.06265865848571,-227.68881236297136,285.2087637014613,0
589.0,1.636242,-81.83754150521442,87.89374661015036,126.34412177037744,-41.619622648125386,215.2559069547994,219.8697945420797,0
595.0,1.65291,-149.47299293318827,135.46236024992152,212.9836486871082,-42.50706329084781,233.35787828195825,453.65068416081846,0
601.0,1.669578,-130.147537331696,86.51548332320439,340.022082675242,-129.61961047155955,37.70427624185717,318.2576964576112,0
607.0,1.686246,-128.0418026206897,-44.03072292814909,145.3243318037081,-70.75579814622233,8.342803450259204,347.1874231255004,0
613.0,1.702914,-175.4424142431397,24.230468857492603,106.34742211254746,-98.1484919438182,-138.54098849873515,386.07577303992207,0
619.0,1.719582,-193.75773683655683,36.2102403302336,327.29010318746566,10.37542790789702,-222.2296450067085,295.9127663558061,0
625.0,1.73625,-74.51722767428389,-64.77144856040492,225.37315445927484,-142.17222929802296,-189.34051254021475,178.4528366275946,0
631.0,1.752918,-142.8009084926763,-87.16335006203087,298.1020799223519,-0.2385500686597685,-486.50364992499937,195.5752393471671,0
637.0,1.769586,-129.85249316307124,-62.74515717418343,260.22252762386427,-75.06202220478248,-219.80873340132013,415.2138153921512,0
643.0,1.786254,-151.6515481188642,50.378183656107694,272.4661542782201,-243.8991419536692,-56.54292912946295,414.52954912310815,0
649.0,1.802922,-137.94947387467872,-214.32402094362743,336.55196030566026,-3.41796394776631,-510.3937901702798,91.09845804566062,0
655.0,1.81959,-101.79097617608704,-170.77140456607714,456.9697784350728,84.2648132216473,-414.9334530343946,112.6834438837407,0
661.0,1.836258,-106.1610804928537,-229.1484808194212,146.5540978718144,-106.90959770923068,-115.67377334987955,498.6581132387449,0
667.0,1.852926,-11.164945741580873,-65.05536825349441,366.7925270899063,54.41527054510552,-335.737799838601,156.42934820830206,0
673.0,1.869594,-60.54777814519799,-210.43171090003844,230.44617618642928,-194.64227246376004,-187.785508191152,447.30385769488737,0
679.0,1.886262,-80.10636578874224,70.68114350083404,247.4199998220526,105.02950644044736,-429.6494413488226,101.96969323633768,0
685.0,1.90293,-33.2648496326166,-256.6936039622735,387.4298104044879,-31.93698620771044,-359.6785851536194,336.4088304401786,0
691.0,1.919598,-102.9192395182848,-187.16878686606404,267.18182587169326,-171.7492787572878,-269.8646551150217,258.466093436948,0
697.0,1.936266,40.92666274229544,-105.5122163006517,468.336063841465,-36.85908302165043,-221.59578260629056,383.91784961139655,0
703.0,1.952934,13.235864468281514,-416.1367693519676,498.0474016751229,13.822228006254434,-280.644673372815,171.5758519710754,0
709.0,1.969602,-241.5292862594918,-31.87472800432404,207.10457546822525,140.32716161296008,142.8203395235158,352.989738031186,0
715.0,1.98627,-16.957404346141697,94.16434628828424,65.12617923169589,48.6053675714504,36.552761616491495,108.0164940475328,0
721.0,2.002938,38.8667322584532,-121.91587526152593,466.6994805125363,143.94740514672077,-13.736337873597437,9.815393169518757,0
727.0,2.019606,100.25862037248888,-213.30059726399617,464.7943294904744,112.71209146576732,67.66091852029103,334.3250668720666,0
733.0,2.036274,-5.0817757936479655,123.14337845573236,197.2886117891574,188.97554549802948,168.42199109323326,-156.3536649839558,0
739.0,2.0529420000000003,56.41248793196056,-46.37024484511355,296.0225226845604,74.82480220853145,232.4202503218263,123.6810324561128,0
745.0,2.06961,77.4585811996302,43.78346782150241,286.9386074920779,160.9861912169561,207.53437546358404,-70.63969575167715,0
751.0,2.086278,63.14729777522464,99.4751094330016,261.76914235168454,119.10454834462443,95.58938417658506,-29.1853844933166,0
757.0,2.102946,56.38331406857482,-12.356379730761873,273.70779371829417,200.8348399204816,185.42030060363896,-168.595586550141,0
763.0,2.119614,148.38375097130162,-100.90269377193248,405.839488033105,24.922055421034862,132.20815327664718,-64.74727050782964,0
769.0,2.136282,53.3649356940892,74.52144624369706,147.88132568430603,127.7193908417058,120.65984717561484,-207.7249621046836,0
775.0,2.15295,52.37378043943593,154.99509876542135,96.1460398632633,88.19717937246926,84.61115650637606,-85.4465307140426,0
781.0,2.1696180000000003,137.1480214025213,-73.31417536197365,176.48822318451673,102.4186157164098,96.3735339852418,-255.9371932535095,0
787.0,2.186286,71.52535237193979,127.48437094715176,67.3067300534511,75.95418355712297,137.62511072566184,-238.8699805106528,0
793.0,2.202954,160.46466696069243,126.94429173061098,294.05399189545824,-186.0031880367546,69.22544385413502,-330.9310272612505,0
799.0,2.219622,30.542242124884623,-117.88713725993895,-25.14350292492464,-40.99588459311248,75.08353388097535,-162.68385096549625,0
805.0,2.23629,67.75481719254927,20.277491605273923,160.20077761871758,-52.58210638738517,49.72881267129704,-322.60922161272936,0
811.0,2.252958,80.52577963246651,74.30196118179711,42.36855474587573,50.74012115421791,89.1159127416857,-315.1771942154592,0
817.0,2.269626,30.5573532771376,88.8436196084895,-109.35871284417549,-84.17714394168418,-53.02232896471572,-364.5624775100475,0
823.0,2.2862940000000003,147.69575864346797,147.17542360938427,13.11575179268985,-29.718898409551496,147.74972720146314,-290.3643774969087,0
829.0,2.302962,57.2870657079564,69.47261577953589,-96.22516207617346,-302.4861901115381,-29.233330631643145,-395.2609120886645,0
835.0,2.31963,163.2091792254754,118.06994710402932,-294.37870372284453,-33.70130670073902,75.00764369242344,-162.3771947951533,0
841.0,2.336298,99.45593483505738,147.58066546514638,-209.70272942230685,-242.98998567299984,-33.48788910548972,-366.9390236415744,0
847.0,2.352966,68.27455056219844,31.44991949326084,-197.00646694745308,-51.99435067497315,40.20987177937178,-180.361874244018,0
853.0,2.369634,160.62768003512022,49.95311463622927,-336.877957406182,41.495866587437874,-88.19152638152678,-235.2168939360137,0
859.0,2.386302,-24.6508893853971,157.764611303754,-216.77553529678303,-163.2460679251638,149.91597868956632,-168.5100459321212,0
865.0,2.4029700000000003,-1.6116549803865734,204.49861105221964,-431.3729245728928,-88.54270187592611,26.87849044667028,-321.3476946700933,0
871.0,2.419638,40.93426138749321,52.98269532143704,-478.3891268147595,108.63355828783948,-61.35935634996965,-143.8771864153798,0
877.0,2.436306,-9.864055181208606,42.857192047157895,-357.51528285807865,-324.2863916178211,339.16837933149964,-147.81378064222991,0
883.0,2.452974,5.398688037506162,38.97397941604973,-235.2631397659504,18.2745310770118,-24.904893032916505,-241.2164722824802,0
889.0,2.469642,147.1583537510599,89.97095584221708,-476.15707123220704,-126.08827561445425,184.4578429866756,-153.99106927912246,0
895.0,2.48631,-145.17777955724262,-5.862262334090801,-362.6963145162266,-27.59052277045861,-47.83463229318815,-1.7913520653215764,0
901.0,2.502978,22.97356935056417,28.34853284911436,-394.2921717019299,-58.764463840499786,105.1297579854246,-55.88832949406658,0
907.0,2.5196460000000003,-90.70775244302132,64.52625009833955,-470.3495298159671,145.40419495215974,166.4167587572546,-16.58822187243512,0
913.0,2.536314,-104.02605481281792,-5.875117114120695,-361.6748096898018,101.82234137205776,-73.53653877084949,-148.45245519367373,0
919.0,2.552982,41.541338662240165,-27.11894175279153,-9.69636526332026,-101.36424708036668,-0.7760429318855699,-95.82738872535646,0
925.0,2.56965,-165.78587055149285,4.130852504866883,-616.9014581407432,339.3303623402436,-83.34501020122816,66.75493947282234,0
931.0,2.586318,-118.78205336103174,57.7866281134808,-241.0880127564791,-93.6274537903334,-5.851498679177034,93.4571969760024,0
937.0,2.602986,-161.20436569952335,31.552410850992896,-154.26191891539963,3.334973377805696,29.32034454165972,18.229623677534427,0
943.0,2.619654,-128.377619048199,66.47506141502163,-204.77096445953524,-9.650962083393964,-95.99874014531186,223.133759933121,0
949.0,2.6363220000000003,-211.8938767035152,10.30718673389868,-135.09948105965063,-8.52698305499775,-30.59805637483208,72.9439125637104,0
955.0,2.65299,-56.20337467475638,58.99382349932446,-47.52970225303192,190.89538263839825,-49.14554675670605,37.02441024444358,0
961.0,2.669658,24.3781100528837,149.81700342948898,-127.7702805952203,75.84087349389175,69.1348465467016,23.34552615072916,0
967.0,2.686326,-105.37570302844829,66.39439190613805,37.9293221584165,-129.49312906922677,102.47933494200284,188.9909534838222,0
973.0,2.702994,-58.03842117785398,-36.78889475224402,145.10291613537325,18.127553369931505,-130.89715741944326,149.09799936849697,0
979.0,2.719662,-53.18442521769653,119.56530459298588,33.91469224487919,168.85749815255983,-71.11747789638328,115.77391515706672,0
985.0,2.73633,58.82086216122055,43.81394553560686,65.63730423866674,-162.9968237763287,61.89399155631958,148.62322845155086,0
991.0,2.7529980000000003,-78.37288492178706,28.011380231888484,212.8328321884221,-79.59457218916673,76.8456437762467,61.01564900526383,0
997.0,2.769666,-12.512681784421993,48.61993548254401,142.65275367791602,220.7592683256106,-72.00070429666542,265.76975531686406,0
1003.0,2.786334,10.895718168701055,31.187466503374303,50.94071656621567,-32.7221306253856,-131.32858320863022,265.7048817549147,0
1009.0,2.803002,-15.889795529363354,75.9541102273765,185.7044474981448,-223.09628000028167,-0.065181954840328,143.19824556307395,0
1015.0,2.81967,-69.24151881621226,164.55488333118288,541.4808179967064,89.65507030126804,139.27444792230614,348.9351490903349,0
1021.0,2.836338,70.52069672070184,-132.15031871942134,-48.961729375571934,-189.54704114313896,-70.84913883767135,62.25188960173264,0
1027.0,2.853006,64.88044543928501,-11.635591996600692,449.8700451533034,138.5701070501089,-98.86596045813444,152.08537313425262,0
1033.0,2.8696740000000003,83.90709292610823,-49.31309703436134,252.5999097692996,-62.09186996403028,-38.64611413091789,300.87620321282463,0
1039.0,2.886342,32.78488891291326,-164.48764165929617,298.5377065512332,-18.561032990582746,-43.06882627219025,105.69751889469252,0
1045.0,2.90301,80.23905419569705,-40.88508849457592,140.30909267648514,-17.473773500001165,17.515348237235802,147.23048242063632,0
1051.0,2.919678,-148.90185950572442,-54.10883580824128,400.9941734843603,-71.78459803240548,-100.42639351746688,244.6331440112636,0
1057.0,2.936346,159.76121271200225,-197.68737022040293,21.62810405654426,54.89236241805766,-15.724577422280456,108.52871242913815,0
1063.0,2.953014,86.49865159484963,-70.85473008390912,367.9976066137939,-113.47364142478054,-79.56909868633787,124.18247399953644,0
1069.0,2.969682,-34.87510133972794,-120.65627382679044,211.07879229047435,320.6886751098401,-288.14333286848245,448.1931437748707,0
1075.0,2.9863500000000003,93.06304480783052,-212.0079165268787,304.4367364782641,-110.32826666262844,-34.78070581630346,-102.50849493903226,0
1081.0,3.003018,173.0730908952886,-113.36815845880994,75.43642257286965,-189.5978901874905,4.776117748477745,245.40084789420743,0
1087.0,3.019686,111.50477149643376,-33.26076425971448,389.393687313212,139.79675934573746,-88.43675154289032,170.0548111827909,0
1093.0,3.036354,-7.679517895860052,-323.8734827511585,121.6575916112717,-111.5613579176516,182.59402458968373,215.33803383859265,0
1099.0,3.053022,64.16278929807973,36.712744710493766,224.0484296186776,285.9738754836277,-141.395981336994,-32.089802380911905,0
1105.0,3.06969,37.74230246708533,-317.3022042554776,427.9580718338882,-283.8287903733225,54.29337094289811,297.0183847961381,0
1111.0,3.086358,186.9050857343944,-217.81047604511505,132.15258393561788,195.7413149884302,-56.597196037912425,11.802072924291856,0
1117.0,3.1030260000000003,136.73066686549558,156.59072385354744,213.9593837884181,5.336037314103891,111.414485859714,242.1266110430857,0
1123.0,3.119694,-78.94448352336032,-149.73663601336727,-163.70420352838454,-225.2952459406229,86.15146031134834,-13.287801997554126,0
1129.0,3.136362,50.49243592023622,-11.271244256783366,352.7780329140452,16.445384303212286,-52.072088648887856,-36.79958127353412,0
1135.0,3.15303,-47.060755481363486,-222.39503423837408,383.1471560238928,12.354422217267008,-88.6396380176237,52.96538757116917,0
1141.0,3.169698,-71.82466155368016,106.539579315549,192.44648664399784,-172.9067636990584,181.41128886509333,36.295396973204056,0
1147.0,3.186366,17.928543587594397,130.5533582615838,86.5087385860113,-192.11258428287724,83.14858137007985,-12.38853440504688,0
1153.0,3.203034,-26.86539150653636,-137.22939529215563,235.79292551988283,66.9261766685924,-190.37599995059225,-116.04623275382292,0
1159.0,3.2197020000000003,-165.68490405397958,194.8691671545012,97.53534704273044,84.73110935242536,163.28533524106103,-229.4332375461516,0
1165.0,3.23637,-32.0589748463793,70.80268890427524,35.418298518308355,-81.25728210099015,15.499351553188902,-29.844508128026497,0
1171.0,3.253038,-125.0601136064748,130.0726209434733,91.12438769153653,-83.78868167385285,152.6426449091216,48.21967851283428,0
1177.0,3.269706,58.37875183047774,-177.73574908428438,-69.01246609542952,-21.19199211751588,41.18268487304125,-204.9355547876116,0
1183.0,3.286374,-118.92245808400008,-15.51479803477022,-3.3884764031926125,-3.4925908091697764,-74.25766488386397,-18.371507692633248,0
1189.0,3.303042,-101.19296984515452,304.8349407564398,-38.27049410667435,-226.7454175757229,321.3102591361464,-156.71814658698895,0
1195.0,3.31971,26.59882487809206,62.40741289618362,-28.631775961433604,120.51925160102766,46.5402748098568,-385.005307629521,0
1201.0,3.3363780000000003,-15.742874904666015,-82.8331062982259,-92.98088263737216,-76.62803943642842,-13.413329454628954,-43.88779859298835,0
1207.0,3.353046,-83.76431274921192,-68.1570798211689,-101.29332856770615,-30.5138792810112,80.54136469469753,-294.94396648030147,0
1213.0,3.369714,-125.3914746164358,181.0612418552393,-175.2496774504334,93.55493088925827,79.3058000930794,-59.50718360428117,0
1219.0,3.386382,-43.36156973192956,46.27644825439416,-88.56768768917547,78.64696951846858,58.06594765895091,-247.5257602712428,0
1225.0,3.40305,23.67972791424576,43.55873264029962,-302.10572112411955,-35.02266825054457,-30.783050467095546,-44.11209469924124,0
1231.0,3.419718,-22.79517416495512,-0.1463507191945074,-258.7443578509825,-18.531926905930334,-41.2684836523273,-193.4310770211287,0
1237.0,3.436386,-62.562375122209566,11.062033712721666,-260.40994384742044,-19.135300933774808,20.442129506075787,-181.17377024457227,0
1243.0,3.4530540000000003,-72.98265739984636,152.4493250518134,-190.61985612837344,156.0069085516003,38.366934051793145,-199.9859446872083,0
1249.0,3.469722,19.14723555238632,-91.7164708241712,-305.8814704921625,-47.124549715385285,-74.2665072985168,-52.70700759023603,0
1255.0,3.48639,59.181249478618966,98.24226441885952,-301.5236314030756,37.59138618346147,5.283142966993182,-214.2436845716225,0
1261.0,3.503058,17.109194238703807,24.221039975381323,-366.2529411068166,193.60343035863903,19.840621334136387,-121.3402763325812,0
1267.0,3.519726,30.888625747436464,53.645650161574565,-160.11880705100867,-43.71987844519366,17.583733470252152,120.03042278803504,0
1273.0,3.536394,-11.08935026872582,-25.30146896730356,-186.19807164125052,165.02236029080387,-43.84694870124631,-69.1292037204907,0
1279.0,3.553062,59.40684361253377,-7.847262820524685,-164.67042661165056,33.17869621135378,-95.92803467691894,-26.35051652713137,0
1285.0,3.5697300000000003,-13.099610201524962,12.460879403138486,-207.83873006030012,-206.36282775498387,125.6372665676552,-81.2415035590407,0
1291.0,3.586398,131.38462567616952,45.68033907481143,-142.30065273563045,306.10919699109985,33.72098245532623,3.979797611004813,0
1297.0,3.603066,-42.68497984687399,19.45174172882135,-254.61636926046543,-126.45233363683523,-56.69248940866248,-99.596905824332,0
1303.0,3.619734,104.48502187766738,16.50091445077694,-109.02575847789232,177.90978779604058,-67.65753072436533,-102.39648776990856,0
1309.0,3.636402,120.53009619870012,66.00405558458704,-336.7489082342653,-82.99341334699007,122.86584773636504,-88.12361991168227,0
1315.0,3.65307,-27.176855550774857,-27.217534741870416,-16.83388836675688,7.1103592645682685,23.67546293788822,141.1111082251491,0
1321.0,3.669738,88.67098070688925,-15.455166420174145,-21.13044623726621,27.34812437737553,-27.04703201671138,1.9263143366586704,0
1327.0,3.686406,35.90408386184757,20.66377977719056,-251.89217916812768,174.35356207872684,-58.19327509849533,-55.377168132350434,0
1333.0,3.703074,-12.52680926059496,58.42444359386083,37.51773532167599,195.10067578309247,-30.48772175021027,100.04306374625791,0
1339.0,3.719742,155.18316478044113,-47.05623832972128,-217.56961361503875,-50.29903150165837,135.01790036341924,-7.256245080748535,0
1345.0,3.73641,45.55603573111129,-13.78026778787808,136.32055320732064,87.24680272772414,-130.34038884633966,221.47675053850844,0
1351.0,3.753078,9.879293971155018,-40.95749112993242,-51.509624196831865,-127.13719630023098,39.762771798633416,39.19534023433313,0
1357.0,3.769746,146.16420541958524,77.60551179972715,-75.03344195955738,69.16063776982911,33.52109267628247,177.18811827088382,0
1363.0,3.786414,71.00063013117642,-64.68856238041457,87.03705489992535,1.894688162238225,-3.496964089174318,73.4495622959243,0
1369.0,3.803082,-64.71743804384566,75.6722923866265,-132.67734592278023,94.12454931237129,-27.772844987650984,71.69836820161386,0
1375.0,3.81975,148.10031558475407,-47.94374592101172,140.34698768615763,-1.3854296406639677,-27.459500862226125,8.51915534887548,0
1381.0,3.836418,44.17358197580244,-3.5323967382007755,-56.80880963713549,-43.45837658547202,24.05825889501457,138.9161470116748,0
1387.0,3.853086,2.350513294106957,15.62431324321709,-31.45332851483045,-148.4480181524038,22.706913959222067,186.8406396553201,0
1393.0,3.869754,15.370272264826962,50.808360716733326,150.8204856471868,6.703304497172143,85.19573391914003,-32.35948606785795,0
1399.0,3.886422,-52.7904880541206,-66.22138571191874,122.28733997051584,63.70121999069848,-49.90486705082554,-18.236881983458403,0
1405.0,3.90309,13.51178386992992,0.3794347669730218,48.40791288089102,-102.5730644724069,-19.878627694357043,242.30437243821444,0
1411.0,3.919758,51.751956936215095,-31.55805360453422,82.95933922276107,-126.64078271599848,-40.0446006944216,70.51603874822952,0
1417.0,3.936426,-50.01966027781472,-31.86549700080357,-14.08734785606958,-59.85237257688095,-59.60026050277061,160.65282590025032,0
1423.0,3.953094,29.16658299313285,-29.08609617755248,156.19457162019594,47.70773392227419,-45.88620913841273,13.044164567067206,0
1429.0,3.969762,-52.66777443348322,-61.91569630470765,141.5278527178631,-108.6272751618465,13.418440530707306,186.4422570190912,0
1435.0,3.98643,-26.116433476181086,64.26847536285364,0.3964646015097077,18.069447736785868,-77.80619340584782,78.49323186872058,0
1441.0,4.0030980000000005,126.65025302211376,-52.92605953520419,114.63001745683776,-14.871014110960784,-16.386395832721135,156.37382617114076,0
1447.0,4.019766,-111.49818225940224,-91.65833047626302,165.54274532153298,-151.9508251320902,-9.222905721605876,99.3770959320559,0
1453.0,4.036434,55.69641932981917,-5.431040729426216,137.88610424142303,-26.112937292334788,-54.27447468127434,120.27803577362111,0
1459.0,4.053102,-30.354528676089327,-28.30270672806953,11.521831552135213,-30.074262892160057,0.942518066097985,160.250420220198,0
1465.0,4.06977,-10.356439797698949,-22.965704161273614,55.34463780806741,-50.064812565262784,-12.797541822690306,106.30562234381226,0
1471.0,4.086438,-43.69333941901303,-33.869770934035664,122.40561664625316,50.74635466353552,-135.86811050870108,170.68371662456542,0
1477.0,4.103106,17.032764222958267,-66.14554054072482,84.55749815016107,-152.61253339557345,36.20609997646662,122.98800327092805,0
1483.0,4.1197740000000005,-51.210439002819655,-91.02776325258884,108.5731396137956,43.93820359794828,-165.6297663054641,87.55369136284762,0
1489.0,4.136442,-198.3410914209149,60.924383003448256,11.673957345776468,-83.8817996260648,106.94484030329376,108.3198106831556,0
1495.0,4.15311,50.2645415488111,-53.48849576143639,45.03850699908036,-47.69824840936334,-80.40806195369017,58.10265257242716,0
1501.0,4.169778,28.36363441336054,23.13814071072029,43.97141867911621,-237.55314349755545,55.94581253150096,253.12578910117648,0
1507.0,4.186446,-23.74311860155391,-9.44517842395496,-36.02734773638234,144.442339715814,-62.97159764986803,-45.56417766844122,0
1513.0,4.203114,-5.800556555274739,31.20753132128484,11.238110184920592,-122.55755458721134,84.54067295454789,-52.38449665371785,0
1519.0,4.219782,-99.92902120233366,-104.4647986798021,15.227451107076629,-190.2692241714188,32.37352197932954,84.14566889824754,0
1525.0,4.2364500000000005,-27.608718468939266,23.87499938871389,-96.7982639900549,172.29094325678258,-101.269625898125,62.430005288589136,0
1531.0,4.253118,36.6311879050506,-32.63366195818548,150.28563248225623,-179.1912485098537,32.11384179064693,65.39573370006057,0
1537.0,4.269786,2.9613587901856,39.2857670488565,-194.49276129327453,-93.8682828090234,-69.5225929152145,112.34512126716952,0
1543.0,4.286454,-112.69958549752612,30.88349250923472,78.67792742574292,-62.93395130948223,95.16141908190528,-3.595948248726483,0
1549.0,4.303122,-3.3774666498687544,43.235638348797,-105.04153799920566,49.790534938101246,-42.77468326915251,-48.62188341502399,0
1555.0,4.31979,27.95319207320687,60.15959239886292,47.60842505060552,134.96892284637585,86.10738198877162,-116.482010389523,0
1561.0,4.336458,-22.652325854160523,17.38922683334974,-124.51001704343192,-135.10703664212426,11.57884382294958,91.74122681530856,0
1567.0,4.3531260000000005,-39.91497026944543,-68.02086919223805,-38.24371905604289,-51.74046171496603,10.801525301077408,65.10414678576522,0
1573.0,4.369794,32.84234770351018,67.88232242965458,-63.4465911604274,-40.37793894199814,-8.073915337354997,7.571851548795024,0
1579.0,4.386462,-39.20364997267957,30.14788924375017,-61.16939561633565,220.4801493854472,-27.05630176553332,-12.50066720440592,0
1585.0,4.40313,16.236702929614353,11.174332670345642,-91.65785614394396,-8.8847665972338,13.785145233753632,-190.35275376053391,0
1591.0,4.419798,42.58131782404461,54.20726088198268,-61.54710432063103,-36.947690606313365,127.5899561804501,-11.371031695158814,0
1597.0,4.436466,43.54969887325689,61.791919159279416,-103.2508402142293,54.60459455168787,-52.86798111092731,33.868365995244474,0
1603.0,4.453134,-14.957158317482577,16.369982838207086,-52.36570463241984,106.309119187585,-44.02046795662061,-189.65326207079056,0
1609.0,4.4698020000000005,35.16745010402995,-31.396084901680567,-100.9474054086774,31.327079596252524,-50.36373696736947,58.633726914065335,0
1615.0,4.48647,58.13622988137777,127.90000057707448,-178.31321199356756,-158.8650627811029,241.84200115080844,-105.12708968789909,0
1621.0,4.503138,-50.01048237052405,-50.56142638795763,-13.226689753670255,33.40947625252002,19.747817912944903,-156.90779018461356,0
1627.0,4.519806,-41.91375504004608,65.98291003988713,-65.38401382562854,155.63862013892185,-73.58574739857897,180.6084287326124,0
1633.0,4.536474,108.70496722180803,-35.39711791499873,-60.35809159531106,36.613041096542126,22.04618289094807,-187.10613829952504,0
1639.0,4.553142,32.884146676490296,21.865023843706503,-104.95442791287948,12.887006279611173,-0.9778999979502228,-262.3446022609713,0
1645.0,4.56981,65.65670307333079,64.68969336205495,-56.21897599358059,25.07900436530023,33.70686623600514,65.72344438536574,0
1651.0,4.5864780000000005,30.083399433516306,-7.896019318270415,-4.562130565495366,27.45729083236589,3.608992487991796,-30.473036084806274,0
1657.0,4.603146,131.57415791057556,14.686593023941418,-142.27158836436348,-23.325016156554675,-35.99853170923773,-174.012168213341,0
1663.0,4.619814,-19.81424440782901,101.99403332942715,-116.44709142442544,5.093390814514867,58.41383250706127,-116.7370888160754,0
1669.0,4.636482,-22.385477376371654,-102.36259353291506,144.95756151738453,-109.32133087076292,55.931250141990034,101.92688277177382,0
1675.0,4.65315,-26.84208860725321,-24.725877008041184,-184.2483775369812,151.50933541668277,-17.55650006107463,-95.56936992663468,0
1681.0,4.669818,121.16535371101244,33.60371579861808,32.873948012271285,-48.976309938475865,-11.834994400488029,-126.30518095055186,0
1687.0,4.686486,-60.78409034501936,47.74111365209733,16.89333537391252,-16.62672749525073,11.049112208277675,-106.16935971001112,0
1693.0,4.7031540000000005,116.89688722232336,194.6946937240932,-198.87377373154865,-40.99771139435226,80.86368533609657,-100.36695840790388,0
1699.0,4.719822,7.538406265360695,-165.98464895888264,13.59414215367245,104.719453699503,16.730192694456044,-29.28747966014204,0
1705.0,4.73649,-46.01893788873861,152.08923072742886,-54.03171796694461,60.55801992749022,-22.364901064864217,-59.74572003122715,0
1711.0,4.753158,53.78685504037847,21.21696256707448,-68.07064753816145,-16.0489803043623,82.1865747842034,-59.00536299204538,0
1717.0,4.769826,51.57899363828149,149.14295507394098,-110.00894724324316,-1.479795683755322,109.5108766800792,-26.83883993494904,0
1723.0,4.786494,-95.02895153690991,58.15956054226486,117.29052124024564,72.2692122178145,45.623560986723575,-54.04481434478313,0
1729.0,4.803162,-97.64263932396564,-291.8297585586464,15.312552127565889,1.7879637390833167,-111.28760210687966,3.767858597889002,0
1735.0,4.8198300000000005,-49.960147772698015,79.58817330250943,33.10995679541212,65.82802470360578,-76.33980683856069,-135.20273302552272,0
1741.0,4.836498,56.78903373137297,27.46868000843267,-47.63486129005386,-2.0681987783471847,99.86643705968626,64.18657181183013,0
1747.0,4.853166,74.7141209401455,-101.73789903555571,119.86927418076328,-84.20004445415795,-45.311830096277575,51.07481182623081,0
1753.0,4.869834,-105.88145192629132,65.98162338059372,10.493994866005387,44.65678799381114,-29.77722413572033,-48.53109960169918,0
1759.0,4.886502,18.740463925562945,-129.46905201150366,80.78554208156395,3.359487619489581,-42.02890721673087,-65.89781333012925,0
1765.0,4.90317,8.141762588797818,118.2117938000231,18.02854270685288,80.71485333008388,25.68339381266397,4.716805480857495,0
1771.0,4.919838,17.070201998552037,-43.73925165891749,142.99306149507737,-115.80774366935496,61.21525167468563,114.12330158114528,0
1777.0,4.9365060000000005,-79.77370134701346,12.714897910517433,11.14911895715711,67.75056550872826,22.785449074334192,22.033465671691346,0
1783.0,4.953174,43.275678590763874,-64.70127504676981,68.4725115284479,-77.3581166569673,49.927497220535145,-46.41760893604376,0
1789.0,4.969842,-40.46190249588945,-39.00622752981064,79.30844607101362,52.60272023446073,-102.11134935612196,29.855692530142534,0
1795.0,4.98651,15.98797190794355,25.732207561553587,76.86139720398455,7.650339144636709,-12.439030070464543,-23.12307742302396,0
1801.0,5.003178,-177.54234027737786,94.26653167569832,108.30955281243438,-31.17216809619719,32.367422534040145,118.98993043248436,0
1807.0,5.019846,23.64960654250058,-99.79191896675202,131.69926869164732,-61.8550676312864,-53.16555416785295,88.7430774955578,0
1813.0,5.036514,-30.46216509908916,1.8599518656447955,70.48285701538134,88.091141289261,10.105798423098731,43.42941871133249,0
1819.0,5.0531820000000005,1.029451191986789,-38.6714430296712,59.00259336021908,-43.28987018591984,-35.91163920156175,-33.43596948654351,0
1825.0,5.06985,32.062656531945414,-33.634253486104384,74.66499453233943,6.275024346705886,-14.44579423384242,36.15248828382538,0
1831.0,5.086518,-36.6717477549693,-28.690145505019093,105.67591711438251,12.426041280590038,-24.461650402335497,43.699709599147496,0
1837.0,5.103186,-25.02840548134984,-26.305419174084506,90.535246045559,-15.802178733858636,-50.5627566212142,17.765471050822164,0
1843.0,5.119854,-16.634328580163935,4.017946620605556,62.90597297568839,37.765493314566704,-55.50438298563847,-11.554650616861236,0
1849.0,5.136522,30.757337843310395,-55.737577472491694,86.13656950561268,-5.468106514954719,13.2931586587397,108.5213612955226,0
1855.0,5.15319,1.4324204884537706,-53.12872756618463,54.46492975042512,-3.2014426315717017,-4.642707420919118,16.08320493975206,0
1861.0,5.1698580000000005,-25.323881974392734,-38.12998661579448,122.6472012236698,19.661424637114305,-1.0178744298620863,-9.883695889204317,0
1867.0,5.186526,-32.289173600557504,-52.86590340826179,125.57767984909232,-44.2357758194308,12.597108104447328,17.824623830526598,0
1873.0,5.203194,19.096985176648285,15.800920138988314,73.8457599849949,27.693582168468613,-10.076590979694572,131.44116454965814,0
1879.0,5.219862,42.99297786877455,16.727059382620357,73.80931567982185,-2.120314769430937,15.821452812098933,-128.6354497385804,0
1885.0,5.23653,-65.2935368081537,-26.595579484257183,138.28506178749723,-31.88725821889621,-52.31803680707256,112.40936488502057,0
1891.0,5.253198,-5.957173347700248,-50.024860482517525,52.14048836889429,55.05600006082803,8.396738970211912,17.179193182315846,0
1897.0,5.269866,-116.84090509071837,-13.878754708878,94.39375136010425,-49.68807464271996,-16.469008431194823,20.138303530959085,0
1903.0,5.2865340000000005,109.233476224042,-31.28575247987021,79.78557508792429,39.68105245684256,7.576242209900249,-38.020369155403216,0
1909.0,5.303202,21.88510246415085,-15.342825612557974,48.7488924275649,-51.00659487512763,0.3195331412534745,-35.94948580396959,0
1915.0,5.31987,-35.30105950906406,-27.77196118698438,39.31822123406776,213.41846682707083,-49.87734576207382,97.19161836802635,0
1921.0,5.336538,171.40631203408608,-56.40999914415092,4.094146462886208,-79.98066637275788,-5.0848313137427255,-155.65943091270506,0
1927.0,5.353206,-35.33747409153131,-89.82429373855304,101.02486369688074,89.19313587769972,-57.46596776182268,18.74037135210009,0
1933.0,5.369874,27.883624292604907,119.3093474901525,115.64234892510196,-11.834305391988526,129.7076807922884,28.83343567871542,0
1939.0,5.386542,72.32721166576488,-55.820306826689446,-66.68327036691008,-38.500791052722136,40.80281095058312,-58.74319942770727,0
1945.0,5.4032100000000005,3.5803565310922423,58.26448702931572,-23.71329244122424,30.99262928070427,-99.15174604003212,-24.736603549315564,0
1951.0,5.419878,8.840227742933036,18.86865918356707,-17.532362134836752,-93.3665133109762,131.82083991902786,-23.54678968859112,0
1957.0,5.436546,2.033645764096644,-23.837289484705693,14.356606610851944,26.64329282755816,-24.520522129917065,-2.7219578796402315,0
1963.0,5.453214,45.62620308314422,22.68532753505512,-86.05923540145045,-7.02004375899709,-11.760690074828684,-59.549908570100094,0
1969.0,5.469882,-74.04517376756692,97.09789038967835,150.36927734471354,30.22409217553345,107.94000983967298,16.842135787474792,0
1975.0,5.48655,61.65288066425658,-53.859599290760286,-107.63213288984974,-43.33499118732557,-97.70143899626166,-108.37092121121748,0
1981.0,5.503218,9.306841162989972,93.34416658504384,37.15544047557624,5.034475132264059,79.16309717279036,-23.066878173045247,0
1987.0,5.5198860000000005,-217.26922942577545,-191.6760432891658,-141.2986562540681,13.699491696686165,-152.95858750474463,-40.20080343373205,0
1993.0,5.536554,241.39843630540523,10.91366944012496,37.13725114630424,31.987367254552893,68.46922214434944,-84.86765018892862,0
1999.0,5.553222,-183.9219891391266,113.3998679244659,-69.23973849225912,-44.324438559903285,-53.22321776264985,4.937431897693823,0
2005.0,5.56989,-44.48148446302173,-61.01255305289133,-8.672747204453188,-7.000547783523867,53.281424562991,-24.37160776866437,0
2011.0,5.586558,-36.29821522925592,-18.143941245115936,35.0202926212156,-33.074916217802524,-12.26605675227552,-21.415634042978287,0
2017.0,5.603226,-1.266487710318675,108.2454371328228,-137.01469676030445,3.0884622811792983,46.80209713694226,-32.537966667804,0
2023.0,5.619894,-76.60300024510671,71.88838002986908,-102.51116348919514,-22.508037777316435,42.74083687341922,-13.012569141040537,0
2029.0,5.6365620000000005,-64.51661080240099,-33.042614618278506,-45.68299923207728,-36.95836461928889,-1.98764939907238,-25.33331329668611,0
2035.0,5.65323,47.79060321427812,26.08455971630736,26.3458949469208,13.883964534365806,34.61245646075032,-37.98103466162753,0
2041.0,5.669898,-153.01843013921538,8.924026693234119,-0.6033900789082622,-38.69621575569938,0.940401353030186,-42.29918639344018,0
2047.0,5.686566,93.55568548665,81.174225765606,-137.80041209770826,-27.01142365448897,16.872686796386702,-0.6539789987843765,0
2053.0,5.703234,-115.69895803069768,-18.527436351740064,-34.2942807377319,-15.301258270586208,-14.291617617680236,4.4362210430267215,0
2059.0,5.719902,36.91768309261808,-47.20204171888767,-93.86386899182556,-42.13411657868406,27.377038036099474,-26.93966000092433,0
2065.0,5.73657,-114.82057730730686,-25.68273361367512,45.72542377799613,0.2403585515624904,16.86286840344573,-90.33906363570924,0
2071.0,5.7532380000000005,43.42443733623556,28.33383120081821,-145.58642471786442,-67.27601080001625,125.88242713304987,47.80348565064078,0
2077.0,5.769906,-31.73138424197324,58.91397785486508,5.071466821101955,-34.57192565066198,-21.194048336277326,-5.9027665227817,0
2083.0,5.786574,34.042935627875835,23.5881786608582,-77.3599746281436,-38.60608824631521,51.17507169601436,-46.78681155493737,0
2089.0,5.803242,-32.54197639898099,-34.95945844436857,-12.334207859498068,-13.149997293961045,33.80819306122643,-35.598539873852985,0
2095.0,5.81991,10.409681435547832,135.29089658883032,-119.31375368711367,-8.822551220260655,96.8417319088727,31.03391327359033,0
2101.0,5.836578,24.40541359196775,-2.526630384941309,132.58916100267209,-13.777618497592684,-35.553553839291226,26.665030461557738,0
2107.0,5.853246,-46.15362687426162,-80.7444312426542,-20.40588368600664,48.463105000784935,51.21713454508613,-24.96420538080511,0
2113.0,5.8699140000000005,1.9629030738112585,57.54612126684409,-49.982338295703975,-115.46753944240147,23.09108580853323,-25.515551316387054,0
2119.0,5.886582,-98.1737918706768,-16.013197230009755,76.7413722008657,66.2673908475812,-140.03538167297972,20.603863029308904,0
2125.0,5.90325,47.81491275277504,0.9720227738823382,-41.524420313348166,-46.655698202285365,32.11404543001886,15.626037273220671,0
2131.0,5.919918,-99.86649965323356,97.63987962338555,54.365960525108456,-108.88503730258364,171.88330931158575,-43.12066462784739,0
2137.0,5.936586,26.34067993780531,5.329450969183124,-56.93097891257364,-18.876964522391987,-107.0848248082314,-44.66067309171063,0
2143.0,5.953254,-89.33629127867565,-39.56453665979071,39.63361187116654,-32.14002623832987,51.91353586345839,83.00547064767856,0
2149.0,5.969922,-19.47865902337625,2.0487249772554263,-5.319722031130112,117.21223102402077,-73.98282934369131,118.48358486489563,0
2155.0,5.9865900000000005,56.80771650943765,-23.735513818805032,-22.528020377664504,-176.0787081832667,135.28887454515075,-34.071638977479324,0
2161.0,6.003258,-67.02690918828381,-38.21191034010454,140.48046843923652,-132.61654277790984,-29.311337980293505,35.226059554720905,0
2167.0,6.019926,61.72099321881196,-3.293571587989728,-108.8482953354364,31.404161957537028,-60.28696676849293,43.072579508182486,0
2173.0,6.036594,22.97880312550953,-20.2844527847501,-84.21002180361813,-30.93497789485026,-71.14404994478647,8.445723775586606,0
2179.0,6.053262,6.934873898093645,61.21114355856125,25.99347714347236,-142.56259481017676,90.70952148029636,178.61318991049365,0
2185.0,6.06993,-93.92841136020346,-53.25455957705151,-81.03549771547435,55.24271695731901,-174.03102919760647,-51.22751572612199,0
2191.0,6.086598,114.27154936024064,7.60811732667422,-81.08965898214879,-67.95144915270254,3.479993212925084,203.4623428533196,0
2197.0,6.1032660000000005,-81.45663367018514,31.53241858675685,-11.98338460756694,6.329675781978672,-78.05817727334879,2.007029782622091,0
2203.0,6.119934,10.116254877495862,45.90255506528488,-61.05967407855687,-56.86507322827513,10.560775789572292,23.059763860822915,0
2209.0,6.136602,-21.76983905441853,-28.642548170018284,-43.44620413773119,-41.23216539567586,-28.121568196617,101.2033559022673,0
2215.0,6.15327,21.568183541801115,126.6652718914145,-115.80954110781164,-83.51357917950665,-26.330727131589217,203.3441284957396,0
2221.0,6.169938,23.22100424067462,-244.6356632742404,-223.8737803830803,-74.87995079766422,-152.47921610063176,-31.08003751446897,0
2227.0,6.186606,-196.3231912110085,52.51959141024079,-52.68277642720359,50.50139143420955,3.556247757772212,54.202298721499005,0
2233.0,6.203274,-9.661596860637411,17.244734421732645,-43.838233885454194,-4.313617897938773,-146.49220353043802,118.50955532841223,0
2239.0,6.2199420000000005,67.60109630942938,135.39665035105588,-179.14971998468735,-109.5562534448675,161.36252015456614,255.40587168188853,0
2245.0,6.23661,-153.2028499822104,13.062761783656123,-223.4101736269425,-146.3007676754231,-2.611063342402112,168.07544270640747,0
2251.0,6.253278,162.82273159104128,-111.79474098399102,-39.78075076853722,-39.8851716582153,-184.5584305849616,154.23459918591004,0
2257.0,6.269946,-134.98371163269076,135.9542193557349,-148.45531349646797,-136.943235773488,57.93575360206863,181.89142852308925,0
2263.0,6.286614,23.997758241221007,-65.93008429216502,-282.85710315693655,18.41858105554389,-48.30341110655575,206.29770694408265,0
2269.0,6.303282,9.430825349842522,-191.3398597213948,89.86835478008362,-89.18916639940579,-56.16240363816928,214.66565419814447,0
2275.0,6.31995,0.2297080350026092,105.10167378839412,-155.06555651552438,-139.92882246502043,66.95540823023761,177.25326149860285,0
2281.0,6.3366180000000005,-96.34594935050956,135.72541168389125,-142.25373985269624,-157.593244388098,93.951366234624,201.54100162222028,0
2287.0,6.353286,-17.542071059611487,16.42768925690875,-77.93483610320659,4.377757620145019,16.2430253803078,190.13357299131275,0
2293.0,6.369954,-123.06055940471155,27.40838169792641,-169.87238962755177,99.24579689647597,-85.17019226691964,310.8433036320884,0
2299.0,6.386622,-167.9023505011711,52.790397327090005,-71.9061161145864,-139.93138380882868,16.838156490090018,208.5358255422054,0
2305.0,6.40329,-161.94077731102485,38.46371429942582,-23.78171726599857,32.11334168563866,-70.20670596024722,287.9876546598063,0
2311.0,6.419958,-174.07545836949578,149.66089975053666,-117.98727675571206,-163.02337992968666,125.96416998596013,239.21764267277777,0
2317.0,6.436626,-126.3644329289706,87.23108396021811,-163.1107693054119,29.675550319450963,-49.98133768333318,183.03806119209472,0
2323.0,6.4532940000000005,-110.05560428998275,14.95975514169391,-60.52900352415243,118.51080703846502,94.36939428603488,279.51915735481714,0
2329.0,6.469962,-201.48627641276664,-25.278649792899003,-52.38614042597067,-19.62227774275831,-109.23068453240025,5.5330154873922766,0
2335.0,6.48663,-37.60378634646561,-55.20858147740384,3.785348489484353,42.632526029030856,-110.70598579525571,95.144615550712,0
2341.0,6.503298,-102.7361373392772,24.585346728286304,-90.0346066748794,-10.310814842380822,-167.78229654232845,224.3225047344326,0
2347.0,6.519966,-104.142955940073,51.67799224726197,-44.92926616971099,54.952163006618335,-12.523013234977206,120.93232221750416,0
2353.0,6.536634,-65.75839421428866,-41.473190558707714,50.1383474044639,92.0154197785225,-104.84617830936804,38.20772025987674,0
2359.0,6.553302,41.39664690507833,32.00963365288993,314.16430429973855,181.5751808804449,-135.09863854203746,213.2865578267657,0
2365.0,6.5699700000000005,-395.817928480721,-145.35863591502937,-699.8213229530411,125.53058649943364,-133.59471133985693,254.94514441145463,0
2371.0,6.586638,88.0141044192628,-136.91143737595155,344.4565066788704,16.628045317963426,-201.53320299094045,108.64630423298374,0
2377.0,6.603306,-82.08090516663572,60.05220301030637,-98.13392357987178,196.29681554705675,-33.78013785400248,49.78472226519134,0
2383.0,6.619974,-53.3950957720254,-122.00039150868191,60.24838346553616,33.59546443654513,-16.26777558915552,121.02599444694076,0
2389.0,6.636642,-41.63409912292028,-16.873128060889506,-18.8583569401505,212.29402143597247,25.390132385596104,-32.262918181525194,0
2395.0,6.65331,-9.658092417520852,16.135829371732527,105.03499274129403,175.0010169335501,-83.51700759509352,21.902527579289696,0
2401.0,6.669978,-12.680043701993933,4.2806445386303125,-62.29575913692378,209.35077427178257,190.7969538133442,-37.83555727657556,0
2407.0,6.6866460000000005,-115.85794425829424,-175.43630690723802,42.37489051501003,227.98242799641403,34.96398430024311,-8.480254445097245,0
2413.0,6.703314,-55.68936750533892,-7.194479736666587,129.3869422920007,234.57315186923304,114.04528706804793,-71.21746530453734,0
2419.0,6.719982,121.07300778125528,-18.134713691584004,89.63358319841606,363.8860159124648,17.055043884692513,-131.6505805177053,0
2425.0,6.73665,-103.46790823111505,-125.76143272975114,56.06228090948241,215.781869388253,100.8251022048292,-201.9060801845732,0
2431.0,6.753318,-80.4804908181431,-67.73374143805596,214.28201599399588,274.45025184483444,133.67507467222092,-25.378077102007868,0
2437.0,6.769986,31.33035048981944,19.271574880322152,101.43721091227587,262.32804688504234,-9.418083639584625,-202.93881046174624,0
2443.0,6.786654,32.08932366061771,13.389201425019431,59.332645555767215,167.28718922537206,206.97665043833084,-183.83873715469736,0
2449.0,6.8033220000000005,17.998102012494,-41.7576851067785,88.56412751665485,197.29391466678308,6.616966292616112,-120.2002110481363,0
2455.0,6.81999,-96.82320609534374,61.2970173028625,32.83972330088413,105.92736166415484,164.66317819565995,-183.6806446721598,0
2461.0,6.836658,-72.24314763664482,-37.47580269360135,169.2096527852845,202.0271322880521,117.80161469679146,-324.6052208153849,0
2467.0,6.853326,9.354710312288615,60.30773338308704,121.90713152243006,225.0409525740461,47.87707600032103,-99.632085064987,0
2473.0,6.869994,-89.72003253225091,-216.5791458940497,8.243334341231375,121.26422384267435,-222.300299540219,-217.3549715325417,0
2479.0,6.886662,-12.92710165034046,186.1352436100345,74.8226628868976,208.1175855841888,139.16972867676105,-293.34791424215314,0
2485.0,6.90333,114.25332728685255,45.58798044215444,109.76826483705824,10.207014679327983,21.92145961093708,-150.56805491157837,0
2491.0,6.9199980000000005,82.52408977780671,-121.24452737983736,9.53003410945002,101.75152516762006,1.8373044977961897,-132.6720426415875,0
2497.0,6.936666,-166.07236681598852,40.4611469374757,35.59315106790654,23.11661188779328,-27.493980345819168,-154.5202815321555,0
2503.0,6.953334,273.52484687798494,-125.06639797405836,175.2801566618638,96.12892662872896,87.99757428809517,-226.88545137725987,0
2509.0,6.970002,-127.40000526278116,-48.62284175895281,-26.208386801205847,59.62531109267837,29.033518134606865,-137.99041466012025,0
2515.0,6.98667,-48.96761305888087,155.7532651061187,62.79753376266432,36.78683713571746,32.07203864229867,-265.3565123271335,0
2521.0,7.003338,50.01450359545207,-129.79089854289555,88.7732559550365,124.6770951206356,26.04479714802441,-60.7621610554655,0
2527.0,7.020006,61.17509572935428,-166.38396789193823,-31.36855910519199,-55.51935385012447,112.41808926276543,-142.99603065616395,0
2533.0,7.0366740000000005,-53.24144539188877,78.66149525708445,-36.52112708955737,378.50354691041065,-81.58029084000877,-76.9990117575268,0
2539.0,7.053342,65.16925576751022,-24.23693273744532,16.592346695022975,-406.5208132684473,302.5405598565794,-232.5969881977294,0
2545.0,7.07001,208.1758846486941,167.1633188370704,-87.04467288426301,-123.30901949356593,76.0097879817964,-215.3314118689817,0
2551.0,7.086678,-177.5258849416121,-253.2600434009731,-12.707313009484714,188.9155044536684,-183.19138742482104,-145.20348826544614,0
2557.0,7.103346,-95.28803182811755,70.95738825401544,-10.832332609151443,88.51075790999256,19.840252761266463,-164.2759006077071,0
2563.0,7.120014,35.14414361901331,-157.69998600683888,-74.17724998932913,-120.54382817067244,-125.2815776405584,-47.64682944564973,0
2569.0,7.136682,-8.234119854032414,84.02927789965763,2.848218977699769,121.77238553174246,-76.33119460174765,-134.97340450618657,0
2575.0,7.1533500000000005,-84.19055088566537,52.386987156800615,73.59006036704183,69.43934373090951,118.45120961694516,-87.5494811986555,0
2581.0,7.170018000000001,-183.79735637932623,17.468313613781746,81.05774397565301,-58.822125423756745,-66.42435766116031,-227.34917972810496,0
2587.0,7.186686,-96.7559266640108,-13.836503025730252,-35.06871978367444,77.4316327486417,-97.18028903971891,-34.8625624422871,0
2593.0,7.203354,73.4740792690313,-10.2183860822744,88.63129557161136,-74.99897615689743,-121.47269217121136,-220.37702233114084,0
2599.0,7.220022,33.009620286737814,5.720400742842145,-43.14434892088968,-210.7409325973477,37.01464550770058,-193.7266011005036,0
2605.0,7.23669,-49.517103920192085,50.34760318142149,9.563214359873292,8.468323952750348,87.05144380619804,20.74535582729895,0
2611.0,7.253358,86.42641069568052,59.64907521792572,49.10001292830315,-125.52290146051116,6.282522372706225,-51.10182372418981,0
2617.0,7.270026,-76.02668046135173,-130.78372221591195,72.20853746314715,-217.7948006970847,50.190593332888746,5.593757409005548,0
2623.0,7.286694000000001,4.156624751342108,55.62476364447036,-21.62991753121792,-181.0771758769952,-9.868629239031552,-11.51214619138088,0
2629.0,7.303362,-127.5686068708038,14.585758528248844,16.218948936522803,-69.71894367740892,-17.811450469288733,32.28014840609872,0
2635.0,7.32003,62.990474655399055,-4.682250530819342,38.547975992302455,-345.45559534124834,148.20524286394806,-229.48500181897248,0
2641.0,7.336698,238.6870164952772,-144.2154314268682,96.99659238060686,168.52580967962805,-32.22795107719105,-56.29257896038075,0
2647.0,7.353366,-160.35401778421038,136.14074185088128,12.0254451393061,-437.9660570730351,-28.628976663146386,-6.859826808863474,0
2653.0,7.370034,36.55164712962515,-16.492632103293634,-15.805832191547433,-80.41367239076976,25.89708534200664,-12.503721679899662,0
2659.0,7.386702,52.41310289309495,-86.97524229553444,137.7483242444053,-219.0364491782052,9.861792452327876,-218.0081368610305,0
2665.0,7.403370000000001,-36.13456526526374,70.9138664953555,18.46787440825025,-71.20965972411047,-46.55348964991742,41.41728796157487,0
2671.0,7.420038,74.30736931599202,-49.50391772219204,30.858841778443,-436.28196961699166,75.60404824319762,-183.25202860353392,0
2677.0,7.436706,42.74462444076295,-163.13797350182762,78.3639680140685,31.580991676699497,-28.69247260984272,28.56216778637198,0
2683.0,7.453374,-2.7006523487598573,25.43651578684751,-33.18717247356311,-414.4181511646814,60.09182582791568,-297.51380347416966,0
2689.0,7.470042,152.93040105656632,-153.1509078872891,80.26684520891612,-148.93942628423886,65.69657182561906,100.92583360490028,0
2695.0,7.48671,-14.24315392871936,-57.211193347565946,48.78497534582939,-41.62660387417392,30.98225556821639,-22.43597908395848,0
2701.0,7.503378,92.29549309082104,-101.28216759330712,41.27105733700647,-561.2049741311373,91.80726657126036,27.02551313447345,0
2707.0,7.520046000000001,104.69507685802618,-121.16601700186015,35.843276747370254,-206.194009906818,-180.15948637809805,-216.16641345606288,0
2713.0,7.536714,-58.91002775081928,47.883163386344,-24.657854097954623,7.304368310014468,110.7866398222722,-11.637321960417898,0
2719.0,7.553382,-12.899724195204058,-125.05787839718752,0.9351149016224554,-212.42544203397324,-138.7757803848836,160.46321629828685,0
2725.0,7.57005,18.117694193211666,-2.202957645375985,61.47191415429029,-136.07875982083095,44.81633215020661,-125.57029568303696,0
2731.0,7.586718,-3.2097289785342067,18.430707680333093,-43.74396446596048,-374.0583272398086,61.17740534564918,176.2721887092298,0
2737.0,7.603386,-55.328932631289554,13.858089895861948,-53.82744042127196,-90.24696095057234,-127.58079214581672,-143.14311738033982,0
2743.0,7.620054,26.96344082911716,29.029860249365733,62.58186223060505,-458.4975023182493,24.687510652827697,45.88920570246018,0
2749.0,7.636722000000001,49.50372746697068,97.29122858304363,49.40715680562384,-57.49019992228473,223.29729589571195,-4.137061268539398,0
2755.0,7.65339,-15.035671688449844,155.43680586079006,-6.871520999560737,-293.8110306519186,231.2642245777123,87.13692774796789,0
2761.0,7.670058,-55.75919728184246,177.0964653117947,4.617880847795509,57.102232732407344,-129.05010851864364,-34.620254919281706,0
2767.0,7.686726,-1.7843494950057135,116.7075078634611,-23.9089357861153,-258.0020608856313,32.203368384017736,-114.93438141270872,0
2773.0,7.703394,-45.07646585321093,190.1265992738395,-68.61102317816375,-205.7838237442551,181.0840375413144,5.959148689570311,0
2779.0,7.720062,35.76648668524382,225.651825958058,-71.63413480613342,-110.31471837988128,149.07046766537434,5.196443689587738,0
2785.0,7.73673,-137.0961271063315,22.582991425032887,60.82303705767126,-230.5923079269297,-61.33316468364301,-2.8822853831150224,0
2791.0,7.753398000000001,96.91254275904942,79.92561605809728,-50.20868037225163,-53.02327753594447,74.58454277831885,-8.90221746535454,0
2797.0,7.770066,-47.76848410961146,199.0775751249716,-137.85629106680508,-293.9840499895409,32.25822045502905,-6.971650937859948,0
2803.0,7.786734,-86.86454310058339,89.86423277530861,17.238537197117555,-4.324593693451348,-168.17754217782823,-9.410171755038933,0
2809.0,7.803402,24.453437483185333,135.30241128320705,-41.3495250291551,-112.26834542229332,41.43595109378112,117.9640698003522,0
2815.0,7.82007,29.98500998219641,-9.066092631373586,-191.97306194091263,-296.5090170309776,-6.865844732666654,58.23663471683827,0
2821.0,7.836738,2.875032826933833,92.27219625737396,-69.10628496460062,-183.90290608358532,29.67369322573213,52.32901313451736,0
2827.0,7.853406,4.018673924316037,36.890591653166,-117.26086469880032,-14.947370254666652,87.43507706322148,154.43514739467446,0
2833.0,7.870074000000001,198.7775482509844,-18.17432331604761,-85.07206725964582,62.72509411938742,13.858074340291113,51.0927953269723,0
2839.0,7.886742,127.48132035994226,-14.901526091109346,-167.11326097225054,-99.5406531964617,137.06729017508508,54.19260105306293,0
2845.0,7.90341,52.67555723997464,46.34502545037663,-35.7542008967116,-105.30279630502808,3.5278620643086,32.660170015051044,0
2851.0,7.920078,149.97367140252814,-89.60144219503793,-74.58286692943494,-134.34438392892065,105.5699566655286,-40.85903613763946,0
2857.0,7.936746,168.8211576273,-27.47937557871781,-173.30971138813476,-86.2318951498866,-100.5707549558838,-52.3334574571386,0
2863.0,7.953414,96.26738903901888,-220.2671965577426,118.60017815833884,133.8525590697264,11.849440198997094,5.825752905201831,0
2869.0,7.970082,81.91383682694429,-121.4256972419874,-83.68207003832215,162.33208753110603,-11.605695034146825,95.2356820026548,0
2875.0,7.986750000000001,278.8095432279963,-32.37817360138091,-142.63338660797066,113.43710332255114,16.21778121701045,-28.919533106556592,0
2881.0,8.003418,107.93053552498831,-133.66309067048752,-126.28388434286605,-4.10311959595351,-9.2604997920872,-74.75863382624226,0
2887.0,8.020086000000001,200.4298450194952,-91.43288784546012,-146.30548463761056,-112.75825735431528,35.93751482941059,-32.27221938595829,0
2893.0,8.036754,93.47408466014456,-36.30395596916125,-150.26455872601733,-168.01173020970688,48.47081022241037,-56.87962801987858,0
2899.0,8.053422,243.2869068966155,-102.12046509826948,-74.42731459484116,109.92188853383124,-53.841952107491615,17.661150356719137,0
2905.0,8.07009,115.0239797005935,-159.8166458909048,-31.240500302984813,101.3830282305344,-79.13435456728456,-67.53688943091257,0
2911.0,8.086758,105.5345377293123,-88.86682367354076,51.51013326074792,152.4666758027538,-91.82272545114655,-74.29093374805738,0
2917.0,8.103426,222.6721761041087,-3.340872016372357,-153.11949424165869,145.5940239425085,75.91599070954291,-54.59973731100105,0
2923.0,8.120094,61.39632938572171,-13.311934417702425,58.60990519843004,-117.61496151602265,24.292661565279666,-74.48979458093848,0
2929.0,8.136762000000001,82.48288772303488,-153.20064652568914,5.611345579445739,-57.694399943378016,24.94905462088716,-50.60203651224991,0
2935.0,8.15343,142.0679419229612,-103.18834016766876,26.11656170620868,99.32126242471564,36.727701902575554,-99.43026699282876,0
2941.0,8.170098,150.38379246449534,-65.99036279258414,-97.54739820216354,314.9794203200431,-173.33856237391728,-45.10379952059611,0
2947.0,8.186766,93.74175518740776,-105.46651244607412,126.767024441809,-25.833356944031607,-1.211043344005887,88.80261982559092,0
2953.0,8.203434,19.90182676973636,-79.90105954324454,84.58118502381453,118.22842155014506,-121.227750091927,18.07439159839079,0
2959.0,8.220102,165.74862985457946,-33.219369481466195,-3.1397987466665427,312.41560126280746,-71.30283834399759,-12.855982135339914,0
2965.0,8.23677,3.940349111330861,-67.64979768733052,-53.55245221716794,98.17224121326048,-53.09454205639122,-33.07711370084383,0
2971.0,8.253438000000001,-84.73599562810756,112.40835260977649,-7.006466920535416,255.2441336173941,-102.10948199477384,65.91135497597793,0
2977.0,8.270106,30.20146617800551,55.48829710731353,117.6600487244234,142.99888091215237,-9.133916790191456,-116.05704428245792,0
2983.0,8.286774,16.103373983554484,-62.86599278712587,160.0115432152596,133.8049435407684,15.561209884752834,-73.71510192063852,0
2989.0,8.303442,19.46138552976743,69.86368220332797,66.34282326625068,288.053223153606,-222.76457039204533,47.72404586064626,0
2995.0,8.32011,-27.577177499581595,22.50566096598881,125.64130984042912,207.87296559885075,74.29988629976296,56.99937367915685,0
3001.0,8.336778,135.71803428033706,17.501297411738285,204.83170560050627,233.72591481502056,2.394598836568859,-161.37042407045288,0
3007.0,8.353446,-105.32601343384772,45.74715571164603,67.00434364955743,-40.4731585846647,109.88812592231396,-87.62295566646839,0
3013.0,8.370114000000001,26.89487143691411,26.995466441712257,207.55694687718213,371.0086032156714,-121.4726655231488,-65.44007239541811,0
3019.0,8.386782,-154.09264964939388,134.43770402962596,110.04095210565158,347.5625722579321,88.68891596913824,195.75257438954569,0
3025.0,8.40345,-52.60113754486102,58.569213182642166,162.2506661013345,277.4794191206708,-127.9836016931102,62.7333435171256,0
3031.0,8.420118,-46.66509058004876,86.51585276406297,58.95012773703491,167.85034058043067,50.84641048607382,-29.32370412024975,0
3037.0,8.436786,-73.52929409155027,107.19667461308414,252.0290425124145,173.21768194827135,1.4275173101421572,112.17421214073326,0
3043.0,8.453454,-226.49538357415523,21.26729860521739,202.7622781201475,244.07195343566585,-126.98657735512874,108.41625996787748,0
3049.0,8.470122,25.640363626945987,-43.73014491801884,135.09551592174873,144.13454527898188,-48.07255438451385,41.4475496353376,0
3055.0,8.486790000000001,-204.43929397033128,32.597670517104106,24.62721809629687,137.649316759826,-111.43590410414426,-24.919053757114185,0
3061.0,8.503458,-88.14343282583283,-19.1596094995083,144.75053402516247,140.55316116532805,-34.79177229570956,24.922923253826088,0
3067.0,8.520126,-276.55317626046264,21.83059146742477,106.14837527981578,56.00722816835259,-93.55716307362694,-25.12304075667636,0
3073.0,8.536794,71.68218613705204,-8.72536336874932,41.94952669146079,204.7983475690064,-59.33786341666064,141.94981561992745,0
3079.0,8.553462,-128.97453789864713,-39.00709267603988,25.656848398596743,13.414650082072278,-138.90212373733252,-56.66407186361005,0
3085.0,8.57013,-106.07139034718432,-42.44998968274385,123.74287525849084,168.9070577114462,-0.7314544932144109,148.62146870738047,0
3091.0,8.586798,-140.2892499296036,7.431412767802521,36.92577152068544,1.096431690681566,-164.16937329346075,-132.7831506058453,0
3097.0,8.603466000000001,-190.90462337362183,-41.72197253600316,-39.20241296969856,14.368012256442032,70.44837666625031,107.48724913708628,0
3103.0,8.620134,-80.8791771082061,-33.264881416528816,136.55083641189665,88.35387861183499,-130.4811405158673,13.328441751501906,0
3109.0,8.636802,-104.19877848416972,73.41453011607494,-137.69259451789918,165.47426956398238,-33.45532916875543,21.58929371216321,0
3115.0,8.65347,-86.4929377999995,-47.182454972777656,80.20081464272747,-14.36371750012232,76.9748524617296,1.5295465529430494,0
3121.0,8.670138,-139.6946616603032,62.70486586663536,-72.9817903093939,-7.078364355379861,-26.862175417883304,75.08479388722174,0
3127.0,8.686806,-80.33682449775624,-11.459690130775392,-8.62573736434689,214.32805250143096,-126.6074676751228,-109.18762583818751,0
3133.0,8.703474,-116.75760132560777,144.6190945610461,67.34840069639863,-77.12625797685669,130.1017117289552,65.20754825799256,0
3139.0,8.720142000000001,-114.99321969804102,29.40009296533044,-71.2480357150645,-87.81995596642841,24.747473307997915,41.626976228228,0
3145.0,8.73681,-8.08263130510758,-20.60880171456146,62.14240590140251,82.8639302816194,-97.04127609224288,-145.93324797421047,0
3151.0,8.753478,-124.68702096016855,150.54552481786442,17.248807608354035,-162.67563957855754,29.25187450700778,58.84672345741899,0
3157.0,8.770146,-85.27646565405925,85.80671364806695,21.12726112361356,-241.86218251140977,147.378755022027,38.79279928509059,0
3163.0,8.786814,-113.86595049857024,-107.3898498949026,50.29452220609359,-122.31313013819658,-70.54109840233113,22.784602230455327,0
3169.0,8.803482,10.261363530691106,72.07080318653703,88.60364883302147,-63.11822020816832,-2.1125978475957155,37.23396690240138,0
3175.0,8.82015,-51.328553803998034,54.45588174424928,9.261129143490365,-46.4075831909366,16.300835124686348,-5.066843478179109,0
3181.0,8.836818000000001,15.046271578159718,-75.02126608765128,11.142302664458072,-52.66698125725811,20.805228039693866,116.973944340196,0
3187.0,8.853486,-38.99780223151745,-7.765270235241395,49.53302677071164,-112.96484850244232,20.68381567174081,-27.105096079979106,0
3193.0,8.870154,-103.35868231915352,17.88125969911946,74.1266876337996,-179.46139529191174,-105.46299486268774,-17.89781783656941,0
3199.0,8.886822,82.64880059740841,-112.38920749973845,-10.884052586177964,-320.41958249739747,24.560731880190502,-30.453501569558256,0
3205.0,8.90349,-45.386021716243135,-31.85878468783048,-29.962731527726326,-198.5748375493826,1.3564253961527548,176.61141883290523,0
3211.0,8.920158,-58.04062612299058,44.17662829511043,-27.71569486230699,-6.340407191119134,-145.53823487106536,-15.787030281560854,0
3217.0,8.936826,30.917457465515284,-134.387819833899,94.64218152621189,-193.56348754673456,67.83608620045597,149.4369256325246,0
3223.0,8.953494000000001,-72.64108184112342,-2.939717592520646,124.77908055657372,-205.9247476590434,-99.3537399125575,-64.68567048862478,0
3229.0,8.970162,-0.8434950058450283,-86.25322402379783,-9.152572775289148,291.0366246614467,-49.11461697450613,174.9931826544697,0
3235.0,8.98683,-29.078207384683672,5.448364817659964,-31.50595189903921,-688.3855555471459,54.8723701844105,-72.69585604364391,0
3241.0,9.003498,-29.830543036343336,74.22780531627247,31.864440280896105,-80.32983235761927,-18.111279710769907,214.24439727373,0
3247.0,9.020166,168.8976114532279,-166.7199248731238,77.7316621299649,-340.77470102775646,-4.335978969720642,99.853231886292,0
3253.0,9.036834,-61.47587486687871,167.06362695284508,-15.998494493501797,-85.60296476313631,51.1561756080909,179.52418207870943,0
3259.0,9.053502,-111.29190989617813,280.7765151926499,-14.702063996828072,-328.1287113442733,206.21220515211832,3.47711588095234,0
3265.0,9.07017,280.9536744533617,-31.09550126195549,164.2105780360322,-65.08140037268211,42.398043500537824,42.95263980865059,0
3271.0,9.086838,-51.25925228597379,28.859800818130083,180.07602224479342,-148.3699557567441,57.70820032855161,34.28852038821389,0
3277.0,9.103506,-55.86235133340753,201.76452011653305,20.17534262305421,-345.30297042254483,64.96245225302512,109.35477280880656,0
3283.0,9.120174,139.17762926630832,61.24995673321008,151.54083527488197,45.04425332540333,179.69481323037485,149.27924397371694,0
3289.0,9.136842,-16.422072995751847,153.57056334435126,27.218350506385782,-140.12184114733816,-20.433903213405927,46.31195107599704,0
3295.0,9.15351,53.54056186738504,-5.499334478091569,160.28483690111554,-276.55645131314554,-6.199963266073368,-6.380543069886642,0
3301.0,9.170178,-85.09250050404495,63.63371850801933,23.45557438785853,-176.78817532643924,94.68214581361484,43.04005689171346,0
3307.0,9.186846,33.722673274160094,11.987870756457044,83.1764254802364,15.04828812846337,65.40212204495653,154.31190468681848,0
3313.0,9.203514,-18.62855466768734,56.99444996151654,32.082646557733824,-64.30307864039534,57.49590383800531,-6.72679725924927,0
3319.0,9.220182,-48.12187686138024,-46.22553048885784,123.62850862460574,99.89697552179186,202.637308197602,246.97693582200293,0
3325.0,9.23685,-68.35012480882513,72.3455140320491,15.32516343804512,95.37361388752072,93.37526162750343,-8.96305597357891,0
3331.0,9.253518,5.09892171904032,-147.8183832260423,153.15352889003654,-159.30122072291726,-178.75875940595583,82.20462612786989,0
3337.0,9.270186,-56.969478824419184,-49.15363669631696,92.65866299247072,-385.4402879590133,-136.6356819844541,-2.168528893620959,0
3343.0,9.286854,-43.37275256427892,-26.522394760134457,45.85853675143173,-206.14907047262943,120.17657847636444,-1.0409655593906564,0
3349.0,9.303522,-54.39253972071612,-131.2783890952058,28.58863197727473,-106.88145271494996,17.454757698234587,61.19456841059196,0
3355.0,9.32019,52.26291363138097,-112.08824634773342,10.70454277266046,153.43900489576276,31.50795490732812,167.73298161637416,0
3361.0,9.336858,-49.01648123555634,-46.75125558549284,4.138673883449528,101.32876793814134,100.4371648455378,37.22899732490855,0
3367.0,9.353526,-20.117207127346063,-24.09442689437352,-23.97632191397232,73.36175854690471,-67.52983143656596,142.23675327639307,0
3373.0,9.370194,-69.61900025133747,-0.0180903401534386,124.20657792390942,-163.08754977024444,-122.47870329944548,-56.12131058569235,0
3379.0,9.386862,-78.1071869722538,-145.3746294457644,33.858870948867,27.93208416491939,4.887276659023783,75.55592454473303,0
3385.0,9.40353,22.000804518186783,-24.437558828958487,76.64869194146833,504.3459178495752,84.96013727350034,130.58463152912566,0
3391.0,9.420198,13.498756870728252,16.126651974954825,46.60304997761361,-102.15089705162656,-140.19102997373773,-74.3891597798784,0
3397.0,9.436866,-55.66198745693045,-57.3250218845953,-0.1318419541331774,95.43442622447282,124.62880836535096,-19.819697799381725,0
3403.0,9.453534,-7.068649861701488,101.04329072824603,3.164149254581765,242.9678620905925,187.69646375047927,39.88841119621932,0
3409.0,9.470202,25.06149417744881,-62.34260441642864,76.69656652837399,437.5497168191671,-116.19403251702286,-65.63058574478481,0
3415.0,9.48687,202.61084279328205,171.04925362126895,16.423893001642345,-264.47650388205443,82.95530324343275,-335.3888895422715,0
3421.0,9.503538,53.40222153334669,122.08014165688483,-64.15159620886803,678.5223239255079,-104.73667292117143,310.5393893688695,0
3427.0,9.520206,-63.84723358521548,-7.928745191958885,116.7391709920666,266.4501211424439,119.1939387185473,-11.200614741904191,0
3433.0,9.536874,136.7772739656359,256.98261379018504,57.85343560562684,70.95677343727223,4.198672986759139,-164.3204439135261,0
3439.0,9.553542,159.24577589774916,-153.07990647451118,-100.50180873097035,-71.69206121631458,98.32949455576056,-51.1792225254814,0
3445.0,9.57021,30.572745798821032,-39.96218135237103,2.907262135807024,368.4884453231231,83.26625756096381,-48.37796546711992,0
3451.0,9.586878,145.87008884041214,-37.618945864193805,-39.920914222322416,220.25991650815848,-163.21983489774345,-248.041600995204,0
3457.0,9.603546,130.02067491351667,-73.63949626490236,-25.09743289759741,232.5020399520228,59.347287560343744,13.235084714849307,0
3463.0,9.620214,88.96861955856335,-102.94260117833193,-103.63644376783832,112.56498969548858,-117.0928569213102,-176.9324735004322,0
3469.0,9.636882,-61.07832718682539,-16.487698034266835,-87.93046034118161,169.68933567339354,135.91327923740434,-63.96985563848536,0
3475.0,9.65355,62.520175075747,-169.92175222852137,-139.9523631102275,237.34189783148287,-167.67810020890155,-323.37443508329363,0
3481.0,9.670218,110.28739792262084,-103.31003224126697,-31.2066494199716,138.5024423682196,-37.75516647930785,-241.74240912372065,0
3487.0,9.686886,33.23745318738601,-50.947435396923744,-128.1092183155817,236.5043270183488,31.24668792282572,7.977729820593439,0
3493.0,9.703554,39.99671612789167,-196.6916206791138,-50.803934930178045,63.90728131634659,-182.2719543409458,-52.69500381835674,0
3499.0,9.720222,127.54684095806084,-7.817013413215982,-71.76637267031305,391.52499337908,-21.528347217211305,-204.674829854614,0
3505.0,9.73689,60.846486667809074,-38.84770923624781,-81.49703434954912,-46.8894643898045,-103.33626628469295,-86.52811816944319,0
3511.0,9.753558,178.79131413587666,-109.50117207905716,-158.18744882419455,168.51541647350405,-94.15401475170596,-202.7829390885932,0
3517.0,9.770226,55.11584985512595,56.364048651106046,-224.0212261174911,410.5216119632579,-40.63693031858427,120.44996358271804,0
3523.0,9.786894,60.11487224924127,-87.24188155293689,-165.30678514933166,-209.61206324236105,-205.0203937924554,-322.72863949724115,0
3529.0,9.803562,71.29601057141011,-63.22914478230605,61.19000638154748,331.9517728800323,0.9169719407118212,3.724422684460928,0
3535.0,9.82023,28.357266242511088,-146.99864916840693,-102.64826022136046,556.4145463414943,124.92861799598803,-279.0553269832539,0
3541.0,9.836898,89.25117396713685,-148.94700827586965,-67.74276083875884,-253.7506549546208,-129.2525264877782,-37.86020650781063,0
3547.0,9.853566,127.77139477126104,-104.06144055259072,-189.8181831496554,305.9667480879216,-103.735873894159,-183.90108692451008,0
3553.0,9.870234,100.339951304227,-49.53722314600056,110.73911760539085,111.92876775713682,183.4217226625616,6.01257926852114,0
3559.0,9.886902,70.05186640140587,-46.535852890683685,55.08320501683426,96.69915696061577,3.2370088050196806,22.61500662796166,0
3565.0,9.90357,149.17170924908083,-96.11454291960844,-188.3777399564364,-75.84005802704917,-250.65640837372663,-246.20132648053027,0
3571.0,9.920238,-22.682250289773627,42.58018288324576,-208.17252485403867,178.4045650156774,171.26627747802172,8.197480217432982,0
3577.0,9.936906,-29.55293660469304,-45.47568369519254,124.70937775459169,235.8509146868108,-2.3599856673012827,-102.8882337167642,0
3583.0,9.953574,-35.327438732564005,71.50747995076027,-103.12495396137386,-76.23631016583855,18.93868470205772,40.21487047551385,0
3589.0,9.970242,-194.4289107705004,11.23455887311076,48.95724414852394,-53.72226990770977,-53.30598688736107,-21.048357110576205,0
3595.0,9.98691,112.637581631922,69.74565481714373,-85.52974363647326,24.268661384484176,111.37443224304188,102.85174465009,0
3601.0,10.003578,-76.69144473116238,-115.50692913144138,-9.988228989200351,-95.30719900692222,-16.900616883573,31.21780126825336,0
3607.0,10.020246,-124.62226386782945,59.64188186156628,46.21274223481642,-160.29652876132548,-30.727972995593085,150.46963889328845,0
3613.0,10.036914,-198.8169843876988,69.50375602328735,-123.70255700720487,-106.93586730399514,96.33686465468014,-154.02319205911684,0
3619.0,10.053582,-169.09073298097857,123.17582285019262,62.18299883294367,-52.19908383455098,19.146072274172884,212.15225728099,0
3625.0,10.07025,-170.9461462088085,13.627961941232094,127.23064810812176,-35.84748625014902,52.25713657973928,-153.05287869915315,0
3631.0,10.086918,-63.95902228464007,12.259807901802638,-155.39860445877412,-160.63007335908222,44.87287924281453,-5.991390158761732,0
3637.0,10.103586,-194.7723524159973,164.6234237921023,35.77844882818641,-172.92531234088136,3.617889569210548,-76.90486773644247,0
3643.0,10.120254,-76.73231448093055,-173.24274082642802,121.32172384418683,-139.87888670016224,194.49680821556728,246.27428685493825,0
3649.0,10.136922,-216.1369883618732,214.9013702384382,42.310399593331816,-289.4739733353865,83.10350494555979,78.38786412167481,0
3655.0,10.15359,-144.42443103037212,81.24551164377036,-86.56832423130236,-289.30505303614336,114.0061434771326,114.35433392881232,0
3661.0,10.170258,-72.49973859887449,38.84117202313698,26.17229578661358,-187.01521426752672,112.93406557347411,24.74127330983027,0
3667.0,10.186926,-286.3711671779878,105.56946527038308,111.7366447834442,-282.122931535685,51.70852400625411,4.3111282763036165,0
3673.0,10.203594,-240.48489263856325,-83.76486019076725,9.134770575360475,-213.8726595220693,68.90699297802509,-10.175587477755624,0
3679.0,10.220262,-152.1920802938818,-55.32643061972469,11.824712953742974,-519.4424037710291,23.30218632986908,152.11585379981057,0
3685.0,10.23693,-217.34630827376355,128.72488147711329,80.37527926864644,-151.10109898503848,112.97464227021648,18.37692416851413,0
3691.0,10.253598,-214.9870233325844,-39.72371185241019,58.69851636778456,-321.87345564375033,-2.6328358106928533,-30.647766662052145,0
3697.0,10.270266,-158.65416249390697,0.3853875354036624,67.32506361550529,-120.4303335703214,79.26353195232082,296.87778007973446,0
3703.0,10.286934,-189.1597267122822,35.914812888653,112.53754918667804,-341.2858518948252,235.4090447776205,181.08349796059423,0
3709.0,10.303602,-222.92210316572456,95.83773270136332,51.45712538836328,-231.997605762781,-74.47914085978215,-15.95304634271652,0
3715.0,10.32027,-51.91015490111268,154.8474599736664,85.26676049087561,-193.8856467083894,81.08192954430021,376.9175471035904,0
3721.0,10.336938,-86.31324447744817,-11.852432788087626,117.47600735010002,-226.53801732280573,36.52840073032654,231.01556065686964,0
3727.0,10.353606,12.31596605398402,18.26036613979701,142.7671418206068,-263.52098895656303,-21.68033825092649,248.24575576628047,0
3733.0,10.370274,-111.88637903946632,91.24709576234468,31.214929784626424,-180.0083248842297,-57.42646806510784,139.56437021374103,0
3739.0,10.386942,-57.89887049995168,15.543446034717288,80.82114663096378,-240.6167602435467,-118.96902862716492,94.85177096444656,0
3745.0,10.40361,-31.50176348134851,148.92527937283353,137.9626595234463,-188.2463570506468,-91.34129447782608,152.90930410095504,0
3751.0,10.420278,-55.19198487073746,41.47702115513144,47.20773920371764,-89.68537815804854,-82.57297718046203,214.0332399824881,0
3757.0,10.436946,61.74896850828543,15.205919168427762,113.20741761699692,-73.94358069515388,13.039502262598774,104.5778679538193,0
3763.0,10.453614,62.8805070762138,56.11827409258998,91.8997501046702,-73.62464977300087,14.32666286537706,-35.86966727527732,0
3769.0,10.470282,43.8404014723216,118.90414632810284,88.86344315650595,-65.60839442328313,96.66626076600816,-55.79335368195706,0
3775.0,10.48695,148.75602283766537,-59.1764952894821,-90.1604314813628,-161.1174873897252,-160.86212446279023,-97.10164557577605,0
3781.0,10.503618,-153.98997751345755,338.80768025168265,125.93387747692584,-183.4250095270212,-77.51020867433597,98.84697158530064,0
3787.0,10.520286,154.06407710198602,30.15426149310302,24.9174320341574,-67.75985053165994,163.9270917453905,105.31775936238364,0
3793.0,10.536954,111.71193788429888,-70.59886400029927,4.176525605941478,-67.95030479389307,44.62455463569261,164.359123840915,0
3799.0,10.553622,122.97901072504575,-94.12278582669866,27.21123283997256,42.25722959114776,47.143755940203405,-66.83400218763133,0
3805.0,10.57029,206.24542360403385,10.66611689883021,-75.58194917681186,38.19598590517184,18.631579817366635,-139.4060531132655,0
3811.0,10.586958,141.52612719330068,75.04001999876493,29.56538266218238,-47.69410839973328,129.25690770914127,179.51094230151656,0
3817.0,10.603626,221.6833845320965,-168.82941670975782,-40.01601679901079,175.73340944755898,33.78914393137593,-16.096060870762045,0
3823.0,10.620294,260.6698957340677,-77.21658706968226,-13.459602288998958,202.03959711192263,115.32525099256524,2.6333647452270306,0
3829.0,10.636962,245.8176928936074,-192.96259333604604,-171.49668885679313,136.82675086772576,-13.538767300986253,-115.87506704335075,0
3835.0,10.65363,208.84340638767893,-6.603942308598775,-260.14297333604486,290.3898915633613,274.67329892637133,157.08467996013073,0
3841.0,10.670298,148.68112252604266,-118.0185448916172,-162.39504315716536,243.82273208884072,83.7113608386822,-43.952861706144425,0
3847.0,10.686966,239.08827173631505,-51.84052021437288,147.66796079764714,232.10603480438849,-75.20617704584137,-3.966729112233793,0
3853.0,10.703634,245.40486788835585,-102.30306034117278,-232.88154434980964,228.61872260214668,18.127127835198458,99.45706816360244,0
3859.0,10.720302,216.38295579917565,-58.57267047086046,-124.49467510687268,333.08252805374684,68.6503374761649,-180.48903920818924,0
3865.0,10.73697,274.4354648985617,-109.31379367201484,-68.60611735525399,485.2717581868812,-42.64338475682827,-161.48166529290577,0
3871.0,10.753638,239.74481990276752,-104.0840018659302,2.352075209583335,323.1887629112987,-104.29617490316384,-107.351680389964,0
3877.0,10.770306,37.580412261671285,185.73072902918543,-229.34571699266772,291.48741544206496,-8.272031101396598,-313.0967246574722,0
3883.0,10.786974,42.69747627302085,-79.98409886782329,10.70242682506758,280.43822039221016,-64.15127084923101,-203.31536219101056,0
3889.0,10.803642,335.38340815078425,-128.7925722431574,-171.69216780574777,368.6911749249873,-189.50308308125832,19.328641004576863,0
3895.0,10.82031,291.28515396546584,-165.67853869281265,-171.60324532992536,252.0176995716577,-182.5240668342484,-171.34412152844413,0
3901.0,10.836978,139.93589147187987,149.21155589056303,39.38359356704758,317.7457845978205,-173.73144325179908,-78.18426631016999,0
3907.0,10.853646,-80.27785233174268,40.24104659131815,-71.27970331350865,198.83601653355083,-24.445842807877387,91.57819246995965,0
3913.0,10.870314,298.97354246222835,-173.6609590398378,-124.61311558006162,468.0495586617512,-248.7755982746154,-100.76931839375958,0
3919.0,10.886982,124.44714487882608,38.38566623643166,-141.21300736704376,298.2596913854932,-75.10847017948733,-104.9662932653567,0
3925.0,10.90365,25.57959745146744,-124.24894942145332,37.56763041865664,149.41931114562348,-272.00176269121675,-99.98035110850974,0
3931.0,10.920318,4.294937403331627,8.70314439084332,-85.90785324341964,117.49215061776994,-151.07720321841492,-268.63032056258066,0
3937.0,10.936986,194.6075603678084,-116.16172677236162,-149.36091302113073,192.2380384583942,-88.75548946227514,-14.853902705919763,0
3943.0,10.953654,77.24192334180385,-35.56708904321382,31.75156577061368,215.7483250574636,-139.84085013730768,-205.4544988417046,0
3949.0,10.970322,-14.963430951376472,61.24123573210817,85.4397418211307,235.06641982602792,-263.9035605451239,-188.2043227652368,0
3955.0,10.98699,197.4500952010065,-203.1020089047128,11.686779186586897,250.349722277386,-62.28763573803563,-165.2510329765147,0
3961.0,11.003658,92.77178582565284,-27.53217260765549,-231.8435744802618,107.44550123396468,-93.67541127244054,-184.26508423681685,0
3967.0,11.020326,49.195451025847646,-117.1925550187012,91.33174485888792,-52.17943025621271,-177.90554534628322,-97.02969159099968,0
3973.0,11.036994,20.80843342152465,58.67963413765349,111.91725497148276,247.51611683808528,-132.34245973110706,-124.72889989130952,0
3979.0,11.053662,-79.82279235065042,26.01642465616545,-60.27377707565601,-99.01034276363784,-160.9569449412847,-138.0857310222384,0
3985.0,11.07033,148.7849326277688,102.3015291374678,23.451798135539835,131.98330125747162,102.5218650670475,-152.96417759124628,0
3991.0,11.086998,-115.754367915048,35.47147047140688,110.71465802350252,-20.653728839343405,8.262800002088106,-87.89196045366117,0
3997.0,11.103666,-82.83495902079108,232.6547482878707,115.71046718568743,22.31740921719789,6.040607284472198,-202.115688632904,0
4003.0,11.120334,-56.00171200494144,51.99441288641506,110.32892503833452,-41.43112705598983,52.9429692947496,-153.42601004400098,0
4009.0,11.137002,-82.29758133376562,47.306371802128055,167.3091749088594,-115.1500072777478,154.8183859705144,-111.39866527241809,0
4015.0,11.15367,-145.2081593758935,199.73346614682583,80.12779209619134,-142.4396557330693,51.93601509119377,-200.73409785693707,0
4021.0,11.170338,-122.20663211869392,34.05064907179396,88.8838239005369,-168.19802928921428,83.1778872517781,-87.05883784546012,0
4027.0,11.187006,-64.31176535617634,91.4074534086803,206.8580192987301,-146.61959553120846,-82.68482907432012,8.990897876897378,0
4033.0,11.203674,-182.5046321298409,71.44458295523643,214.5543686566724,-146.163608179174,131.91252196827236,-22.761771828679827,0
4039.0,11.220342,-296.2665812895816,217.6649936063805,-9.275975092872528,-305.7210141396028,-124.63330749266008,-110.86470870506908,0
4045.0,11.23701,17.431902941136016,-97.25523362827384,178.2242576370959,-126.42400828667026,54.33863554470968,-12.695796433684269,0
4051.0,11.253678,-105.36194137676542,31.923164921060938,210.28548513180783,-151.62312625599745,49.06090653944207,22.53820243609592,0
4057.0,11.270346,-294.4547015819507,-58.792524074905735,225.1138008655771,-176.81654237160498,-132.42600783448268,79.59519514736418,0
4063.0,11.287014,-187.0993743359448,-48.589483163131405,92.43742815961836,-344.0697113215822,146.66017882771433,380.1751235452687,0
4069.0,11.303682,-198.3644586050292,71.5411834469733,175.63673128618754,-247.5123423183944,-68.65037585517524,24.520345390861465,0
4075.0,11.32035,-44.00875155130504,-59.79108151834156,172.05078052529714,-148.35948423363865,-8.984998663204099,170.15437278410755,0
4081.0,11.337018,-156.59747395543377,-119.92640041621615,170.6072446155631,-181.3324283851443,-12.162527199709809,234.58083265141283,0
4087.0,11.353686,-114.3467790775362,-49.06115266120192,190.4288905504928,-127.01141495235636,-77.89860151900118,106.44821402419343,0
4093.0,11.370354,-282.6141597904656,62.7678089896886,123.419788647097,-136.1871276898282,-78.06126599184697,182.15032605519107,0
4099.0,11.387022,-261.23016441049094,130.3542313563634,222.57062530076777,-371.618197934939,-225.18315842622724,441.898640036531,0
4105.0,11.40369,-18.51645569777608,-154.005506821325,284.8953648835295,-135.93253035935652,-35.39133697786539,475.4152879851045,0
4111.0,11.420358,-69.21790378168657,179.1454473784527,204.70497057540192,-121.57836990680612,232.5629299485356,351.96469449607173,0
4117.0,11.437026,-92.27144189503473,172.56100470321704,170.94116441578066,-166.38144615660968,186.94148858036445,386.0479765545094,0
4123.0,11.453694,-126.24717900234948,217.2554069609253,115.2152073120047,-108.93713122552958,27.351295559518256,394.7297747250583,0
4129.0,11.470362,23.3350426042842,-29.87046374834123,238.90923475583125,-127.55185464184312,-169.15780497183175,473.1988855745776,0
4135.0,11.48703,-223.01638471666115,211.11675645598427,212.2294646778749,-260.61941425089583,298.59553066004946,463.9646625125689,0
4141.0,11.503698,45.098899526664624,77.94770565798638,280.0958660674869,-156.0370788278493,246.3775499713788,563.7045637518661,0
4147.0,11.520366,-61.26114773199016,306.40353305926675,252.98719052051305,-224.52893337002,35.95916971060249,369.47398866099263,0
4153.0,11.537034,-80.36795966076915,183.6775925034969,101.47857238074448,-102.68128486831252,249.7185849609481,294.932868066415,0
4159.0,11.553702,-99.7100270283902,122.50248830151854,159.33554796077192,-305.3866924867383,139.71230503289627,386.5768333989947,0
4165.0,11.57037,-159.494208670313,220.3116699148009,311.66138409370853,-7.618798894161671,311.5099191144613,322.3254117151512,0
4171.0,11.587038,83.44825550377824,407.0544246217755,-37.46339751247861,-150.30989770411057,216.68674049525865,300.55197404084106,0
4177.0,11.603706,-78.78382602571065,-239.8145627171077,271.39903384148647,-14.86763401394391,-1.958226990759961,185.90636926641088,0
4183.0,11.620374,-46.799526078759634,-41.69908441250739,52.25593992327556,-73.17326690599099,253.9909955022432,304.3762552977262,0
4189.0,11.637042,-43.60356373055011,33.04043840675378,170.56882556314042,-18.71564335858384,118.08017511354554,152.2841742823957,0
4195.0,11.65371,-124.75500148787576,75.00910874290022,289.8707594684644,128.73482524114763,100.7757516886307,8.407914034614862,0
4201.0,11.670378,102.66690366233271,-120.79463916956747,-52.29118489520994,177.35314330938746,76.8736137052384,-116.62314999182188,0
4207.0,11.687046,126.29430423339308,130.37712332335963,52.90994486060558,-151.71665384332303,152.33669942404862,615.8870722211126,0
4213.0,11.703714,27.387220887428484,-177.74619618987268,26.42516464409401,174.72668415976767,107.1012945109715,-31.43261436054964,0
4219.0,11.720382,111.413145957489,32.821022770932686,48.444612535314405,188.4869619303481,132.5728514639559,20.995248890658047,0
4225.0,11.73705,151.0456178105719,-68.51835743383953,17.9834101236536,123.80127597265312,33.204923231894114,-47.552810450949146,0
4231.0,11.753718,86.27414408984441,-71.76918366149066,-56.30983768131165,262.7615447339651,30.78857737582992,-169.53151322146567,0
4237.0,11.770386,128.02345208314654,-1.7589677178505845,120.42136882854334,162.56791821972473,63.13852397476646,-146.4918584404802,0
4243.0,11.787054,181.7652959644728,-27.497611520496264,-214.2325215941356,239.9076391481167,-6.382953345309883,-154.08918168610356,0
4249.0,11.803722,80.97618120812518,52.80537415560293,-2.5060843360038803,93.60133912626648,-106.23001271405114,-219.71357635984367,0
4255.0,11.82039,416.1792130619328,-202.765339006563,-427.9885984067694,254.0632835269299,15.475997621194397,-124.39915074995344,0
4261.0,11.837058,182.56545105145565,53.32582828280466,-99.23104479768853,184.420725492274,81.02820840242427,-250.98888577168168,0
4267.0,11.853726,87.31208099002953,89.9127600029592,127.76690632644188,137.2864182608334,-78.82062142452405,-144.45245938124478,0
4273.0,11.870394,288.0054448767316,-46.24949288855761,-493.5651073728489,327.4177366569445,-52.39428633199405,-417.3013800612338,0
4279.0,11.887062,201.4211039656162,105.08572402313862,17.447015706946473,88.20368866653257,-18.09078417206365,-346.8519557505881,0
4285.0,11.90373,193.0333074094828,-129.24868416979297,-135.83968011722447,129.8752300248641,-76.18350054533838,-184.8223744763719,0
4291.0,11.920398,202.36343786582844,-80.9611581506878,-328.24888003859104,249.91426446812432,-41.92977955532116,-372.6542545793613,0
4297.0,11.937066,112.41480494751067,-112.28707432808946,-241.62397590869563,180.37038138966471,-5.399061803849011,-268.15925088407903,0
4303.0,11.953734,119.1295959199692,-190.12385135699373,-263.4979677817346,192.14407776734072,-47.29031143930172,-325.2851824693547,0
4309.0,11.970402,155.71802328056737,-214.66284637558616,-266.97700770237907,155.04488090074167,-97.6314368773178,-264.93433485090804,0
4315.0,11.98707,68.83690390904223,-244.272598914418,-346.60369454905856,298.6027438281134,-60.20402856893912,-365.6777157017736,0
4321.0,12.003738,178.16517505711806,-293.9244009074723,-100.69539963571134,80.70983313748079,-180.9650258579373,-239.70529930585087,0
4327.0,12.020406,23.06636723673258,-363.5227682097422,-392.0714301412896,286.8228765144013,-138.69999595601678,-474.5463839323024,0
4333.0,12.037074,76.82252024748007,-316.14009212641827,-210.8042587839712,122.92892768717374,-161.13869817891367,-289.47289484820726,0
4339.0,12.053742,76.65695305423444,-302.41192631850987,-286.7771628422024,245.61129085766265,-121.53295442377409,-426.3606542602873,0
4345.0,12.07041,-39.00567565681377,-156.76885732440766,-323.56888264668686,234.78130598189085,-72.781041555791,-175.44196594170106,0
4351.0,12.087078,-76.19872874221983,-184.37625942220123,-217.98241462517507,34.45290568891444,-168.81255428913911,-421.2305882566624,0
4357.0,12.103746,51.47743379666456,-112.21346595997416,-286.8229978506852,105.83655028108602,-198.3278507493768,-480.68350692918585,0
4363.0,12.120414,-4.033575770554439,-176.3782673558387,-125.27628398763213,-45.70801056392448,17.142061637999134,-267.3643692691864,0
4369.0,12.137082,54.74696140113704,-56.32252743399968,-241.4670463735324,182.56791761552063,-218.30056545278524,-470.71439671527696,0
4375.0,12.15375,95.69506561770842,-167.9299991619322,-81.89219269724023,116.57401190799814,-80.951697399874,-345.2471996185985,0
4381.0,12.170418,14.398792063972152,-208.8917925301192,-392.9222621568933,149.32195909256455,-158.7204530554518,-285.8428648695125,0
4387.0,12.187086,-69.71616938203577,6.657706619287033,-119.03698858088909,-121.27207944892918,-172.070852354409,-272.72892869832265,0
4393.0,12.203754,179.83270308587754,-27.81755422824373,88.37773493228278,0.3900318265570774,-139.9382724568814,-298.4222033970749,0
4399.0,12.220422,99.72791694845246,-51.37864437373602,-262.3349874140296,148.15112616572952,-100.84897865684177,-379.0486792363952,0
4405.0,12.23709,-29.090103922879457,45.228690113944296,-166.01475763307215,-16.568105875611394,13.256289945467143,-102.2283190230271,0
4411.0,12.253758,-13.76291354704808,169.49862344942653,-44.98100123387652,-92.70012023910913,72.33353450548566,-184.3075517298633,0
4417.0,12.270426,-92.74776400954238,128.71966298984108,-185.4109895524183,9.861711675506662,53.08966540841265,-253.2916318429563,0
4423.0,12.287094,100.29792387554532,-39.78044434661015,101.2083634063413,73.588563349278,134.49166478753267,-283.5473057996385,0
4429.0,12.303762,-165.21901100532546,269.9985907990016,-21.2410732063083,-119.6311899835798,-39.364366657891736,-55.90112082670239,0
4435.0,12.32043,156.17324780316096,131.2348705669663,-7.659193506785719,85.01436584962894,132.36525162290906,-156.47527457020146,0
4441.0,12.337098,-209.1189434618306,284.7051093412548,210.09366364846025,-187.74444100615625,171.2151895109252,20.36156479620567,0
4447.0,12.353766,98.63532433628856,143.38001738360074,100.96504547755936,79.78952679971718,279.87210483611835,-33.954382556585514,0
4453.0,12.370434,38.530495909390766,61.306842899252864,193.95538609044223,-202.9714180587992,2.2534018525717645,-21.169705646300287,0
4459.0,12.387102,-115.42605064916252,103.51231409025353,108.02881480284368,-180.73306268475048,228.5693783227586,27.636646819805662,0
4465.0,12.40377,-145.28661704976352,106.86915842102884,202.8725119880676,-170.93629836884838,128.10418717961517,89.11408812967177,0
4471.0,12.420438,-137.03089585305332,116.347165958243,177.2740671828731,-239.9999354546333,151.23215341951857,155.8078946406925,0
4477.0,12.437106,-44.67417777145918,9.82892911855714,327.6887210442716,-165.61172922617268,45.06908749308763,106.39318149222348,0
4483.0,12.453774,-186.8267655327573,94.27574012249904,254.96161767037188,-214.9975678326916,167.97870828384112,231.15292171473124,0
4489.0,12.470442,-61.128303858787056,87.92920508198587,72.8141729457494,-342.7618366735102,117.23430263426933,222.81421167256173,0
4495.0,12.48711,-163.2144901516952,-41.40873521945155,318.05349493341055,-126.9735824638622,178.5112037095398,279.91795276612936,0
4501.0,12.503778,-47.48017064040913,-81.8173701234627,276.6287806986286,-287.028677791324,57.18807731221358,406.0630075550384,0
4507.0,12.520446,-189.54116670049456,108.01475512216064,200.427712887797,-205.74871245508456,63.651745112318224,298.5804358089672,0
4513.0,12.537114,-101.072443755974,-198.48960228905364,172.58888370728326,-188.7966973943926,-70.63405418446143,323.7898185700623,0
4519.0,12.553782,-233.13835283301563,89.9241012272956,179.817746728698,-45.226945214084935,78.83437379258775,514.1507904644544,0
4525.0,12.57045,-52.35116815207434,-83.66353686155672,398.72542652461823,-100.1688008612228,-9.396561830685862,445.8929807605183,0
4531.0,12.587118,-316.8278277545827,-97.56363653086926,254.1757910231653,-99.67304283526023,-192.9962033534241,486.6702061579791,0
4537.0,12.603786,-236.5503844502742,-12.152295682275458,142.20314543239766,-199.0013649841804,17.34218036437062,416.0282688860623,0
4543.0,12.620454,-109.5626547100166,29.514687869006146,325.9882208600787,-301.5075209832548,-148.10680124820266,441.4947436007134,0
4549.0,12.637122,-145.23326459396955,79.76667388886247,251.15429529278063,16.615952208972345,54.51847409071048,594.7608675879428,0
4555.0,12.65379,-141.10508989228288,77.3666318752107,255.69097029381803,-133.93003640097163,8.858035648805938,443.7818256851784,0
4561.0,12.670458,-155.35016572509195,26.444086260860523,339.0048807871128,17.270874118391333,49.99567572140656,465.8867754596017,0
4567.0,12.687126,-75.09764629177168,101.48332368398916,267.56754613348147,-126.49332679344218,13.871617865829704,420.987547291655,0
4573.0,12.703794,-84.81660072373474,3.72206007060717,269.61458632289896,-204.3041954918986,6.849827092600762,433.5068416669883,0
4579.0,12.720462,76.06163621508043,41.35948088618371,312.7285659293467,-149.25000150245333,113.42497595713174,435.4559110864672,0
4585.0,12.73713,-176.8070126795409,186.8465584215768,322.6368144351196,65.67623475321251,159.49383048418085,424.19397428148113,0
4591.0,12.753798,-35.41955576241285,60.54261424359783,217.6171073886294,22.69611650363415,154.00922497720993,399.9035977194862,0
4597.0,12.770466,213.2387147250946,21.74849761736224,-78.56204493584238,-191.1630783155072,65.39783165158123,269.1100151587605,0
4603.0,12.787134,-264.23202694299454,221.90194058130845,366.53831536859406,45.08873051267945,91.92098808986216,474.89440182274166,0
4609.0,12.803802,131.82900993703828,39.60508584012088,225.0994261422889,238.376556119396,151.9312846084379,573.005692823338,0
4615.0,12.82047,-71.7517365966457,46.25849116721827,-1.9376733853002364,-74.92758042298664,-17.266368403945616,272.0999877082885,0
4621.0,12.837138,69.3629079970404,68.13624812134164,308.08313165134166,-11.402446607095383,168.7832496250967,92.49332684330705,0
4627.0,12.853806,36.42947820445102,43.046648286432266,107.10332339431687,-47.91456929564512,-40.44732137473768,468.5145894013849,0
4633.0,12.870474,51.04266165951356,149.9706813082124,52.78002977311256,-3.743397804773149,40.715106026332485,3.503087110273136,0
4639.0,12.887142,129.9977422246424,-51.81562270085046,86.91748577976577,117.23354051440948,-8.731086996604397,197.42270731381907,0
4645.0,12.90381,70.26611705550566,205.8063339004288,-49.97995484496629,165.62243793319467,31.25987125797175,123.11352377729791,0
4651.0,12.920478,109.35080846761107,35.42850142555925,-243.28118837239435,98.9034979385912,131.61648903100354,-166.87253904909656,0
4657.0,12.937146,112.8428210247194,109.6008315146694,72.49145931296013,-71.70309079908466,-97.08451732935032,-112.12235103566636,0
4663.0,12.953814,34.28513964488603,-31.183443192476112,-219.0514363864017,275.11824200706104,111.56646564034531,-168.3566602707602,0
4669.0,12.970482,283.198873788092,-93.84639937194724,-120.17005135747304,18.234957534579088,100.34939413991256,-84.45725442157189,0
4675.0,12.98715,103.41970750551675,-4.146260495108756,-39.48564049955017,-6.44269600590242,17.053470892097728,-146.23048263700366,0
4681.0,13.003818,18.531267566530744,-207.80154986469944,-232.15413428125612,171.74106943114,-18.8337300771528,-300.5006757914944,0
4687.0,13.020486,146.0703238014943,45.99196175823781,-158.41417907884778,32.790920700855295,137.5693911818779,-126.17806491732786,0
4693.0,13.037154,179.90887890946118,-64.10069684843043,-226.34953406037107,55.71899331532585,-143.06132527331656,-160.06846861484058,0
4699.0,13.053822,47.70711893632178,-168.1520399698933,-167.00092974881122,185.00094183176964,110.66247698856694,-272.7845266754651,0
4705.0,13.07049,167.52273388722392,-181.2295476607556,-279.20147300974844,186.72960599575487,-76.76202950985345,-263.7105760800075,0
4711.0,13.087158,43.38112741763637,-54.13532303079919,-236.35364266392887,86.75429611593822,40.50098074062183,-171.31768263848943,0
4717.0,13.103826,19.042597817374613,54.74342764494691,-507.6482547823943,171.6159239647919,30.445347879504617,-339.3566373724637,0
4723.0,13.120494,89.59339288236646,-2.2143410472417244,-382.85748360849067,-32.58425865307909,-91.1298612788377,-413.6889136672846,0
4729.0,13.137162,161.1802737278236,-259.8596296792802,-523.0648260248977,-95.55327154686783,-24.35041997383476,-414.360994316466,0
4735.0,13.15383,55.24697786797701,48.93025149657768,-275.1043175205165,97.93198218686253,-103.9316842720104,-328.1002348594921,0
4741.0,13.170498,111.00535278124556,-146.803683941709,-480.0295728187429,-27.972018726862927,-123.16161106675312,-390.1411041527522,0
4747.0,13.187166,-3.364096743907801,-47.02846229981475,-528.391466277579,107.44376360344154,-165.9322210406969,-452.8788790592231,0
4753.0,13.203834,301.6749988966359,-145.44117908521406,-232.55283463109785,124.94396363018473,-254.0029857508588,-254.19608852300743,0
4759.0,13.220502,156.18422500821987,-216.89609056649988,-423.40854268367127,129.55435529882374,-194.6557786042385,-350.3056292186792,0
4765.0,13.23717,-59.131624602367054,-112.68911124821663,-168.25209887420854,108.13194084548516,-317.85169787014183,-234.3057849137913,0
4771.0,13.253838,114.46540643823262,-99.81645773118088,-284.94261961821485,182.7568802300814,-300.39232155650325,-491.561915142564,0
4777.0,13.270506,183.2821201609625,-194.988903750462,-393.4941960198653,83.69244172901685,-140.20711173671424,-162.58711861050884,0
4783.0,13.287174,55.8324246887336,-271.1730656502152,-184.618950893947,69.35491816620839,-413.4047285222164,-230.09881936376385,0
4789.0,13.303842,17.738395403429468,-334.0701603354837,-549.3442650559518,201.74514579270496,-150.32577904608956,-246.4689605154052,0
4795.0,13.32051,62.01979418662587,7.130383694440418,-219.11944835351235,115.3684153910667,-302.78947654876026,-302.2229930139082,0
4801.0,13.337178,124.660865718575,-53.53683058319643,-236.79441312018216,30.212880716745865,-86.49750730232259,-299.5680827175784,0
4807.0,13.353846,36.93874816829722,83.31132277307046,-164.09893686115623,142.26388571523353,-242.85474684693423,-122.69967160451526,0
4813.0,13.370514,56.43506345988208,-318.7857680927971,-150.08002565475084,83.72182758091472,-206.7797777607805,-400.17199637238815,0
4819.0,13.387182,64.58222974156214,118.04275209241877,-134.27050920226378,170.54947990375626,50.893028634346045,-93.28184810539489,0
4825.0,13.40385,112.47142782245916,-226.7072506039182,-389.3657676561792,-58.13059578313336,-109.28609104101557,-384.24538276394935,0
4831.0,13.420518,-99.5119938321176,170.36206524152936,185.7091174469085,-12.953740872397349,-241.82538830080503,-235.65797568190524,0
4837.0,13.437186,-19.28390366831875,-65.74928355828607,-25.73884639771275,-4.982361646169931,-159.55078995441775,-46.49623529955094,0
4843.0,13.453854,75.20398026482528,-109.91758073642924,-380.3204792271475,-32.885103827014206,-173.5372035624389,-47.35080569669472,0
4849.0,13.470522,145.5520296473283,151.00568023946158,-52.10260395280742,-45.72828123127903,65.36139040955906,-182.70897799224343,0
4855.0,13.48719,-48.31369349274334,250.67387543408387,144.00263320428897,-0.4607115412254643,48.48483257845137,-246.72724861912616,0
4861.0,13.503858,-86.09715067405662,84.67922307082324,53.86992783906883,-80.30578717437604,148.57561623234375,89.53937098995968,0
4867.0,13.520526,29.979416957253832,223.2632969227553,237.7132223823897,-29.11381876290613,275.64372841319505,-104.20724920447805,0
4873.0,13.537194,79.90989416525045,104.66452778180049,134.82528580815583,-41.15953086172488,36.59036105113905,71.41857360202405,0
4879.0,13.553862,17.311039687117542,182.39142711504047,-65.98190977006396,-25.908440601087825,191.72487868933936,111.64503730972822,0
4885.0,13.57053,-78.49837874812306,209.19184058377343,232.31035015128995,-84.07768513116805,346.0788972676535,244.54074692708227,0
4891.0,13.587198,43.63622797126555,-13.977305404221775,299.3715615541257,-3.3127441218506704,62.25534587744821,126.7106612256061,0
4897.0,13.603866,-66.95571364748571,107.258079956018,207.1346018543734,-66.86079229991472,54.4945831577684,241.8395785893183,0
4903.0,13.620534,102.68126720449604,116.9677135208326,142.08021337675734,-53.48008898613266,231.2419453091067,189.36510081790533,0
4909.0,13.637202,-111.44148958339304,196.467762399886,384.85241094658727,100.65792412837776,154.129379331643,444.3599805607889,0
4915.0,13.65387,-2.5530984260957226,68.59142250244295,672.2298186884135,6.798225280085887,10.017003768922876,283.65817321259664,0
4921.0,13.670538,394.32109885304885,-4.527966570306296,-12.358180535813986,89.23855426805217,0.2088806651474524,472.0982274593234,0
4927.0,13.687206,-119.13973612386704,86.32197143496373,518.9288491851705,258.8051371759857,27.47001939755365,352.67132617465313,0
4933.0,13.703874,219.2458707761316,-192.0728759062058,198.66500902712488,-240.9164590751451,-130.63370680233652,294.2540483204452,0
4939.0,13.720542,-47.55270366800951,-46.6959139765758,162.80435239984894,172.86582844570384,-157.86870754291454,460.0007151999199,0
4945.0,13.73721,64.446157106946,46.8878500059163,470.8484702056713,115.4749384536184,-54.25471039118239,445.3595124781312,0
4951.0,13.753878,34.54192208620529,-18.528844977523832,235.73049086381224,98.31620672600978,-56.19674647095147,308.8416376960472,0
4957.0,13.770546,95.47205078369788,204.3668300624306,306.7458565903258,1.449304393759448,92.4120751613482,393.74609098622415,0
4963.0,13.787214,245.66924741691088,-105.47914496996071,18.41528081290619,186.1416833350484,102.54059683485248,428.733699554622,0
4969.0,13.803882,55.24044313176583,116.8475800074451,370.2735709910168,79.44255767451261,-103.00059853095796,484.27796633679714,0
4975.0,13.82055,232.70047379626223,-4.595875475925043,228.3435395761526,159.3914610254332,62.57693617727151,475.50839710437685,0
4981.0,13.837218,115.89525523128108,174.52069025505182,325.9653133664581,160.26936011258837,94.94697946669744,563.9186442008851,0
4987.0,13.853886,72.22316380648948,169.9985023189372,282.36310195496355,145.74882966341647,163.40645546057902,417.26894359322455,0
4993.0,13.870554,131.4026360825619,127.86861086795616,400.8803290751836,71.34277585234322,105.56085737020722,475.8574422404107,0
4999.0,13.887222,345.5052021845476,-60.57283465221941,63.45519370342574,151.533177573074,137.48911390529364,422.69545164229305,0
5005.0,13.90389,40.70911819284152,195.06732507412968,395.9074562728912,47.21324764037293,133.97130357224245,410.9264666996275,0
5011.0,13.920558,290.26642760051254,86.06632189593276,88.09230501417335,113.97550320053168,106.36986890254136,290.2207217465141,0
5017.0,13.937226,181.3115428226451,94.91021053012736,119.54416681987551,139.1537266147132,77.63819186875617,332.1866779699744,0
5023.0,13.953894,14.5979288630423,-87.43467635974704,166.84844509317625,45.82334527064513,16.61171571668809,194.8991954106122,0
5029.0,13.970562,73.46379209427404,123.89368165537498,438.09957334840107,117.7453449463178,212.9139110815866,302.2830699638998,0
5035.0,13.98723,96.56144130958754,45.436652153577626,-44.579047670926016,-20.72242805349789,188.99412881846308,-43.32898122758712,0
5041.0,14.003898,107.47613351664192,-50.94586444679622,134.23852596777095,-41.29586731461021,-1.6857929439714248,96.14072721239552,0
5047.0,14.020566,148.22714841391536,20.58042076843189,28.259695536978967,145.4868358943835,231.9286990951266,12.139330750055333,0
5053.0,14.037234,64.15585344383351,-118.53758997603792,-129.1899213239731,-4.31481619344121,118.8079060349899,-38.771810831547874,0
5059.0,14.053902,46.39514686272831,144.72650225675213,205.2034371852542,18.355353087990665,157.39151383865652,-168.83711941055256,0
5065.0,14.07057,134.231031998946,-61.8351391532012,-105.8408496960452,32.91303628399114,150.59176553559345,-102.73687691094165,0
5071.0,14.087238,-58.42873116344828,133.93625117338132,-126.09870344388486,-71.25906857945768,161.06968736246432,-386.2022437007796,0
5077.0,14.103906,42.82964923554184,158.11556239085854,75.58990907376081,-10.561201520776478,164.48138666839003,-477.2350180693495,0
5083.0,14.120574,-52.363849757781,104.12977913586452,-156.55056531340355,-0.1468737979585626,62.89970151724054,-134.71398210886423,0
5089.0,14.137242,-110.21205507446754,104.21701048917268,-176.35258918066842,-214.5525956468676,106.20952913100346,-432.03691374331447,0
5095.0,14.15391,67.20512420910025,10.1144729815112,-224.77605665639948,-170.65808643177434,44.68291266689158,-556.5531602081933,0
5101.0,14.170578,-62.856881032820496,223.17760928549683,-229.6755271739005,-141.70175234688412,28.67057256542349,-231.28007377592093,0
5107.0,14.187246,-176.68456307373293,-32.68760583486737,-484.4146509523586,-165.9415421288206,-103.16727102797068,-323.748077718785,0
5113.0,14.203914,168.09307447288165,54.12894131908376,239.7017249212377,-137.5353332180188,125.1657764663471,-346.84281530887847,0
5119.0,14.220582,-91.10929604897616,-102.13903018622251,-438.8541076402842,-123.46040107099276,-116.52803868849334,-440.08943402043934,0
5125.0,14.23725,-75.44636848960926,-142.96672200727863,-395.8315588489704,-52.138520995938855,-76.1143385532751,-434.29938701572064,0
5131.0,14.253918,-181.53918580097667,-30.10653732034026,-192.1735475560466,-78.84944024035019,-149.90979055257586,-314.0143183243175,0
5137.0,14.270586,-132.55803847560634,-139.8812019105668,-222.2759612279281,-72.58697412031182,-143.12691613855722,-494.52169914035903,0
5143.0,14.287254,-25.22200320801776,-107.6633056459446,-350.6080284129949,-27.19316042375192,-54.93271581292876,-374.1660522735573,0
5149.0,14.303922,-128.64846837960386,-247.7955141148832,-265.3143250127413,-38.74867622531153,-298.7246993451281,-440.4542496166539,0
5155.0,14.32059,-187.13645226487964,-137.6429946693533,-302.1272618113435,-173.21307089852945,-133.15126109317262,-399.5938591309706,0
5161.0,14.337258,-98.27049173568848,-356.3589389457968,-312.86823909113855,-153.8052606105161,-208.3132460411885,-561.1480987078097,0
5167.0,14.353926,-150.7671052780653,-149.06256734441564,-195.7166614258138,-191.54861658816964,-310.47657480791327,-320.74858798063826,0
5173.0,14.370594,-144.3565953317782,-291.5007947407081,-210.6777813902165,-11.56105908463686,-209.62476270558292,-542.7562367701474,0
5179.0,14.387262,3.553335502681403,-419.193798874712,-332.832781340842,-156.63787927445046,-401.6952695245303,-382.29937268661473,0
5185.0,14.40393,-171.91512020234148,-136.7501665755824,-230.70204433305165,-206.05871610793383,-59.52766072653803,-269.1095222196999,0
5191.0,14.420598,-71.18573995820664,-388.5470097618497,-269.58113306078474,-57.72944895275013,-577.6469716169122,-584.1834393090098,0
5197.0,14.437266,12.536012123780154,-470.6840112461345,-253.5928026899504,-263.9667397507036,-247.2620749541734,-305.807748597,0
5203.0,14.453934,-200.23722629081004,-99.04437201676636,-228.43190007296192,-129.97728179342403,-336.70591302447554,-401.7210358428973,0
5209.0,14.470602,-196.60919858417228,-235.90847713355265,-246.83945131654025,-110.59947969037415,-374.57693056088704,-427.7100724744221,0
5215.0,14.48727,-52.26547231724973,-103.97650785151345,-166.36145045380383,-166.70820182569608,-133.3767078283372,-388.8593915619442,0
5221.0,14.503938,-181.17223590650343,-193.15004779576844,-204.7746455860744,-272.16853377701887,-214.0660897926047,-66.02269482770726,0
5227.0,14.520606,94.48504708555336,-104.54092481302357,-18.057417864507816,-95.21537233630464,53.50720486937719,-687.6012121564776,0
5233.0,14.537274,-201.3007260835125,-78.69332399196195,-219.66421564852192,-197.2354259043786,-85.23412730286339,-305.0358561729305,0
5239.0,14.553942,-149.7594633522237,97.65152838559764,-99.78261021727704,-111.24202095677198,55.922897502207945,-217.5418108164924,0
5245.0,14.57061,-99.18308065572712,-59.53948204841284,-49.92903588771561,-265.6684793824466,-199.5545888870048,-260.1624213770069,0
5251.0,14.587278,-19.255324721111627,105.45575371341812,-21.943629512095733,-132.68906279615578,22.650272294587907,-54.41077996918043,0
5257.0,14.603946,-69.65692475817454,92.21789647186765,-3.304974991408137,-205.55445910705777,94.51387812818126,-147.64484377992574,0
5263.0,14.620614,-60.76464909341159,168.03071465602542,-33.05629591434333,-80.09331316670017,268.72287247058443,-17.12365979342366,0
5269.0,14.637282,9.685861319976691,72.55892711181242,143.69832205946264,-153.72408452161045,262.1048355478815,-4.175179553700474,0
5275.0,14.65395,-48.74793237898515,112.09336160515085,69.60407989435286,-149.3221119101196,151.64844908787748,48.65595164740554,0
5281.0,14.670618,-3.011322702175903,320.2783578667427,233.9416581103116,-91.32501232416834,558.6691095652075,29.154166815249937,0
5287.0,14.687286,18.80006427564199,58.73047703887964,114.61836808131996,-60.445151045616434,233.1671399339166,229.0738162919643,0
5293.0,14.703954,98.42227437585188,131.4364263422242,116.43966767497196,-131.90692025659445,437.0239276840198,167.99998987415,0
5299.0,14.720622,16.9892450287955,289.4378254486404,401.6547079157227,35.22053216412165,420.7248265940206,324.0904414208768,0
5305.0,14.73729,92.1549928408032,46.78049807561057,21.994519365078943,-48.724019934630334,263.4153191919222,352.0170097007616,0
5311.0,14.753958,50.274224598988496,151.747757727213,431.73053259728704,-42.57418796933957,268.9336483254185,473.5794838728334,0
5317.0,14.770626,18.30916435914185,52.75224506299161,370.8871055876477,40.09338775738379,157.2312634031029,546.4985821895209,0
5323.0,14.787294,183.3801036349804,276.27440886861154,326.8019418973697,68.27218556971101,332.5620490517049,462.5469175332657,0
5329.0,14.803962,29.88756561044231,103.5557614526515,190.72836626889372,88.21761245481702,310.508673854781,470.73859622803286,0
5335.0,14.82063,67.149335429541,11.110999238530198,311.6844800553432,221.0019896464824,7.521403031677494,660.2151108895735,0
5341.0,14.837298,160.57167009347637,16.421941337123812,299.22378928344347,120.05461305908754,107.2787684054785,382.1969900056124,0
5347.0,14.853966,138.69775234288392,157.16373612434415,375.6203191915144,65.16269997619446,45.635250494510686,440.4596934769268,0
5353.0,14.870634,112.22741010788384,107.74435039745916,315.2847593417744,366.2702283911265,-17.677392618256654,511.3564263928168,0
5359.0,14.887302,275.9579156367814,-83.24690645224122,310.87178088860867,271.09774633406585,5.118763273922477,358.99448254533485,0
5365.0,14.90397,183.42329662578297,91.54777182367133,252.10398493019323,293.9994425735298,-234.60545260473697,556.229942501109,0
5371.0,14.920638,127.37513803935455,26.572477728258,307.28068153724007,528.2849385721945,-259.0527704356461,486.8702078225183,0
5377.0,14.937306,151.72458408017943,44.95086735264,249.8099300324292,335.383793527113,-174.13155105238928,385.4652718904234,0
5383.0,14.953974,276.9869880066839,-67.72416333632901,227.1485600546788,178.49815369256467,-324.9956650557284,277.8436469511795,0
5389.0,14.970642,-31.90397346611421,59.97883197403273,228.0659135040724,268.75354604211293,-207.873456112715,263.18362192679706,0
5395.0,14.98731,15.80795197561045,2.1622793513535683,-55.3743916511674,234.22157428558745,-300.1600976030687,31.166520988493065,0
5401.0,15.003978,153.2951520438636,-108.55198347733447,11.285315269813395,104.9381477383636,-86.9097500434952,117.36975286606264,0
5407.0,15.020646,153.57274529261625,-45.27065939925348,106.18678805782572,282.2296071641054,-180.9219926556852,314.7109225086601,0
5413.0,15.037314,43.77861659139949,25.878891649782524,127.66097779715602,266.9848951750713,88.8575778848296,306.62824941923907,0
5419.0,15.053982,57.3999934713322,12.816535896693164,-17.136121440096012,238.58480165944687,-33.7552120781843,438.70736153529725,0
5425.0,15.07065,102.36138297174276,54.146378380969225,62.97502372590847,160.07571856702586,131.2666065523477,179.651869022011,0
5431.0,15.087318,-53.75922241861608,65.9779658101269,138.3696034253004,202.1545924959001,73.05595165356006,196.66867945667252,0
5437.0,15.103986,165.8148672253384,-125.10755866223364,52.351693842845386,135.0137849063761,19.64749924961847,299.7991665614302,0
5443.0,15.120654,157.80698441074253,65.52025270679414,-65.4379360847613,72.13961723359252,194.06617586102573,-3.124709913981846,0
5449.0,15.137322,122.20732273558188,108.23227753884404,49.44466020830151,44.42189176736639,285.5980162593324,0.6440208048122145,0
5455.0,15.15399,116.78062834060904,-73.20121839386913,-110.9783255214292,78.87836534130072,174.37708232931567,142.91865635250892,0
5461.0,15.170658,79.8084620622233,6.671388931466389,-44.09862249652293,-19.63902735056522,78.73114723153597,-18.706489229488177,0
5467.0,15.187326,13.786221564334063,66.72711684810693,-132.52038597135405,60.20757591072672,279.92453849203173,-84.27845851954378,0
