Frame,Time,RightHand_Accel_X,RightHand_Accel_Y,RightHand_Accel_Z,LeftHand_Accel_X,LeftHand_Accel_Y,LeftHand_Accel_Z,Label
1.0,0.002778,11.704534809709926,-329.34325324742287,262.12950713751803,357.56190545545,149.29248013673987,192.7994988173294,0
6.0,0.016668,-286.9025163935736,-1.551357003673779,-246.34939951438432,119.13089009954174,177.39455428401578,136.51537671837917,0
11.0,0.030558,-257.24551687877016,114.30051136859797,-271.9261410879295,147.95937523748694,399.5570174000183,64.85467700470437,0
16.0,0.044448,-109.333483730185,199.43293185357425,-259.7997510260469,144.23477231863492,455.2668707671708,27.83730728087343,0
21.0,0.058338,-198.56891255761465,492.9239294711172,-34.37934613794668,-89.35369778062365,503.6703745286316,192.2815578894475,0
26.0,0.072228,-219.20789974908283,-108.83902073634027,-110.50864518744228,183.0800348337255,18.908009039032123,-208.58717275258988,0
31.0,0.086118,-137.01370440099944,323.5914490403844,-67.62681286505133,-43.94494560922932,275.9827816736359,-37.76979631079628,0
36.0,0.100008,23.342433090299664,-258.95481338080674,-14.83622709032811,184.79300185413217,-193.1745323918375,-200.73841481382863,0
41.0,0.113898,-122.9989574442933,332.6889448293708,124.3298024199911,-15.286572692708392,63.23466814999389,65.15641301937106,0
46.0,0.127788,-25.62296425077082,387.878163483496,49.48806005695794,197.45219263775223,612.469867083458,-41.3826959274322,0
51.0,0.141678,-34.19233662856014,-335.3593347028505,186.72473237996567,-30.99943801356653,-205.9303231730304,148.7429954285482,0
56.0,0.155568,-186.7172219287216,-384.163921098356,43.384887325509,27.702783679987945,-62.33133215752295,-24.62727324611557,0
61.0,0.169458,-19.032139920613574,-420.60884154147794,115.5499692062392,44.860075616548286,-359.42959320720354,20.5843014356034,0
66.0,0.183348,-28.76596586338884,-759.2679706833429,158.34865375920273,121.87294740531638,-473.5830411905053,-68.16871814566841,0
71.0,0.197238,-72.77639789549109,249.31944348818132,110.96555230723116,-124.44015146890229,544.1287408222363,200.1051432349717,0
76.0,0.211128,-111.53530301637176,878.658496903775,199.4644406640504,-32.0307424577267,854.5358908320662,258.7110051916208,0
81.0,0.225018,-70.98969489224814,206.51701724600312,-13.30815591280138,-62.24983684549072,479.2039173450448,197.93860555226803,0
86.0,0.238908,-112.11198573461722,546.8327817158455,143.86113097285966,-89.55019759122567,436.0382950646778,-35.76703670944998,0
91.0,0.252798,-97.77103194131186,475.3728757224248,148.8465147239042,-153.62286780797558,477.7627131031781,283.3171385948002,0
96.0,0.266688,-138.56736922954718,514.4013549473411,28.248177450801247,-117.86789866249016,291.84425336317,156.54499391252432,0
101.0,0.280578,-108.8505318151406,175.143802368461,120.01885816278136,-152.51638482901103,99.75221104655776,76.69966470511926,0
106.0,0.294468,-140.52704947287083,532.8019432631983,194.14995427904768,-207.5529011967328,284.7650733752586,-73.60452788663794,0
111.0,0.308358,-190.4602028022265,276.77596654313254,164.79796365811467,-158.41978442817123,150.03577000271852,-121.24960132036333,0
116.0,0.322248,43.98410017810336,178.44135074641332,228.47071476770776,-200.9379695071375,108.49214370289197,-110.47997885242478,0
121.0,0.336138,-6.326800872767584,325.3366135416743,132.30834966860317,245.1480080211543,-40.87644548474723,-689.5216879627576,0
126.0,0.350028,108.61254342968076,-133.55549713839048,216.82393746289068,-1314.2651494426589,18.951537046692067,1883.6120983568649,0
131.0,0.363918,69.0078254691165,230.7776681076232,301.8698976126035,538.9858099861547,-21.15185287648672,-1301.918960972666,0
136.0,0.377808,179.19144075822587,245.2987725266396,169.20198936469507,-249.0232491320704,5.929861032307571,277.15592699107384,0
141.0,0.391698,220.2009152835149,-813.5879317062875,189.28800955851688,46.576316388926216,-762.7371222578349,-137.9402698464314,0
146.0,0.405588,148.63627850347922,-506.44451032468567,205.6890732460636,-97.88262722228302,-662.4300141816054,98.4558994036683,0
151.0,0.419478,186.7940420271276,-391.38129879345513,167.05012239348582,-67.81606805896593,-448.0906975712746,-14.186471918054451,0
156.0,0.433368,168.58924021595195,-646.5151699343432,167.4738274205028,64.0270691235813,-558.5890827436876,-94.84105614769528,0
161.0,0.447258,183.4761691249616,-538.8490072534196,124.25517338190166,15.432226253604796,-440.4424344264153,-194.38833148176087,0
166.0,0.461148,258.43202636498154,-648.634935060185,141.17458620695942,-151.27130302998052,-549.414142202944,-385.8666236047624,0
171.0,0.475038,398.7724010050083,116.10862217806664,65.17127066700337,59.721082050803446,-20.21906578726288,-90.71267963646868,0
176.0,0.488928,260.44829808789603,-927.9388467215848,225.9348206384412,-152.38987917560567,-1056.9810088337947,-43.65393063495784,0
181.0,0.502818,342.99714376655675,-184.82573955526004,147.27651660604727,-278.2431596610137,-395.3572054943864,-417.22257982893245,0
186.0,0.5167080000000001,232.26400555615004,-104.1014535973337,-0.5098658007201351,-403.8302510806518,-489.09540491653433,-11.18427152051823,0
191.0,0.530598,373.1298854658104,-187.8213446004896,21.43159970410707,110.88100375016698,-274.8311356518972,-403.6197676394066,0
196.0,0.544488,203.0847136198185,264.0496867802163,137.13947090508668,-95.2585320223615,-192.60647307921005,-221.09989717594493,0
201.0,0.558378,145.16758459136665,212.1557567194268,37.12869825898136,-167.2237540455762,-11.696803513861044,-275.8191953775847,0
206.0,0.572268,-6.871456124216749,293.7464682361607,67.66068350833915,-143.46465931854556,-41.1458395359792,-326.35754301816127,0
211.0,0.5861580000000001,663.4804058741264,-182.92671901979264,-88.61097044434666,-69.73510498091284,-120.1782882127348,-302.8509663118304,0
216.0,0.600048,997.1874102215722,1247.1315560442672,-663.1129086214789,-293.639045800618,-293.7843108104666,320.1147896592595,0
221.0,0.613938,-1742.5192699882773,785.1159814505344,1141.6216145198975,1043.0849662236924,441.3632229140023,-2664.7391570213645,0
226.0,0.627828,1365.0687262336585,-73.94657391289206,-544.8983621368366,-1065.5005864778418,-205.5724055066828,1731.5071509315335,0
231.0,0.641718,134.43256914059236,603.2519723084474,-242.30143449741485,-231.2167718096463,96.98960961808336,-355.1920913176641,0
236.0,0.655608,609.5087394942946,1070.9047048818077,312.87291968128693,-146.6745535286907,11.472825816626994,-292.84009030127686,0
241.0,0.669498,115.22787429743092,434.8485170508032,-85.52318385972691,-32.76796054801362,17.2920030199935,-422.4589413192653,0
246.0,0.683388,60.61790032670282,744.3917591743497,443.908163972638,86.01051866488622,143.98905777799447,-331.38973554131337,0
251.0,0.6972780000000001,328.57227664332777,245.5352865318549,116.43131036155717,-111.71108801750034,259.72967764422265,-123.15472933837702,0
256.0,0.711168,183.10540730713927,439.7465176926561,-41.69039127620138,-55.293288443324656,83.45044261770985,-251.1979811940516,0
261.0,0.725058,-617.3048867784405,690.1908101444023,298.3512760837368,-49.10856123121883,154.06537831977917,-219.20190837403092,0
266.0,0.738948,259.01089991587094,876.6624909459312,154.48330318285394,-60.23661368079013,1084.7676945988987,-307.95988174435604,0
271.0,0.752838,-391.5961329746924,-745.0593891082665,-34.68881709824774,-25.600942164435143,-819.7814220247955,5.578327551108295,0
276.0,0.7667280000000001,256.0502093329667,436.72762980692056,-408.3620010678042,-155.70544884462836,622.6122306425523,-102.24569873996758,0
281.0,0.780618,-301.30622699620164,374.30489409811247,-386.4816838391574,-6.627841904164086,565.1954448689995,-19.936969254191013,0
286.0,0.794508,-718.5918858923084,308.23980849467216,-393.0605734958889,-28.56989157633725,362.7964870178501,-80.96815771371378,0
291.0,0.8083980000000001,-122.75523253390142,17.119093165685086,-465.9974658925582,-99.31722145677328,176.32342005800157,130.07666218777734,0
296.0,0.822288,-580.3051852498722,-95.04519224869966,-367.43677430549576,-244.0381358681864,48.105723500109136,187.7695944575588,0
301.0,0.836178,-164.9844654924786,-460.9166843723576,-290.30639860890915,90.01816077752778,-17.099762263960265,2.97163175327138,0
306.0,0.850068,19.55050967823305,411.0002797028872,-687.907441424516,91.02292101422556,342.98301790387563,208.1975553554509,0
311.0,0.863958,-212.7436262579205,-69.26248618977276,-271.0276909674489,112.95335203492417,71.60521320296513,-79.07868105281347,0
316.0,0.8778480000000001,162.07250246449593,-382.7709899040242,-425.7989771551614,14.164788350926068,72.04710609507693,104.32332183631164,0
321.0,0.891738,-373.9994097210252,-427.09511314120846,-81.82698002630207,142.9316456288562,-147.86355949243475,131.10778678059853,0
326.0,0.905628,62.01645692073932,-639.1699764596005,-405.7209985008029,293.4178368848495,-359.28343212061026,330.323376378803,0
331.0,0.919518,28.79338306900312,-652.5937706398814,-185.30607852264168,205.0996855717769,-488.5954629201047,7.86401505057723,0
336.0,0.933408,-27.12936096750453,-432.44699655247103,-327.96118091356743,435.5355640933161,-32.204046381964105,79.73954643813379,0
341.0,0.947298,-138.21831584827805,-660.4351445072652,-279.37879648070657,251.8366429582408,-409.41790597605626,225.58769128020705,0
346.0,0.961188,-201.5480845203286,-676.0672676865339,-282.1797603737507,554.2188656685312,-347.2576009979046,80.363211909986,0
351.0,0.975078,-143.9686342063085,-650.028743724876,-455.53499860322194,533.1723939169973,-435.0874555714687,122.93955575399394,0
356.0,0.988968,-707.4334332815904,-1389.371006830051,866.5184104941974,402.412566955713,-321.0739642176606,392.6678316444501,0
361.0,1.002858,46.213665823084966,-193.48566076802345,-1043.6511358129733,431.9931213405642,-120.6406279781736,74.11267022400028,0
366.0,1.016748,-206.6940138299726,-410.2836923144244,-466.4000637089119,623.5655576850627,108.79795133826524,196.5208846247728,0
371.0,1.030638,-419.2976523037156,-643.1174756520045,-104.11590782896369,485.6118145199425,131.52186512473872,219.6973609388514,0
376.0,1.044528,-12.784437124065178,-335.8980239326811,-134.16101680238128,419.03473442364873,407.9358894765941,119.31660757486792,0
381.0,1.058418,-360.7100549712926,-556.6937561886375,-194.9543397375312,429.9223998682819,414.7820897125903,394.1518352510112,0
386.0,1.072308,-306.93318557302155,-136.01599155275204,123.74928079305532,261.32299199437654,649.9238967726662,-75.7381731623085,0
391.0,1.086198,-685.9884216297978,-406.19686110377614,-114.59917926236967,390.5214913669166,713.7746066805745,259.9670808960419,0
396.0,1.100088,105.83484513789136,74.90237151679864,-179.7627529096643,250.41680175142284,576.2864938201084,-213.71424201797257,0
401.0,1.113978,280.2455733137296,-113.29430128108136,-613.1650856573609,215.5871508089308,405.7780758886204,-23.59100099328421,0
406.0,1.127868,-204.84695366407792,-359.43216808414417,418.691560663693,385.3046099959871,640.2330937498745,121.0060598031391,0
411.0,1.141758,-1030.774596968361,-36.59009964285994,679.0320448365427,261.8199385025319,584.1466094335001,-208.3882266358911,0
416.0,1.155648,401.7477175447043,-127.50664333946736,-482.2972451051767,131.2313705733921,261.950869113807,-75.71905361564023,0
421.0,1.169538,-347.34966153154994,-110.42634100923772,417.515215925555,73.02059413603429,438.88850890388665,-126.4030714959624,0
426.0,1.183428,-120.78138829803288,72.51319923974478,228.97174436777576,206.4407587824008,332.67328238172195,180.8109999520728,0
431.0,1.197318,-70.91953055342687,-384.9183333368935,211.79132072606288,128.91515411097365,340.4185073927399,106.0941294633329,0
436.0,1.211208,55.20345294003035,324.7676074453556,136.82886017699016,-224.7365487198988,483.6497124209221,-6.144501469925487,0
441.0,1.225098,-227.2357432094649,-15.033892728077916,438.6046744929018,-196.09842092820355,580.8402301531793,49.55101130459626,0
446.0,1.238988,-55.46969608048636,-223.2301575790908,181.85703024150573,-130.98523108363577,98.67144930140218,-52.06731895576703,0
451.0,1.252878,-270.6188144173676,35.753183348694336,151.28695829553243,-344.1980057246968,221.36880863854327,68.91785338337445,0
456.0,1.266768,-81.93708540887405,-119.37482296243066,307.1539495076085,-271.55721136442145,140.85931150211488,25.371252663755463,0
461.0,1.280658,-241.65638708871057,125.68372146679964,528.0144806067499,-375.1176116352308,178.70686873286218,28.131293072539307,0
466.0,1.294548,-145.6576432700938,6.085514611727461,281.7602584406623,-318.77524699180594,26.450907143414824,-57.0638617091078,0
471.0,1.308438,-75.80442378533274,179.20227624969652,389.5512192595639,-371.0304375100012,150.56309660896397,-58.47326162260691,0
476.0,1.322328,-133.63743282824686,407.84400741471904,451.35833846930615,-267.08931627693744,93.06199562609928,1.4724885411970874,0
481.0,1.336218,318.2060673433393,158.79503945951694,234.98787191404665,-387.0945685962217,-114.79127601707108,-145.81352242051997,0
486.0,1.350108,-309.2586564638224,137.53603689576283,501.2181531079089,-197.8849475246353,-350.7593867757644,-41.39420625212128,0
491.0,1.363998,111.85801914300846,4.01664400502527,336.7355008794574,-189.4495047389168,-483.8202662615956,-77.7837988630758,0
496.0,1.377888,82.22134523741929,182.79621130581248,28.43322027118441,-100.29542595281862,-431.3182350841,-36.09119117358451,0
501.0,1.391778,272.72467397530085,-22.8393027962581,214.79841509790384,-168.7439445334691,-480.40881786237753,-52.50972821035796,0
506.0,1.405668,149.27743690613562,214.12708225397984,65.23415628854625,-160.87058180083358,-514.4908387654816,-96.19243996802275,0
511.0,1.419558,419.0804337035668,280.7671698332249,-12.53915083156599,-111.80877616145403,-636.4061667070465,-21.433963862722745,0
516.0,1.433448,688.2384745877117,223.1892068780375,45.48663575037952,-206.763750109648,-795.5287748674331,-27.3362554631802,0
521.0,1.447338,249.89304662899,408.2101971622,-336.0435219436021,-68.1087716563115,-515.7665090574698,-36.35643172064369,0
526.0,1.461228,920.9665953222424,276.4937979736053,287.6824127019051,-164.5971335038824,-805.2633132819249,56.24936255879895,0
531.0,1.4751180000000002,660.1973121667435,279.4886570319704,-106.53720720220454,-203.807078033588,-723.7634854127393,66.9465615963817,0
536.0,1.489008,440.6048103432657,847.8582823455133,299.27711189258,-335.2296415685904,-604.9809068837402,-12.79990089147934,0
541.0,1.502898,868.9260945616303,515.3234737255916,288.3127042461461,-287.14271577159013,-448.84413734685313,19.744466880532656,0
546.0,1.516788,343.0872898767643,488.3922142806595,184.9884341196509,-246.7682373235944,-729.9994903363215,150.6991968066445,0
551.0,1.530678,245.9783789570327,617.8269144244442,476.6170481915888,-107.8284849497716,-422.0156003020349,-60.21135195125267,0
556.0,1.544568,301.50967692792926,521.8160261734897,18.49688148527315,-398.8538296220314,-395.3653385063318,402.3040398211034,0
561.0,1.558458,-59.345340153699695,314.902199088095,197.693780547738,-109.4752122670514,-264.27236143631904,-101.32091890687028,0
566.0,1.572348,106.986794591455,209.78337278516,123.6161200627158,-172.5476565103806,-383.5920543828028,-33.63174897912874,0
571.0,1.586238,234.7708942965312,258.4739617167582,215.04444891388212,-63.70841984555669,-432.3498317878175,-40.12155298747323,0
576.0,1.600128,408.64318810785926,262.42054089319686,-513.7449096640916,-59.12428074182624,-408.8394999785687,-145.07720382137077,0
581.0,1.614018,60.34429015671972,577.2940106196032,118.02996759614209,131.30250889191353,-443.6873933851055,-43.15233649550215,0
586.0,1.627908,129.1527039572225,505.37236949641664,-318.6051966449854,-16.98405156565588,-574.2074345929003,29.91375967446316,0
591.0,1.641798,88.33047291354066,526.6805913051135,-317.8444507953219,92.89973035791542,-667.5206480712171,-225.74022360405843,0
596.0,1.655688,300.5763220911113,684.1338836347375,-151.4483627736274,-36.2805807801382,-571.2088595769379,35.62934877343845,0
601.0,1.669578,-191.76982408392743,246.9083407599379,-4.330788994887968,68.76096474470815,-613.2814419434065,-272.97008993097444,0
606.0,1.683468,235.11402680171423,1015.8102212002289,-760.9451861999719,92.00341561906782,-29.248223565394326,-505.2185749915667,0
611.0,1.697358,-465.348779179872,-289.8134845913896,350.0401599391872,96.36102801217024,-47.56062954308559,-378.4788159761221,0
616.0,1.711248,151.7535264162483,688.5308002578774,-416.74610678790486,-38.93117279449795,154.0571699488946,-391.1930630794687,0
621.0,1.725138,-289.95750251349955,281.5815451760545,-621.2415127997588,-54.78737215726584,132.50699858170745,-456.8990837318422,0
626.0,1.739028,573.7582972057933,40.07675362446725,-482.110989518712,-80.20795393321578,201.71732454489347,-268.29017470115906,0
631.0,1.752918,-768.8473800337808,590.0286752911775,-403.9261702392055,-33.00322850327023,311.37875791345743,-531.0374043847053,0
636.0,1.7668080000000002,242.53157020958253,-74.2164488883302,-412.939892735348,-304.5684054217824,120.68774936690023,-335.8099125820048,0
641.0,1.780698,-91.79113237951368,-15.890136419296551,-436.81520175343,-142.1153744371037,645.1260793937147,-565.8539826724086,0
646.0,1.794588,-57.96219607555948,17.064973302171538,-348.5573956954503,-22.88720030641229,427.47613273249664,-212.86093592697205,0
651.0,1.808478,103.9089469847487,-70.81402411318047,-120.69293110656614,-55.12049245910357,638.339682691987,-508.0588402463287,0
656.0,1.822368,492.9073648805463,-141.48036923732047,-510.1736538733182,-126.14337196030355,517.877731189885,-312.44480433639154,0
661.0,1.836258,-1008.6768627858124,-206.1954945100408,28.90381326619955,-326.48038038100765,690.0678621872186,-501.96859603061296,0
666.0,1.850148,286.7986233143262,-470.4741241456546,-347.9833934360974,-9.569878728096027,502.4949313138617,-350.770340447235,0
671.0,1.864038,278.508950437384,-379.741313371929,-249.3783131805968,-45.447631203638295,331.965994512729,-94.31536397649468,0
676.0,1.877928,-727.2802054116336,-214.4472959973581,-45.11511030926553,0.9659549564955155,489.9000301578525,222.58411155683152,0
681.0,1.891818,494.4188149297406,-837.267228208387,-397.9839891775088,13.056732167436492,322.56254653993244,-164.36378969187666,0
686.0,1.905708,160.97576499969634,-705.5328714412767,-229.10618488891504,8.277752569634004,226.8509299938405,114.27091206976966,0
691.0,1.919598,-272.68145175749487,-913.9238390501904,-252.55585971126612,-59.604893081868255,158.7695979304113,333.0456362590704,0
696.0,1.933488,112.3072059282628,-318.3238134710891,-69.60122105252563,-4.731234730667552,-86.50380841200888,280.8193944261164,0
701.0,1.947378,-230.62573948749107,-1069.0203149103518,-21.312373431133096,277.67184377656963,250.00219131083497,409.3861305912492,0
706.0,1.961268,-252.4889825130093,-690.35961552824,-294.8069598374344,217.62049059460165,-207.1286148070202,270.93979990224454,0
711.0,1.975158,-5.235044185750155,-820.0431921383413,-232.0573764877422,64.30439296294226,-49.88692491666959,86.51975378401713,0
716.0,1.989048,9.759544973657484,-823.3570716260688,-53.99478680990467,423.3986272236496,105.59310397725848,231.7403283194425,0
721.0,2.002938,-141.17470653697106,-555.7277179550007,-451.6153560583707,216.2413509630053,46.08003374738352,112.95102741212789,0
726.0,2.016828,-366.6120366829456,-698.6290414641675,144.9239724837925,428.3899453203616,179.53768228663097,225.20652549150327,0
731.0,2.030718,-179.8283391440305,-448.4453473596876,109.13773128157752,287.89771714244097,259.79174085935915,336.4983153733892,0
736.0,2.044608,-326.79360713488313,-775.5419495198935,-171.4271865312137,612.853773777631,227.3445006769296,500.89104587180367,0
741.0,2.058498,-301.8441439511208,-599.342133537206,-132.0098912092364,306.5380435199678,360.9268968277443,112.91636259552226,0
746.0,2.072388,-113.169458694743,-448.8899799629808,-62.4504590677816,113.64211618562088,323.51758259994693,196.2695436816589,0
751.0,2.086278,-326.7579113121605,-491.4613688036797,187.86714503318208,358.17318001713056,379.0459779449838,149.20286768750958,0
756.0,2.100168,-166.0517120994932,-323.40637268203045,157.55596782107327,255.9910033548114,274.49851893942,224.77968905207064,0
761.0,2.114058,-225.7749682883956,-184.63490650954228,181.66841537902,-13.323576903013285,324.3024659549285,33.05275436902811,0
766.0,2.127948,-572.5295325356014,-683.1860740619048,489.8064645225119,4.270533743049498,308.1075354919137,-27.34182157531083,0
771.0,2.141838,-35.38457910809018,-78.83855224884786,142.8800211535587,281.51791204080286,410.23905643422177,272.2266502350059,0
776.0,2.155728,-234.94674903104163,-446.88584264682913,475.4806729426847,103.03038768595724,345.62887278081,-35.87747858606071,0
781.0,2.1696180000000003,-520.1263779748689,-175.92191285270954,366.8265382150059,144.59120134251833,450.7138013177555,169.9520239974443,0
786.0,2.183508,-54.85785150439048,-63.94212938528676,186.6630625205576,-86.3775234831612,288.3976716153594,123.64869277693758,0
791.0,2.197398,-148.50698487475978,39.53082598766951,358.5824907104729,42.18096857774079,376.68838458889184,28.498556523038843,0
796.0,2.211288,-53.23776077415601,174.1940489757201,406.9533316582492,-128.93551908801618,380.97480886458266,127.29776978267992,0
801.0,2.225178,-77.78983865058836,358.5262065097078,462.39948427681225,-161.30458830468518,353.44825099434286,46.12043772560869,0
806.0,2.239068,-122.84812121127422,-79.28711663650304,96.21985087242344,-136.31510703057663,248.6455342995456,271.64735403254303,0
811.0,2.252958,-106.92802615291792,457.7240891829442,302.130893912047,536.5473994601525,874.6092716185794,693.2607655643253,0
816.0,2.266848,-59.21782344457084,366.75693662661246,325.74916884590004,514.5904041429567,1054.5883820656704,485.7332967833391,0
821.0,2.280738,198.74478948316585,582.7157432057528,440.32284820585727,-749.7205483037529,-328.8138037314636,-134.43998033707408,0
826.0,2.294628,237.3603683978216,231.83380141616132,334.6511313916322,-3362.0714116608897,-3732.759565130393,-1542.8338749386296,0
831.0,2.3085180000000003,390.5701401691484,826.876181322255,344.7151187238037,1657.3039751931142,2304.0965010866707,1022.296544738272,0
836.0,2.322408,257.77108970492725,827.2654337179736,122.43024481343411,-105.95530102396502,235.49342502587032,213.10334588310155,0
841.0,2.336298,-274.21375755859333,340.86362364045624,721.2509992815551,-81.18245759315728,112.41170167633936,90.80186449105378,0
846.0,2.350188,336.18255344976336,506.0849088797344,120.8129154655395,-5.166909452158541,-19.148729004262268,114.92406608834855,0
851.0,2.364078,868.7046957097987,753.4027655030874,-51.95239668905631,-127.31798719772114,70.11416000014734,-56.69268375592495,0
856.0,2.377968,-194.29684028589807,319.4709554630543,512.6130865784735,-197.9792770240888,-299.7413041210631,-181.39263866680773,0
861.0,2.391858,241.25733350256613,215.805268351467,344.047012808464,-223.68770357175347,-457.3380797740537,-101.35330531734792,0
866.0,2.405748,568.301541652925,552.1171398619516,-80.67645783810661,-14.858326015153295,-234.54928276488755,-205.28773476513595,0
871.0,2.419638,-98.1488998340266,190.67749712971496,177.7533669115126,5.402700679881406,-188.1847046743912,-10.20482976071522,0
876.0,2.433528,51.423944222033455,85.6859350134712,229.04971921317767,-74.26289395636371,-280.9640133782607,-179.0427152321588,0
881.0,2.447418,451.9265721702729,53.879082161897486,-88.8183760188701,-45.28149216043683,-260.90359021032646,286.8834733366295,0
886.0,2.4613080000000003,515.5407698048117,-124.72016035885396,-199.3846583780466,14.077046558750377,-502.24855772268194,91.51684223398368,0
891.0,2.475198,291.68304135386296,-19.806553945932933,-114.81334199794075,73.22418279231437,-645.8460376404773,212.66956333219832,0
896.0,2.489088,299.5252855921232,-103.32276159334327,-183.2030947223216,-106.35441799035029,-537.3599159210145,-10.978712331160366,0
901.0,2.502978,233.92847620595904,-86.18622566386395,-202.38146821172936,99.488137328119,-625.9674208816341,197.48240874670608,0
906.0,2.516868,245.1797211190261,250.3655750832845,-73.22253766386237,-87.76786336221248,-398.6135577058842,18.31068178072585,0
911.0,2.530758,335.2287307992827,-261.4300072557019,-202.96057171511,51.39124517686449,-642.1491279614095,194.7827281595885,0
916.0,2.544648,167.08415282349137,80.2988636574564,-389.6712980552117,105.08256071347864,-683.1419958098653,272.61237624221764,0
921.0,2.558538,230.06759193429087,16.25403800277056,-345.32592491506847,-105.29457100842006,-607.1912179256706,-1.8334329386375143,0
926.0,2.572428,200.8030128821452,174.0969610524711,-347.5106061766324,-99.81957581270213,-358.97036290262486,-49.096508932848806,0
931.0,2.586318,-18.36733456677081,469.2442357959956,-289.3175163188985,-71.85189077100587,-685.8486145576929,-64.59812177737382,0
936.0,2.6002080000000003,660.9809460237939,318.3418009010497,-492.6760025363988,-51.875832996595776,-280.8470274291745,-26.514430078598,0
941.0,2.6140980000000003,-214.38587973993373,534.9590018041681,-169.66248398800906,-209.33009442912265,-45.66204256852674,-309.2593493814027,0
946.0,2.627988,268.9495826830802,242.89760146571584,-374.4968321773002,15.98706507687595,-451.3982625635037,53.39500769029397,0
951.0,2.641878,437.4037933314872,594.4103012798887,-313.4564871986317,-266.22131393633947,-200.00882102014003,-257.89129720723736,0
956.0,2.655768,-86.11665069726527,294.5391137038903,-355.0594991138207,-201.7528981400083,-377.6664601922197,-35.348357128572545,0
961.0,2.669658,-165.40341702750646,493.64162423124185,-62.64351615435028,93.58057116887512,-41.40447167712743,-120.8450869050526,0
966.0,2.683548,589.9624737900087,534.5713558072798,-91.55976558636246,-96.87565507006184,46.876817364758665,-41.29704105957937,0
971.0,2.697438,-272.95044340701367,528.0481925665473,-66.64736666860124,-81.8936647711887,-119.98963343192575,-262.4334582773206,0
976.0,2.711328,-176.06036992753104,346.85135458978067,-413.95783321469696,-186.4283225118604,16.41959111326517,-260.28135155190324,0
981.0,2.725218,159.97829802653743,400.4803280785676,-292.435814155764,-141.78917945251354,-471.0147575385584,-106.9921338182298,0
986.0,2.739108,-345.51005368142694,965.726665782112,-1398.485376221429,122.46876388697557,-220.09139469551903,-302.67278164550623,0
991.0,2.7529980000000003,-470.6299584390147,-225.1853861006109,1088.5660833167476,-310.4151845144993,-63.27930538041811,-320.2519628077429,0
996.0,2.766888,-208.06266324824287,417.3656986321115,-322.9944040871342,87.14605602304744,138.90856041494214,-494.6668575776733,0
1001.0,2.780778,-328.77253052536787,129.88719858695197,-677.0419788917877,26.09065283336369,153.61004386812905,-459.4642662485086,0
1006.0,2.794668,-328.60996091132483,226.5987406515932,-439.6652544461369,-768.8114179452461,-799.7480042322843,-1171.1484399789442,0
1011.0,2.808558,-47.52634872255911,-154.41297869919146,13.24338068879588,33.31096434124798,510.91875189353766,-467.540108164651,0
1016.0,2.822448,-336.0686588977436,78.41817562157325,-196.08636038111112,-115.98630874258004,260.4470553733222,-348.3884077175825,0
1021.0,2.836338,-321.12772715954407,-2.297415300464173,-483.8353923409161,-368.94004501936513,328.7456669244985,-528.0901950901241,0
1026.0,2.850228,-113.22899557569066,-250.274401793078,-150.09043176805056,-52.77143580007603,350.2497370337762,-418.4821012022947,0
1031.0,2.864118,-10.72265295466584,274.6922961399013,-443.0203062336038,-457.610710562613,119.4630807658746,-330.0452354553925,0
1036.0,2.878008,-265.7961375578218,-713.1775290683117,281.19637342001863,-320.8566146545482,90.84978024320596,-430.65589964882247,0
1041.0,2.8918980000000003,-165.02156324102458,53.02973065558139,-418.2136038445112,-161.55626183267893,378.8938498653532,-320.9244423347806,0
1046.0,2.9057880000000003,-92.2753265802913,-198.0253414609269,-150.81984330747588,-105.09433204293587,303.35370353258304,-102.69763588323109,0
1051.0,2.919678,-680.2084859562315,-364.8121847743112,276.15054645616453,157.56776515483193,238.8076168166236,171.76343262713817,0
1056.0,2.933568,168.72207705458143,-324.76999057864583,-387.13059061607584,26.153608208430228,206.1987044487118,-173.3531458910376,0
1061.0,2.947458,-80.4938728005126,-327.42481854694745,-91.89464587666,-154.09966457160976,-298.007567974788,117.97860008631568,0
1066.0,2.961348,-138.6373773211205,-629.4155830349946,250.60434000377083,27.09901581021331,127.54799684616714,25.83571784132468,0
1071.0,2.975238,-203.6597659872513,-630.1848851604113,-195.47534155948813,121.10037910778176,-1.9026059815051888,99.45026996775889,0
1076.0,2.989128,-159.58546807770367,-708.3335461607005,115.64954171419652,14.36553320906539,-99.80447372057924,294.61021688628955,0
1081.0,3.003018,-80.82167805914554,23.599220938831976,-786.5146460810707,244.9104746562647,-24.526125771121187,284.66869963748866,0
1086.0,3.016908,-182.32330561097285,-1130.8668164247724,123.69068514546888,215.99305362047528,-204.43314930031,314.3144822441181,0
1091.0,3.030798,-306.260564828208,-735.0302454960777,-83.46864132665668,187.5337255227899,-112.9258155853262,260.23887310483576,0
1096.0,3.0446880000000003,-96.11026330839124,-678.9749072751854,69.03637129134252,451.07061789805687,-11.973976348263598,536.9565746077031,0
1101.0,3.058578,-163.17989584513856,-760.5655746811863,67.07944199067198,310.283412318102,23.88546969021641,389.3554110150167,0
1106.0,3.072468,-334.36864434926434,-902.4421620016738,-143.31673472745285,355.87100102256056,53.798835723918494,314.45775213197,0
1111.0,3.086358,-540.4457779426072,120.31762930331712,-301.39765304650655,460.8495849657359,138.8798126236249,343.1256960775305,0
1116.0,3.100248,753.6853242478894,-1200.8051841987865,1616.9473569949605,279.5068543924783,-15.9890067843497,263.6632626235431,0
1121.0,3.114138,-563.4897319080238,-586.9338786763167,-769.2627004405225,489.4458744692895,376.0549988822331,150.10381059008688,0
1126.0,3.128028,-144.8939348818753,-323.03036129785465,95.15153144628788,331.3489452482595,451.5858508154589,214.97756075274825,0
1131.0,3.141918,-184.18728369016884,-608.140610935195,229.5467073117241,425.6123560053396,234.00641951743177,-59.334065404666006,0
1136.0,3.155808,-90.78059336666728,-410.2823947514799,278.357741761816,191.0350536799273,295.6654514600868,16.858849683636574,0
1141.0,3.169698,-46.07662043393622,-425.8799284798747,316.954586336676,293.5076436979146,384.0706406219685,-78.49390845117661,0
1146.0,3.1835880000000003,-75.23063743086328,-345.3646621970089,304.2590323068256,231.2818301141584,263.2013720900406,18.116956313497504,0
1151.0,3.1974780000000003,8.979731014340004,-291.02299541500014,304.4328139961545,140.1190478136631,213.35893024316104,128.61779840885598,0
1156.0,3.211368,-36.2021471960416,-426.5207368263185,399.4150307483349,-53.474415271188334,498.64956001742905,82.0883613782516,0
1161.0,3.225258,120.62458822142992,-317.6497636334424,454.4573529936755,105.78864618364734,225.6832675513273,359.9295364499992,0
1166.0,3.239148,-393.982527124994,-278.4008127282503,113.69548131865712,91.97690251510043,330.764322926215,321.11548312717144,0
1171.0,3.253038,133.2584271925027,-112.65379952311235,397.32813424619417,102.42354419286517,534.4220237911704,251.56060171285336,0
1176.0,3.266928,0.6363008301553386,-24.421514360168224,351.39937546309943,199.09333467349143,458.21961503939633,388.3681490688194,0
1181.0,3.280818,-258.12464618599085,-249.15184463928483,601.514335364508,377.1418707402324,108.76260293722132,464.413290788088,0
1186.0,3.294708,-82.49893199610648,173.445701750914,319.2516504002176,-746.97405154165,-66.20154416388296,6.458646156340478,0
1191.0,3.308598,-11.84724145390144,231.9203363380583,164.5692082968216,203.408501492371,742.3703030329904,218.13962474874424,0
1196.0,3.322488,-282.28296953828254,147.1274994826907,550.5014380177404,72.45989087682463,651.594161217876,253.19901620095163,0
1201.0,3.3363780000000003,-117.76190970909283,342.186784519212,396.8319352899097,-31.252485465950727,-31.734029078347405,429.8365121101782,0
1206.0,3.350268,-327.6157188626316,376.40993731617937,299.7905434044153,-1188.5039782880765,-90.80243656885604,-595.5996708938455,0
1211.0,3.364158,-84.01322259790288,164.0094814660912,249.6693532616281,922.6180879943348,-102.20510674539688,899.1613656503707,0
1216.0,3.378048,-265.14407267795707,225.8080569203872,491.9638832730229,-42.28437127467879,286.60372577831623,187.5799574635388,0
1221.0,3.391938,288.36065675036525,413.99462552786144,-45.44484192810791,-28.99652990770633,-97.6986555590063,288.753712388844,0
1226.0,3.405828,-21.960485424438048,342.92442983278323,0.2467260077691069,-114.88103742030518,-198.043784413088,-10.06144469893033,0
1231.0,3.419718,-29.16467031238023,156.18079412546513,248.87574977703275,-159.02115026044524,-163.57563416320716,77.52962373801432,0
1236.0,3.433608,357.5349167561259,48.13821517954122,-181.75780453547983,-154.31316901395536,-541.8357035905626,66.48963439617445,0
1241.0,3.447498,84.06306374338385,-63.61580843565118,47.96072963711731,-3.7445818505409023,-424.781008769845,208.4424550883517,0
1246.0,3.461388,133.44092325805434,-153.73483146145853,26.45667228860657,-194.6585051262388,-568.2914928871371,45.0796668925358,0
1251.0,3.4752780000000003,236.7281842091336,-190.4495941820383,99.75928227755732,31.54235040218072,-832.1005121457476,304.6486759180604,0
1256.0,3.4891680000000003,231.1621098274767,-240.08398769063132,-85.08170478305962,-317.63758587967914,-798.2384246320594,196.13918927355155,0
1261.0,3.503058,415.2306223221475,-276.4077481223581,-253.339761877591,54.71011552449762,-903.2959548543828,319.38587375223284,0
1266.0,3.516948,-44.68554785426348,-389.55584160073016,-21.741755566259137,-159.80883311253697,-1012.001406972094,291.9050652760544,0
1271.0,3.530838,82.64248665507203,-277.1948998299368,-204.8889618538555,86.22839273503028,-1123.8084234929,244.8016788842133,0
1276.0,3.544728,102.56322346827282,-226.36637881596795,-247.15116384688656,-163.48326014434403,-1048.1703204971736,197.8390636256308,0
1281.0,3.558618,37.23531612956414,-72.31246815540125,-303.84309882492886,-182.4282417513868,-1121.9263875044626,41.21723311845075,0
1286.0,3.572508,15.785769777307827,-166.9782739902774,-164.28525115664533,-218.914070651947,-965.662168238238,91.34690627012388,0
1291.0,3.586398,-252.8009102818154,-55.10097037678325,-440.98804587243467,-126.17101802988672,-1027.5736172849292,55.27527442441316,0
1296.0,3.600288,42.96631691191446,8.589262078231018,-467.2005367677456,-321.55595600867935,-927.464760841603,-47.05083483816678,0
1301.0,3.614178,-777.0081297349225,80.85681477576321,-184.83331957145987,-458.8661778556997,-731.1147260621076,-20.254289263046488,0
1306.0,3.628068,323.242104046326,405.7548811672981,-794.9627878406802,-517.9328394291322,-634.2715417499346,-136.1462057940709,0
1311.0,3.641958,-399.16651887815806,384.606210451509,-802.1346315296738,39.629717939480216,-699.3159316148866,599.6026774193608,0
1316.0,3.655848,-358.43679588291764,245.0408957872376,-699.6511823643806,-440.4368525817472,-505.2902552409299,-13.149248810424575,0
1321.0,3.669738,-86.77258332912433,908.7932219434026,-709.5345770133434,-437.22670175301664,-199.11163985546472,48.43158265660759,0
1326.0,3.683628,133.56231598571188,759.5221802030727,-622.2679768709775,-681.2157435318973,-25.930955188365058,102.78228862111608,0
1331.0,3.697518,-85.10316528960286,709.2537126034686,-205.02364522147235,-335.4533791078994,-73.59199594290997,281.09687809270804,0
1336.0,3.711408,22.724301101469777,419.9997394648965,-387.0109105745332,-816.7877567358838,86.45134861876308,170.98576453649645,0
1341.0,3.725298,-155.7881505944467,707.056071433833,108.24540420493668,-374.53763561633184,182.8737947087469,448.25547162204725,0
1346.0,3.739188,24.027811115621112,363.9707332045809,-169.67521542959386,-498.6774388941209,226.2101494587883,300.9192709030596,0
1351.0,3.753078,-154.66740072436966,429.1259248455832,-73.09888366457315,-537.3832945990655,546.794797306189,244.69167822699703,0
1356.0,3.766968,8.80642952539106,499.53098074425,-161.4341121989225,-381.7451703610456,372.8875223893027,432.2247676427676,0
1361.0,3.780858,-82.11766371758756,532.4032871927258,-119.80792501254246,-578.432383427475,740.0119897925791,126.71741724762678,0
1366.0,3.794748,-129.7892226293189,265.17762040068675,21.148912060943672,-393.8913965337206,503.5760125002205,423.6879670632977,0
1371.0,3.808638,-43.43669949077388,445.7192448182913,-162.8404189273465,-83.49469181414625,896.7719896708826,382.3380993749398,0
1376.0,3.822528,114.25316084852784,244.1958592260774,-166.35364632563682,-142.72988162117406,705.0171720452167,94.0671048944704,0
1381.0,3.836418,-212.67798975651547,330.5992198343064,122.81087109774354,14.53300486629474,807.9630423080644,175.03603704683138,0
1386.0,3.850308,404.2302724381242,118.90269592765746,63.12629996865876,120.30609598559948,740.3344874320428,-68.90313976711873,0
1391.0,3.864198,25.68560091802213,27.157781506975137,227.24043913046603,-200.9012647544979,663.6083883523064,-4.870333868254164,0
1396.0,3.878088,45.92359633695749,-76.08362408811547,210.6557841185813,407.5219487030593,572.4816953988992,-193.4433180605401,0
1401.0,3.891978,27.737015294928582,61.05872007962176,312.47288743842364,170.11188506657697,597.0858875763333,-254.23438655572585,0
1406.0,3.905868,172.26116919300847,-190.00239931034315,540.5971154582328,289.9741624262756,737.1253888150632,-497.79803709010406,0
1411.0,3.919758,366.0925882119452,-164.02729778904865,1134.4160194586088,422.2434839240833,563.9704945680556,-443.18548461952696,0
1416.0,3.933648,719.4660453005895,-207.375882041998,1244.3805096999977,381.03980246708807,503.2463514085981,-590.3857796902614,0
1421.0,3.947538,357.3672312041872,89.3163560111258,1150.7941208695115,513.1707766065635,541.7837567168664,-577.3749908481602,0
1426.0,3.961428,552.1623559515878,-94.87936071186562,693.9592180465909,615.4910401516067,517.5276550929425,-610.2955608495894,0
1431.0,3.975318,177.7868657703945,-87.89080036266054,381.9518306041632,423.57084020459575,52.821344373956826,-766.4324201223329,0
1436.0,3.989208,-79.0660737056968,-103.65125166254636,48.083240616365806,615.6212006610125,108.8098042808547,-627.4124316928609,0
1441.0,4.0030980000000005,-145.1242462724294,-220.7583124585204,166.2947959654482,369.4311240075608,50.98297369322007,-104.02508243288106,0
1446.0,4.016988,-185.8289476173493,-104.28863363880582,-124.87280089729816,419.5753334970864,85.83735265910249,-1039.6933014615815,0
1451.0,4.030878,-340.70526108858417,-22.495592049308435,41.822441418606005,452.704380057882,113.3710001292379,-759.5601378321873,0
1456.0,4.044768,-344.2720668311201,-187.03530373203685,-43.05387642048331,353.54409028540294,-138.54961309428683,-752.8891907608454,0
1461.0,4.058658,-3.6534305722415454,-79.26113124457672,-45.529755590889664,246.1883780580344,85.27264743177129,-675.6248219483527,0
1466.0,4.072548,-321.6491680066211,-89.46893105055287,102.96776916139372,247.07114423013184,-148.7220350626962,-652.2938030263477,0
1471.0,4.086438,-146.4019957618612,-124.06207785949256,82.8078225525018,201.5193358571804,-208.069518560289,-514.1900363034636,0
1476.0,4.100328,-27.47804324312236,-158.9519500202117,74.27557540743999,256.9364933975169,-169.51393834574355,-560.2042597696862,0
1481.0,4.114218,50.37921116648886,-48.23809975663852,21.50895993002233,77.48516155345959,-70.51821038064938,-473.87650692067865,0
1486.0,4.128108,-312.4940176853882,-236.95912198698613,77.3140306064433,286.54670744663275,-137.11653361751732,-401.6412486756869,0
1491.0,4.141998,-642.3045182623697,-61.30391931268208,212.64596654229305,407.3634443592505,-272.72051671581755,-290.7397164214407,0
1496.0,4.155888,497.9534231386815,-138.56066046017253,-280.6640641526984,-5.3289199436921,19.47113785966945,-317.84977836353056,0
1501.0,4.169778,110.67859666453184,-341.4653148438248,106.2030900850554,470.1216635695965,-59.30334951473992,-399.715540756652,0
1506.0,4.183668,-224.7703852873169,-323.0634894617661,119.17395323632437,228.5247624294696,-358.796613524628,-248.1877204774359,0
1511.0,4.197558,-178.38405988243687,324.01679344014985,-121.54310067189594,232.08679985211225,527.1769027886558,-73.83420394457008,0
1516.0,4.211448,-177.59219671103364,30.429775712407825,73.87854713945846,109.57146201285325,194.3785988966318,-83.40276685267328,0
1521.0,4.225338,-39.12366254496818,0.5305436367274581,-39.403442320718455,271.33260146866223,284.596308210635,-84.51321138919758,0
1526.0,4.239228,-191.4972952797129,109.19054899248876,-87.19648808936601,120.6234840781743,275.46647832598194,-26.39586809973521,0
1531.0,4.253118,24.783202929054823,299.8700829271213,-156.06004920685115,150.40575556607428,396.7977077724699,-11.643336403920344,0
1536.0,4.267008000000001,-30.74152425953442,368.0352696060819,-111.83905123011378,-15.744687394701582,513.0878619775712,31.64868155383266,0
1541.0,4.2808980000000005,7.785576067536027,-28.80502028772159,-77.40073420105378,58.43238543681967,165.3782680746205,128.02737793262693,0
1546.0,4.2947880000000005,515.5227318610678,222.49258303091216,-315.2594852149515,-49.05940216178568,422.86794256697056,153.34533910153,0
1551.0,4.3086780000000005,-38.6048190290834,63.620064196538685,-179.60844329740445,33.95687096950246,235.9625493740616,142.74572077636125,0
1556.0,4.322568,145.7830601221763,224.2722268628408,-326.65807603013616,-134.68129346138122,261.9655264395865,218.4426620771089,0
1561.0,4.336458,125.8959504929069,17.54938931400862,-155.3403754530892,-105.1398031428235,135.86239318641003,184.1249468564315,0
1566.0,4.350348,-11.950560702774377,97.42482733839655,-307.3586697336475,-184.17489836786183,174.19149257572113,266.9158991724688,0
1571.0,4.364238,271.0053824555202,19.795567532756227,-215.6226485538781,-157.99195378920638,95.98688669545608,285.46129718972446,0
1576.0,4.378128,-10.736131326997343,-82.63263999650027,-208.64351146181195,-187.7856754116956,-93.20800284685303,277.39949150266244,0
1581.0,4.392018,-46.59384675478682,19.49312152022853,-247.2371197735527,-202.26782478342983,30.377011503057176,278.0060710585961,0
1586.0,4.405908,75.10764249819441,118.00680959669164,-203.0000494005863,-232.1673788058837,34.00723134423079,246.8249305653951,0
1591.0,4.419798,58.286003339361486,20.929594306849047,-202.1373983145357,-206.6481028885836,-54.04774318084198,286.16361059883667,0
1596.0,4.433688,25.09843568909648,8.181133627333935,-185.6746688669936,-196.7778226760658,-185.0921350975524,350.81006225377564,0
1601.0,4.447578,33.50805360210602,-12.150100751951785,-146.2759661696084,-230.9353844868217,-175.7794451470421,278.9598690884107,0
1606.0,4.461468,61.478327632796045,60.67391108813682,-208.9081147531741,-193.38614692437864,-184.8590133392292,328.6630818862848,0
1611.0,4.475358,-17.474815072221567,-32.65758102985018,-60.76247903798196,-229.7986669059778,-258.2258468301287,272.7616224731429,0
1616.0,4.489248,-183.2444250758478,-19.62758645794636,-130.46957025690443,-259.75921670715803,-364.7235526167619,333.5341426411582,0
1621.0,4.503138,200.95331231559567,8.239930994391415,-97.62285141094394,-272.295126744656,-236.3390540859627,198.1233672903333,0
1626.0,4.517028,-130.14580933363948,2.619773200442273,-66.66590933439804,-152.9617842959665,-431.3765103216041,325.2044653687972,0
1631.0,4.530918,-59.20234394748,13.497410112263845,-50.17314633959505,-210.50001092498616,-320.23860980024625,236.23894482455333,0
1636.0,4.544808,-127.9992441374576,-9.230605044541264,36.91556735624607,-213.42158539290065,-423.5343605008994,305.4404945702601,0
1641.0,4.558698000000001,-32.03192739113965,-13.20974313456891,11.20237539358214,-235.23713931578388,-308.61558935064926,149.78766466566293,0
1646.0,4.5725880000000005,-168.52989298411055,8.112213446937645,50.91227309137224,-350.95308067966494,-278.0581965286948,204.3785116256905,0
1651.0,4.5864780000000005,-173.56082495182022,-50.49186281212509,41.26950744735285,-154.469373909904,-338.25619648473287,164.53131606635506,0
1656.0,4.6003680000000005,-120.39201718842122,63.50504817599846,38.33678584961145,-306.514430197422,-252.2031895528391,190.43476763801945,0
1661.0,4.614258,-200.0989460376129,-12.031258226360464,167.9388355364294,-235.21253561106144,-230.49185870103707,198.9597583050929,0
1666.0,4.628148,-247.10259384351212,-120.50828025989485,72.86548237870424,-68.14233138947283,-244.04338420260788,128.8920043649124,0
1671.0,4.642038,-143.83224623943252,50.23107521768943,192.7611162946118,-419.8643582326316,-297.2249838798317,125.27013146087997,0
1676.0,4.655928,-194.2516744463218,-70.70478887842542,226.7191784418284,-23.39038275592113,-42.14428476629793,103.25243495376716,0
1681.0,4.669818,-222.32147753150048,38.73419667153711,132.8218040779085,-367.5044245077478,-122.77244370486208,135.69923069017582,0
1686.0,4.683708,-2.066326846003477,-49.57966797699545,86.92315967794528,-179.2962378630446,-142.46399944122015,124.25667835437918,0
1691.0,4.697598,-259.0544520905965,-131.54041225978438,154.5401127130203,-192.7250250630411,-9.327001163662704,99.84843226888344,0
1696.0,4.711488,-217.7169539819968,-59.65805677463057,397.6713815104214,-262.00701070686057,6.871029491137601,48.744479578192845,0
1701.0,4.725378,-101.05523126155563,-89.76529880434694,215.28415822431208,-231.1469685010105,-41.48377477355855,117.48211849580356,0
1706.0,4.739268,-204.7226743820057,-34.79364056283057,105.421674097924,-53.41671468587181,69.83911351795152,114.70915464340632,0
1711.0,4.753158,-222.5593479964325,-57.56562684346021,236.4851441194357,-183.5962169869604,158.05335009751002,50.20759991654283,0
1716.0,4.767048,-97.86309577215036,-116.46368613995574,288.9772959764355,-190.40505538400868,-8.619616869551189,110.3794857074901,0
1721.0,4.780938,0.5492243865198105,-155.11298394610145,129.35272219586074,-111.51756459486636,86.74032480191366,9.812064054971955,0
1726.0,4.794828,-210.5598252532655,32.07223071324937,323.79590495516265,-141.48333910198653,188.07416518045608,36.58822649414218,0
1731.0,4.808718,84.37815786124064,-143.12031140724687,200.51754158896028,51.05554799162596,100.80067241888776,7.593328232992345,0
1736.0,4.822608,172.1527782074102,121.75849137247236,352.5157953838209,-149.0340030261713,242.50258035553628,-26.412598122740064,0
1741.0,4.836498,202.5596552263707,11.909489399671646,276.8326211657144,5.386394242882417,92.8573557484527,27.618296299032703,0
1746.0,4.850388000000001,148.56862706093156,72.27325292552342,255.31917343693613,46.63431760542243,215.4694232285044,-58.061768332682256,0
1751.0,4.8642780000000005,331.70964084530885,-188.5668641599231,224.7391651084516,193.82320900250585,127.05551085717484,-129.0814113940851,0
1756.0,4.8781680000000005,-58.85066441604485,267.4804726232484,190.95583418047863,-132.606295585041,227.39638982384184,-176.9496686118771,0
1761.0,4.8920580000000005,4.066906037998351,2.1790800064007776,207.32786555129152,-134.19873742034784,68.2401998771508,67.69212839077582,0
1766.0,4.905948,-293.41982533271226,-95.06856427241148,524.2758504406961,256.9249919874724,120.44444708910504,-124.5535673359737,0
1771.0,4.919838,229.5922423128487,-172.1591965198474,-154.77524070498518,145.7804985600912,112.44662473940733,-47.292131994449655,0
1776.0,4.933728,54.77914027687496,-133.78851573562525,91.80205804516144,32.15069157560515,84.11662093343435,-122.38420855832724,0
1781.0,4.947618,-31.953269701407628,-113.95432927379576,123.68778086672415,10.52554478757645,136.8852242769278,-188.80999145805987,0
1786.0,4.961508,-313.41726777255195,-46.57840758403291,151.28504197775828,196.95968149023648,34.358635883220444,-93.50275703992322,0
1791.0,4.975398,-330.06458365135734,-128.5664923274591,197.3547314662348,204.25824321749832,-1.899077289588528,-176.62508049705053,0
1796.0,4.989288,128.37604212908835,-33.33399927196852,-7.727401017927463,90.64092721499313,4.20652491407219,-135.6783161337612,0
1801.0,5.003178,-150.59281193943488,14.502064637780467,88.59178826533983,11.609733161585204,35.55400996739934,-168.4905712723488,0
1806.0,5.017068,-148.10586227273143,-22.86377475212213,-26.823122432705272,221.7797582092736,2.1051726961815103,-330.8493485278699,0
1811.0,5.030958,-33.88981218081,62.32496343819033,-47.74027194876258,52.8203391691706,85.40673142335693,-258.4069353847704,0
1816.0,5.044848,-144.338137460342,25.10418035822066,55.24284212448812,37.799844337514834,-83.86222713423338,15.150731111397969,0
1821.0,5.058738,-145.4115447163183,382.6658825626415,-19.28725722487652,230.9948261492341,210.9918673038352,-251.10112384672271,0
1826.0,5.072628,-18.263788130589965,-356.1967825382349,-89.85581803374313,158.6400284914153,-261.18628975567424,47.19786023412609,0
1831.0,5.086518,98.47864272764062,212.4882854028828,-24.011467848384576,119.44004342392437,149.51652687299637,-101.38088785376291,0
1836.0,5.100408,-96.592607776393,-63.80938179838717,-58.7333573431977,105.4646926094232,34.7333944758258,-174.1053773677408,0
1841.0,5.114298,128.80512507114577,216.85834746508127,-96.86675228289074,99.56907573913104,98.61671829141764,92.18583300163944,0
1846.0,5.128188,-5.053181773904033,67.04106839627912,-179.82341481503,110.45010493715152,-27.3894433520938,-40.17229035734287,0
1851.0,5.142078000000001,165.91213441159567,43.75469772122632,-158.96318271017108,130.51880708753194,29.08380269435112,19.74593773166817,0
1856.0,5.1559680000000006,202.87566382277555,174.066551462943,-173.3143138766895,69.89446850599288,121.42596548382728,-54.65352348164004,0
1861.0,5.1698580000000005,-15.951646246532988,36.45008616707577,-151.9719685305974,69.98980605495245,29.937480547066738,17.834808031528507,0
1866.0,5.1837480000000005,154.62355450257516,54.63619280928173,-157.3793228638051,24.811832595379794,12.495125272340625,18.8609748497344,0
1871.0,5.197638,180.84930925957303,28.696369669108183,-200.8406022640307,56.33758637141831,43.9086111858179,74.61112109207433,0
1876.0,5.211528,66.30956826536845,7.12413417551865,-110.01321304367484,64.23699024317997,-28.00715498804356,-13.042187750252586,0
1881.0,5.225418,276.45031649927705,41.93763911390632,-187.7156005660988,49.32202506056623,90.3781329654951,99.91101204701394,0
1886.0,5.239308,230.66857978472927,14.227516327050818,-227.33244289702105,-119.8102303039138,107.74337833324824,42.94957972520877,0
1891.0,5.253198,201.33880446734665,29.880079476478723,-177.67483235265937,63.616951797311785,29.94656908287885,68.8792080234482,0
1896.0,5.267088,90.86608027524244,-7.020233051579472,-109.2375103703009,24.50079467632343,1.0736778776951257,93.27648897545193,0
1901.0,5.280978,240.30375443863647,-47.8704273126361,-240.89115417985127,-16.43325946552368,36.56222048850975,69.67057988071853,0
1906.0,5.294868,168.75834243670909,-6.255023634028024,-193.2212753310527,-47.95111711595597,46.22548996723658,51.75220767879432,0
1911.0,5.308758,287.0506036936135,-26.96078823884289,-167.63056615601073,-49.84865275732463,74.13951966282747,37.21242742387331,0
1916.0,5.322648,100.39265808221172,-35.99433060500424,-141.41830464913517,-8.5641410007994,-96.4217378887778,118.44045957844484,0
1921.0,5.336538,133.5969901059737,-42.38657892223138,-78.49921784877205,-23.810617148883388,91.41612505842323,59.319357983697245,0
1926.0,5.350428,178.26054406317297,-35.37700581523902,-259.4629713343094,-44.30652149388512,-53.38482491615275,53.86375603043141,0
1931.0,5.364318,196.45387421468288,62.87745956443307,-61.28853098021496,-33.55193056737038,118.44588794931,-57.10046116905743,0
1936.0,5.378208,135.80998499091478,-36.99585854448256,-152.6972686132612,-36.05945658039029,-97.59832149994632,107.96115529448424,0
1941.0,5.392098,-28.08547465012873,-38.32792176698399,-169.608681360267,-164.75856901707638,125.49810987968652,2.904684529146824,0
1946.0,5.405988,247.9081859660953,-58.43385360084088,-110.21860936192324,-9.361665026647394,70.1673576111481,-77.48332147348671,0
1951.0,5.419878,42.194525700382805,-26.35514832262019,-136.06209185016417,-198.67899495528343,-56.04491099272308,79.97545332300493,0
1956.0,5.433768000000001,214.0469574791855,39.20536856962483,-28.899586543788256,-46.28712262806453,47.09358436376868,-9.500243336834192,0
1961.0,5.4476580000000006,-62.79078521311776,83.9938120070208,-189.23237998203965,-171.13323642710546,246.6296751407945,-58.29065827423992,0
1966.0,5.4615480000000005,-144.91883103527658,-206.16008480948508,35.84243748307599,-236.6513152556941,-155.56388260261718,-42.97866313295494,0
1971.0,5.4754380000000005,206.98902854036783,180.0621198673121,-136.26057970827625,5.72473000313143,78.50393922285517,54.22366568868482,0
1976.0,5.489328,58.07061315003459,-67.15964163015916,0.3034781063895373,-339.2022153400784,66.8403356813522,-8.969574276183145,0
1981.0,5.503218,-1.2529540813202793,67.7965061240342,-79.44933954417625,-84.30789558690493,27.21903492817829,-0.7095995659130061,0
1986.0,5.517108,76.78723980370421,129.99130149162556,-73.46027100198376,-155.1606116699229,104.12088472406478,60.07281273486076,0
1991.0,5.530998,-48.17934151708065,85.325819326725,35.340752294239664,-297.4927018467954,98.39963594920464,-57.92426956792639,0
1996.0,5.544888,-48.06567886582336,-40.51635466634845,-35.12094181475186,-196.99086083085052,-21.11384019456081,62.93234516773072,0
2001.0,5.558778,52.520242188698745,46.15953512672155,28.615932111892867,-186.1451118759645,9.744317413372968,115.10888678896728,0
2006.0,5.572668,-53.369208692393975,66.1854517237067,92.26842559803153,-271.39103268119754,56.29470242733568,6.8887401300082045,0
2011.0,5.586558,-32.74906591891542,35.632980542808795,-24.035103106232768,-175.07933373650212,-5.314356879615424,125.5396595141097,0
2016.0,5.600448,11.366569634456717,-11.92098159382888,64.38953922165427,-199.21537993253105,-51.55114015379421,71.05540653487645,0
2021.0,5.614338,-11.525692322890029,-23.63912379735396,-74.12074058168862,-173.68178007348538,-73.06669946003508,15.550820262631529,0
2026.0,5.628228,-114.10089223772547,19.090302786319235,148.39584075226847,-148.30743445141084,-62.84013276672027,81.30357017416075,0
2031.0,5.642118,-38.08430422357758,31.04868609090056,14.956436548720395,-150.70807051935532,-66.29601507811432,70.8001631242956,0
2036.0,5.656008,14.535525351198416,11.49802725062584,-31.71653316325598,-60.21948848195868,-298.01509510919027,9.596197443207544,0
2041.0,5.669898,-78.97234797579772,-26.27925185978332,43.319617081860905,-150.30671801602938,-213.21463807237024,-2.689341023198395,0
2046.0,5.683788,-73.63028016212773,63.734062858644535,16.38365344411628,-274.4403817809001,31.91581441913356,8.720219229609857,0
2051.0,5.697678,-58.08004129248111,-34.32998490540747,-18.89988750350342,-4.599158545491278,-462.7925073620792,33.87481869110014,0
2056.0,5.711568,-97.00236697376955,-174.13525827492293,102.18233495556493,-94.5808552655472,-303.06208455466174,14.077183077959576,0
2061.0,5.725458000000001,94.83598698342186,221.65607507224155,-159.88897059606327,-128.39124740198284,-88.70402721632173,-32.283470585490605,0
2066.0,5.739348000000001,-246.91121574051343,-162.3613168401894,-63.02510768852704,-14.080425035213269,-392.8507087052549,28.323545239878328,0
2071.0,5.7532380000000005,-105.11177332057552,260.7885431727853,234.42303559634257,-102.07497699440654,-27.79606068716421,-59.73520261745091,0
2076.0,5.7671280000000005,27.220345134682155,-52.562213816727166,-178.11784249850183,-38.52586289644558,-279.5342249099794,138.70845349962428,0
2081.0,5.781018,-197.0387578330986,0.7223533837016198,-121.61563094086418,44.55625098329489,-240.402648498313,104.31421850028464,0
2086.0,5.794908,-43.58719244828185,105.65263597352148,-19.57569621554768,-81.16360306698905,-60.13586941093615,41.23134334422374,0
2091.0,5.808798,-179.7921227774027,-54.12685623518091,-127.78847092649082,-17.39204715884308,-195.7260270415353,68.8683505319112,0
2096.0,5.822688,-134.00253125772582,81.98233709719068,71.92670905153719,25.39904049085385,-82.24306889027184,91.68595060517238,0
2101.0,5.836578,-4.354262650101219,21.04393500200657,-185.04081839527709,39.52334908885766,-56.473688601231245,127.19963057842004,0
2106.0,5.850468,-135.45387173390557,-25.60990462934852,-19.83754272414529,68.46083369307198,-143.83768662695155,112.62730708504046,0
2111.0,5.864358,-175.6223674338184,21.6911601342864,-65.23591084001222,94.34434095002358,25.31629873999077,158.20193937516387,0
2116.0,5.878248,-122.96867644232958,-37.07790340868113,-111.11304536786685,29.285624842153865,19.31531456134872,65.93199939673184,0
2121.0,5.892138,-90.54597676627712,6.812893283203923,-107.94176875692712,48.26014760028406,-14.60659011364078,127.18793088373116,0
2126.0,5.906028,-133.661598576036,-123.01002664202082,-101.62970925040662,161.55852395794594,-32.737206977106275,13.206057125582683,0
2131.0,5.919918,-102.28946364205436,56.80738273763776,-74.60010598763466,201.69157249118257,-74.74282313319155,171.972017741451,0
2136.0,5.933808,-167.08472054431977,-75.07757019981659,-128.94309865327608,70.74120471860385,128.6589898497627,-33.94984306293257,0
2141.0,5.947698,-136.16979764718585,-142.19677718047348,-99.4272759428422,95.48452552900332,-62.27165587052499,19.88217004369364,0
2146.0,5.961588,-55.67713352529675,-8.46420134482534,-123.20725607064703,204.50412860276856,108.39419129521838,25.3752392543579,0
2151.0,5.975478,-246.2063715272547,-106.67663020915516,-171.05157048058388,166.41351012002988,-1.6657777785685397,-142.11845410113526,0
2156.0,5.989368,11.087548192966343,-98.14094773013387,-139.54001256814635,155.33999507616736,-25.29229681873724,-45.3623642528252,0
2161.0,6.003258,-120.81885926649048,58.4950547481292,-60.23283370093365,96.0646180181943,140.24323622442623,-69.43781336387889,0
2166.0,6.017148000000001,-309.43763536845665,-229.04902642170856,-231.970590276966,171.49035031588144,-33.14960173460301,-141.84205362775702,0
2171.0,6.031038000000001,90.1820443109917,68.2368543754107,-172.87221992983478,159.59526886978534,26.65772957191924,-84.47408735087436,0
2176.0,6.0449280000000005,-228.79207643251448,-34.86433421056292,-158.07358262425572,71.21196438860574,225.1636412879644,-252.9121051233087,0
2181.0,6.0588180000000005,-171.7979936626889,18.38813712422084,-231.3454533525083,165.4507916447114,46.942843268888005,-152.02706884073166,0
2186.0,6.072708,-201.72998317878256,-340.16080322484714,-199.07896417212925,138.41441577379751,-66.38136716309783,-3.040447127221995,0
2191.0,6.086598,-85.6922639220435,203.65203848352613,-142.69550881436174,2.182221814701151,261.3450249706452,-253.3761633157065,0
2196.0,6.100488,-384.2344809197845,-176.67507950589209,-159.89148777928892,38.826957156474144,46.28218925612043,-199.121758872307,0
2201.0,6.114378,-86.3333324400828,73.6547810200556,-326.79544675763896,59.03636369382394,195.69629966784737,-297.9018646428884,0
2206.0,6.128268,-509.5173901474209,-29.824558679448817,-240.1779024387948,-30.123729139064444,228.1522756866405,-257.49389526245494,0
2211.0,6.142158,268.7273816182791,313.8650093765449,-249.08342662228705,121.91662930169883,257.7684200188336,-407.424000697678,0
2216.0,6.156048,-610.4393011275172,-96.49284215997326,-264.3443980964848,-70.40744849525014,60.488489980332005,1.5343912529613697,0
2221.0,6.169938,251.85915159536955,141.3977370076721,-271.1583733098329,-159.38971358159543,289.8832316093734,-484.9640908371727,0
2226.0,6.183828,-443.5794847738882,-151.2921444193801,-227.9449554949572,-2.1406136372449964,5.326682527842161,-157.55167753723214,0
2231.0,6.197718,253.66124062440235,132.5065569981668,-288.95818761096945,-75.42457574233565,183.662785278242,-269.1368043177432,0
2236.0,6.211608,-308.3192320729006,-129.2220104081043,-313.4656269930013,-31.44795515753136,-10.856452752437534,-128.43881415958913,0
2241.0,6.225498,85.81342250068425,-9.464127367859724,-211.54025077395545,-42.36371872826157,-13.893304117635864,-200.61296122122724,0
2246.0,6.239388,-154.3847219559965,128.15874774819528,-269.8801212332063,-114.71349015157776,107.04878020338418,-152.6805943083369,0
2251.0,6.253278,-29.75637136377276,34.7521725603829,-209.1253747086646,-60.03333927199704,-22.37214977969868,-187.1957155978133,0
2256.0,6.267168,-93.34811476191736,-22.69522471173264,-196.47934156490936,-28.66425516236465,73.55672764179822,-174.04168880646856,0
2261.0,6.281058,-177.73099742380117,141.50271649968624,-170.226869573624,-120.01592542992742,84.90530403413138,-83.98490273463204,0
2266.0,6.294948,-24.98004635977496,176.1862049956945,-235.596588841154,-57.81486434575639,-72.28146795655513,-178.177126835372,0
2271.0,6.308838000000001,-101.91140531247147,121.97138155205673,-90.250160703105,13.150533579607618,162.71042585896376,-168.1703262222752,0
2276.0,6.322728000000001,-21.34441968040145,326.56168553082534,-14.568173285789245,-92.52431123636232,148.02605405323192,-69.12327768963901,0
2281.0,6.3366180000000005,-86.32999522453767,80.97887173256908,-246.7306473184619,82.34942729207451,43.96994736608119,-172.66163115832256,0
2286.0,6.3505080000000005,44.79177165062907,308.92014864862705,-112.65929792078256,-36.88020400229394,81.58669744422734,-79.74698606297264,0
2291.0,6.364398,82.80618456987413,-208.45927179231987,146.43501122632898,20.09709520042812,-172.59410859563252,-44.49654153621499,0
2296.0,6.378288,353.423230539318,186.84786221096692,178.9633161003116,-11.555692518536915,91.49445849486688,-129.33523559679497,0
2301.0,6.392178,385.4467026170132,108.22567691777252,-4.979081402085413,8.747264479451244,13.252947217995072,17.415408503744636,0
2306.0,6.406068,556.73213231227,-96.13520654397482,614.5121579363328,-16.743492136874664,-60.644354927998045,-107.16102875616464,0
2311.0,6.419958,150.92187531058354,139.59399698828742,-272.2367163977513,62.61803923665445,-8.871472716678944,-192.65620938070367,0
2316.0,6.433848,88.2214585161907,11.401511990781607,197.96263743619937,-97.52723983699018,13.621204984498911,28.67471283523841,0
2321.0,6.447738,-66.12415656370845,105.3985655578147,68.34179766570337,50.33028506220831,72.26539828025201,-90.1193519440971,0
2326.0,6.461628,-141.9220367112221,37.62248175934312,82.52414024544383,-10.202457835267476,-32.26559750524143,-43.40834345032053,0
2331.0,6.475518,25.42107407292653,98.80177289269866,185.5115144312964,73.28914901997052,40.76196198266331,-77.55284220663741,0
2336.0,6.489408,-195.05715383456536,106.35659726883696,-70.69291316446969,86.48559416372998,-55.92332042938409,30.540248021318483,0
2341.0,6.503298,104.73516907836309,26.32740331642764,333.1703026469404,29.606325709079005,95.48764396648878,29.469445921965573,0
2346.0,6.517188,-75.70357701648372,10.46826977654694,52.87644706018705,41.79333676322042,-45.449658284897325,34.89295354662103,0
2351.0,6.531078,167.93938766797422,-67.89644393294041,207.55551079651207,95.36791974333036,30.754165848212697,38.972063990822136,0
2356.0,6.544968,24.32406468710112,-106.33721225133829,148.49142297854718,120.46499806147088,-65.8545120942851,57.53997614882801,0
2361.0,6.558858,-122.08453617273494,-55.922393785872266,86.40895005616755,90.20885779508448,-2.059636983504692,67.57991710480088,0
2366.0,6.572748,240.4685430238576,-154.2159620328773,266.92585505395425,162.56620710814602,56.04252451683902,68.75221380369626,0
2371.0,6.586638,-129.61454881923976,-251.4804128681141,70.04107917942223,51.54149341500671,-72.58240440915867,181.4803565505188,0
2376.0,6.600528000000001,73.33945487334628,-265.261936084508,224.77152957636324,193.20741563269533,-141.16719637020202,42.29603101422308,0
2381.0,6.614418000000001,197.70969855784296,-246.3693034807506,153.43745440924002,52.020012499034976,14.206866004319984,119.08821107772536,0
2386.0,6.6283080000000005,-22.482190975552225,-139.816885364852,117.95469863588156,136.8706626874794,-40.595872313952114,73.16311552847031,0
2391.0,6.6421980000000005,86.46046128358597,-310.7618395607849,182.2886821239824,191.0208439472188,-106.09732445671406,79.16379154833456,0
2396.0,6.656088,3.729125254673036,-91.03749552136036,211.28407124688772,35.08979040072268,-22.52963489657341,148.0055045682286,0
2401.0,6.669978,121.65822045615998,-370.7306688647428,212.7628451412985,143.9507195889163,-70.67925236018684,112.12711544488538,0
2406.0,6.683868,-27.13687159088405,-265.4574162265048,211.6230492164388,91.0876083767551,-164.23592263489863,89.99471628928691,0
2411.0,6.697758,-71.68817167779402,-257.7835721614436,31.732971272485266,2.0584404804582714,25.04648804551132,296.79413855617867,0
2416.0,6.711648,46.739308860828544,-126.0213511933112,200.06032103289976,252.620647580441,-129.96065972707274,-113.89975515032812,0
2421.0,6.725538,10.892866764090437,24.93511500132176,328.5938559880224,7.790516624702716,12.75808379514785,90.91809703021757,0
2426.0,6.739428,104.7942347754358,-279.7620542299624,159.4898183979043,189.43620374814776,-197.2181006804548,34.8989645828405,0
2431.0,6.753318,-36.341927176478855,-104.6773053553604,196.6323840791945,63.9298075997714,-133.2079492138849,185.9816914997391,0
2436.0,6.767208,77.70826159084987,-121.66258333537525,195.93401853884905,91.81487376158226,-0.6341265620469505,4.090411527113005,0
2441.0,6.781098,-45.70253565871165,-110.71606453737336,152.7112515400546,79.99904134755324,-218.99243608773665,-176.30061596065107,0
2446.0,6.794988,72.92912562335385,-140.03978825244357,151.15538238915957,150.16379671577124,-264.4552289978308,177.39266541726477,0
2451.0,6.808878,-77.55923168499002,-50.25393624941663,77.46696719941033,-27.15954599637542,54.267711352451656,-60.49532714497207,0
2456.0,6.822768,175.07850338364472,-49.93872081610778,203.1662613279379,160.4529509850803,-62.80461440496055,105.91495496107105,0
2461.0,6.836658,-49.64932447506657,14.00360853593088,182.6265053674761,4.123077110874235,77.94188292162119,-56.50902283795084,0
2466.0,6.850548,57.32943117067293,32.16961939285347,37.30661311020026,172.6012975182736,-22.01877407462948,-103.9517986986188,0
2471.0,6.864438,46.08104846725812,-90.12344673385948,147.98715268050887,-16.028703347396068,12.021868711386148,74.79702431554422,0
2476.0,6.878328,110.16869965679088,102.17553079405288,53.32034375558207,154.90411927693054,92.82550042096014,-0.356667771510061,0
2481.0,6.892218000000001,13.394476585270496,113.37371015242542,44.8733610283041,-100.70986030502824,187.6565454658891,-171.38701758478518,0
2486.0,6.906108000000001,-4.909969629753477,190.02651850967328,32.17117308680611,108.13735857683848,209.31165037735428,-54.538963410639006,0
2491.0,6.9199980000000005,43.620416575632326,160.32214474144533,70.60740750937184,-57.26843433661237,428.43194894204055,-156.84491381118056,0
2496.0,6.9338880000000005,-18.83577767998504,166.9227939966037,55.52752984175309,-37.44810850758565,370.1781524461605,-48.72394510326886,0
2501.0,6.9477780000000005,-59.617756573302,14.99496019783257,-99.2824929105025,117.23200342761874,65.50751909270446,-89.90339862609582,0
2506.0,6.961668,-29.54860873156923,23.71519484151189,63.21358189288264,71.34284152256714,301.215192728479,-161.92907022104512,0
2511.0,6.975558,92.381963368925,160.01585758016023,-96.02891958961212,11.18767836228148,305.32639327086656,-106.71194588476972,0
2516.0,6.989448,-59.778213132951066,177.1435899259313,-144.2660483937769,18.176682843806244,309.73834111646795,-269.81033102020297,0
2521.0,7.003338,76.62883932855672,184.05069725639976,-56.3447431950664,75.28800952584899,230.10317524574623,-96.30952248601498,0
2526.0,7.017228,-251.5675676157348,247.81028358151968,-360.4190213609827,-42.5695438836905,144.50868642122066,-312.9463004741797,0
2531.0,7.031118,-49.14272892124802,145.74626395288914,-156.31275655762428,39.3003709313852,2.9745964398085185,-194.11758364245583,0
2536.0,7.045008,65.10742502949039,60.51930556834372,-161.99000857783872,-102.43547712132468,45.939086344430336,-136.59823021490467,0
2541.0,7.058898,-219.8550040371188,156.9878848178471,-311.17568488585846,-154.5013748691553,-199.3165056536722,-143.34167410660274,0
2546.0,7.072788,-5.848370778707409,-3.910718697300069,-165.39852340352485,-83.38454478561552,-83.31966936612334,-205.42203313934544,0
2551.0,7.086678,-255.85412337852847,-67.70104145944052,-219.99267951928408,-34.248991845834055,-227.0281845560316,-81.75559703729428,0
2556.0,7.100568,-67.83724812012352,109.91290474950856,-308.5041556425761,-97.36155389938554,-22.741846857033305,-205.20891035939053,0
2561.0,7.114458,-85.62216292704916,-68.37744665933448,-229.26649067730307,-34.16152260505901,-205.44005835213687,-205.7251354118776,0
2566.0,7.128348,-123.90142596797972,144.9497076512519,-348.6906004679629,-0.5474212899063531,-109.77757856466208,-71.00539218388573,0
2571.0,7.142238,-290.4555915754696,123.16416976258854,-353.2906975337109,-153.43501159673593,148.17463710048588,-148.4962484309159,0
2576.0,7.156128,-217.51463792462903,83.16355684393149,-426.4206754003412,69.69611271098141,-103.22410927998465,-166.51053725637863,0
2581.0,7.170018000000001,-186.00819033465984,45.16029728253726,-367.9025938244922,-75.37688207361151,-15.088417273183236,92.55959219384236,0
2586.0,7.183908000000001,-117.63979238635032,4.216138487420086,-210.6409256632842,25.275691109177885,-269.62628997692065,-108.01565648618964,0
2591.0,7.197798000000001,-287.8055486541931,95.17666716981856,-184.61194590081612,-15.726901879101774,-117.08959075500732,197.5680547520966,0
2596.0,7.211688,-250.2535434449624,109.43562881453047,-123.8963096221891,-164.28050282624451,-151.65330488223168,235.43021985478063,0
2601.0,7.225578,-223.8750044714036,3.3181898016432143,-171.4175455775657,-83.20983998285689,-229.73076393258305,371.7446283829545,0
2606.0,7.239468,-112.4980796894008,10.77410770590562,-203.78652905848992,-235.0866923523351,-233.5497527806988,194.71135115162684,0
2611.0,7.253358,-391.79990032205046,36.65902734671592,-138.3803931114401,-75.99810922739451,-79.06587891131147,128.16271347168265,0
2616.0,7.267248,-56.321508724989336,28.50356547813645,-107.8303064974275,-265.63081215808086,-267.5354526484694,43.55394628433992,0
2621.0,7.281138,-282.42060946994945,-36.951409662603766,-117.58608021418368,-10.422828908474033,58.0347423706661,94.0204929166046,0
2626.0,7.295028,-40.22819025886093,140.31354584732225,-14.156544343404631,-51.34000423516311,-178.45783198370623,61.189107255145984,0
2631.0,7.308918,-288.6287635065339,6.1893304920108,-82.3915706473855,-172.50157031738365,-97.45119454368336,55.97377664356055,0
2636.0,7.322808,-201.7446180957169,181.8405489375737,-69.62364547601175,-33.76569286763222,229.51261930503176,58.946388879350025,0
2641.0,7.336698,-112.8730786929154,-21.679333572846858,70.16966412813879,-26.27471043672692,-196.85149004464552,60.67316136629656,0
2646.0,7.350588,-40.47836244001639,-28.649556148546644,84.8350436531656,9.15959161821852,-65.23235392866769,50.013019653835926,0
2651.0,7.364478,-221.11971938321653,-3.469191935273954,-4.448568110921023,-92.9530669915628,-16.08701876389218,54.69119345185922,0
2656.0,7.378368,-75.36842648197054,126.99132667122416,88.36513396345599,-8.217157481751851,-89.71837408154782,18.334205491969545,0
2661.0,7.392258,-160.12563826348915,-222.00775640263103,14.247779411709132,51.10888443312777,-108.45830588625816,91.80421413611413,0
2666.0,7.406148,-43.06454167299534,85.57960533063522,79.61817311768331,-59.702227881898025,-6.077227787304437,52.71747010716047,0
2671.0,7.420038,-38.14158898820817,2.580324943823669,216.3984424888546,-34.20697500110548,-29.63659784886402,-12.803164209818943,0
2676.0,7.433928,-120.98205679681726,121.77817017483876,144.325176568509,-53.71625174631962,51.62551104544465,73.83191033665656,0
2681.0,7.447818,-34.487949862390266,-77.83976392046227,212.8371452525801,-20.877568869691,-135.47738688748328,29.346584641467985,0
2686.0,7.461708000000001,-162.85268319685676,104.34116578133892,210.10918802778133,-71.68551011473923,-151.65049298982953,178.93179592157145,0
2691.0,7.475598000000001,-45.74974763840429,51.79965593422467,189.52207916021013,-36.72322435332604,8.752464784661509,-13.258613249401163,0
2696.0,7.489488000000001,58.98874881208034,20.101666340586466,331.92291873154073,-111.86582293733996,-11.772982386547085,88.37350171878305,0
2701.0,7.503378,-241.9497887235608,22.936205399419425,185.73939813610696,-140.9304256449389,-220.35959905641465,114.98751339792692,0
2706.0,7.517268,218.02243669318509,-70.1089706682557,359.96788691357835,-68.81541807713072,-50.966819116463306,-27.61842094889281,0
2711.0,7.531158,-73.6518761189969,-18.9125070992226,271.0208234973584,-177.2280104084753,-231.51582702868023,86.4775463393376,0
2716.0,7.545048,35.602212410959545,-118.32709969284366,328.0381286147517,-224.96969949186527,67.69621594794488,0.0033895762885549,0
2721.0,7.558938,15.48974413387862,2.927943963953613,331.68825408143425,-47.63615901629965,-214.96606124097545,72.4509254085643,0
2726.0,7.572828,53.99370792476556,-38.97677142280134,258.2950084379603,-182.46090115050043,33.73828750573565,-118.79415132234622,0
2731.0,7.586718,106.4745924539786,-43.46224177567353,312.33989578098914,-241.6867190108837,-46.899848347179926,48.97834087232473,0
2736.0,7.600608,78.10078242545988,39.79921594245617,356.33365427399343,-152.36759301211444,-20.64037997414828,-71.30157911892215,0
2741.0,7.614498,77.3275231239707,-1.7759745492133874,287.3245479900263,-237.89510446876525,210.82653344819627,2.1490481171797207,0
2746.0,7.628388,61.35001045978417,343.0597188963968,353.86905089705743,-273.4283578285146,466.62463640671575,57.67991598775131,0
2751.0,7.642278,242.75733355321984,-124.322738667214,314.19395696593665,115.53222714619744,160.13088195750476,-37.85342280862663,0
2756.0,7.656168,183.8904423461698,-92.34982169794851,484.0782755521154,-274.42878660165513,183.5942161092811,20.25886229618733,0
2761.0,7.670058,171.1710696897725,-86.56778304080872,428.7079284631064,-367.16044813065207,232.0714891068628,23.37356016752837,0
2766.0,7.683948,218.0230027372885,21.468687284557653,330.4392290900472,-138.43213390195243,283.43272084840754,-93.7502908741674,0
2771.0,7.697838,226.9136041149124,-64.2449647567276,375.1356305045758,-280.79459886735305,289.1895168178524,-18.81768790019187,0
2776.0,7.711728,143.54892977295827,-81.20729918300705,315.5552904390919,-343.5543033998847,294.76961698820264,-36.232969226219765,0
2781.0,7.725618,216.5843398084278,-226.73666320424496,279.7409639760997,-271.6737021205147,132.9605315288274,-15.584642895646112,0
2786.0,7.739508,155.67811249567723,-92.36832254166306,205.9981492718988,-364.2656020444001,92.88405930349228,-76.9169391643323,0
2791.0,7.753398000000001,160.98962758647443,-163.82704096066948,156.86538005383863,-318.55024562788515,280.33947111942484,13.93569660932208,0
2796.0,7.767288000000001,117.41190648605128,-65.33706028041324,47.783552016253815,-331.1043995591764,119.98567088679673,-97.5718533560579,0
2801.0,7.781178000000001,43.242016738656105,-217.6918972494903,74.41132072121152,-323.0801918974046,152.84523536632128,11.976739337294257,0
2806.0,7.795068,235.9071553611979,-179.56648410177922,78.84874131451309,-210.09294258420385,-40.08381616913815,29.793247362673284,0
2811.0,7.808958,123.66397582897042,-103.73742369984328,46.521541558044014,-343.86134369487445,90.02715462105614,-109.62762321360675,0
2816.0,7.822848,111.70718372068052,-90.75570857723768,82.15114349352984,-245.829047217761,141.24916882161023,6.639060287709768,0
2821.0,7.836738,61.91723692755827,-373.5339486737422,16.95142338487763,-253.9686920040656,-43.87586274789558,76.68743020770512,0
2826.0,7.850628,160.90701529624167,-149.0421968640972,88.08745009633563,-65.93700831415121,-159.42102430445888,-77.71851121168329,0
2831.0,7.864518,104.62719419039756,-120.89321965693205,102.27433156425424,-243.9041328999845,-46.154466771136455,59.497941011830775,0
2836.0,7.878408,259.5793363224142,-4.04472724245548,153.1461393561387,-192.7752157586456,-56.71795736098581,135.30503822368246,0
2841.0,7.892298,115.73645811939905,42.58914649635816,145.3302981487885,-81.36030771469939,70.69411164217588,-5.385772543101574,0
2846.0,7.906188,159.15438266210856,-18.62139682103234,67.55955376008653,-164.24275812195026,53.9623460951416,59.616153151955245,0
2851.0,7.920078,62.29984419078121,105.78323911423104,135.3612548107181,-108.08934780318408,71.71256902978696,-34.565168172421906,0
2856.0,7.933968,89.85288328523751,214.4195640137564,-14.110680479235953,-18.36162755409328,58.23190275150016,87.85052851593714,0
2861.0,7.947858,231.3521028523126,110.3293078969386,27.887099003413056,-15.555282528804526,98.2446594499954,-19.809009377426463,0
2866.0,7.961748,79.10713688101531,-46.61129830122489,98.81688702237508,-32.47894995155692,55.31537642333669,95.75702324964938,0
2871.0,7.975638,1.4637633347514694,17.442692777654955,-19.107962151893467,88.28164542856472,35.563246145043834,-26.375076012892585,0
2876.0,7.989528,147.38342831403727,25.75042438568417,-21.789110872716684,34.97027955664936,74.18870021101584,52.65588740468439,0
2881.0,8.003418,63.45637501808719,17.106585899314716,85.4801754829983,163.2367598712096,69.7871055517716,17.27319023756904,0
2886.0,8.017308,144.3662762335214,-55.98121129875399,41.87152931179721,179.1893031481094,14.322273829090186,66.12474647529481,0
2891.0,8.031198,-73.85105164400173,-15.432437379923742,-89.88036918176155,66.18902918423743,17.30290033567752,21.329065518038547,0
2896.0,8.045088,141.37898926733297,68.18202117005343,-6.282472906741539,173.71915770216756,50.82268818562966,85.87236369352458,0
2901.0,8.058978,64.93672464196518,-24.2405011646072,-92.24293491517211,69.2099673449252,-68.01102981311774,-17.823398687009515,0
2906.0,8.072868,20.5734391953157,16.917034958609996,-115.54613265299275,292.43334500084603,-22.243104368623342,27.58054470238018,0
2911.0,8.086758,104.82810725535788,-42.53142808919891,135.9639635168761,160.1230730420401,-28.08952237464877,38.00592442514658,0
2916.0,8.100648,-148.6031446073332,-11.929206076847173,-232.79135567954648,312.27658602921684,-58.12288677014096,-57.93474919124122,0
2921.0,8.114538,97.9931180839537,-11.326573419311853,-27.27425171897885,163.45602348660623,18.848701728954588,96.03108204881612,0
2926.0,8.128428,-58.82601690229996,-60.17221094697591,-23.40670800595276,222.448746648522,-94.5633744041358,-49.41137173584923,0
2931.0,8.142318,81.70508618537427,-91.47319093139716,-215.86074855854204,399.05624950699166,-191.61186548364208,-33.140602201358185,0
2936.0,8.156208,-190.47757673981224,-73.18015742988837,-162.66480633184636,202.1235197380481,-12.627746801761578,25.914081663680378,0
2941.0,8.170098,-8.579909054494777,29.77720830568077,-168.2272603650785,403.94136666883736,-81.13461800808957,1.0383317670132897,0
2946.0,8.183988,-72.45801954584516,-202.4716774682061,-50.00514299763096,309.3582866181847,-180.5769900848764,6.424613760711168,0
2951.0,8.197878000000001,-147.88613797023376,10.996401939514094,-209.24011236822352,195.67942052371896,-217.01769097722672,-83.41014323608839,0
2956.0,8.211768000000001,38.445314284877085,4.061368729626587,-196.5611918373748,398.3790987729956,-45.36154074719959,46.3168291303644,0
2961.0,8.225658000000001,-82.52183528318726,-106.90575107329664,-110.10468235953095,380.0796325009945,-212.7133167156636,-20.882202100099093,0
2966.0,8.239548000000001,-192.81569499123057,-14.235849278751886,-206.8034146475981,318.9811491338799,-87.85160077885554,17.016294244539857,0
2971.0,8.253438000000001,-76.59451155158423,34.454842410301374,-205.1742318277465,175.5772925824722,-96.9354057864529,-26.6722816343804,0
2976.0,8.267328000000001,-36.79017134303061,-9.101979600015175,-186.0330797691034,262.86115416587273,-200.3813362159309,1.5252267878368375,0
2981.0,8.281218,-236.72946468085672,-40.58356703258244,-214.6719743898473,477.0811258758674,-137.88989168090063,-52.61257654490356,0
2986.0,8.295108,5.531980719289415,6.988701512671391,-188.6701385825363,289.3119245188331,-75.39376988850893,62.36268126982621,0
2991.0,8.308998,-224.35769792941727,16.67564047843824,-312.6085062759339,285.7212504186095,-159.93091699204228,-149.00918670594987,0
2996.0,8.322888,-146.2535290276746,-13.422275899659097,-138.72331742547624,220.99059797082225,-55.44465084454182,-13.965188806667165,0
3001.0,8.336778,-131.85427693459238,-10.65851579540403,-290.4424372743498,339.6861729827374,-323.3725222717545,-77.58305752926938,0
3006.0,8.350668,-155.02227362006528,-59.28400343077932,-171.99578866380853,245.4189994457104,-65.73554286155235,-32.09946626553353,0
3011.0,8.364558,-200.90185551869,-51.50971596993841,-173.13846566132736,345.3121530633107,-124.8102910543929,-10.363524522343774,0
3016.0,8.378448,-149.5544950484755,98.7192766545807,-233.60285594505444,175.2640198223354,-57.48298317997538,-1.7978729220199217,0
3021.0,8.392338,-200.97297921863776,67.91168278517493,-232.68601174099456,226.52229692559803,-63.40769295663442,-90.92923053931196,0
3026.0,8.406228,-157.18692823053536,-37.14430564962496,-182.48015196851725,377.8749289080064,-77.70876012941082,-71.75796581341888,0
3031.0,8.420118,-182.1967861084052,81.25131731506237,-245.67463186185816,188.97788916333948,-44.96382007886723,0.0788203179488888,0
3036.0,8.434008,-204.50042575178327,61.12404840895993,-172.91459138697863,198.65445379488943,181.7271188473137,-49.251728499925896,0
3041.0,8.447898,-149.35033859301754,273.1646371933191,-169.30715454858233,176.95081132076896,85.70072483748909,40.75489496773637,0
3046.0,8.461788,-175.08473579873154,253.03973735133223,-199.15959728238536,162.91937481593885,237.94519938410616,-130.38794601691308,0
3051.0,8.475678,-202.65087229389368,26.014732697462936,-152.36339502586156,139.56188832731524,240.25582522410525,-23.00704697637171,0
3056.0,8.489568,-83.36869665202666,56.23545141594836,-144.12836135348675,64.05129450087531,84.64529721187782,-32.66465596333812,0
3061.0,8.503458,-204.67977999848864,98.61940339384148,-101.52760331544052,150.87794426934778,137.63030952485596,-28.188899790028017,0
3066.0,8.517348,-161.7891509930554,89.07723111841148,-138.97244829028787,-45.15312253059568,295.2399337828048,-110.12506372316471,0
3071.0,8.531238,-214.9524112462788,65.19094904092634,-155.06096419216706,-14.847606079934934,180.09208788288907,-250.191346230317,0
3076.0,8.545128,-102.17694464462568,47.61372190055153,-126.10394337092752,-25.165270476302908,103.44521247571082,-26.336881096395835,0
3081.0,8.559018,-132.0486184186652,29.424883477017445,-120.52042883246436,-14.23648667845977,158.09416398727498,-82.61118417815106,0
3086.0,8.572908,-219.3647607958728,3.745510519487503,-98.12007572361016,-157.257740792468,141.5984405342706,7.885770703936146,0
3091.0,8.586798,-75.9810384670553,-10.4179636878493,-121.1005058529603,-127.23286901864508,-74.76082076393202,-141.0880155727013,0
3096.0,8.600688,-181.2193232914345,43.14189334696848,-148.824837323309,-321.7871754145348,22.53227485674628,-27.814845830768576,0
3101.0,8.614578,-164.59745222478892,-78.26909727411677,-173.1889286642159,-147.7054520214974,-101.48007779173352,-49.00086642334125,0
3106.0,8.628468,-348.2029217950095,-144.09814650163025,0.6485228648807748,-334.2080450172603,-329.6116126344473,-49.30587635720708,0
3111.0,8.642358,-9.35731074249084,127.50976600621073,-35.5589449452323,-251.5961609071421,-22.40338644507469,-61.02673952618582,0
3116.0,8.656248,-170.58607466465847,-101.05002661178864,-68.6062229918708,-285.82573491232466,-115.98454044007872,-116.878430184941,0
3121.0,8.670138,-172.01585225766215,17.276936148013256,38.4758830058,-405.0998924683148,-342.36314420652417,-54.65417058070287,0
3126.0,8.684028,-217.3668300307943,160.86624146019966,-16.400345479688156,-355.46248379036854,137.5450791529234,-146.26323062185722,0
3131.0,8.697918,-86.51067072201346,212.09108035357264,114.12721448095824,-94.78903931152684,143.74426109438167,349.9568109847778,0
3136.0,8.711808,-120.33539775235975,264.9885495921272,42.79941084342518,-267.4967466198164,68.07807987842862,75.47412654201908,0
3141.0,8.725698,-107.2838286049775,128.2417962016127,85.94632967258613,-327.53083908965573,64.79667287066762,287.9981018198716,0
3146.0,8.739588,-27.235182401183167,173.27087061916234,68.02828033057705,-271.824510060191,-79.05269741030656,293.0883807589611,0
3151.0,8.753478,63.23329124471076,81.39706695329772,224.7526590909953,-260.7766908108774,392.8442971168141,297.5600612816429,0
3156.0,8.767368000000001,-0.6961863846028677,106.80998550957436,171.80169780312934,-111.84144061510898,-42.2918019300477,0.4069391979156318,0
3161.0,8.781258000000001,-82.91702932610488,91.13776443920986,53.975398792531074,-30.05624641599261,45.68689293382592,-72.0649396876509,0
3166.0,8.795148000000001,10.172062369840871,39.2840642704774,178.6780232245523,-120.53030486748364,44.971765048832815,39.34133597620343,0
3171.0,8.809038000000001,-65.0418290033111,110.45423715851464,175.03107868729506,-99.86424174445052,172.70565891543237,29.780643099721075,0
3176.0,8.822928000000001,-28.54476759604951,-10.95726220695203,175.38302279290332,-145.24339119789855,-45.818102888950776,16.650982213790186,0
3181.0,8.836818000000001,34.97106649606363,83.49251193489951,88.85525887381837,-82.47027176012254,92.26988640256646,52.31009471402917,0
3186.0,8.850708000000001,0.0988520049448311,169.61630703421696,251.55741251774103,-159.4993746925012,92.31436752616492,34.00297538249654,0
3191.0,8.864598,91.41435668333192,-124.0134317819476,143.9292611297063,-185.0967162259176,-52.89740809442564,51.20305879051017,0
3196.0,8.878488,-65.14856352633585,29.12237444533487,70.11251009755307,-132.87279969499008,4.765842459917764,-40.031093353922586,0
3201.0,8.892378,77.06244014159351,-126.20055560903933,202.05016029869964,101.73653698980225,-307.9309467816579,6.392877250422618,0
3206.0,8.906268,113.01789602752888,-137.3095619512726,170.29954706429268,-88.15894549623845,-110.79915760020296,-13.26628391058317,0
3211.0,8.920158,66.22243512975476,-65.06842856789815,75.71030812354158,113.19540445250752,-236.94290337202443,-58.65049251512104,0
3216.0,8.934048,85.53474276087204,-168.76276461494157,224.41264950204584,-261.65435049635124,-8.747935685651584,157.9043731057962,0
3221.0,8.947938,125.501481500612,-6.783382275346828,60.89829354115122,125.83800125579349,-156.92801584760588,-13.191775760313618,0
3226.0,8.961828,136.2873956929325,44.78713763253028,201.26498249013707,406.3139423260045,-74.50553394544639,-73.22605556630334,0
3231.0,8.975718,127.71237614829948,-331.11039689086795,125.24521833461044,-438.406076636244,-167.576061331591,252.6301773162295,0
3236.0,8.989608,183.2742116492728,-151.15833632279907,242.50350052335284,355.3788720994316,-207.04758932595345,49.74638888750049,0
3241.0,9.003498,129.17526536831497,-208.09770127746336,184.50665889372564,63.27563618307524,-217.52457903507616,69.326656082915,0
3246.0,9.017388,184.3523802921476,-75.65251191194312,145.99083915774122,-84.18977965993362,-116.3457166397842,285.16932243525497,0
3251.0,9.031278,225.95597010071967,-220.78609084516364,263.65452107477284,297.7788963996787,-155.5291231088147,57.2120100756989,0
3256.0,9.045168,129.43129206291442,-172.06736525728363,193.357293155035,-55.9009062700464,-239.14631167447612,122.94232874462968,0
3261.0,9.059058,296.36756144161427,-229.7928592962944,205.1836715075236,156.1797549517032,-228.4072779786891,96.5072268129406,0
3266.0,9.072948,173.88203745951012,-112.49826517767173,227.94301745023952,92.40849668009672,-221.0918452493673,-30.568053276412968,0
3271.0,9.086838,282.4521945120794,-214.68274406113525,215.1087570991435,159.88290853898184,-134.02456082226723,-16.769396079234205,0
3276.0,9.100728,199.66708164304472,-93.5536362700361,97.31549985427716,-39.10409783036603,-130.1591058564504,64.46289752562744,0
3281.0,9.114618,176.33780478754468,-199.0714888697776,174.81392210219235,124.28117437917388,-138.59165835989612,216.77041903582045,0
3286.0,9.128508,259.55768207963195,-74.84741363792403,163.32673390971058,-222.89793424699457,-50.62756389382904,-158.10631805295347,0
3291.0,9.142398,106.19802738621448,29.090908386663664,144.0539054696452,-47.75495376463629,69.11822446181209,109.41318185524251,0
3296.0,9.156288,243.34353986159908,76.13801881807,138.95283748126235,30.45369836923409,-35.39341281511179,-141.99290160131866,0
3301.0,9.170178,185.7687070408734,220.01851982143123,134.859648419835,63.90224804336742,336.37473909112947,209.7704602345528,0
3306.0,9.184068,387.9010576962616,31.211119256482483,171.131165671697,-62.49564207063435,-11.891851663257713,-69.34634710495588,0
3311.0,9.197958,331.5176856538826,80.14631225319027,185.53780992657263,-184.38392680319745,290.0822750725791,27.376925805800617,0
3316.0,9.211848,224.81194696049943,128.8781073078861,206.60150222953112,-13.786326153121776,124.57231407948424,135.62262218494124,0
3321.0,9.225738,236.84438284668417,259.5808512498334,166.23407668791873,-89.2744948606987,278.9189836977699,-110.74789329668803,0
3326.0,9.239628,308.61542779315664,92.3663886427564,268.7428778693411,-90.4105118966845,377.8774703104471,-38.28007903755275,0
3331.0,9.253518,151.692879196142,125.70721257508606,150.36693867396508,7.2931025014542,189.83628963081148,-27.34935487712356,0
3336.0,9.267408,183.6484055119413,37.69879894272653,126.0032505737642,-316.7484572177092,174.04122792338865,16.582536404681754,0
3341.0,9.281298,127.10922036066935,125.02432659375624,7.705581086417624,-294.84625607963363,271.4055151846431,-159.75975017262243,0
3346.0,9.295188,110.19992873666166,85.62576530105446,67.02772325731003,-299.21423196235287,283.64152713010844,113.90359399962938,0
3351.0,9.309078,-68.36753074062753,31.4039210993311,-46.602475967798185,-168.03142156425324,109.19739724030728,-20.584312431932595,0
3356.0,9.322968,156.7125789400723,-193.20582717159107,-80.1767906571702,-352.6049056590149,51.26365785283757,-115.42690638280588,0
3361.0,9.336858,22.421001359877533,-24.30846276564938,-126.60134119308576,-186.890088677196,148.11879414412135,118.58223407870176,0
3366.0,9.350748,96.60639274783836,19.645188803137216,-74.83447540613095,-503.7922195304487,127.54403169608298,-116.63139371475624,0
3371.0,9.364638,-7.064539249624765,-391.6476872968009,-100.39471266408415,-206.1354531130002,-194.0281955929903,138.84406730692905,0
3376.0,9.378528,11.4878702379766,-0.2287420006054454,-141.33748675783383,-296.8204410140154,115.28532283086976,-25.86657758040543,0
3381.0,9.392418,120.93023529947511,-194.764223828596,-12.328040178073884,-209.21267880187452,-14.692657406095378,-62.9257174785442,0
3386.0,9.406308,-84.79373934907139,33.8862210082447,-109.01671025679366,-123.78961691260852,19.03914974719714,52.1283349396849,0
3391.0,9.420198,92.81886351418989,-59.322715399064,-337.52899558295314,-334.00154988721056,-101.42475334286958,-69.16819891179851,0
3396.0,9.434088,-85.79088376825423,203.58316517920787,-330.08174169011863,-200.60582003973704,100.92462513172332,35.12039510479045,0
3401.0,9.447978,183.3381431151406,118.13295713069516,-271.64470223992726,-66.44774580306802,11.317740782596855,23.78459779698776,0
3406.0,9.461868,-142.91696897423267,-3.1506952774530745,-19.74336175783843,-185.94263290000487,-38.943029855379336,78.74218763681142,0
3411.0,9.475758,72.46733379470247,89.42713818552949,170.26723153697492,-199.4820209453494,-76.67893573671877,-37.354467576704,0
3416.0,9.489648,-149.10714668061385,19.15833542770436,99.26058794212436,-72.47483186536087,34.9393752510773,-38.32752401522588,0
3421.0,9.503538,-81.03521271241688,-27.51490246746621,185.7917364899351,-110.02265866000168,-91.61277421536644,-41.74461466543752,0
3426.0,9.517428,24.246469348729363,-8.483546674315633,-56.83028394723634,-74.19718485254047,-29.036960967678816,49.36673093281745,0
3431.0,9.531318,-183.7354701647052,-32.712999710860736,26.89486248320854,-68.6169609126169,36.10204172719385,110.64119563913644,0
3436.0,9.545208,170.30847823694785,-91.56501103199572,86.52167503515254,-71.17535115556214,-65.1380330477592,-61.59068283634804,0
3441.0,9.559098,-243.34952279954567,54.17851300413814,-96.88948871443816,203.98013775444,178.90948561723656,-181.1395381861346,0
3446.0,9.572988,-146.76120534108853,5.940197226024624,106.50190814548957,-138.91519416537028,35.732846740031775,129.3848997167103,0
3451.0,9.586878,-95.15550430298724,-19.54052666816186,3.945361779270284,12.658638576381309,-1.2944388170564878,-105.9575138890774,0
3456.0,9.600768,-50.65746986305234,-164.07518375884734,199.19158935715413,123.3721337301252,32.58010703286885,38.70858069337131,0
3461.0,9.614658,-229.27307086156017,58.459854684468496,160.6397517899814,8.966007538958522,43.4257837046886,-67.42361086360731,0
3466.0,9.628548,-66.77991665896106,-31.422178111130005,-11.14540931353497,225.4374116938856,176.6605899563872,-137.92427005497396,0
3471.0,9.642438,-44.70412307246755,-59.67502933253102,-33.65079008425501,170.84301236728854,107.44102481231528,1.3077767596069805,0
3476.0,9.656328,5.637017930351277,5.912953282795996,-18.29890678155472,63.92291737643472,57.98053018981452,-107.1103603841506,0
3481.0,9.670218,-135.82741127170505,-68.15172815133859,72.6937234728445,177.9310207432768,107.75490982272017,-21.96606121804481,0
3486.0,9.684108,-137.13270797891084,5.194439058768765,93.44781859089034,321.7079539992502,-23.13203382348528,-81.39535088362274,0
3491.0,9.697998,-133.38501104323723,-144.67406127543484,89.4910134723049,237.0016999970368,-48.085707492044094,16.373706586344625,0
3496.0,9.711888,-113.67955721766052,16.577399898360145,34.01452665822805,147.82847058789923,167.74623627506406,-214.1040200737093,0
3501.0,9.725778,-81.76532236256986,3.593411687159545,0.3013108519989202,314.24304294548546,72.47093171920737,137.96329818325998,0
3506.0,9.739668,-73.91326815991522,-10.213924819029929,-9.481121444855496,241.50096504630088,-48.041805910694194,51.09722963153799,0
3511.0,9.753558,-19.95299748607292,-39.93480050790088,1.511140805798913,122.63339527755102,85.12332525977652,-162.26312041264654,0
3516.0,9.767448,-53.88179474026374,-30.07642572008632,-11.930295972191445,360.6396537575809,-158.3810913826535,59.18616383833745,0
3521.0,9.781338,-90.4517370923244,-67.73377314938276,-30.980232797096555,64.10550673773045,70.6971761560565,-159.64192923419577,0
3526.0,9.795228,-67.28828361071592,-30.736244719167114,-5.067877880207597,292.2127094866947,54.46964664305354,137.4332702495206,0
3531.0,9.809118,-49.64889162067964,-31.62154444034777,-141.67157735884044,361.7401613270108,-240.24467343577604,-189.03483897089168,0
3536.0,9.823008,-96.17142171781424,17.262477022060082,32.13193421908004,310.37729572058095,-57.055024532565085,134.40832412076736,0
3541.0,9.836898,10.823312624246595,-27.832620895493605,-122.00147760172182,277.2952896730055,-203.4808765029146,209.8234207275516,0
3546.0,9.850788,-94.39090129635144,-42.16274191332619,-80.3391522702443,164.10636187998435,-9.581689837622676,-217.36455022405983,0
3551.0,9.864678,-51.3481890386817,-39.09959901536797,2.688099874144777,238.00177028497507,-154.0583965446407,112.27473503629516,0
3556.0,9.878568,-53.7324995515347,-2.8434241049756537,-180.18292087130945,180.41961033553173,-135.95745173493628,-91.52045247900227,0
3561.0,9.892458,-32.19531378922291,-14.626085565326049,-155.73528302490485,21.47591552290357,5.370799905493129,0.8687110186035198,0
3566.0,9.906348,-72.34376403768347,-53.76099644074098,-53.4525910829662,512.4196038119948,-419.4760071487686,52.537328311236685,0
3571.0,9.920238,-16.60755653735398,120.98792648932633,-175.61388400317287,96.97797592239506,-2.9860771968181936,187.70110398563867,0
3576.0,9.934128,-150.8992880986778,-40.80598286027847,-21.281189861515088,387.38432646388935,-280.5844575788576,-12.31333780857885,0
3581.0,9.948018,21.874251107826154,-36.6339717544812,-213.20229245663376,65.02635123983703,123.41725192845674,-25.22561935672077,0
3586.0,9.961908,-67.39795173863732,192.62171995518864,-147.960671385395,388.9375785902213,-271.7750327743525,178.14175767900375,0
3591.0,9.975798,-17.31819251721402,-15.56394420687968,-202.622110294246,216.2068285428068,-241.99197856741708,250.82950424731308,0
3596.0,9.989688,223.3126066947993,-63.772404394933154,-39.51227971208863,452.9069038075693,-59.085586686327744,94.97170892833094,0
3601.0,10.003578,-79.74481806586446,-3.246763844322052,-216.9996181719663,48.61986461558968,-57.751552333430496,-67.86406771256725,0
3606.0,10.017468,38.06896564756235,-26.527922730480967,-155.8460746564264,158.4748148688058,54.6021607587067,231.4252663775457,0
3611.0,10.031358,-119.13147614073736,36.04028834860806,-158.54000756540103,75.45826597477851,20.567504314936528,6.36598708101333,0
3616.0,10.045248,41.05095068088716,376.3691696710942,-206.7811039443875,265.9021658798346,236.06757923369776,157.96794799680697,0
3621.0,10.059138,-131.84697785563762,64.30165406703262,-114.79904144678962,127.94543238565504,87.0324960587291,13.614954915339595,0
3626.0,10.073028,-76.89368365314893,117.14779536883772,-178.617243669732,190.38856955776976,39.1266729342875,146.645463004694,0
3631.0,10.086918,-52.32378564216992,-237.0011129617833,-172.1038565890788,-46.37440738972461,114.49179897163124,-31.15035178465351,0
3636.0,10.100808,-17.16294938710353,-86.38210057199677,-229.8736451430354,581.0240633258113,-385.40408604155374,303.1823844335278,0
3641.0,10.114698,-139.3359991108928,105.96281582799278,-183.51309546206423,5.285867241192989,339.68714673619723,66.98607806109993,0
3646.0,10.128588,-84.7481389462782,58.16990051518059,-118.74160708048224,104.7289882571913,291.1366755570584,-13.43556229167239,0
3651.0,10.142478,-100.67601210577126,172.3852611789872,-162.45332377066006,193.204154896616,192.42368835219133,-68.71369205547055,0
3656.0,10.156368,-156.1965651580465,43.61257803579529,-152.91885088872897,81.87749776642305,37.86468491116594,175.24191303360698,0
3661.0,10.170258,-159.92895538331933,117.27091878862755,-165.15339432834844,52.882271844780064,247.68272169701788,7.2942620287768705,0
3666.0,10.184148,-126.76924521765936,101.25126497169296,-14.17598567229402,-26.8055316460048,168.24390722797074,260.8995110873585,0
3671.0,10.198038,-175.9666433356143,120.74922921156208,-136.10284883681717,-99.90414409824184,42.82814293961517,-65.96961422193094,0
3676.0,10.211928,38.314227055493134,20.5480635877538,-139.58515925846112,-167.96282604403717,140.45768665294332,-20.862986339511927,0
3681.0,10.225818,-221.82820908578003,111.9670974303275,-27.457657302640428,-160.37674769785255,163.93185453758323,83.85794257201046,0
3686.0,10.239708,-235.49781194843428,86.2298081756466,-1.2094397915688333,-289.2243996208832,-124.92839854436882,-49.531614331160704,0
3691.0,10.253598,-98.7143366340848,82.78597167264992,-53.59774047364968,-209.1860849455244,-14.782626604257551,-13.782972910385569,0
3696.0,10.267488,-91.80562250995916,107.6944283494587,-36.66641869540916,-267.50341309665816,-26.989143296674293,67.51971937851353,0
3701.0,10.281378,-327.08159598293577,158.6777667192902,-98.356612487324,-398.6074759174609,5.673889761771171,-37.69035637712098,0
3706.0,10.295268,501.5610119697274,-63.4050152319896,365.6851053858294,-167.2692590745495,-107.59223504165664,15.267859793401804,0
3711.0,10.309158,-355.5653781289476,126.93785405223238,-114.1667392607056,-346.4251193302078,-6.5489565080852845,51.818802502376464,0
3716.0,10.323048,21.285589827867845,68.04188630853261,84.24131713345832,-132.00688902356916,-60.166274334593,-121.52812964716465,0
3721.0,10.336938,-66.25994088128834,20.6507785883179,122.03533298121846,-489.79327246120346,44.40325388459355,-123.08193008217232,0
3726.0,10.350828,39.28366678294663,18.260756359098668,50.48057447203834,-30.31828930385791,-198.1057611433081,-15.193995320620768,0
3731.0,10.364718,143.15991963137282,115.04996111787298,255.20590129342284,-227.55025047161905,-78.23889544342256,52.5315795754388,0
3736.0,10.378608,77.89628694883075,55.03517724641274,129.89126582733573,-259.57076995749685,138.24480056756678,-35.23942730731147,0
3741.0,10.392498,80.10563957612908,273.9940159193407,142.53406100946924,33.8251428364124,222.97286298198048,121.84800562587768,0
3746.0,10.406388,44.60885312684252,-138.7869801537264,54.50142139289278,-108.95392964761136,5.827932920003516,-298.2774313712549,0
3751.0,10.420278,136.690632471224,-27.65952513744565,274.0442400617877,92.72838566501984,69.0389243197443,-5.641992008561578,0
3756.0,10.434168,101.6091646070819,128.9766531306019,84.24716715038046,-4.43077061780736,38.83995251164683,-32.541391890969166,0
3761.0,10.448058,161.81834702350696,-24.8793684278046,167.41859095111514,-74.78699283727546,48.947301636850376,-223.20826001950547,0
3766.0,10.461948,129.50433775891767,-19.294998158460235,302.1243296880476,129.16112134553356,-80.14623146717082,47.59523685779386,0
3771.0,10.475838,207.37571339082783,-31.34233048447873,155.75430753075176,-54.94838893143404,8.235673500446545,-62.74449700755139,0
3776.0,10.489728,100.04551678812064,-28.69497323901944,172.37578746172088,-37.93460876640751,62.31323571185561,-14.324819616689012,0
3781.0,10.503618,-40.37566758613925,-32.043960599493275,135.85889063076547,-95.54974535010432,-43.056657810872125,-139.08526715280567,0
3786.0,10.517508,65.42345956679179,-43.91625109836127,174.14101239120222,220.81804144108423,-180.20214815167,-110.59876106272506,0
3791.0,10.531398,128.92938618488307,-48.682728428978535,190.62491013095905,8.349725158660606,-93.24427338249625,-31.602922880666803,0
3796.0,10.545288,205.6246880257717,-124.2286362543194,174.13442627344142,3.060202670979564,-43.51441900706693,-225.1997789854576,0
3801.0,10.559178,55.64232241975355,-21.298526913757925,178.85034590696392,-74.58738503798772,-120.7056708729333,28.069594164541737,0
3806.0,10.573068,114.01699513347091,-38.24866825998437,112.484465792708,68.11442917689415,-138.24017721480237,-75.87708069798568,0
3811.0,10.586958,153.87444718802888,87.6616882761202,259.8233108662238,44.74422193031548,56.79298078185802,-34.34505115877663,0
3816.0,10.600848,118.07478407984782,-471.9151072960794,215.376032860215,-0.2719114634133674,-388.38263941003567,-15.817906590132033,0
3821.0,10.614738,238.5765642567258,177.7379514561661,94.38355474626668,-55.83347478044181,187.87310036921195,-27.3334297729939,0
3826.0,10.628628,166.07205381329123,-382.0081196308045,216.17129099023168,185.68388421463024,-301.661894858599,30.045415576817533,0
3831.0,10.642518,83.6065101987422,60.01674848725024,210.90060067259083,148.30913233557357,-123.27179257208464,-23.49964691526845,0
3836.0,10.656408,451.2720167039445,-17.11178225122958,108.50793376740734,149.02467210848135,16.67096607188158,180.0452464342974,0
3841.0,10.670298,139.26565172046463,-180.4287972797241,167.83541866533443,77.04585923125151,-148.8525298550059,193.2400257090761,0
3846.0,10.684188,292.2115518725701,27.52430131608552,136.50553626686292,116.18553732888417,-119.96593592688356,127.39096890112955,0
3851.0,10.698078,206.93276779718988,-74.93351425229022,227.29364678067,213.8805974920504,-48.74141002738397,475.6645088113623,0
3856.0,10.711968,112.70956488551656,-70.07067836079713,370.52792651352536,158.66034453102557,-46.38901442652739,223.40219072616057,0
3861.0,10.725858,150.5698100805385,-46.03766907118224,-54.29040646494468,90.2515233226082,-113.25311476112672,326.0981298111764,0
3866.0,10.739748,113.64240750236988,37.25190398566008,437.27041500358064,3.8142869998031017,8.350784125842338,169.50079242610653,0
3871.0,10.753638,131.7814872764102,-292.7217224642608,98.5529757277326,262.8373534431307,-245.58916769453776,414.3599689526009,0
3876.0,10.767528,226.78634112459096,159.4909991224518,63.35941907497234,53.79387807452395,81.40215278742107,235.8770178259407,0
3881.0,10.781418,285.43689914008644,-153.06568911933448,75.6984647160525,207.2312463232641,-213.8279098332912,161.02890261802,0
3886.0,10.795308,-19.049667726520525,-54.30272554671773,217.1260090530208,65.45321458758158,-118.74031210304824,87.65562241902526,0
3891.0,10.809198,101.66535726564317,-174.8989488578716,203.7899131950072,134.94784582699845,-178.37550335883867,135.6541366133531,0
3896.0,10.823088,154.97248545555334,47.419330727442286,-11.974198399012508,25.99474901855816,-101.9116491260672,231.57170343441595,0
3901.0,10.836978,323.1679150146788,-157.97954392999048,17.224158243778817,64.0273400757278,-37.90443042666952,-66.58562098774885,0
3906.0,10.850868,-81.74153364630757,103.29717693384646,257.03737661890216,-25.70938096658623,69.29282930768096,41.06533248959392,0
3911.0,10.864758,53.60474167905228,-192.28604478410728,-57.80414742641629,87.3324036152028,-286.24169338218,-44.60314195303747,0
3916.0,10.878648,230.40781333811265,120.87148276100852,147.6851223291264,104.203830389126,154.28170223600392,78.319627212221,0
3921.0,10.892538,-5.9455391918175735,-146.53999552635216,214.3068413093528,-28.731312851502665,-18.55158328196667,-173.2213656016988,0
3926.0,10.906428,7.577697329998642,35.45742820351698,-31.52173747673698,-43.5679831795034,72.30270518376993,-57.58315673163854,0
3931.0,10.920318,285.8731402586125,79.80106976863425,30.02264051883096,96.25755718928323,-21.072623307498723,57.54040411933296,0
3936.0,10.934208,125.38579317860516,99.24950637974034,87.36886216523362,-54.17877235115152,347.12718383837944,-93.71696587541012,0
3941.0,10.948098,115.37114841693254,169.600845426408,58.87436439113662,-54.09332759507832,128.00959279675436,-7.233306719251979,0
3946.0,10.961988,82.43727900690939,24.68816202188539,28.44705060371696,-65.48535525679577,-107.58471021860429,100.90735486572656,0
3951.0,10.975878,-13.056040593288714,119.45436741309902,-40.429155024350834,-384.4415568022739,370.24727741027584,-359.1435555749072,0
3956.0,10.989768,-26.218095992233728,25.23296504408166,39.892350931814725,122.65675670851869,-10.155720570274925,189.50386083263675,0
3961.0,11.003658,-36.6015023394021,18.40294798749153,22.445249485813505,-92.92417804967836,223.48299078764177,33.251069094983514,0
3966.0,11.017548,-50.601498873685095,137.40284743514513,-8.815528072989482,-30.790305278540707,22.097553325051265,-220.9770168623608,0
3971.0,11.031438,-37.74489554432281,-48.9472823055126,-160.70660665883597,-375.6535216902297,206.20148170641085,88.50737267633943,0
3976.0,11.045328,-11.30364215781264,-37.26943295919536,87.19892886561564,124.65939048605424,27.133909180739284,5.554405693073029,0
3981.0,11.059218,-118.98562463889512,12.194573772806685,-140.66407024727525,-277.029183247266,190.2896630148009,-117.31899802379051,0
3986.0,11.073108,-135.3354957509543,-33.56333568117212,96.41271633279254,-29.742873630785823,103.78098343250468,170.50541946515358,0
3991.0,11.086998,-191.7639450303348,11.352690148401797,-326.7876284617637,-180.4238431392248,-42.66035089611625,-35.15825750217081,0
3996.0,11.100888,-199.97853954400887,-70.75192077142495,-460.36854381242847,-98.9558185660512,223.96201690067727,-72.62519886900343,0
4001.0,11.114778,-232.68663086591744,-2.0518026115345425,-449.3816816391752,-84.01623180081671,-77.21981452801575,29.42538016777963,0
4006.0,11.128668,-144.64924617853484,204.34804889970795,-447.6248761360039,-144.7949762724618,-181.75480483151887,69.97794657216744,0
4011.0,11.142558,-141.05581804143412,-232.8721891611998,-71.94351203045784,-149.3663498671837,219.54563310530165,49.99821745126761,0
4016.0,11.156448,-97.29712463631428,95.66290504932336,-51.759338854744925,-288.41599640962613,43.87194991882161,93.1784849831146,0
4021.0,11.170338,-212.615506230713,-103.60257964864437,160.1781170862224,-128.7028526392183,-219.4822427188812,76.06268599692817,0
4026.0,11.184228,13.256554627512855,-108.1315770218204,88.825016684459,-95.07487877245616,197.29088774985863,130.98650339892504,0
4031.0,11.198118,-102.3172390273317,72.24147977599819,169.07379821696458,-83.44684723422131,-35.252443975375535,139.78703306825577,0
4036.0,11.212008,-96.06998204556704,77.45907451396963,-42.20153441959537,-141.55163952299927,-18.060424808610986,-8.873677959202332,0
4041.0,11.225898,-83.78302598139538,34.19019344802206,71.55137375241267,-57.16134663086852,-102.26956860547644,148.2413801385677,0
4046.0,11.239788,-144.53748125265142,181.42892104281648,45.0873367878532,-3.9029947207655447,277.03096758275694,184.0169099573976,0
4051.0,11.253678,-151.11228290218622,75.62736383415799,131.8244373791999,-9.57210888416018,-97.12424636909915,63.30514102519743,0
4056.0,11.267568,180.9647433503326,71.31487337369053,75.80917455308072,24.70247870077484,289.72586955100985,209.94506188682453,0
4061.0,11.281458,-440.9740552545204,177.22449672870025,279.9654181418618,87.90277385933999,-70.44115302336638,-62.86486395289423,0
4066.0,11.295348,-94.3506327653372,-15.311509198952027,110.45015318369872,-53.55834578502871,64.63947487096608,23.79086953815121,0
4071.0,11.309238,13.552826626043029,12.983589608497638,101.75568956031312,247.7576138379722,-17.70769827020598,162.8555259212755,0
4076.0,11.323128,-246.84118690771083,83.75379409033042,28.95373362204465,85.54581990562944,102.6904445353928,51.42595857964034,0
4081.0,11.337018,96.65660311262268,-65.61704195335246,244.50724883593304,-140.59686510202332,395.8817621293489,-158.06618759727485,0
4086.0,11.350908,186.73785539671,-256.4639170535623,62.88885980679422,168.86334149414475,-325.2907709268267,-7.801167800003576,0
4091.0,11.364798,-902.6007098311024,270.2991619501204,23.75524509219348,-29.021577312833728,94.15388423836964,76.87601589918546,0
4096.0,11.378688,559.0463839806474,-170.94711482031695,263.0689190742761,71.33932760858848,76.55836326789276,32.74325815955432,0
4101.0,11.392578,-105.5320908247432,-10.578998024323496,-108.29540935794094,118.44715068836112,62.38335991313453,-112.56494931579138,0
4106.0,11.406468,924.2638222970838,-706.9593402671562,504.6440610735359,170.8240161118365,-111.02840545201944,61.63393979249737,0
4111.0,11.420358,-1130.0254113605124,574.0846760163367,-70.18016853251873,85.50307495430701,80.57499589181006,48.98356491591667,0
4116.0,11.434248,83.88885573180976,-125.93401971382868,73.78596442610524,35.68835341032004,-105.84478944868232,-143.41676460032613,0
4121.0,11.448138,-62.62352224918621,-98.1715879262775,145.4847613539493,111.02734044993824,-75.50614395366807,33.860283641407555,0
4126.0,11.462028,78.78698351108986,-18.281492977112904,13.320387664630822,99.42475137353222,156.81845759838916,-127.46535813593265,0
4131.0,11.475918,-175.69673195687622,-22.912411658563485,196.20654270847064,214.7296270556042,-190.83874701262715,46.08185602873544,0
4136.0,11.489808,55.33395564552816,-54.96809034022201,-32.6507560010901,30.84565248415936,26.87733216047196,-42.62456729689868,0
4141.0,11.503698,-111.0429375490364,34.82478873045684,98.63833024967109,149.98345796371558,-94.84874008540376,-6.21063337264561,0
4146.0,11.517588,45.86849338557696,-32.178103388245994,-141.00638417351652,124.42923250189604,-28.289702171428686,48.902357867996585,0
4151.0,11.531478,-16.560068667001694,-34.063114773241736,128.67812437221505,204.3566446295717,-71.58119369221697,-137.60628308414388,0
4156.0,11.545368,0.4983528695739139,7.414793126464435,-57.2886526196794,10.107021967757936,-35.837081893669804,10.786424625816665,0
4161.0,11.559258,168.65938260866642,-227.12533920989168,11.0186252723661,299.7431869470589,-54.706378753034514,-32.401730349933246,0
4166.0,11.573148,-358.3292432720522,114.86766536367612,-160.53604845603937,127.28227444587895,-29.726491526384,-155.08491086211498,0
4171.0,11.587038,233.5735623948684,-143.92456309072423,-555.0087310291561,78.46907292229268,-253.22673395275223,-84.63825961458049,0
4176.0,11.600928,-29.00944764010916,-54.445404617431365,-240.80494059755125,134.99775741592282,70.62834124522067,-110.79753639216496,0
4181.0,11.614818,22.38782608907452,-79.0530190331502,-415.7719633300368,47.20048664525427,-61.34935405049576,-20.076340070040303,0
4186.0,11.628708,-57.54512204656372,-30.905439373834486,-72.51878016511552,242.26325311834933,-157.55096919078815,-105.19985223691684,0
4191.0,11.642598,-12.734502275551478,-76.92303904183237,-311.94467802880433,113.59014112210228,-33.069941844443505,-140.68645344928223,0
4196.0,11.656488,-116.85191288016244,29.21036264708105,-15.215654049101715,134.81115705223192,-224.3903378883105,-82.80857684853746,0
4201.0,11.670378,-80.48358724477353,-52.43815944266876,-4.789889246522609,94.03241272939562,-16.087133737022572,-146.41743699086666,0
4206.0,11.684268,33.46176716574634,59.04788864436465,-1.506452621735484,178.09858098749865,38.983153891156775,-27.26589137187429,0
4211.0,11.698158,-39.20561310848916,-31.265102175634983,60.9553507866241,84.73386745901514,-231.82378871993365,-119.94497084595876,0
4216.0,11.712048,16.992471794842423,-108.62572902336768,69.67648706611526,-15.359202229091954,-87.2491190654352,-182.147645406836,0
4221.0,11.725938,-24.4656402577043,121.97154615845444,-56.91369396957151,70.7838860303614,-29.96467358977578,9.460551516072035,0
4226.0,11.739828,-25.724882113939856,42.70777924063994,145.59546720601995,-56.086171360998414,210.27984538399355,-303.4908055383289,0
4231.0,11.753718,-49.99582082367003,125.74212207614602,-6.901858155677049,-3.680338636811325,-63.91845112563236,33.55341300253979,0
4236.0,11.767608,-15.418631053018458,-4.609941125277366,145.28711698272693,78.41039393805546,75.09731184817674,-131.52335262227615,0
4241.0,11.781498,-24.140308108374327,133.81013235507007,-3.9780734670564826,104.91504481670836,96.66363332639251,-142.32750865154938,0
4246.0,11.795388,-88.77954743443243,-43.37107159678216,33.60530285137474,-69.49556090937327,-73.17625229751481,-78.33516679724134,0
4251.0,11.809278,17.179479434686016,64.45027712125912,-1.9087734915212595,-277.0908608089942,201.9028693233344,-345.8371792802568,0
4256.0,11.823168,-194.33026373699823,148.63167280318623,208.8702118622708,232.5532188864262,254.73995473025093,-76.76356192561391,0
4261.0,11.837058,62.27530249636267,-72.29373467248594,-119.55398844307342,-141.91003547760755,87.92194375358292,-286.9309001610816,0
4266.0,11.850948,-224.7275419070077,197.24934721150169,194.3724481199781,98.6199274176226,335.99236572389043,-60.3540333314948,0
4271.0,11.864838,-120.25880948507438,84.87773867500994,26.87834075249989,-308.4282023572869,45.835776772911615,-301.4285099915312,0
4276.0,11.878728,-81.31217475580448,80.65236024496454,-56.24567099965736,-200.38043203358404,184.1369591286818,-72.84373555353272,0
4281.0,11.892618,20.48105243198484,31.42786530002013,67.40056530962961,-163.80126741384916,270.1192289863325,-284.92010100989665,0
4286.0,11.906508,-97.43011226269648,78.87578118433262,75.97883069277466,-231.31827839949776,96.62385999291534,146.64108576598534,0
4291.0,11.920398,-62.32205478408113,81.26244858426978,129.7625752594863,-327.32961145691866,48.48646627315063,-120.22751160322709,0
4296.0,11.934288,-121.16434967247493,-40.61829095889372,52.4709051640437,-182.8372271875305,1.7464051488666072,23.346651712654136,0
4301.0,11.948178,-103.58598455335613,146.0484902765651,16.574307364618207,-317.39428552763536,208.44337389084177,158.94687807175117,0
4306.0,11.962068,-216.6563682048888,192.61097651875383,64.392807394518,-292.4246121899571,124.33113466103552,93.00079822113553,0
4311.0,11.975958,-136.59242748143888,-69.02259114732527,4.951312332366022,-292.79085906616785,-159.86100028293544,122.3235551558866,0
4316.0,11.989848,259.5523511791131,-27.978901286305657,80.7804732269293,-263.75111246167364,103.8202985453628,116.9973121461582,0
4321.0,12.003738,-212.8537021140566,113.99614766467404,6.874901485308214,-263.2780244003446,-69.88477745008035,-68.08265835405085,0
4326.0,12.017628,-151.4580496814246,6.466381196024294,99.80481458494005,-336.7348319449492,27.537240404687303,151.235266488014,0
4331.0,12.031518,-30.02134442493565,13.200533394371757,-1.913120707175864,-199.0549668899651,-21.91253280485705,27.474033724643945,0
4336.0,12.045408,39.5109599500211,-98.42173275840726,76.72493042049148,-274.8814110422551,-66.22091266847596,189.61905894085493,0
4341.0,12.059298,-82.40791307801499,18.43740293994341,-80.38217990689526,-125.24378080689486,-68.4157528213604,95.2653141667822,0
4346.0,12.073188,-54.51457212663503,-34.985549758729704,87.86303624382226,60.887111053435206,-170.73563850793272,138.6533984299985,0
4351.0,12.087078,-40.753462531943526,37.88441940479992,98.55451813216727,-189.06698983516816,11.561928774857815,150.94697100632294,0
4356.0,12.100968,75.32860592674476,-192.84812436046587,-28.18246724947561,189.4506844476857,-66.52324221400517,258.79674797487365,0
4361.0,12.114858,-31.606934573483706,100.56451181392012,16.58059193276239,197.36068521103945,13.75858614893421,612.6133030860767,0
4366.0,12.128748,147.96416320645503,-91.1064935873006,93.49154423956054,378.4637981853113,-60.32793977388467,301.6608220427822,0
4371.0,12.142638,-132.13186328605812,8.650316277338852,104.72079876709326,449.4440445279749,102.18738801179327,689.3288860875884,0
4376.0,12.156528,120.46307129304238,-19.03974038074843,13.694886782369649,229.2484616060966,-193.56725733641773,143.28127413738338,0
4381.0,12.170418,97.0621069733588,126.48563099377635,-33.54410824492466,229.41784502535592,394.2678384267688,174.5243984600486,0
4386.0,12.184308,82.70497223652816,-116.03771155263296,91.7962041458126,38.9660441244384,-263.70064575424965,31.93051560717288,0
4391.0,12.198198,67.81375411693685,-55.8189811396406,-49.83254700677238,57.30123072967338,87.10103327118836,-112.75322559487066,0
4396.0,12.212088,125.3675964952877,154.38893301203746,204.08804053869247,107.66582892443245,110.60028677925328,-267.4526505841131,0
4401.0,12.225978,151.5300605875185,-9.845800200182664,150.85914071477464,-123.35633797189848,-122.59837256228384,35.46025047472318,0
4406.0,12.239868,41.59100560428125,157.63662930511825,19.16837299911632,176.23341997203755,316.4707706389726,-136.0563126515562,0
4411.0,12.253758,69.36516205299681,-77.77993651112892,129.66475744579793,-67.58091049475237,-124.76267735977623,27.565914965113063,0
4416.0,12.267648,173.8514180892211,11.460662559313526,49.43536094084789,39.62591530764978,82.92937205875498,-71.20833658327953,0
4421.0,12.281538,385.7621074785175,-15.224085297148129,-412.4850240632784,-69.72813138781001,-379.1205080406278,-34.02872462510204,0
4426.0,12.295428,-88.86647523647477,127.6355082345242,494.1861094761457,190.43379329195227,300.0733375490006,-103.49418183317287,0
4431.0,12.309318,129.9460054685046,24.425506663688434,82.37562046225031,52.04417037546944,-190.57429845252955,-73.00400219444006,0
4436.0,12.323208,91.41753852587414,52.23985311669378,176.81364838264827,-40.0137843017225,-105.39995507812326,20.77547495389304,0
4441.0,12.337098,174.6196799690077,-101.60530052308368,81.65430057225983,132.57234200456747,-199.49890565678567,-94.15042622974669,0
4446.0,12.350988,185.8456212519148,148.88551742632342,-30.138737681514844,137.55397758648246,-123.6530358780308,-87.7067136782766,0
4451.0,12.364878,118.58445454453933,-1.5125221910328888,175.0143850540798,-121.37705975787938,-316.0878878067002,-42.93410223078782,0
4456.0,12.378768,268.12472513491616,-88.55154577308525,5.71515553648608,272.90195415210644,-10.42768915451768,-352.0257471012362,0
4461.0,12.392658,222.6233868019352,-32.300588326441655,70.75794077996885,-103.59961622567326,-125.58995698984482,76.3443372592409,0
4466.0,12.406548,248.5418243514843,153.751306090113,63.098006084987,267.94002520620774,-180.3453140583954,-234.00031310565828,0
4471.0,12.420438,228.3445266380328,-141.88824698739623,160.518160893596,-94.2651913205692,-361.3239032945652,-205.4544279673075,0
4476.0,12.434328,236.12278870274773,81.71665010308936,-135.00154562478252,92.78209179804588,51.60838967429911,-126.75061641713536,0
4481.0,12.448218,270.85288869770307,89.48930239461751,15.250963910435368,83.02959675119938,-219.7532643158825,-44.66439268235123,0
4486.0,12.462108,330.9607460784756,-82.19471099271237,-112.65715240517746,68.85286611605032,-256.52996092819194,-328.23562974566505,0
4491.0,12.475998,187.2651190673184,-51.48377368941697,102.16439792682532,114.6566276726144,95.00142937209664,30.23208104035505,0
4496.0,12.489888,274.7612449753718,-2.972274149431044,81.5719299936787,-40.96152299701433,-303.0781312025441,-93.72784690536152,0
4501.0,12.503778,274.0330106737717,-45.17302181577473,60.245673552822325,257.1967372167791,-131.103394335459,55.828336315002005,0
4506.0,12.517668,281.50229095709494,10.864664995593134,-30.205240589400944,161.90562899276432,-2.85113565983238,24.21045898273635,0
4511.0,12.531558,131.59917427619473,46.70149956968198,7.77802278663917,250.0430693960216,279.94110560068634,72.69553511623295,0
4516.0,12.545448,372.9814425044152,-171.1880790183127,-64.28346161076534,90.99380871260712,-440.10116973488726,164.75785222729286,0
4521.0,12.559338,169.08277998616046,-8.960553992466217,33.04623816899122,39.49695413446226,21.77325816150204,70.52341062537465,0
4526.0,12.573228,369.7640248980022,-15.297270430999042,-138.51804937017155,405.3037597965689,172.95978316541442,76.99186274444702,0
4531.0,12.587118,249.4028503631396,-137.6376353982157,-71.91311187480876,71.76923415324399,-286.2446636765624,129.50538346864715,0
4536.0,12.601008,149.7761965137495,-27.622714936130727,101.48575591789786,47.29721278132188,60.5826656054039,187.28808613996569,0
4541.0,12.614898,398.121573373526,-40.172840521788615,-212.55578258507657,179.008368427889,-33.27824612028245,66.86058153346539,0
4546.0,12.628788,190.95425420630423,-88.27401656755019,-130.65659071452797,-192.2007747630892,-93.68160402145324,-47.09873193246695,0
