gyrx(deg/s),gyry(deg/s),gyrz(deg/s),accx(g),accy(g),accz(g)
-17.988,4.512,-30.061,-0.824,-0.379,0.077
-18.902,4.451,-28.293,-0.801,-0.404,0.088
-20.244,4.268,-26.159,-0.787,-0.401,0.1
-21.28,3.72,-24.024,-0.772,-0.407,0.099
-22.866,3.11,-21.463,-0.762,-0.413,0.093
-25.671,2.378,-19.085,-0.755,-0.418,0.082
-27.805,2.073,-16.707,-0.752,-0.413,0.073
-29.573,1.829,-14.512,-0.75,-0.398,0.07
-31.28,1.524,-12.683,-0.736,-0.381,0.064
-32.012,1.341,-11.159,-0.723,-0.36,0.058
-31.951,1.28,-10,-0.712,-0.336,0.049
-30.793,1.159,-9.39,-0.707,-0.315,0.049
-28.78,0.854,-9.329,-0.699,-0.301,0.052
-25.915,0.549,-9.573,-0.687,-0.287,0.059
-21.524,0.061,-10.305,-0.675,-0.271,0.083
-15.854,-0.793,-11.22,-0.661,-0.256,0.119
-9.39,-1.768,-12.256,-0.642,-0.239,0.159
-2.5,-2.866,-13.537,-0.621,-0.227,0.202
5.671,-3.902,-15.488,-0.598,-0.222,0.225
14.207,-5.488,-18.171,-0.573,-0.215,0.244
22.622,-7.683,-21.951,-0.538,-0.197,0.256
33.171,-10.366,-26.829,-0.51,-0.189,0.283
47.683,-13.354,-33.659,-0.504,-0.199,0.329
62.073,-16.037,-41.585,-0.505,-0.196,0.369
74.939,-18.659,-51.159,-0.493,-0.198,0.407
86.098,-21.402,-62.561,-0.457,-0.189,0.472
96.28,-24.39,-75.671,-0.443,-0.204,0.516
104.63,-27.683,-89.939,-0.446,-0.182,0.563
111.16,-30.671,-105.24,-0.445,-0.136,0.625
115.49,-34.085,-121.77,-0.429,-0.081,0.675
118.11,-37.988,-139.15,-0.421,-0.027,0.715
118.84,-42.073,-157.07,-0.424,0.04,0.771
116.95,-46.89,-175.73,-0.443,0.121,0.828
113.23,-51.829,-195.24,-0.479,0.194,0.9
107.68,-57.195,-215.91,-0.524,0.267,0.972
100.49,-62.744,-237.07,-0.574,0.347,1.059
91.22,-68.659,-257.81,-0.645,0.43,1.145
80.793,-74.512,-278.72,-0.726,0.491,1.208
69.939,-80.427,-299.51,-0.811,0.528,1.272
59.085,-86.524,-319.69,-0.903,0.528,1.317
47.5,-92.744,-338.84,-0.988,0.505,1.353
33.841,-98.476,-356.52,-1.078,0.476,1.366
19.573,-103.66,-372.5,-1.184,0.438,1.344
6.341,-108.48,-386.71,-1.278,0.383,1.298
-5.305,-112.19,-399.15,-1.349,0.324,1.256
-16.28,-114.08,-410.49,-1.417,0.242,1.229
-24.329,-114.21,-419.94,-1.511,0.136,1.249
-28.659,-112.44,-427.32,-1.653,-0.029,1.259
-30.122,-109.27,-431.89,-1.805,-0.242,1.285
-29.756,-105.92,-433.11,-1.947,-0.492,1.31
-26.768,-102.87,-429.51,-2.097,-0.81,1.265
-20.488,-100.67,-420.31,-2.227,-1.169,1.162
-11.89,-99.512,-405.92,-2.341,-1.535,1.038
-1.707,-99.939,-383.78,-2.486,-1.945,0.827
10.244,-103.54,-352.74,-2.642,-2.382,0.561
24.512,-111.04,-315.55,-2.783,-2.81,0.255
39.207,-124.51,-270.85,-2.924,-3.196,-0.076
49.817,-145.73,-218.66,-3.087,-3.55,-0.345
61.159,-171.83,-161.65,-3.259,-3.905,-0.624
77.134,-201.34,-100.92,-3.439,-4.215,-0.99
93.659,-235.31,-37.927,-3.609,-4.522,-1.341
112.74,-273.66,26.89,-3.82,-4.76,-1.665
136.52,-313.96,93.476,-4.056,-4.834,-1.964
164.02,-354.57,160.49,-4.267,-4.872,-2.293
197.5,-395,226.71,-4.422,-4.917,-2.631
237.32,-432.5,291.34,-4.498,-4.971,-2.918
279.33,-464.88,353.54,-4.496,-4.998,-3.104
321.77,-491.65,412.68,-4.4,-5.004,-3.209
361.65,-513.48,467.5,-4.197,-4.978,-3.262
399.33,-530.12,518.17,-3.878,-4.916,-3.289
435.12,-541.4,564.82,-3.476,-4.857,-3.336
468.48,-546.77,608.6,-3.006,-4.809,-3.374
499.27,-546.34,648.66,-2.496,-4.703,-3.385
529.02,-542.74,683.96,-1.925,-4.524,-3.315
561.22,-535.3,712.26,-1.34,-4.295,-3.208
594.02,-522.99,733.23,-0.796,-4.152,-3.079
625.24,-506.4,747.2,-0.316,-4.095,-2.931
656.34,-486.71,753.78,0.105,-4.095,-2.907
687.99,-464.33,754.21,0.543,-4.133,-2.875
719.76,-438.42,748.84,0.943,-4.14,-2.791
747.38,-410.18,733.72,1.289,-4.15,-2.684
771.83,-384.45,705,1.541,-4.155,-2.584
787.2,-366.77,658.17,1.713,-4.124,-2.585
796.95,-357.56,585.98,1.871,-4.049,-2.621
780.73,-354.51,480.92,1.969,-3.934,-2.625
743.05,-341.77,350.92,1.9,-3.822,-2.616
703.41,-318.72,226.46,1.774,-3.733,-2.589
672.8,-293.6,123.17,1.735,-3.528,-2.477
632.26,-259.88,35.488,1.976,-2.989,-2.008
574.57,-211.65,-19.634,2.275,-2.376,-1.491
512.99,-153.72,-34.695,2.561,-2.561,-1.13
448.96,-96.524,-20.488,3.001,-2.999,-1.174
368.42,-46.28,8.171,3.693,-2.542,-1.517
268.11,-9.024,36.22,4.511,-1.514,-1.903
151.95,6.28,57.195,5.181,-0.71,-2.328
32.744,2.988,77.683,5.562,-0.345,-2.683
-76.524,-5.122,100.18,5.734,0.062,-2.742
-157.44,-13.902,119.15,5.854,0.387,-2.31
-199.33,-19.878,128.48,5.699,0.346,-1.543
-208.35,-19.878,125.06,5.31,0.418,-0.833
-192.81,-14.39,111.83,4.84,0.58,-0.306
-161.34,-8.598,92.866,4.382,0.522,-0.233
-122.62,-9.634,71.28,4.09,0.255,-0.537
-83.659,-19.756,46.463,4.146,0.05,-0.897
-52.622,-33.598,19.268,4.364,-0.034,-1.048
-34.756,-46.22,-8.354,4.326,0.056,-0.928
-31.646,-56.098,-35.915,3.887,0.306,-0.688
-42.5,-63.354,-62.927,3.276,0.623,-0.515
-62.805,-67.134,-90,2.799,1.025,-0.445
-89.695,-67.195,-118.05,2.549,1.452,-0.406
-116.89,-63.963,-147.07,2.419,1.839,-0.346
-141.04,-58.171,-175.85,2.309,2.137,-0.268
-158.72,-50.915,-202.32,2.203,2.292,-0.17
-169.21,-43.354,-224.63,2.149,2.319,-0.009
-173.05,-36.28,-242.68,2.155,2.18,0.11
-170.67,-28.78,-257.26,2.188,1.922,0.277
-163.11,-20.427,-268.78,2.159,1.58,0.444
-152.74,-10.366,-276.95,2.115,1.166,0.652
-141.1,2.012,-282.26,2.077,0.723,0.878
-130.98,17.561,-285.73,2.049,0.27,1.125
-126.34,35.854,-286.77,2.025,-0.146,1.358
-130.06,55.793,-284.15,1.986,-0.508,1.55
-141.95,77.195,-278.6,1.93,-0.851,1.707
-162.74,103.48,-270.12,1.873,-1.128,1.833
-192.01,131.83,-259.69,1.794,-1.303,1.919
-228.05,161.71,-247.32,1.692,-1.406,1.994
-267.5,193.41,-233.23,1.523,-1.504,1.913
-306.89,223.54,-218.11,1.387,-1.572,1.915
-342.99,253.78,-203.17,1.335,-1.628,1.909
-375.18,281.71,-187.81,1.225,-1.688,1.806
-400.31,306.4,-172.07,1.129,-1.74,1.739
-415.79,329.39,-157.19,1.013,-1.766,1.591
-423.48,350.06,-142.26,0.83,-1.861,1.449
-422.99,367.87,-128.23,0.711,-1.935,1.348
-413.48,384.33,-115.61,0.516,-2.001,1.193
-395.98,398.11,-104.08,0.347,-2.013,1.077
-374.02,408.17,-91.585,0.174,-2.063,0.958
-350.12,414.27,-77.866,0.027,-2.137,0.838
-326.04,419.15,-62.744,-0.135,-2.206,0.702
-305.06,421.95,-47.256,-0.268,-2.263,0.61
-289.27,423.23,-31.89,-0.411,-2.321,0.512
-277.56,423.48,-17.744,-0.537,-2.272,0.386
-270.85,421.95,-4.695,-0.674,-2.169,0.271
-269.15,418.6,8.659,-0.767,-2.041,0.182
-271.16,413.48,22.866,-0.875,-1.904,0.063
-277.74,406.89,39.268,-0.974,-1.768,-0.045
-285.31,399.45,56.768,-1.086,-1.585,-0.122
-289.88,391.4,72.622,-1.204,-1.381,-0.149
-289.08,382.26,86.768,-1.334,-1.132,-0.145
-282.32,370.37,99.695,-1.456,-0.896,-0.156
-270.31,357.62,111.58,-1.564,-0.764,-0.219
-252.74,345,121.58,-1.637,-0.708,-0.306
-232.56,332.44,129.15,-1.664,-0.676,-0.422
-208.66,320.24,134.02,-1.652,-0.664,-0.538
-180.91,308.6,135.85,-1.632,-0.593,-0.602
-152.93,296.95,135.18,-1.628,-0.505,-0.576
-123.96,285.43,133.84,-1.628,-0.432,-0.519
-98.659,274.21,131.95,-1.647,-0.425,-0.427
-76.463,264.15,128.48,-1.675,-0.391,-0.273
-55.305,254.69,123.35,-1.68,-0.308,-0.158
-36.037,244.51,117.07,-1.649,-0.154,-0.056
-19.634,233.54,109.69,-1.603,0.032,0.001
-7.683,221.4,101.58,-1.579,0.191,0.023
0.549,208.96,93.902,-1.6,0.311,0.014
4.512,196.4,86.22,-1.636,0.401,-0.015
4.085,184.02,78.11,-1.646,0.526,-0.004
1.646,172.01,69.695,-1.632,0.669,0.019
-2.805,160.37,60.427,-1.604,0.792,0.063
-7.5,149.57,51.037,-1.576,0.869,0.157
-11.037,138.96,41.951,-1.564,0.905,0.232
-14.207,129.09,31.768,-1.559,0.931,0.284
-24.451,126.89,16.28,-1.548,0.941,0.317
-46.341,134.76,-8.72,-1.542,0.937,0.344
-68.659,143.9,-40.427,-1.558,0.936,0.362
-77.927,143.9,-62.317,-1.549,0.942,0.393
-68.415,135.55,-67.012,-1.362,1.066,0.554
-45.244,122.19,-66.402,-0.84,1.644,0.975
-15.305,109.08,-68.598,-0.581,2.175,1.343
13.598,97.561,-70.61,-0.779,2.227,1.63
37.317,85.915,-71.951,-1.238,1.483,1.675
57.744,72.683,-73.659,-1.44,0.912,1.301
75.122,56.89,-72.073,-1.465,0.291,0.689
85.671,40.305,-65.732,-1.455,-0.189,0.27
88.171,25.549,-57.256,-1.474,-0.537,0.02
84.268,13.293,-48.171,-1.504,-0.631,-0.07
73.232,4.695,-38.78,-1.573,-0.627,-0.078
53.72,0.061,-30.122,-1.611,-0.613,-0.07
25.671,-0.122,-22.927,-1.554,-0.561,-0.055
-7.012,2.927,-18.537,-1.476,-0.561,-0.081
-36.768,6.524,-15.61,-1.437,-0.561,-0.126
-53.72,9.085,-13.415,-1.402,-0.483,-0.128
-57.378,9.512,-11.829,-1.318,-0.346,-0.069
-49.939,9.451,-10.366,-1.22,-0.199,0.036
-33.78,10.366,-9.756,-1.145,-0.139,0.159
-11.341,11.768,-10,-1.119,-0.229,0.26
12.195,12.622,-10.366,-1.091,-0.407,0.291
34.085,12.012,-11.037,-1.051,-0.522,0.273
52.744,10.244,-11.829,-1.033,-0.538,0.266
65.122,8.902,-11.707,-1.03,-0.553,0.232
71.28,7.988,-10.732,-1.029,-0.535,0.218
70.793,6.829,-9.512,-0.995,-0.501,0.212
64.817,5.854,-8.171,-0.96,-0.406,0.193
55.671,5.366,-7.012,-0.932,-0.324,0.183
44.634,4.939,-5.976,-0.933,-0.259,0.151
32.988,4.756,-5,-0.954,-0.249,0.099
22.073,4.512,-3.598,-0.978,-0.238,0.067
12.805,4.512,-2.683,-1.022,-0.224,0.033
6.22,5.183,-1.768,-1.059,-0.219,0.003
2.195,5.61,-0.915,-1.075,-0.2,-0.016
-0.061,6.037,0.061,-1.093,-0.184,-0.035
0.488,6.707,0.915,-1.1,-0.183,-0.049
3.537,7.744,1.524,-1.091,-0.194,-0.039
7.439,8.598,1.89,-1.08,-0.21,-0.024
11.768,9.634,2.134,-1.055,-0.228,-0.001
16.22,10.854,2.195,-1.036,-0.25,0.044
19.085,11.524,2.5,-1.032,-0.281,0.09
20.976,12.195,3.232,-1.024,-0.311,0.125
21.463,13.232,3.902,-1.023,-0.333,0.164
20.915,14.085,4.512,-1.05,-0.329,0.188
19.268,14.695,5.122,-1.072,-0.323,0.194
17.256,14.878,5.671,-1.069,-0.288,0.193
15.671,15.122,5.854,-1.046,-0.243,0.204
15.061,15.488,5.244,-1.032,-0.238,0.198
14.817,15.671,4.634,-1.018,-0.257,0.187
14.573,15.183,3.78,-0.99,-0.275,0.178
13.659,14.695,2.805,-0.964,-0.272,0.177
12.073,14.146,2.134,-0.966,-0.262,0.172
10.244,13.537,1.768,-0.969,-0.273,0.167
8.049,12.988,1.341,-0.969,-0.291,0.14
5.366,12.195,0.61,-0.944,-0.276,0.133
2.744,11.159,-0.061,-0.924,-0.26,0.127
0.732,10.244,-0.915,-0.93,-0.259,0.108
-1.159,9.329,-2.195,-0.931,-0.263,0.108
-2.439,8.232,-3.232,-0.916,-0.273,0.107
-3.354,7.256,-4.207,-0.898,-0.276,0.099
-4.146,6.402,-5,-0.879,-0.278,0.097
-4.39,5.793,-5.671,-0.877,-0.296,0.088
-4.39,5.549,-6.524,-0.881,-0.319,0.08
-4.024,5.244,-7.195,-0.878,-0.317,0.079
-3.11,5.366,-8.11,-0.875,-0.325,0.087
-1.524,5.732,-8.72,-0.879,-0.333,0.094
0.854,6.28,-9.39,-0.881,-0.344,0.095
3.841,7.012,-10.183,-0.875,-0.355,0.104
6.951,7.439,-11.159,-0.853,-0.354,0.125
9.878,7.744,-11.951,-0.837,-0.345,0.141
12.561,8.232,-12.988,-0.835,-0.355,0.15
14.268,8.78,-13.841,-0.826,-0.377,0.15
14.817,9.573,-14.329,-0.816,-0.399,0.158
15,10.549,-14.817,-0.809,-0.409,0.156
14.817,11.22,-14.878,-0.812,-0.406,0.155
14.207,11.951,-14.512,-0.835,-0.392,0.148
14.085,12.805,-14.146,-0.816,-0.38,0.13
14.817,14.024,-13.902,-0.836,-0.371,0.104
15.915,14.756,-14.146,-0.842,-0.365,0.08
17.5,15,-14.512,-0.839,-0.351,0.073
19.573,15.244,-14.695,-0.819,-0.341,0.083
21.341,15.488,-15.122,-0.81,-0.341,0.1
22.744,15.244,-15.183,-0.814,-0.349,0.099
23.659,15.122,-15.244,-0.805,-0.366,0.102
24.451,14.939,-15.61,-0.801,-0.371,0.107
25.427,14.573,-16.037,-0.788,-0.362,0.103
