gyrx(deg/s),gyry(deg/s),gyrz(deg/s),accx(g),accy(g),accz(g)
-11.28,-5.61,-1.098,0.708,0.571,0.489
-10.183,-5.671,-0.915,0.712,0.568,0.495
-8.659,-5.549,-0.915,0.719,0.568,0.505
-6.829,-5.366,-0.61,0.734,0.566,0.509
-4.939,-5.244,-0.061,0.744,0.567,0.507
-2.927,-5.244,0.427,0.747,0.567,0.511
-1.098,-5.122,1.037,0.747,0.569,0.508
0.854,-4.939,1.768,0.744,0.566,0.511
2.622,-4.939,2.561,0.746,0.563,0.514
4.329,-5.061,3.598,0.752,0.564,0.518
5.61,-4.878,4.878,0.744,0.562,0.518
6.524,-4.756,6.22,0.739,0.554,0.524
6.951,-4.817,7.439,0.738,0.553,0.527
6.951,-5,8.902,0.735,0.555,0.524
6.829,-5.244,10.427,0.736,0.544,0.516
6.768,-5.427,12.012,0.734,0.538,0.517
6.159,-5.61,13.78,0.723,0.53,0.516
5.488,-5.61,15.61,0.723,0.529,0.519
5.061,-5.61,17.5,0.721,0.534,0.511
4.695,-5.854,19.634,0.716,0.531,0.494
4.268,-6.037,21.768,0.699,0.529,0.488
4.146,-6.402,23.841,0.691,0.529,0.487
3.902,-6.829,25.976,0.692,0.524,0.487
3.963,-7.195,28.293,0.69,0.526,0.486
4.451,-7.561,30.793,0.684,0.529,0.49
5.305,-7.927,33.476,0.679,0.529,0.478
6.159,-8.293,35.854,0.67,0.526,0.469
7.256,-8.598,37.866,0.656,0.516,0.458
8.902,-9.085,39.756,0.646,0.501,0.459
10.61,-9.512,41.829,0.643,0.494,0.456
12.744,-9.817,43.902,0.643,0.491,0.447
14.878,-10.427,45.671,0.641,0.486,0.438
16.646,-11.037,47.256,0.642,0.478,0.435
18.415,-11.28,48.72,0.634,0.472,0.427
20.244,-11.829,50.122,0.631,0.469,0.418
21.707,-12.744,51.646,0.635,0.482,0.418
22.5,-13.293,52.988,0.634,0.496,0.413
23.171,-13.78,54.146,0.637,0.493,0.411
23.659,-14.146,55.122,0.639,0.493,0.412
23.72,-14.268,55.671,0.649,0.497,0.406
23.293,-14.268,56.037,0.653,0.499,0.401
22.927,-14.207,56.22,0.651,0.497,0.401
22.256,-14.085,56.159,0.648,0.493,0.394
21.585,-13.841,56.037,0.645,0.489,0.383
20.793,-13.598,55.915,0.646,0.479,0.37
20,-13.11,55.488,0.644,0.467,0.367
19.451,-12.622,55,0.639,0.466,0.369
19.024,-12.134,54.451,0.645,0.466,0.368
18.293,-11.768,53.963,0.649,0.46,0.373
16.768,-11.524,53.354,0.644,0.451,0.376
15.122,-11.037,52.439,0.65,0.447,0.373
13.598,-10.488,51.22,0.647,0.441,0.371
11.585,-10.061,50,0.636,0.43,0.371
9.512,-9.512,48.902,0.625,0.424,0.365
7.317,-8.72,47.927,0.618,0.416,0.363
5.244,-7.927,46.951,0.615,0.417,0.366
3.11,-7.256,45.732,0.61,0.414,0.366
1.402,-6.646,44.573,0.612,0.416,0.367
0,-5.793,43.415,0.616,0.416,0.373
-1.402,-5.183,42.378,0.619,0.419,0.375
-2.378,-4.817,41.463,0.614,0.419,0.375
-2.744,-4.573,40.549,0.611,0.407,0.374
-2.683,-4.085,39.329,0.61,0.398,0.373
-2.012,-3.354,38.232,0.605,0.393,0.379
-0.915,-2.683,37.317,0.601,0.391,0.385
0.732,-1.768,36.28,0.596,0.391,0.392
2.5,-1.037,35.061,0.588,0.39,0.392
4.329,-0.183,33.963,0.585,0.39,0.395
6.159,0.793,32.805,0.584,0.388,0.397
7.622,1.707,31.646,0.591,0.391,0.405
8.659,2.561,30.427,0.592,0.4,0.405
9.146,3.415,29.085,0.59,0.405,0.41
8.963,4.085,27.622,0.593,0.41,0.408
8.232,4.939,25.915,0.595,0.422,0.404
6.89,5.61,23.963,0.601,0.425,0.398
5.488,6.402,21.89,0.603,0.427,0.403
3.841,7.073,19.878,0.602,0.428,0.413
2.134,7.622,17.805,0.605,0.433,0.415
0.427,7.988,16.098,0.599,0.438,0.424
-0.732,8.354,14.146,0.603,0.443,0.435
-1.463,8.78,12.134,0.613,0.443,0.437
-1.89,9.268,9.939,0.625,0.445,0.44
-1.89,9.451,7.744,0.635,0.45,0.436
-1.707,9.573,5.732,0.634,0.454,0.437
-0.976,9.634,3.902,0.639,0.457,0.441
0,9.939,2.073,0.648,0.461,0.441
1.28,10,0.183,0.652,0.472,0.449
2.683,9.817,-1.707,0.652,0.478,0.462
4.268,9.756,-3.415,0.652,0.485,0.472
5.793,9.451,-5.183,0.652,0.489,0.476
7.256,9.085,-6.768,0.657,0.492,0.482
8.415,8.841,-8.354,0.652,0.501,0.483
9.39,8.476,-10.061,0.645,0.511,0.487
10.122,8.11,-11.768,0.632,0.521,0.489
10.671,7.866,-13.476,0.62,0.528,0.492
10.854,7.5,-14.817,0.615,0.528,0.495
10.61,7.195,-16.22,0.605,0.535,0.505
10.122,6.768,-17.439,0.593,0.548,0.514
9.512,6.159,-18.659,0.588,0.546,0.516
8.659,5.488,-19.756,0.571,0.55,0.513
7.683,4.756,-20.854,0.564,0.555,0.5
6.585,4.268,-21.768,0.561,0.549,0.487
5.427,3.72,-22.622,0.555,0.546,0.483
4.573,3.049,-23.232,0.546,0.544,0.48
3.293,2.683,-23.598,0.543,0.537,0.475
1.951,2.317,-24.024,0.537,0.532,0.482
0.61,2.012,-24.207,0.537,0.527,0.474
-0.549,1.524,-24.451,0.546,0.522,0.456
-1.89,1.22,-24.695,0.564,0.51,0.442
-3.232,0.854,-24.756,0.565,0.504,0.431
-4.756,0.549,-24.634,0.562,0.502,0.421
-6.037,0.183,-24.512,0.56,0.501,0.418
-7.378,-0.427,-24.329,0.567,0.506,0.412
-8.415,-0.854,-24.207,0.579,0.515,0.407
-9.329,-1.707,-24.268,0.584,0.519,0.402
-9.939,-2.439,-24.634,0.575,0.523,0.391
-10.671,-3.293,-25.183,0.57,0.525,0.394
-10.915,-4.268,-25.976,0.569,0.539,0.393
-11.037,-5.122,-27.073,0.578,0.55,0.383
-10.793,-5.976,-28.537,0.591,0.547,0.376
-9.939,-6.646,-30.244,0.595,0.552,0.371
-8.841,-7.195,-32.134,0.593,0.562,0.363
-7.012,-7.561,-34.024,0.602,0.566,0.347
-5.244,-7.866,-35.915,0.615,0.574,0.346
-3.72,-8.293,-37.866,0.63,0.577,0.34
-1.951,-8.537,-39.939,0.636,0.572,0.336
-0.305,-8.902,-42.134,0.631,0.568,0.339
1.22,-9.146,-44.39,0.632,0.579,0.333
2.195,-9.207,-46.341,0.628,0.584,0.334
2.561,-9.451,-48.293,0.62,0.579,0.341
2.195,-9.817,-49.878,0.617,0.562,0.348
1.28,-10.061,-51.402,0.615,0.559,0.346
-0.244,-10.305,-52.866,0.612,0.558,0.339
-2.256,-10.244,-53.963,0.606,0.556,0.338
-5.244,-10.244,-54.817,0.604,0.562,0.336
-8.72,-10.427,-55.549,0.594,0.566,0.324
-12.805,-10.671,-56.341,0.591,0.558,0.323
-17.073,-10.915,-56.768,0.584,0.543,0.328
-21.646,-11.402,-57.134,0.583,0.534,0.327
-26.28,-12.012,-57.317,0.583,0.525,0.323
-31.159,-12.561,-57.012,0.581,0.523,0.325
-35.976,-13.11,-56.707,0.573,0.524,0.318
-40.549,-13.902,-56.22,0.56,0.518,0.31
-45,-14.756,-55.488,0.533,0.51,0.3
-49.207,-15.549,-54.634,0.54,0.492,0.286
-53.415,-16.402,-53.537,0.538,0.457,0.281
-56.829,-17.561,-52.378,0.527,0.432,0.266
-59.695,-18.841,-51.341,0.503,0.419,0.27
-62.927,-20.366,-50.183,0.477,0.399,0.265
-65.915,-21.951,-49.512,0.467,0.375,0.269
-68.293,-23.659,-48.78,0.459,0.345,0.273
-70.549,-25.244,-47.805,0.453,0.319,0.272
-72.378,-26.89,-46.707,0.445,0.286,0.261
-74.207,-28.476,-45.793,0.432,0.246,0.246
-76.037,-30,-44.756,0.42,0.202,0.23
-77.805,-31.524,-43.963,0.418,0.154,0.215
-80.183,-33.232,-43.293,0.417,0.105,0.196
-82.5,-34.817,-43.049,0.416,0.047,0.178
-84.268,-36.28,-43.11,0.405,-0.009,0.167
-86.463,-37.622,-43.232,0.402,-0.06,0.146
-89.695,-39.207,-43.415,0.392,-0.116,0.124
-92.073,-40.549,-43.171,0.381,-0.158,0.13
-94.573,-41.89,-43.171,0.387,-0.2,0.125
-96.524,-42.744,-43.78,0.394,-0.263,0.115
-98.354,-43.232,-44.756,0.397,-0.324,0.104
-100,-43.476,-46.159,0.406,-0.382,0.078
-101.28,-43.354,-47.561,0.446,-0.436,0.03
-101.83,-43.11,-49.634,0.503,-0.48,-0.013
-101.58,-42.622,-52.256,0.553,-0.516,-0.043
-100.92,-42.073,-55.183,0.584,-0.551,-0.061
-99.512,-41.22,-58.476,0.61,-0.593,-0.057
-97.744,-40.122,-62.073,0.653,-0.604,-0.042
-95.488,-38.963,-65.915,0.708,-0.612,-0.04
-92.439,-37.439,-69.878,0.726,-0.623,-0.041
-89.39,-35.732,-74.756,0.705,-0.626,-0.066
-86.524,-33.902,-80.244,0.712,-0.59,-0.136
-82.622,-31.646,-86.28,0.757,-0.66,-0.229
-77.988,-28.598,-92.683,0.834,-0.6,-0.258
-73.049,-24.695,-99.512,0.887,-0.646,-0.28
-67.622,-20,-107.07,1.028,-0.497,-0.263
-61.341,-14.268,-115.61,1.043,-0.43,-0.243
-54.268,-8.232,-124.88,1.13,-0.319,-0.275
-46.159,-2.134,-134.88,1.288,-0.196,-0.332
-37.195,4.939,-145.49,1.362,-0.133,-0.404
-26.829,12.988,-156.52,1.498,0.089,-0.459
-14.695,20.854,-167.81,1.625,0.33,-0.473
-0.427,28.841,-179.15,1.756,0.615,-0.511
15.183,37.073,-189.94,1.895,1.019,-0.563
33.415,45,-199.94,1.955,1.398,-0.641
55.549,52.927,-210.06,1.975,1.863,-0.772
81.098,61.402,-220.12,1.977,2.353,-0.951
107.07,69.329,-231.1,1.966,2.911,-1.164
138.23,77.195,-240.91,1.938,3.629,-1.405
171.52,86.707,-251.46,1.874,4.366,-1.669
205.85,95.61,-263.23,1.77,5.059,-1.948
241.89,104.27,-276.46,1.663,5.666,-2.318
278.6,112.81,-287.99,1.573,6.156,-2.826
316.04,119.27,-300.31,1.597,6.416,-3.3
354.63,125.55,-312.87,1.734,6.405,-3.615
392.32,130.79,-325.92,1.976,6.337,-3.844
430.06,134.76,-338.96,2.283,6.166,-3.972
468.29,139.45,-350,2.572,5.735,-3.978
508.54,144.57,-359.76,2.758,5.196,-3.977
550.12,149.76,-367.01,2.908,4.616,-3.952
588.78,155.73,-369.69,3.085,4.017,-3.906
622.32,161.52,-368.54,3.157,3.515,-3.887
651.65,167.81,-363.35,3.056,3.162,-3.823
671.83,174.21,-354.76,2.975,2.743,-3.767
681.52,184.33,-343.11,2.733,2.307,-3.739
683.84,198.17,-323.29,2.4,2.032,-3.775
675.12,216.28,-292.62,2.03,1.789,-3.877
657.93,238.9,-255.49,1.595,1.642,-4.101
635.49,265.61,-208.17,1.033,1.578,-4.346
606.77,296.83,-157.44,0.557,1.577,-4.563
572.5,334.51,-105.18,0.122,1.625,-4.717
533.41,376.77,-59.695,-0.253,1.562,-4.666
492.38,420.37,-17.5,-0.492,1.475,-4.388
445.24,461.77,22.317,-0.735,1.565,-4.134
394.33,504.94,59.756,-0.886,1.763,-3.945
345.85,546.4,99.878,-1.208,1.746,-3.881
300.18,585.06,139.82,-1.806,1.81,-3.864
262.13,624.82,178.72,-2.345,1.869,-3.882
233.23,662.87,219.45,-2.723,1.991,-3.675
211.95,696.34,259.94,-3.036,2.016,-3.658
200.12,725.49,300.31,-3.251,2.081,-3.893
196.89,751.16,340.73,-3.862,2.421,-4.225
200.61,766.89,378.72,-4.874,2.689,-3.707
209.21,779.33,411.83,-6.319,2.549,-2.661
224.69,787.56,440.55,-7.547,1.881,-1.765
242.99,792.13,462.62,-7.624,1.434,-1.726
260.79,794.63,481.95,-6.49,0.866,-1.965
274.39,792.07,496.95,-5.247,-0.063,-2.43
282.87,787.32,503.05,-4.774,-0.646,-2.81
289.27,784.02,497.13,-4.419,-0.576,-2.597
292.07,771.16,481.34,-3.563,-0.279,-2.007
288.29,752.2,447.19,-2.638,0.023,-1.331
275.24,714.57,406.95,-2.201,0.376,-0.666
249.27,656.65,367.68,-2.197,0.778,-0.083
200.85,585.61,330.12,-2.302,1.252,0.321
142.32,501.95,300.92,-2.527,2.04,0.596
82.805,416.83,272.26,-2.627,1.998,0.744
36.585,341.04,244.27,-2.612,2.136,0.601
3.963,273.72,213.35,-2.587,2.097,0.352
-27.378,194.57,187.13,-2.472,1.652,0.188
-32.012,115.98,169.51,-2.396,1.583,0.16
8.537,57.256,167.93,-2.068,1.174,0.169
67.317,11.22,174.63,-1.59,0.731,0.142
152.19,-30.732,175.79,-1.2,0.513,-0.061
256.77,-60.854,166.22,-0.958,0.371,-0.319
345.98,-65.732,149.82,-0.784,0.293,-0.524
402.56,-49.695,135.67,-0.553,0.281,-0.709
421.58,-24.329,122.81,-0.31,0.397,-0.846
413.17,8.171,107.68,-0.126,0.637,-0.938
340.85,36.159,94.268,-0.006,0.894,-0.988
238.78,39.268,72.805,0.099,1.182,-1.036
123.9,34.634,56.037,0.223,1.489,-1.053
-4.329,12.622,33.171,0.384,1.766,-1.122
-106.83,-8.476,7.195,0.541,2.004,-1.29
-188.05,-33.841,-19.573,0.611,2.223,-1.466
-243.35,-64.329,-48.902,0.677,2.383,-1.59
-273.66,-90.793,-75.183,0.815,2.526,-1.723
-283.84,-113.72,-96.098,0.972,2.686,-1.872
-278.54,-137.07,-114.88,1.11,2.755,-2.001
-260.31,-162.26,-134.21,1.191,2.764,-2.027
-230.73,-187.99,-154.82,1.295,2.796,-1.996
-196.95,-210.61,-175.06,1.422,2.884,-2.008
-165.91,-227.62,-193.05,1.504,2.908,-1.98
-144.21,-239.33,-209.27,1.573,2.856,-2.007
-135.18,-246.34,-223.11,1.653,2.728,-2.009
-139.88,-249.94,-234.51,1.673,2.643,-1.947
-158.9,-250.49,-244.57,1.769,2.477,-1.873
-191.46,-247.19,-252.5,1.854,2.27,-1.752
-235.43,-242.74,-258.54,1.935,2.04,-1.628
-287.99,-238.17,-264.63,2.015,1.801,-1.432
-346.4,-235.12,-270.06,2.093,1.62,-1.112
-409.33,-231.71,-274.76,2.178,1.464,-0.701
-475.55,-224.39,-279.27,2.275,1.366,-0.382
-541.65,-216.46,-283.11,2.341,1.303,-0.232
-607.8,-203.48,-286.83,2.318,1.274,-0.145
-671.4,-191.77,-290,2.239,1.224,-0.072
-729.27,-177.44,-292.19,2.215,1.162,0.053
-783.9,-159.39,-295,2.225,1.064,0.237
-828.6,-149.94,-292.87,2.223,0.958,0.426
-864.21,-131.28,-295.43,2.174,0.885,0.599
-888.35,-110.79,-295.49,2.116,0.857,0.698
-895.67,-98.841,-289.33,2.028,0.857,0.714
-886.95,-88.293,-281.22,1.977,0.833,0.64
-862.2,-78.78,-269.33,1.951,0.764,0.557
-822.8,-69.939,-252.93,1.916,0.727,0.5
-773.48,-60.793,-235.85,1.883,0.621,0.512
-715.43,-52.5,-219.63,1.848,0.53,0.544
-651.34,-47.805,-202.68,1.863,0.406,0.503
-582.38,-45.793,-184.94,1.821,0.257,0.459
-512.93,-45.488,-167.5,1.704,0.186,0.406
-449.57,-46.829,-153.9,1.603,0.134,0.326
-391.46,-50.061,-142.19,1.509,0.085,0.269
-340.06,-54.451,-128.23,1.39,0.124,0.259
-296.77,-60.976,-114.39,1.308,0.053,0.194
-260.67,-69.512,-99.329,1.243,0.029,0.144
-231.71,-77.439,-82.744,1.115,0.038,0.17
-210.31,-85.854,-70.671,1.045,0.021,0.187
-194.51,-94.085,-61.098,0.99,-0.014,0.176
-180.37,-101.16,-51.402,0.916,0.015,0.174
-169.21,-106.4,-42.622,0.861,0.067,0.147
-160.73,-109.82,-33.293,0.821,0.107,0.126
-148.72,-112.32,-25.488,0.762,0.133,0.14
-135.24,-113.72,-14.817,0.726,0.131,0.131
-125.43,-113.35,-2.5,0.705,0.091,0.105
-116.89,-111.89,7.195,0.655,0.037,0.099
-110.55,-109.51,16.159,0.588,0,0.113
-106.22,-107.13,25.061,0.566,0.036,0.101
-101.95,-103.96,33.415,0.574,0.08,0.059
-102.44,-99.512,40.976,0.597,0.068,0.022
-103.66,-94.573,47.5,0.562,-0.002,0.041
-106.04,-89.085,53.293,0.583,-0.001,0.059
-109.02,-82.439,57.927,0.545,-0.073,0.129
-111.22,-75.305,61.951,0.503,-0.167,0.155
-113.05,-68.476,64.756,0.514,-0.304,0.181
-114.82,-61.707,65.671,0.528,-0.427,0.163
-115.61,-54.512,65.183,0.415,-0.608,0.22
-116.1,-48.11,63.72,0.445,-0.57,0.229
-116.58,-42.195,61.28,0.563,-0.422,0.189
-115.61,-36.707,58.78,0.587,-0.256,0.169
-114.15,-32.195,56.951,0.597,-0.061,0.182
-113.05,-29.329,55,0.576,0.104,0.227
-111.71,-27.073,51.585,0.62,0.249,0.24
-109.15,-25.61,46.402,0.688,0.412,0.271
-105.73,-24.878,40.61,0.708,0.522,0.267
-102.19,-24.329,34.207,0.619,0.426,0.317
-96.646,-23.415,27.5,0.6,0.473,0.339
-90.244,-23.11,20.61,0.633,0.561,0.339
-85.549,-22.622,12.195,0.645,0.607,0.339
-87.744,-22.561,-1.768,0.676,0.701,0.323
-90.427,-24.451,-17.988,0.717,0.692,0.344
-92.073,-27.866,-29.817,0.753,0.648,0.382
-92.744,-29.268,-38.902,0.777,0.596,0.41
-91.829,-28.171,-45.671,0.76,0.537,0.453
-87.866,-26.402,-51.951,0.761,0.476,0.437
-81.646,-24.512,-57.927,0.792,0.421,0.451
-73.354,-21.707,-61.768,0.817,0.359,0.438
-64.146,-18.11,-63.232,0.861,0.322,0.43
-55.671,-14.878,-63.598,0.881,0.296,0.451
-44.756,-12.195,-62.195,0.896,0.251,0.46
-33.598,-11.829,-57.988,0.951,0.261,0.48
-25.244,-11.585,-51.585,0.973,0.272,0.479
-17.744,-10.793,-43.415,0.973,0.297,0.479
-11.89,-10.366,-36.098,0.935,0.323,0.477
-8.415,-9.39,-31.646,0.957,0.384,0.473
-5.915,-8.537,-28.537,0.936,0.393,0.465
-4.573,-7.439,-26.28,0.923,0.414,0.456
-5.976,-6.341,-23.902,0.904,0.411,0.455
-7.439,-5.671,-21.524,0.884,0.414,0.451
-8.598,-4.634,-19.817,0.881,0.411,0.476
-10.488,-4.756,-18.537,0.883,0.407,0.498
-11.402,-4.329,-17.5,0.886,0.403,0.5
-11.159,-3.841,-17.012,0.862,0.395,0.505
-9.146,-3.415,-16.707,0.835,0.412,0.517
-5.915,-2.561,-16.28,0.837,0.417,0.508
-2.5,-2.195,-15.427,0.8,0.41,0.501
0.183,-1.646,-14.146,0.786,0.41,0.493
2.561,-1.22,-12.5,0.769,0.423,0.487
3.902,-1.037,-11.098,0.747,0.428,0.474
3.598,-1.585,-10.061,0.728,0.433,0.476
2.195,-1.89,-8.598,0.705,0.393,0.481
0.488,-2.256,-7.195,0.718,0.417,0.474
-2.5,-2.988,-5.915,0.69,0.391,0.496
-4.573,-3.78,-4.451,0.661,0.395,0.481
-5.549,-4.573,-2.927,0.647,0.391,0.459
-5.793,-4.573,-1.463,0.637,0.398,0.447
-5.305,-4.024,-0.488,0.624,0.399,0.447
-4.329,-3.78,0.061,0.625,0.4,0.457
-3.049,-3.415,0.305,0.619,0.409,0.476
-1.829,-2.866,0.549,0.621,0.422,0.48
-1.037,-2.5,1.22,0.625,0.417,0.484
-0.61,-2.5,1.951,0.63,0.414,0.483
-0.915,-2.5,2.256,0.63,0.416,0.471
-1.098,-1.951,2.317,0.622,0.415,0.476
-0.549,-1.463,2.073,0.614,0.412,0.486
-1.28,-0.793,1.463,0.616,0.432,0.49
-0.976,0.366,1.159,0.625,0.448,0.493
-0.915,1.098,0.61,0.626,0.454,0.503
-1.28,1.829,-0.183,0.623,0.438,0.5
-1.28,2.256,-0.732,0.63,0.426,0.493
-1.037,2.439,-0.976,0.636,0.425,0.485
-0.732,2.744,-1.098,0.644,0.433,0.486
-0.549,2.866,-1.585,0.643,0.439,0.484
-0.793,3.232,-2.317,0.644,0.432,0.492
-0.854,3.537,-3.11,0.642,0.431,0.503
-0.671,3.841,-3.902,0.652,0.393,0.499
-0.793,3.902,-4.39,0.647,0.432,0.473
-0.915,3.963,-4.939,0.6,0.412,0.494
-0.671,3.72,-5.305,0.593,0.434,0.486
-0.122,3.598,-5.976,0.625,0.438,0.475
0.183,3.78,-7.317,0.646,0.442,0.485
0.305,3.963,-9.146,0.632,0.451,0.501
0.183,4.085,-11.159,0.619,0.449,0.509
0.366,4.268,-12.866,0.616,0.446,0.511
0.244,4.146,-14.207,0.609,0.448,0.513
0.061,4.39,-15.488,0.602,0.448,0.511
-0.305,4.512,-17.073,0.595,0.438,0.513
-0.427,4.573,-18.598,0.586,0.429,0.511
-0.427,4.573,-19.695,0.59,0.426,0.505
-0.305,4.451,-20.427,0.597,0.43,0.491
-1.768,4.451,-21.098,0.607,0.43,0.476
-2.317,4.695,-21.707,0.615,0.415,0.462
-3.232,3.841,-21.463,0.614,0.403,0.449
-5,2.805,-21.463,0.6,0.399,0.434
-6.585,2.317,-21.524,0.578,0.393,0.429
-7.988,1.89,-21.768,0.548,0.398,0.429
-8.963,1.524,-21.951,0.521,0.405,0.423
-9.878,1.463,-22.317,0.498,0.406,0.42
-10.488,1.463,-22.805,0.48,0.399,0.411
-10.854,1.524,-23.049,0.462,0.403,0.409
-10.61,1.585,-23.415,0.458,0.396,0.422
-9.817,1.524,-23.659,0.456,0.392,0.423
-8.476,1.524,-23.841,0.458,0.376,0.415
-7.744,1.22,-24.512,0.447,0.355,0.416
-6.524,1.037,-25.366,0.436,0.347,0.411
-5.366,1.159,-26.098,0.433,0.348,0.396
-4.817,0.976,-26.707,0.436,0.333,0.387
-4.39,0.854,-26.829,0.43,0.299,0.376
-4.512,0.61,-26.524,0.416,0.27,0.37
-5.549,0.183,-25.732,0.404,0.253,0.374
-7.012,-0.244,-24.939,0.395,0.244,0.368
-9.512,-0.549,-24.268,0.399,0.25,0.344
-12.927,-0.854,-23.78,0.397,0.258,0.319
-16.524,-1.28,-23.72,0.388,0.256,0.311
-20.183,-1.524,-23.78,0.377,0.241,0.31
-23.963,-2.012,-23.963,0.375,0.223,0.313
-27.134,-2.134,-24.268,0.373,0.203,0.317
-29.146,-2.256,-24.634,0.372,0.188,0.311
-30.915,-2.439,-25.305,0.384,0.199,0.307
-31.341,-2.988,-25.915,0.39,0.203,0.305
-30.854,-3.78,-26.89,0.401,0.197,0.308
-29.756,-4.512,-27.927,0.407,0.193,0.314
-28.476,-5.427,-28.598,0.412,0.201,0.307
-26.89,-6.707,-29.146,0.424,0.196,0.298
-25.793,-7.988,-29.634,0.436,0.189,0.297
-25.915,-8.963,-30.427,0.446,0.177,0.294
-27.683,-10.305,-31.585,0.437,0.151,0.314
-30.976,-11.646,-33.537,0.455,0.115,0.33
-35.122,-12.866,-35.793,0.444,0.14,0.34
-40.183,-14.207,-37.988,0.439,0.117,0.337
-45.61,-15.366,-40.183,0.446,0.093,0.325
-50.732,-16.524,-42.317,0.455,0.086,0.305
-55.366,-17.378,-44.939,0.464,0.057,0.287
-59.024,-18.049,-47.317,0.511,0.037,0.253
-62.195,-18.415,-50,0.504,-0.019,0.228
-64.451,-18.963,-52.866,0.5,-0.058,0.22
-65.976,-19.39,-56.524,0.482,-0.104,0.208
-67.134,-19.573,-60.183,0.493,-0.15,0.198
-68.11,-20.061,-63.78,0.493,-0.14,0.213
-68.415,-20.427,-67.805,0.479,-0.147,0.208
-68.72,-20.427,-72.195,0.494,-0.16,0.186
-69.085,-19.939,-75.976,0.557,-0.189,0.139
-70.366,-19.329,-79.878,0.568,-0.196,0.117
-70.976,-18.11,-84.085,0.599,-0.221,0.077
-70.793,-15.793,-88.232,0.625,-0.234,0.03
-70.915,-13.537,-92.988,0.679,-0.235,-0.006
-69.939,-10.61,-97.683,0.767,-0.193,-0.025
-69.451,-6.463,-102.87,0.858,-0.188,-0.034
-67.988,-1.707,-108.48,0.925,-0.118,-0.066
-64.756,4.634,-114.33,1.026,-0.107,-0.13
-59.024,11.524,-119.82,1.136,-0.018,-0.181
-51.768,18.78,-125.43,1.333,0.048,-0.281
-44.024,26.951,-130.85,1.561,0.13,-0.378
-34.756,35.366,-137.19,1.757,0.228,-0.451
-21.951,45.793,-144.51,1.888,0.476,-0.438
-8.659,56.951,-152.38,2.007,0.808,-0.394
5,68.293,-160.85,2.099,1.149,-0.357
20.366,80.366,-169.33,2.127,1.547,-0.396
38.293,93.415,-177.68,2.02,2.026,-0.44
58.902,106.1,-187.68,1.889,2.647,-0.541
81.159,118.78,-198.48,1.789,3.361,-0.764
105.37,131.83,-209.69,1.725,4.053,-1.083
133.41,146.1,-221.52,1.664,4.786,-1.385
163.9,159.69,-233.72,1.598,5.519,-1.671
195.67,173.48,-249.02,1.594,6.129,-1.993
230.31,186.52,-265.55,1.693,6.624,-2.377
268.48,199.21,-282.07,1.912,6.874,-2.747
309.08,210.67,-298.78,2.322,6.871,-3.091
350.43,221.04,-316.28,2.766,6.608,-3.287
394.94,230.06,-333.72,3.187,6.228,-3.299
441.16,238.6,-350.18,3.522,5.703,-3.176
489.82,246.59,-363.11,3.821,4.96,-3.113
542.13,253.96,-371.16,3.986,4.282,-3.191
597.8,259.15,-369.45,3.872,3.77,-3.338
654.09,261.22,-357.93,3.532,3.452,-3.493
710.98,261.65,-338.48,3.027,3.06,-3.636
767.32,261.04,-311.04,2.466,2.685,-3.829
821.77,260.55,-276.04,1.825,2.337,-4.058
868.23,265.18,-233.17,1.193,2.086,-4.314
900.98,276.04,-183.35,0.623,1.927,-4.563
919.88,295.37,-130.55,0.11,1.864,-4.754
923.17,322.38,-75.061,-0.315,1.822,-4.818
907.68,355.37,-21.951,-0.625,1.728,-4.702
870.73,394.45,26.524,-0.824,1.562,-4.446
814.88,438.35,70.732,-0.917,1.651,-4.25
746.65,486.04,113.48,-1.062,1.898,-4.181
666.95,534.76,156.59,-1.446,1.9,-4.119
584.21,582.07,202.5,-2.067,1.905,-4.028
503.42,627.32,246.4,-2.667,2.074,-3.974
430.61,668.41,286.34,-3.108,2.19,-3.916
370.31,704.15,328.23,-3.415,2.301,-4.023
326.16,733.6,368.54,-4.206,2.533,-4.099
301.22,757.68,407.62,-5.392,2.73,-3.771
293.72,776.52,443.23,-6.954,2.213,-2.91
300.37,790.61,473.48,-8.214,1.288,-2.353
319.02,803.05,496.83,-8.052,0.875,-2.229
344.51,814.94,514.02,-6.663,0.3,-2.039
371.1,825.79,523.6,-5.035,-0.685,-2.472
389.57,834.02,526.1,-4.326,-0.936,-2.689
396.71,837.26,518.41,-4.111,-0.473,-2.259
391.95,835.73,496.1,-3.589,-0.056,-1.658
372.81,824.02,463.42,-2.904,0.244,-0.881
338.42,792.5,419.88,-2.443,0.597,-0.081
284.57,742.01,366.77,-2.325,1.091,0.543
209.76,669.21,321.16,-2.476,1.568,0.911
123.6,583.41,285.49,-2.761,2.205,1
43.476,486.71,252.26,-2.799,2.142,0.878
-12.927,392.07,222.26,-2.666,2.109,0.51
-44.39,304.45,181.71,-2.562,2.093,0.182
-57.195,211.16,136.95,-2.429,1.742,-0.091
-29.512,119.15,106.77,-2.253,1.509,-0.183
31.037,52.5,91.463,-1.819,1.038,-0.237
101.1,4.268,80.122,-1.337,0.609,-0.373
187.56,-36.159,64.939,-0.987,0.518,-0.582
274.76,-63.171,41.585,-0.747,0.55,-0.852
337.81,-69.817,14.817,-0.574,0.651,-1.129
370.12,-59.268,-6.463,-0.459,0.828,-1.375
362.01,-38.354,-24.695,-0.295,1.042,-1.582
320.98,-9.817,-41.951,-0.111,1.259,-1.708
229.33,13.963,-49.695,0.105,1.471,-1.769
111.04,5.549,-66.768,0.345,1.669,-1.732
-5.427,-11.707,-74.024,0.583,1.874,-1.61
-129.94,-35.61,-85.915,0.854,2.118,-1.529
-226.52,-62.256,-101.4,1.066,2.468,-1.538
-300.24,-93.354,-118.6,1.208,2.736,-1.645
-343.84,-125.85,-137.74,1.241,2.915,-1.818
-360.49,-154.88,-151.4,1.223,3.109,-2.062
-359.21,-183.66,-160.55,1.256,3.288,-2.255
-349.39,-211.95,-169.51,1.335,3.433,-2.368
-335.73,-239.69,-181.77,1.47,3.398,-2.369
-322.07,-265.98,-197.07,1.646,3.203,-2.32
-311.77,-287.68,-214.69,1.798,3.002,-2.132
-307.32,-302.5,-231.34,1.917,2.824,-1.844
-310.37,-308.96,-245.61,2.005,2.59,-1.508
-322.26,-309.94,-257.87,2.101,2.365,-1.195
-344.39,-306.71,-265.37,2.182,1.986,-0.946
-379.88,-298.35,-266.52,2.199,1.596,-0.708
-432.93,-281.4,-266.04,2.173,1.311,-0.507
-498.48,-260.37,-264.57,2.117,1.122,-0.322
-575.91,-240.37,-264.02,2.076,0.879,-0.1
-662.2,-219.33,-268.96,2.081,0.674,0.101
-745.49,-199.45,-279.21,2.123,0.573,0.277
-825.91,-183.6,-292.32,2.108,0.512,0.547
-899.27,-165.55,-303.72,2.114,0.435,0.881
-956.65,-143.72,-311.22,2.151,0.404,1.096
-999.7,-124.57,-314.45,2.108,0.565,1.163
-1023.2,-104.94,-312.87,2.035,0.768,1.147
-1026.6,-85.732,-308.29,1.987,0.96,1.091
-1013.2,-67.927,-297.44,1.963,1.097,0.968
-978.54,-49.817,-281.83,1.89,1.137,0.875
-923.17,-33.902,-263.78,1.774,1.11,0.848
-849.33,-20.427,-242.68,1.71,1.042,0.86
-760.55,-7.5,-220.91,1.678,0.928,0.85
-660.06,3.049,-202.93,1.613,0.795,0.803
-553.66,9.939,-183.48,1.561,0.68,0.71
-447.62,16.341,-163.72,1.48,0.509,0.645
-344.51,21.098,-141.52,1.451,0.39,0.55
-247.5,21.768,-119.57,1.405,0.332,0.468
-162.01,20.549,-97.5,1.36,0.239,0.401
-91.768,16.098,-76.463,1.317,0.056,0.384
-41.646,8.659,-58.171,1.249,0.038,0.385
-10.183,-1.524,-42.927,1.17,0.037,0.365
2.5,-11.22,-31.585,1.048,0.029,0.35
-0.732,-23.902,-21.89,0.933,0.106,0.292
-13.72,-37.988,-11.402,0.86,0.15,0.229
-34.268,-49.512,-1.159,0.794,0.175,0.205
-56.646,-58.72,8.841,0.725,0.214,0.184
-76.463,-65.549,19.024,0.656,0.218,0.18
-92.866,-70.061,28.232,0.587,0.209,0.208
-103.17,-73.415,36.463,0.543,0.2,0.209
-106.52,-76.585,43.963,0.521,0.177,0.19
-103.54,-78.78,50.244,0.513,0.137,0.172
-95.915,-79.817,54.634,0.517,0.153,0.168
-83.049,-79.695,60.549,0.529,0.104,0.133
-67.805,-79.024,68.72,0.506,0.086,0.099
-54.451,-77.439,73.598,0.415,0.007,0.071
-43.232,-75.305,79.512,0.366,-0.081,0.04
-35.854,-74.146,85.366,0.327,-0.185,0.028
-33.841,-73.537,88.78,0.358,-0.313,-0.032
-37.378,-73.415,89.817,0.211,-0.594,-0.028
-45.427,-73.354,89.451,0.179,-0.677,-0.01
-56.951,-72.561,87.866,0.214,-0.602,-0.023
-71.098,-71.037,85.366,0.236,-0.426,-0.024
-85.976,-69.085,82.439,0.244,-0.195,-0.021
-100.79,-66.89,79.085,0.297,0.005,0.013
-114.69,-64.451,74.573,0.4,0.131,0.087
-127.38,-61.89,68.598,0.519,0.256,0.144
-135.61,-59.573,60.732,0.574,0.288,0.188
-140.67,-56.768,51.829,0.61,0.307,0.177
-141.4,-54.756,42.561,0.627,0.269,0.164
-138.05,-52.927,33.11,0.623,0.276,0.204
-133.6,-50.854,21.89,0.669,0.406,0.244
-135.18,-48.354,5.366,0.758,0.494,0.25
-138.29,-47.012,-15.427,0.791,0.489,0.259
-138.96,-46.402,-32.805,0.799,0.51,0.289
-138.35,-44.39,-46.28,0.829,0.526,0.309
-135.91,-40.61,-56.098,0.879,0.518,0.315
-129.76,-36.341,-64.268,0.943,0.479,0.328
-119.88,-32.012,-71.524,0.992,0.45,0.334
-107.56,-27.988,-78.049,1.017,0.44,0.354
-91.22,-23.78,-82.256,1.03,0.434,0.384
-72.927,-19.695,-84.024,1.043,0.408,0.409
-54.695,-17.195,-82.317,1.02,0.37,0.42
-37.561,-16.037,-77.073,0.97,0.343,0.435
-21.768,-16.159,-68.72,0.929,0.35,0.442
-9.756,-16.768,-59.146,0.911,0.388,0.475
-3.72,-16.402,-49.817,0.907,0.419,0.5
-1.829,-15.305,-42.317,0.896,0.437,0.519
-2.256,-15,-37.256,0.882,0.453,0.542
-6.28,-15.305,-34.024,0.865,0.456,0.553
-12.378,-15.671,-30.915,0.85,0.442,0.564
-18.72,-16.585,-28.415,0.838,0.436,0.551
-25.854,-17.378,-26.098,0.828,0.427,0.538
-31.524,-18.171,-24.146,0.818,0.417,0.53
-34.756,-18.78,-22.744,0.816,0.417,0.526
-35.671,-19.024,-21.646,0.834,0.418,0.513
-34.512,-18.963,-20.488,0.855,0.419,0.513
-31.524,-18.841,-18.841,0.842,0.398,0.511
-27.805,-19.146,-16.524,0.853,0.397,0.496
-24.573,-19.878,-14.146,0.846,0.41,0.491
-21.89,-20.732,-12.439,0.847,0.416,0.482
-20.488,-21.524,-11.463,0.843,0.423,0.486
-20.427,-22.5,-10.854,0.824,0.441,0.491
-21.098,-23.537,-10.61,0.798,0.438,0.487
-22.683,-24.268,-10.366,0.793,0.425,0.48
-23.78,-24.756,-9.695,0.808,0.404,0.474
-23.841,-24.817,-8.963,0.824,0.397,0.466
-23.659,-24.878,-8.476,0.796,0.402,0.463
-22.866,-24.817,-8.232,0.788,0.393,0.445
-20.976,-24.268,-8.11,0.761,0.405,0.447
-19.024,-23.354,-8.232,0.741,0.401,0.444
-16.89,-22.012,-8.049,0.716,0.41,0.466
-15,-20.122,-7.561,0.687,0.431,0.508
-13.841,-18.598,-6.707,0.685,0.436,0.536
-12.744,-16.707,-6.037,0.689,0.434,0.538
-12.683,-14.573,-5.671,0.706,0.44,0.521
-13.293,-12.317,-5.183,0.721,0.442,0.497
-13.598,-10.366,-5.061,0.724,0.441,0.477
-13.659,-8.293,-5,0.721,0.431,0.477
-13.11,-6.646,-4.817,0.728,0.419,0.484
-11.585,-5.244,-4.329,0.729,0.417,0.482
-9.573,-3.78,-4.024,0.731,0.415,0.483
-6.585,-1.89,-3.476,0.721,0.409,0.474
-3.354,-0.671,-3.476,0.7,0.409,0.468
-1.585,0.244,-3.598,0.671,0.417,0.47
-0.305,1.28,-3.72,0.666,0.415,0.463
-0.183,1.829,-4.085,0.676,0.401,0.46
-0.427,2.622,-4.39,0.676,0.396,0.458
-1.159,3.72,-4.695,0.663,0.408,0.459
-2.195,4.512,-5.122,0.663,0.422,0.481
-2.866,5.122,-5.488,0.677,0.424,0.502
-3.171,5.793,-5.976,0.693,0.427,0.515
-3.049,6.098,-6.463,0.689,0.428,0.527
-2.561,6.098,-6.89,0.671,0.421,0.531
-1.585,6.22,-7.012,0.665,0.417,0.522
-0.122,6.402,-6.89,0.654,0.409,0.505
0.915,6.585,-6.89,0.631,0.4,0.499
1.037,6.707,-6.829,0.614,0.394,0.483
0.427,6.463,-7.012,0.597,0.388,0.473
-0.61,5.854,-7.256,0.592,0.377,0.467
-1.768,5,-7.134,0.586,0.372,0.462
-3.171,3.841,-6.341,0.584,0.369,0.461
-4.39,2.622,-5.854,0.583,0.368,0.461
-5.183,1.402,-5.732,0.588,0.366,0.458
-5.488,0.427,-5.854,0.593,0.356,0.459
-5.549,-0.305,-5.915,0.596,0.352,0.463
-5.549,-0.976,-5.915,0.593,0.353,0.465
-5.61,-1.768,-6.098,0.593,0.355,0.464
-6.098,-2.5,-5.915,0.593,0.361,0.46
-6.768,-2.988,-5.427,0.597,0.377,0.449
-7.805,-3.78,-4.878,0.602,0.378,0.442
-9.146,-4.268,-4.512,0.612,0.371,0.444
-10.549,-4.512,-4.451,0.616,0.377,0.448
-12.012,-4.634,-4.573,0.621,0.392,0.451
-12.805,-4.573,-4.451,0.624,0.407,0.452
-12.744,-4.39,-4.146,0.626,0.419,0.448
-12.317,-4.024,-4.451,0.625,0.414,0.448
-11.159,-3.598,-5.061,0.618,0.404,0.461
-9.756,-2.927,-5.976,0.606,0.407,0.476
-7.988,-2.317,-6.951,0.604,0.413,0.498
-5.976,-1.402,-7.622,0.613,0.412,0.514
-3.963,-0.427,-8.476,0.636,0.416,0.512
-2.317,0.305,-9.268,0.651,0.429,0.5
-1.22,1.037,-10.183,0.645,0.43,0.482
-0.122,1.402,-11.341,0.637,0.427,0.471
0.488,1.829,-12.561,0.621,0.422,0.457
0.976,2.134,-13.232,0.615,0.417,0.461
1.585,2.5,-13.902,0.625,0.425,0.478
1.768,2.805,-14.573,0.649,0.433,0.494
1.829,3.049,-15.244,0.67,0.441,0.506
1.524,3.415,-15.976,0.667,0.459,0.509
0.976,3.537,-16.646,0.66,0.475,0.503
0.549,3.537,-17.378,0.655,0.475,0.501
0.305,3.78,-17.744,0.655,0.456,0.506
0.305,3.78,-18.11,0.66,0.444,0.517
0.488,3.963,-18.415,0.66,0.453,0.52
0.854,4.268,-18.841,0.663,0.459,0.518
1.646,4.512,-19.756,0.661,0.468,0.517
2.256,4.756,-20.732,0.65,0.472,0.518
2.927,4.817,-21.463,0.646,0.465,0.514
3.72,4.695,-21.951,0.638,0.463,0.513
4.817,4.39,-21.89,0.628,0.467,0.516
6.22,4.268,-21.646,0.624,0.469,0.512
7.378,4.756,-21.585,0.612,0.47,0.513
8.537,5.244,-21.951,0.59,0.486,0.515
9.207,5.671,-22.5,0.571,0.483,0.516
9.573,6.037,-23.11,0.556,0.475,0.51
9.634,6.22,-23.293,0.546,0.467,0.49
9.756,6.159,-22.927,0.53,0.464,0.481
9.878,6.098,-22.134,0.508,0.471,0.477
10,6.159,-21.28,0.494,0.461,0.468
9.573,6.463,-20.793,0.492,0.44,0.46
9.207,6.463,-20.61,0.487,0.434,0.45
8.841,6.341,-20.183,0.479,0.429,0.437
8.11,6.098,-19.634,0.463,0.424,0.421
7.561,5.915,-18.78,0.448,0.416,0.417
7.012,5.732,-17.988,0.435,0.409,0.403
6.037,5.488,-17.134,0.434,0.415,0.397
4.451,5.122,-16.524,0.422,0.411,0.389
2.683,5,-16.28,0.408,0.406,0.391
1.159,4.634,-15.915,0.396,0.42,0.391
-0.427,4.451,-15.183,0.383,0.426,0.396
-2.134,3.963,-14.329,0.375,0.409,0.398
-3.78,3.11,-13.537,0.364,0.366,0.39
-5,2.378,-13.11,0.342,0.331,0.374
-6.098,1.646,-12.805,0.326,0.302,0.345
-6.89,0.427,-12.195,0.316,0.294,0.324
-7.622,-0.854,-11.585,0.306,0.276,0.315
-8.476,-2.073,-11.402,0.302,0.244,0.316
-9.146,-3.78,-11.159,0.301,0.221,0.314
-11.159,-5.671,-11.22,0.3,0.199,0.299
-13.537,-7.256,-11.402,0.302,0.156,0.282
-16.037,-9.085,-11.829,0.303,0.102,0.26
-19.573,-10.915,-12.378,0.301,0.062,0.236
-23.354,-12.683,-12.927,0.313,0.03,0.21
-27.073,-14.573,-13.72,0.327,-0.006,0.2
-30.61,-16.28,-15.061,0.339,-0.032,0.19
-33.78,-17.683,-16.341,0.349,-0.061,0.185
-37.012,-19.024,-17.378,0.345,-0.095,0.173
-39.817,-20.244,-18.598,0.349,-0.127,0.17
-42.256,-21.585,-20.183,0.367,-0.153,0.157
-43.963,-22.805,-22.439,0.392,-0.187,0.146
-45.61,-23.659,-24.939,0.416,-0.218,0.125
-47.317,-24.268,-27.744,0.438,-0.233,0.094
-47.988,-24.634,-31.098,0.458,-0.261,0.057
-48.415,-24.451,-35.183,0.499,-0.297,0.024
-48.232,-23.598,-39.817,0.545,-0.352,-0.004
-47.317,-22.439,-44.817,0.581,-0.376,-0.016
-46.159,-20.915,-50.061,0.593,-0.376,-0.032
-44.878,-18.841,-55.915,0.616,-0.41,-0.065
-43.72,-16.159,-62.439,0.702,-0.431,-0.128
-42.988,-12.866,-69.268,0.854,-0.41,-0.192
-42.866,-8.902,-76.707,1.025,-0.35,-0.236
-42.805,-4.024,-84.878,1.213,-0.25,-0.269
-43.598,1.829,-93.232,1.387,-0.168,-0.248
-44.695,8.598,-101.58,1.54,-0.149,-0.255
-45.488,16.159,-110.37,1.768,-0.039,-0.314
-45.488,24.634,-119.82,1.956,0.069,-0.346
-43.78,33.78,-129.09,2.136,0.267,-0.401
-41.098,43.293,-137.93,2.267,0.456,-0.396
-36.768,53.232,-148.41,2.296,0.692,-0.441
-28.72,64.451,-158.96,2.308,1.053,-0.558
-17.195,74.207,-168.48,2.216,1.503,-0.644
-0.915,84.451,-179.88,2.065,1.992,-0.745
20.061,96.037,-191.59,1.977,2.478,-0.911
46.22,107.62,-203.72,1.902,3.054,-1.188
76.768,120.37,-217.99,1.796,3.648,-1.535
110.55,133.35,-232.07,1.686,4.397,-1.862
148.23,145.55,-246.71,1.638,5.142,-2.222
188.78,157.01,-263.42,1.637,5.757,-2.611
232.87,169.21,-280.43,1.747,6.221,-3.032
280.12,180.85,-297.93,1.99,6.442,-3.432
329.02,192.32,-315.12,2.37,6.336,-3.708
380.49,200.06,-331.65,2.744,5.903,-3.78
435.92,206.4,-346.89,3.021,5.314,-3.643
497.44,213.72,-359.57,3.264,4.8,-3.333
564.94,218.96,-368.35,3.504,4.324,-3.183
637.68,220.37,-370.24,3.689,3.799,-3.198
713.96,218.48,-362.81,3.514,3.266,-3.297
793.96,218.23,-344.51,3.058,2.887,-3.475
875.61,219.88,-317.74,2.55,2.603,-3.7
950.49,219.15,-284.15,2.032,2.27,-3.866
1011.3,223.17,-247.13,1.512,1.85,-4.026
1053.5,231.71,-207.32,0.976,1.491,-4.145
1074.5,246.65,-167.01,0.476,1.277,-4.244
1076.8,267.32,-126.71,0.036,1.11,-4.27
1062.9,294.63,-88.78,-0.327,0.933,-4.17
1023.2,327.68,-51.646,-0.62,0.946,-4.019
966.16,361.58,-14.634,-0.84,1.092,-3.91
896.1,397.87,23.415,-1.06,1.149,-3.815
811.04,439.82,61.524,-1.338,1.187,-3.634
718.11,484.69,97.622,-1.697,1.113,-3.345
616.28,528.41,131.28,-2.129,1.235,-3.002
515.55,568.96,165.55,-2.507,1.37,-2.687
425.67,605.61,200.37,-2.775,1.472,-2.647
347.44,638.54,231.46,-3.201,1.542,-2.808
288.11,668.96,261.65,-4.02,1.742,-2.97
250.31,694.27,293.23,-5.267,1.849,-2.642
231.4,715.91,321.95,-6.515,1.643,-2.083
229.76,734.51,347.07,-7.231,1.29,-2.158
239.88,749.33,368.17,-7.302,0.843,-2.334
254.94,759.94,383.29,-6.811,0.256,-2.521
270,766.1,390.49,-5.792,-0.437,-2.847
285,767.68,390.67,-4.747,-0.869,-2.604
294.51,764.51,382.19,-3.948,-0.836,-1.923
298.48,756.4,364.39,-3.384,-0.663,-1.197
295.55,742.62,339.82,-2.908,-0.414,-0.506
277.5,719.63,304.94,-2.518,-0.05,0.096
246.1,685.67,266.34,-2.203,0.379,0.552
198.6,647.8,227.13,-2.074,0.993,0.789
134.02,597.87,193.78,-2.091,1.523,0.736
63.537,529.09,167.99,-2.171,1.729,0.557
-2.683,450.79,140.91,-2.303,1.959,0.184
-64.573,366.28,105.98,-2.306,2.049,-0.18
-116.83,264.45,70.854,-2.161,1.895,-0.542
-147.62,147.5,37.744,-2.008,1.799,-0.818
-138.96,45.976,7.5,-1.833,1.794,-1.046
-92.988,-27.744,-15.183,-1.554,1.54,-1.188
-23.354,-76.585,-34.329,-1.202,1.284,-1.372
59.817,-104.82,-54.268,-0.856,1.162,-1.641
144.33,-116.95,-71.951,-0.597,1.175,-1.91
216.22,-117.62,-85,-0.427,1.222,-2.124
264.15,-106.22,-95.488,-0.264,1.387,-2.228
277.74,-88.598,-103.72,-0.084,1.542,-2.286
251.71,-73.841,-107.56,0.134,1.75,-2.3
200.18,-63.78,-113.72,0.339,1.961,-2.259
123.29,-59.512,-111.22,0.555,2.16,-2.12
19.634,-72.927,-105.73,0.77,2.283,-1.967
-75.244,-96.098,-106.4,1.046,2.396,-1.896
-168.05,-118.96,-108.6,1.137,2.502,-1.94
-250.91,-143.29,-114.94,1.219,2.632,-1.955
-317.87,-170.67,-122.93,1.263,2.822,-2.054
-369.27,-195.31,-131.16,1.236,2.814,-2.079
-404.88,-215.06,-141.16,1.219,2.768,-1.988
-432.62,-231.71,-151.16,1.343,2.66,-1.908
-456.1,-247.74,-160.49,1.485,2.467,-1.761
-481.04,-262.26,-169.21,1.691,2.337,-1.581
-510.18,-271.71,-178.29,1.86,2.177,-1.317
-545.12,-275.18,-189.69,2.004,1.975,-0.965
-583.23,-280.43,-202.19,2.116,1.807,-0.552
-631.59,-278.23,-217.44,2.263,1.602,-0.162
-685.43,-272.19,-230.43,2.376,1.365,0.167
-742.56,-258.78,-242.74,2.425,1.11,0.476
-801.04,-238.78,-255.73,2.422,0.891,0.688
-860.98,-217.01,-264.82,2.377,0.776,0.793
-915.73,-193.35,-275.12,2.328,0.727,0.787
-955.85,-171.4,-281.34,2.277,0.673,0.7
-986.52,-154.82,-287.01,2.229,0.63,0.622
-1001.8,-135.85,-289.76,2.24,0.566,0.626
-1001.1,-118.35,-290.55,2.188,0.635,0.714
-991.95,-101.22,-288.11,2.172,0.746,0.799
-968.96,-84.573,-281.65,2.158,0.837,0.895
-926.28,-66.341,-273.11,2.144,0.863,0.958
-871.16,-46.707,-260.79,2.1,0.85,1.002
-800.61,-25.305,-248.11,2.005,0.84,0.99
-717.56,-5.732,-231.22,1.903,0.838,0.936
-628.29,10.793,-209.88,1.792,0.826,0.879
-536.28,26.28,-186.59,1.707,0.792,0.776
-449.57,37.683,-163.29,1.62,0.687,0.647
-360.79,41.159,-137.81,1.509,0.526,0.589
-276.65,41.524,-111.65,1.394,0.365,0.57
-202.62,38.963,-88.293,1.299,0.267,0.542
-136.89,35.854,-65.854,1.221,0.213,0.525
-79.329,28.476,-47.256,1.164,0.135,0.494
-31.951,20,-30.793,1.106,0.022,0.459
4.756,12.622,-14.146,1.038,-0.075,0.432
30,5.61,2.195,0.955,-0.113,0.424
43.354,-0.854,17.012,0.872,-0.112,0.414
45.732,-7.439,30.183,0.81,-0.084,0.39
39.573,-14.634,42.5,0.755,-0.075,0.382
26.037,-22.195,52.988,0.701,-0.082,0.372
8.415,-29.512,61.829,0.653,-0.093,0.345
-10.793,-36.341,69.329,0.616,-0.077,0.304
-31.159,-44.024,75.915,0.589,-0.053,0.261
-51.28,-50.549,81.524,0.579,-0.018,0.211
-70.732,-56.829,86.341,0.578,0.007,0.143
-86.28,-62.622,90.427,0.559,-0.028,0.107
-96.768,-67.378,93.902,0.519,-0.078,0.114
-103.9,-71.037,96.28,0.586,-0.085,0.092
-107.62,-73.72,97.866,0.597,-0.271,0.004
-109.39,-75.915,98.963,0.312,-0.526,0.127
-111.22,-77.927,98.659,0.207,-0.639,0.146
-113.6,-79.207,97.195,0.362,-0.547,0.025
-114.08,-79.695,94.451,0.485,-0.502,-0.035
-115.43,-78.963,90.366,0.514,-0.394,-0.059
-119.27,-77.378,85.488,0.518,-0.235,-0.075
-123.35,-75.488,80.732,0.538,-0.085,-0.063
-127.56,-73.293,75.854,0.637,0.057,-0.021
-131.89,-71.098,70.793,0.686,0.132,0.06
-136.65,-68.354,65,0.669,0.242,0.158
-140.12,-64.939,58.78,0.658,0.311,0.215
-142.07,-61.463,52.439,0.698,0.384,0.25
-147.93,-56.037,42.5,0.725,0.399,0.288
-166.04,-48.476,23.659,0.651,0.431,0.33
-180,-45.183,3.415,0.646,0.541,0.349
-183.35,-45.366,-9.451,0.703,0.647,0.349
-188.84,-43.354,-22.256,0.758,0.683,0.362
-192.01,-36.829,-34.878,0.773,0.693,0.392
-187.19,-29.146,-42.805,0.76,0.686,0.4
-175.61,-23.598,-48.72,0.767,0.655,0.405
-159.33,-19.268,-54.146,0.788,0.595,0.422
-140.37,-14.024,-60.122,0.806,0.524,0.435
-118.78,-8.78,-66.037,0.826,0.45,0.458
-95.488,-5,-68.659,0.84,0.37,0.498
-72.988,-1.707,-68.659,0.842,0.29,0.528
-53.354,0.61,-66.646,0.844,0.218,0.542
-36.22,2.683,-62.866,0.843,0.164,0.546
-20.366,3.293,-57.195,0.837,0.13,0.548
-9.817,2.622,-50.488,0.838,0.104,0.55
-7.988,1.28,-44.024,0.834,0.091,0.552
-10.915,0.671,-38.354,0.833,0.082,0.551
-16.037,0.061,-33.902,0.824,0.088,0.543
-23.72,-1.159,-30.366,0.81,0.123,0.528
-32.744,-2.317,-27.134,0.795,0.175,0.522
-41.402,-3.537,-24.512,0.771,0.242,0.518
-48.659,-4.512,-21.951,0.741,0.284,0.516
-54.451,-4.939,-19.39,0.734,0.316,0.522
-58.841,-4.939,-17.012,0.753,0.349,0.533
-60.915,-4.573,-15,0.774,0.38,0.54
-60.305,-4.329,-13.78,0.788,0.416,0.549
-57.317,-3.841,-12.927,0.789,0.438,0.569
-52.5,-3.659,-12.561,0.767,0.45,0.595
-47.561,-3.476,-12.866,0.74,0.466,0.597
-41.89,-3.293,-13.78,0.74,0.467,0.606
-34.39,-3.049,-15.061,0.74,0.472,0.62
-27.805,-2.622,-15.915,0.736,0.472,0.622
-22.866,-2.439,-16.463,0.731,0.464,0.608
-19.817,-2.256,-17.073,0.732,0.446,0.596
-18.659,-2.439,-17.256,0.733,0.413,0.583
-17.805,-2.5,-17.744,0.749,0.385,0.572
-17.988,-3.11,-17.927,0.746,0.375,0.561
-19.085,-4.085,-17.805,0.73,0.362,0.555
-21.037,-5.183,-17.5,0.707,0.359,0.554
-23.415,-5.854,-16.829,0.679,0.34,0.561
-25.061,-6.098,-15.549,0.656,0.321,0.575
-26.829,-6.341,-14.329,0.644,0.323,0.593
-29.329,-6.585,-12.866,0.648,0.335,0.6
-31.159,-6.585,-11.28,0.67,0.343,0.605
-32.317,-6.28,-9.756,0.686,0.357,0.604
-33.11,-5.671,-8.598,0.688,0.371,0.598
-33.11,-5,-7.622,0.681,0.372,0.594
-31.585,-4.268,-7.195,0.671,0.384,0.584
-29.207,-3.659,-6.768,0.677,0.387,0.587
-26.28,-3.049,-7.012,0.681,0.381,0.59
-23.78,-2.195,-7.439,0.67,0.373,0.587
-21.22,-1.585,-7.927,0.658,0.352,0.586
-18.598,-1.098,-8.841,0.655,0.356,0.58
-16.707,-0.549,-10.061,0.642,0.368,0.57
-15,0.122,-11.341,0.635,0.362,0.564
-13.659,0.671,-12.195,0.631,0.346,0.555
-12.622,1.341,-12.988,0.621,0.332,0.547
-11.89,1.768,-13.598,0.631,0.319,0.548
-10.854,1.89,-13.963,0.648,0.311,0.548
-9.817,2.378,-14.573,0.654,0.295,0.547
-9.451,2.561,-15.305,0.661,0.298,0.56
-10.061,2.378,-15.854,0.65,0.319,0.572
-10.915,2.012,-16.402,0.634,0.327,0.575
-11.951,1.768,-16.707,0.619,0.317,0.573
-13.049,1.829,-16.463,0.612,0.332,0.565
-14.085,1.829,-16.22,0.605,0.338,0.562
-14.939,1.768,-16.28,0.592,0.339,0.542
-15.732,1.585,-16.463,0.578,0.347,0.537
-16.098,1.402,-16.89,0.582,0.351,0.528
-16.037,1.28,-17.683,0.596,0.354,0.516
-15.122,1.037,-18.415,0.607,0.361,0.515
-13.598,0.793,-18.963,0.609,0.366,0.526
-11.22,0.488,-18.963,0.606,0.367,0.538
-8.598,0.488,-19.268,0.604,0.362,0.545
-6.159,0.488,-19.878,0.606,0.353,0.549
-4.085,0.305,-20.305,0.607,0.343,0.545
-1.89,0.061,-21.037,0.605,0.337,0.542
0.671,-0.061,-21.768,0.593,0.334,0.537
2.927,-0.183,-22.256,0.579,0.323,0.533
5.305,-0.061,-22.805,0.583,0.342,0.532
6.89,-0.244,-23.293,0.603,0.346,0.537
8.049,-0.732,-23.78,0.607,0.344,0.551
9.207,-1.463,-24.329,0.607,0.354,0.557
9.695,-2.561,-25,0.605,0.369,0.554
10.549,-3.232,-25.732,0.592,0.364,0.558
11.402,-3.841,-26.22,0.574,0.36,0.554
11.768,-4.329,-26.89,0.569,0.369,0.547
12.073,-4.878,-27.561,0.563,0.374,0.552
12.683,-5.183,-28.232,0.554,0.375,0.555
13.476,-5.305,-28.415,0.539,0.369,0.549
13.354,-5.427,-28.598,0.539,0.365,0.538
13.171,-5.488,-28.72,0.537,0.363,0.53
13.72,-5.793,-28.476,0.526,0.361,0.52
15,-5.854,-27.988,0.52,0.354,0.507
15.732,-5.854,-27.988,0.508,0.343,0.499
16.159,-5.61,-28.232,0.497,0.326,0.491
16.768,-5.488,-28.293,0.481,0.304,0.49
17.256,-5,-28.841,0.466,0.282,0.485
17.622,-4.451,-29.512,0.449,0.268,0.482
17.317,-4.146,-30,0.44,0.262,0.473
16.524,-4.085,-30.427,0.438,0.259,0.463
14.939,-3.72,-30.366,0.427,0.253,0.457
13.049,-3.171,-30.305,0.41,0.245,0.45
10.549,-2.622,-30.427,0.406,0.242,0.437
7.805,-2.256,-30.244,0.392,0.251,0.43
5.427,-1.829,-29.939,0.373,0.26,0.421
2.622,-1.585,-29.451,0.355,0.255,0.41
0.122,-1.463,-29.024,0.345,0.253,0.416
-1.707,-1.402,-28.659,0.337,0.264,0.418
-2.988,-1.341,-28.354,0.33,0.269,0.41
-4.817,-1.402,-28.11,0.324,0.273,0.395
-6.524,-1.463,-27.927,0.315,0.268,0.391
-7.561,-1.585,-27.866,0.301,0.255,0.392
-9.39,-1.768,-27.622,0.289,0.245,0.394
-11.585,-1.89,-27.866,0.266,0.219,0.395
-13.841,-1.829,-28.354,0.215,0.183,0.396
-16.341,-1.89,-29.146,0.246,0.203,0.381
-18.963,-2.073,-30.122,0.278,0.205,0.35
-21.707,-2.561,-31.159,0.264,0.18,0.341
-24.329,-3.354,-32.378,0.265,0.16,0.329
-26.89,-4.146,-33.841,0.28,0.151,0.315
-28.963,-5.061,-35,0.297,0.116,0.314
-30.732,-6.28,-35.61,0.316,0.079,0.312
-32.805,-7.561,-36.463,0.317,0.029,0.311
-34.878,-8.659,-37.378,0.314,-0.003,0.278
-36.402,-9.512,-38.476,0.315,-0.046,0.243
-38.232,-10.488,-39.695,0.308,-0.086,0.228
-40,-11.463,-40.854,0.301,-0.111,0.226
-41.707,-12.073,-41.89,0.29,-0.164,0.235
-41.829,-13.171,-42.5,0.283,-0.214,0.238
-40.305,-13.72,-42.5,0.292,-0.252,0.233
-39.939,-13.841,-43.354,0.309,-0.278,0.215
-38.963,-13.78,-45,0.317,-0.3,0.189
-37.012,-13.841,-47.195,0.331,-0.332,0.152
-35.488,-14.085,-50.61,0.353,-0.349,0.127
-33.963,-13.293,-54.573,0.365,-0.361,0.135
-31.829,-12.134,-58.841,0.374,-0.366,0.156
-29.39,-10.305,-63.171,0.4,-0.38,0.17
-28.72,-7.805,-68.232,0.432,-0.378,0.164
-28.232,-4.939,-74.024,0.45,-0.388,0.143
-27.317,-1.341,-80.549,0.511,-0.367,0.074
-27.073,2.5,-87.012,0.585,-0.326,0.001
-26.89,6.707,-93.963,0.656,-0.264,-0.06
-26.585,11.341,-100.85,0.711,-0.256,-0.069
-25.915,16.28,-109.02,0.752,-0.263,-0.047
-24.146,22.134,-118.23,0.801,-0.2,-0.06
-21.402,28.537,-127.38,0.844,-0.154,-0.081
-18.049,35.244,-137.62,0.927,-0.068,-0.126
-13.72,42.256,-149.45,1.026,0.029,-0.225
-8.537,49.573,-161.22,1.096,0.104,-0.25
-1.829,56.829,-172.81,1.162,0.225,-0.341
8.11,64.756,-185.55,1.246,0.536,-0.467
19.451,72.378,-197.32,1.274,0.926,-0.562
34.573,80.793,-209.88,1.144,1.413,-0.709
53.841,91.707,-225.24,0.996,2.138,-0.969
76.402,103.66,-241.71,0.805,2.747,-1.31
99.817,114.33,-258.42,0.637,3.284,-1.735
126.46,123.35,-275.31,0.517,3.973,-2.262
157.87,133.72,-292.68,0.414,4.889,-2.76
192.56,143.78,-307.93,0.256,5.741,-3.191
233.35,153.17,-323.84,0.229,6.296,-3.924
278.23,162.68,-340.92,0.335,6.631,-4.736
325.98,170.43,-357.13,0.447,6.935,-5.342
376.46,175.49,-375.55,0.648,6.976,-5.731
432.5,180.37,-395.31,0.987,6.681,-5.843
492.32,186.34,-414.69,1.445,6.202,-5.682
555,187.56,-431.71,2.01,5.629,-5.362
626.77,190.91,-450.67,2.584,5.063,-4.939
696.71,191.52,-465,2.975,4.496,-4.568
767.07,187.99,-471.04,3.204,4.028,-4.296
837.2,182.81,-471.52,3.252,3.564,-4.134
902.99,174.39,-461.83,3.185,3.033,-4.061
966.59,166.89,-442.93,2.97,2.539,-4.039
1030.4,159.57,-418.84,2.612,2.042,-4.047
1079.5,161.46,-384.21,2.207,1.527,-4.118
1110.7,173.9,-341.28,1.616,1.019,-4.272
1118.6,188.78,-295.67,1.095,0.664,-4.483
1103.1,210.55,-253.84,0.516,0.35,-4.655
1064.8,244.33,-217.44,-0.039,0.201,-4.851
998.9,285.24,-183.66,-0.587,0.183,-5.072
908.05,331.58,-154.94,-1.042,0.412,-5.181
788.6,382.26,-135.12,-1.402,0.453,-5.008
644.45,435.43,-119.57,-1.575,0.388,-4.64
493.23,490.37,-99.817,-1.647,0.468,-4.326
342.81,545.61,-80.732,-1.729,0.741,-4.146
202.07,598.54,-57.988,-1.914,0.98,-3.991
83.598,649.09,-30.183,-2.257,1.063,-3.632
-8.476,695.06,7.744,-2.732,1.077,-3.059
-70,735.49,50.976,-3.154,1.203,-2.432
-98.72,769.82,99.634,-3.338,1.406,-2.322
-95.732,799.7,151.1,-3.516,1.57,-2.638
-65.366,822.74,201.83,-4.076,1.705,-2.963
-14.146,838.6,248.9,-5.075,1.782,-2.97
54.268,851.04,289.57,-6.513,1.612,-2.878
122.5,857.38,321.77,-7.636,1.139,-3.416
188.35,861.04,341.28,-8.272,0.694,-3.835
247.62,862.26,354.94,-7.972,0.06,-3.526
293.96,860.79,362.38,-6.453,-0.824,-3.132
324.08,855.79,359.63,-4.937,-1.226,-2.537
337.44,845.49,347.01,-3.945,-1.262,-1.734
337.62,828.6,327.26,-3.331,-1.145,-1.023
322.5,803.29,301.16,-2.946,-0.854,-0.453
285.67,769.7,267.19,-2.655,-0.466,0.034
234.69,721.95,231.52,-2.335,0.034,0.368
166.04,666.77,199.88,-2.118,0.541,0.591
85.671,600.55,177.01,-2.063,0.992,0.724
3.963,537.44,155.91,-2.085,1.391,0.675
-73.049,468.96,137.87,-2.112,1.626,0.525
-138.96,394.88,115.61,-2.085,1.717,0.344
-188.35,283.66,98.415,-1.992,1.697,0.199
-207.44,147.32,80.61,-1.847,1.555,0.036
-184.33,36.829,67.5,-1.751,1.43,-0.134
-134.15,-33.659,66.22,-1.641,1.324,-0.276
-58.415,-71.524,64.085,-1.481,1.192,-0.419
38.902,-86.829,55.061,-1.271,0.998,-0.588
144.39,-88.537,41.89,-1.027,0.821,-0.788
242.56,-84.512,28.354,-0.783,0.694,-0.966
316.95,-73.476,9.573,-0.579,0.614,-1.088
355.24,-61.585,-7.744,-0.403,0.545,-1.199
356.22,-51.768,-23.476,-0.267,0.511,-1.336
321.95,-46.341,-37.622,-0.162,0.531,-1.496
261.46,-45.732,-46.463,-0.102,0.597,-1.625
183.23,-49.756,-50.244,-0.063,0.725,-1.669
96.098,-57.439,-50.793,-0.012,0.855,-1.69
10,-67.134,-50.427,0.061,1.008,-1.642
-71.646,-77.439,-51.341,0.182,1.133,-1.538
-145.79,-90.976,-53.232,0.336,1.306,-1.364
-202.44,-107.62,-60.427,0.498,1.502,-1.206
-244.02,-124.88,-70.061,0.648,1.609,-1.145
-272.81,-141.71,-80.061,0.728,1.715,-1.144
-288.78,-158.11,-91.646,0.744,1.808,-1.206
-294.82,-173.41,-103.54,0.727,1.882,-1.291
-293.42,-187.81,-115.06,0.655,2.018,-1.414
-287.74,-201.71,-126.28,0.624,2.127,-1.558
-282.38,-213.35,-137.99,0.616,2.217,-1.664
-280.12,-222.07,-148.9,0.662,2.375,-1.592
-280.85,-230.91,-160.91,0.747,2.472,-1.483
-285.73,-239.82,-175.18,0.993,2.423,-1.265
-295.43,-245.06,-189.76,1.118,2.468,-1.089
-311.34,-244.94,-202.68,1.211,2.584,-0.909
-333.11,-245.43,-217.99,1.293,2.443,-0.711
-364.02,-237.01,-229.94,1.311,2.319,-0.517
-399.76,-229.09,-239.63,1.336,2.254,-0.401
-437.07,-223.78,-247.32,1.342,2.16,-0.331
-478.11,-214.51,-254.94,1.344,2.083,-0.239
-524.15,-205.18,-258.23,1.339,2.087,-0.088
-566.59,-195.61,-261.71,1.367,2.011,0.087
-609.33,-184.51,-264.63,1.418,1.874,0.233
-651.4,-174.76,-268.78,1.457,1.763,0.386
-689.63,-161.65,-275.06,1.476,1.672,0.52
-721.89,-151.83,-281.95,1.495,1.605,0.646
-753.78,-151.46,-288.23,1.51,1.537,0.792
-760.37,-129.39,-298.23,1.511,1.493,0.885
-759.82,-110,-300.37,1.505,1.498,0.924
-754.57,-94.146,-301.04,1.482,1.482,0.959
-741.89,-77.622,-299.94,1.437,1.438,0.979
-723.17,-62.866,-295.43,1.384,1.421,1
-698.23,-49.451,-286.52,1.338,1.408,1.029
-671.22,-38.78,-277.62,1.328,1.366,1.05
-644.82,-31.524,-266.58,1.322,1.347,1.099
-607.56,-23.841,-256.16,1.325,1.37,1.14
-567.74,-18.232,-245.49,1.318,1.381,1.172
-524.45,-14.451,-233.29,1.318,1.383,1.143
-478.11,-11.22,-219.21,1.303,1.383,1.063
-429.82,-10.122,-204.27,1.266,1.357,0.972
-382.56,-10,-189.33,1.217,1.31,0.875
-337.26,-10.732,-173.17,1.172,1.245,0.804
-292.13,-12.866,-157.99,1.12,1.184,0.75
-245.31,-16.037,-142.38,1.083,1.107,0.703
-203.9,-20.549,-126.34,1.033,1.018,0.659
-168.23,-26.951,-109.82,0.981,0.922,0.648
-136.4,-35.244,-92.683,0.927,0.85,0.672
-110.12,-44.024,-76.22,0.876,0.815,0.657
-90.732,-53.476,-59.878,0.836,0.777,0.604
-78.598,-63.11,-43.476,0.802,0.724,0.53
-70.915,-72.744,-27.988,0.773,0.68,0.449
-67.317,-82.073,-13.902,0.747,0.618,0.379
-67.439,-90.854,-0.732,0.718,0.556,0.307
-70.366,-99.329,10.488,0.688,0.505,0.245
-75,-107.62,20.122,0.648,0.443,0.194
-83.841,-116.22,29.268,0.623,0.369,0.154
-95.183,-124.69,38.537,0.605,0.304,0.132
-105.49,-132.01,47.256,0.595,0.256,0.127
-115,-138.05,55.488,0.587,0.21,0.155
-124.02,-143.23,64.085,0.582,0.171,0.194
-131.59,-147.87,72.317,0.596,0.137,0.19
-138.35,-151.71,80.244,0.618,0.116,0.156
-143.72,-154.02,87.744,0.616,0.133,0.108
-147.44,-155.85,93.598,0.601,0.161,0.061
-150.31,-157.38,98.598,0.582,0.168,0.035
-151.65,-158.41,102.62,0.568,0.16,0.011
-152.19,-158.9,106.1,0.559,0.168,-0.004
-150.91,-158.72,109.02,0.548,0.193,-0.01
-147.74,-157.5,111.4,0.529,0.201,-0.012
-143.29,-155.85,113.42,0.509,0.205,-0.017
-137.56,-153.84,115.24,0.495,0.188,-0.024
-130.06,-151.04,116.89,0.488,0.16,-0.028
-120.55,-147.93,118.23,0.488,0.139,-0.021
-111.83,-144.02,119.15,0.505,0.112,-0.025
-103.23,-139.69,119.51,0.54,0.046,-0.026
-95.915,-134.94,119.63,0.57,-0.023,-0.034
-90.976,-129.45,118.72,0.579,-0.04,-0.042
-87.073,-123.78,116.34,0.581,-0.033,-0.05
-84.573,-117.93,112.99,0.592,-0.046,-0.046
-84.878,-112.44,109.08,0.624,-0.073,-0.039
-86.585,-107.19,105.18,0.647,-0.157,-0.03
-88.963,-102.07,100.61,0.642,-0.221,0.008
-92.683,-97.195,95.366,0.648,-0.194,0.036
-96.22,-91.89,88.902,0.667,-0.155,0.052
-99.024,-87.073,81.829,0.687,-0.175,0.069
-100.98,-83.476,75.122,0.718,-0.192,0.083
-102.5,-80.488,68.537,0.746,-0.172,0.1
-102.68,-77.378,62.073,0.766,-0.135,0.11
-100.49,-74.451,56.402,0.778,-0.112,0.122
-98.415,-71.463,50.976,0.79,-0.09,0.132
-97.683,-68.354,46.28,0.801,-0.052,0.15
-96.28,-64.878,41.22,0.813,0,0.169
-95.427,-61.402,34.329,0.823,0.047,0.186
-96.463,-58.659,27.439,0.832,0.085,0.198
-97.683,-56.28,19.756,0.833,0.114,0.215
-97.5,-54.024,11.037,0.831,0.135,0.233
-96.098,-51.646,2.927,0.818,0.169,0.25
-96.098,-49.146,-4.329,0.807,0.215,0.263
-97.195,-46.22,-11.768,0.794,0.244,0.278
-97.988,-42.744,-18.659,0.786,0.242,0.297
-97.439,-38.902,-24.329,0.776,0.246,0.313
-95.427,-34.878,-29.268,0.757,0.253,0.332
-90.915,-30.305,-34.085,0.742,0.265,0.355
-84.329,-25.671,-38.415,0.729,0.289,0.374
-76.585,-21.524,-41.707,0.714,0.3,0.397
-67.012,-17.256,-44.695,0.709,0.3,0.426
-56.22,-13.171,-47.5,0.723,0.303,0.456
-44.451,-8.963,-49.939,0.736,0.309,0.488
-32.683,-5,-51.646,0.747,0.329,0.506
-21.585,-1.341,-52.439,0.744,0.331,0.524
-10.976,1.768,-52.5,0.737,0.319,0.54
-1.037,4.268,-51.646,0.738,0.317,0.545
8.293,6.585,-49.817,0.745,0.333,0.547
16.524,8.659,-47.683,0.765,0.348,0.553
24.329,10.366,-44.756,0.78,0.347,0.55
31.402,11.524,-41.098,0.78,0.35,0.548
36.646,12.073,-37.073,0.784,0.371,0.534
40.122,12.073,-33.232,0.799,0.391,0.518
42.866,11.89,-29.939,0.814,0.378,0.511
44.756,11.585,-27.195,0.821,0.374,0.507
46.768,11.28,-24.939,0.823,0.386,0.504
47.866,10.732,-22.927,0.819,0.392,0.506
48.11,10.183,-21.159,0.798,0.392,0.515
47.256,9.512,-20,0.769,0.396,0.529
45.671,8.659,-19.512,0.751,0.399,0.545
44.146,7.805,-18.841,0.741,0.408,0.561
42.561,6.463,-17.988,0.729,0.425,0.568
39.817,5.122,-17.195,0.709,0.438,0.572
36.037,3.841,-16.707,0.693,0.451,0.569
32.439,2.561,-15.976,0.706,0.463,0.559
29.207,1.585,-15.122,0.724,0.463,0.548
26.037,0.61,-14.512,0.734,0.475,0.549
22.5,-0.366,-14.024,0.734,0.495,0.548
18.963,-2.012,-13.415,0.733,0.497,0.545
16.098,-3.537,-12.378,0.744,0.483,0.542
13.537,-4.573,-11.402,0.749,0.471,0.546
11.646,-5.122,-10.488,0.74,0.467,0.547
10.366,-5.976,-9.268,0.727,0.463,0.555
9.329,-6.707,-7.988,0.713,0.454,0.557
8.963,-7.317,-6.524,0.709,0.442,0.554
8.659,-7.805,-5.061,0.706,0.429,0.559
8.232,-8.11,-3.537,0.695,0.418,0.559
7.744,-8.415,-2.317,0.685,0.429,0.55
7.622,-8.902,-1.341,0.675,0.438,0.541
7.195,-9.268,-0.549,0.666,0.444,0.54
6.463,-9.39,0.061,0.665,0.462,0.545
5.549,-9.573,0.305,0.665,0.475,0.549
4.939,-9.573,0.244,0.671,0.479,0.544
3.963,-9.451,-0.61,0.664,0.479,0.546
3.171,-9.268,-1.646,0.65,0.485,0.548
2.5,-8.963,-2.683,0.645,0.478,0.542
2.317,-8.476,-3.78,0.645,0.462,0.534
2.134,-7.988,-5.305,0.656,0.454,0.522
1.768,-7.744,-7.134,0.665,0.444,0.513
1.524,-7.134,-8.841,0.659,0.439,0.506
1.22,-6.28,-10.549,0.641,0.446,0.5
0.793,-5.732,-11.89,0.626,0.445,0.505
-0.366,-5.244,-13.171,0.612,0.437,0.503
-3.049,-5.122,-14.573,0.607,0.43,0.499
-6.159,-5,-16.22,0.608,0.426,0.496
-8.78,-4.756,-17.744,0.602,0.433,0.489
-11.89,-4.451,-18.841,0.585,0.439,0.487
-15.427,-4.207,-20.122,0.571,0.439,0.495
-18.902,-3.963,-21.463,0.564,0.442,0.489
-21.524,-3.72,-22.622,0.566,0.441,0.486
-24.024,-3.78,-23.963,0.563,0.439,0.487
-26.098,-4.207,-25.122,0.555,0.435,0.486
-27.561,-4.512,-26.22,0.532,0.428,0.482
-28.841,-4.817,-27.134,0.504,0.419,0.476
-29.939,-5.305,-28.232,0.479,0.404,0.461
-30.366,-5.732,-29.573,0.454,0.399,0.446
-30.671,-6.341,-30.732,0.424,0.399,0.429
-31.037,-6.951,-31.89,0.393,0.384,0.412
-31.707,-7.744,-32.805,0.366,0.367,0.412
-33.354,-8.659,-33.659,0.339,0.353,0.411
-35.122,-9.512,-34.329,0.31,0.333,0.414
-37.378,-10.61,-35.061,0.289,0.321,0.407
-40.183,-11.89,-35.854,0.27,0.305,0.399
-43.232,-13.293,-37.012,0.244,0.285,0.383
-46.524,-14.39,-38.171,0.222,0.269,0.365
-50.427,-15.488,-39.268,0.206,0.247,0.338
-54.146,-16.585,-40.488,0.188,0.197,0.311
-57.866,-17.5,-41.646,0.167,0.149,0.292
-61.402,-18.659,-42.5,0.127,0.116,0.313
-64.695,-20.183,-43.232,0.133,0.094,0.324
-68.232,-21.585,-44.146,0.106,0.075,0.307
-72.195,-22.927,-45.244,0.101,0.065,0.308
-76.707,-24.451,-46.159,0.093,0.049,0.295
-81.951,-25.915,-47.073,0.073,0.014,0.298
-87.439,-27.134,-48.049,0.063,-0.024,0.294
-93.171,-28.11,-49.146,0.058,-0.059,0.289
-98.171,-28.902,-50.305,0.053,-0.083,0.271
-103.29,-29.756,-51.646,0.052,-0.108,0.245
-107.81,-30.305,-53.11,0.058,-0.131,0.22
-111.22,-30.671,-54.573,0.055,-0.157,0.193
-113.54,-31.22,-56.646,0.064,-0.19,0.173
-112.74,-32.134,-59.451,0.076,-0.222,0.151
-104.94,-32.439,-61.402,0.087,-0.265,0.133
-96.646,-32.927,-63.232,0.108,-0.327,0.122
-89.146,-33.902,-65.854,0.124,-0.364,0.114
-80.061,-34.268,-68.293,0.129,-0.429,0.104
-70.61,-34.207,-71.22,0.15,-0.505,0.11
-60.976,-34.512,-75.427,0.167,-0.525,0.1
-52.439,-34.817,-80.488,0.181,-0.559,0.09
-45.427,-35.122,-86.585,0.173,-0.597,0.067
-39.878,-35.366,-93.72,0.157,-0.617,0.043
-36.22,-35.488,-102.19,0.145,-0.639,0.021
-34.817,-35.732,-111.95,0.132,-0.627,-0.022
-34.268,-36.037,-123.05,0.121,-0.628,-0.066
-34.512,-35.793,-134.69,0.11,-0.625,-0.104
-35.854,-35.549,-147.13,0.109,-0.623,-0.133
-37.805,-35.427,-160.37,0.132,-0.599,-0.191
-39.268,-34.451,-174.09,0.17,-0.555,-0.258
-41.341,-33.171,-187.62,0.221,-0.531,-0.3
-43.293,-32.439,-200.43,0.272,-0.519,-0.347
-43.354,-29.39,-215.91,0.321,-0.477,-0.393
-43.049,-25.488,-230.31,0.362,-0.413,-0.459
-41.22,-22.012,-243.72,0.415,-0.321,-0.537
-37.805,-18.11,-257.26,0.479,-0.234,-0.638
-32.5,-13.72,-270.73,0.575,-0.142,-0.796
-24.634,-8.049,-284.69,0.701,-0.004,-0.98
-14.878,-1.89,-298.6,0.78,0.119,-1.131
-2.561,4.268,-312.5,0.797,0.333,-1.266
12.073,10.427,-326.65,0.695,0.709,-1.401
29.634,16.402,-340.12,0.51,1.211,-1.579
49.695,22.561,-354.45,0.303,1.673,-1.853
71.768,29.512,-370.98,0.109,2.053,-2.279
96.037,36.098,-387.19,-0.118,2.542,-2.844
123.48,42.805,-403.9,-0.373,3.386,-3.416
153.96,49.146,-422.32,-0.613,4.349,-3.909
187.68,55.244,-441.52,-0.931,5.224,-4.322
224.39,60.488,-461.83,-1.297,5.846,-4.855
264.27,63.72,-483.6,-1.739,6.247,-5.503
307.26,67.256,-508.11,-2.064,6.57,-6.235
351.52,70.183,-533.66,-2.19,6.414,-6.839
397.07,71.037,-560,-1.982,5.73,-7.046
443.72,71.89,-586.46,-1.582,5.055,-7.078
491.77,73.293,-611.28,-0.956,4.908,-7.143
542.01,73.476,-631.52,-0.366,4.718,-7.152
591.22,71.89,-646.77,0.128,4.298,-6.97
633.23,72.561,-659.15,0.628,3.7,-6.597
664.63,77.683,-663.23,1.157,3.208,-6.259
692.74,89.085,-655.91,1.627,2.661,-6.079
727.93,101.65,-637.2,1.776,2.101,-5.869
763.29,116.1,-614.15,1.652,1.602,-5.647
799.51,137.81,-585,1.455,1.201,-5.436
824.51,160.37,-547.87,1.179,0.766,-5.209
826.4,187.32,-520.67,0.862,0.627,-4.994
810.61,228.05,-497.56,0.565,0.61,-4.817
777.68,270,-465.12,0.294,0.543,-4.791
705.67,309.94,-431.83,0.009,0.683,-4.931
590.24,350.61,-403.17,-0.361,0.818,-5.2
454.33,403.48,-382.87,-0.813,1.019,-5.526
294.27,462.87,-366.95,-1.326,1.191,-5.809
133.41,524.63,-344.69,-1.755,1.361,-6.068
-14.146,585.98,-317.01,-2.12,1.495,-6.235
-137.56,647.13,-280.85,-2.446,1.482,-6.108
-223.41,706.65,-237.56,-2.663,1.353,-5.664
-268.05,762.13,-190.43,-2.689,1.372,-5.247
-269.63,810.91,-137.5,-2.726,1.625,-5.094
-231.22,851.65,-81.463,-3.018,1.772,-5.108
-164.94,887.93,-26.585,-3.543,1.661,-5.063
-85.244,918.54,30.366,-3.836,1.398,-5.015
-3.537,945.85,86.341,-3.997,1.357,-4.906
65.549,970.18,133.9,-4.126,1.507,-4.977
122.07,992.01,176.28,-4.439,1.643,-5.175
161.22,1007.3,213.05,-5.367,1.671,-4.887
182.26,1016.9,240.98,-6.5,1.699,-4.176
186.52,1020.2,263.35,-7.29,1.546,-3.722
182.56,1016.9,282.13,-7.288,1.128,-3.559
175.98,1006.8,299.76,-6.689,0.508,-3.042
166.28,992.01,313.54,-5.853,-0.382,-2.518
153.78,973.35,324.45,-5.015,-1.036,-2.361
138.48,951.65,330.31,-4.427,-1.089,-2.082
124.69,925.24,329.82,-3.944,-0.753,-1.619
111.71,891.89,321.83,-3.497,-0.456,-1.174
100.12,853.9,303.29,-3.112,-0.324,-0.636
85.61,804.33,285.98,-2.835,-0.128,0.016
65.549,747.2,270.55,-2.666,0.297,0.505
33.537,691.77,258.17,-2.634,0.832,0.81
-2.866,631.52,252.5,-2.754,1.321,0.985
-42.317,570,240.85,-2.925,1.59,1.115
-79.878,492.44,226.22,-2.97,1.731,1.13
-108.54,402.74,215.06,-2.824,1.72,1.015
-119.76,316.4,209.15,-2.717,1.588,0.788
-103.23,245.61,212.07,-2.586,1.427,0.548
-63.78,194.45,219.21,-2.458,1.129,0.362
-1.768,154.76,218.23,-2.304,0.693,0.189
79.146,125.67,201.52,-2.061,0.376,0.005
163.41,108.66,172.87,-1.769,0.211,-0.123
235.31,101.04,138.84,-1.486,0.14,-0.214
285.37,100.73,105.12,-1.236,0.139,-0.292
305,103.05,75,-1.016,0.192,-0.339
287.99,106.52,47.439,-0.806,0.267,-0.392
235.79,108.35,21.098,-0.623,0.338,-0.471
159.82,104.21,-3.537,-0.463,0.429,-0.567
73.78,90.854,-25.061,-0.322,0.559,-0.684
-13.78,73.841,-43.659,-0.222,0.735,-0.822
-95.732,55.732,-59.207,-0.173,0.926,-0.926
-166.52,35.671,-74.878,-0.15,1.141,-1.011
-219.82,11.159,-89.634,-0.115,1.375,-1.073
-253.17,-17.439,-101.83,-0.062,1.604,-1.135
-266.46,-48.171,-111.22,0.013,1.808,-1.179
-260.73,-78.171,-118.48,0.108,1.951,-1.24
-240.49,-106.65,-124.88,0.184,2.014,-1.38
-210.49,-132.74,-131.89,0.236,2.001,-1.521
-174.33,-156.95,-139.63,0.296,1.973,-1.643
-136.71,-180.24,-147.87,0.378,1.911,-1.769
-102.32,-201.34,-156.28,0.441,1.877,-1.874
-72.195,-220.12,-163.72,0.519,1.867,-1.961
-48.354,-236.77,-169.82,0.597,1.867,-1.998
-33.293,-250.79,-174.88,0.693,1.9,-2.005
-27.866,-263.17,-179.94,0.813,1.934,-1.981
-33.232,-272.93,-185.67,0.927,1.957,-1.909
-48.537,-280.55,-192.38,1.082,1.97,-1.875
-73.537,-286.22,-199.63,1.181,2.076,-1.708
-107.99,-289.57,-207.38,1.313,2.104,-1.731
-151.1,-286.77,-214.27,1.401,2.119,-1.572
-196.77,-284.45,-219.69,1.469,2.181,-1.48
-245.24,-280.18,-222.99,1.508,2.213,-1.398
-294.15,-275.12,-224.15,1.519,2.299,-1.266
-341.34,-269.27,-224.94,1.545,2.278,-1.154
-384.15,-262.74,-224.88,1.585,2.254,-1.065
-423.9,-257.56,-227.07,1.64,2.327,-0.92
-458.66,-254.76,-231.16,1.699,2.411,-0.754
-488.35,-251.65,-237.01,1.792,2.451,-0.596
-511.95,-246.77,-244.21,1.897,2.368,-0.453
-528.84,-240.06,-253.6,1.961,2.249,-0.293
-540.61,-234.15,-262.99,2.008,2.172,-0.151
-554.51,-234.69,-272.68,2.02,2.103,-0.067
-563.96,-220.12,-277.56,1.993,2.016,-0.001
-571.04,-207.5,-280,1.97,1.904,0.06
-574.88,-198.05,-280.43,1.946,1.82,0.152
-576.52,-189.09,-278.05,1.917,1.742,0.23
-583.9,-177.74,-275.06,1.876,1.696,0.298
-582.74,-163.9,-270.98,1.823,1.637,0.368
-573.05,-152.74,-267.01,1.811,1.555,0.402
-564.02,-143.11,-260.61,1.802,1.462,0.409
-550.43,-134.39,-254.02,1.761,1.398,0.432
-537.68,-123.72,-246.22,1.724,1.275,0.501
-516.95,-112.68,-237.26,1.697,1.157,0.555
-494.27,-103.96,-227.81,1.636,1.081,0.587
-471.65,-96.341,-216.1,1.583,1.001,0.598
-446.52,-89.451,-202.44,1.532,0.891,0.587
-419.82,-84.268,-186.65,1.464,0.795,0.555
-390.12,-79.939,-168.41,1.378,0.713,0.516
-360.85,-77.561,-148.66,1.288,0.625,0.468
-333.35,-76.707,-128.05,1.184,0.516,0.425
-306.83,-76.89,-107.13,1.082,0.408,0.397
-279.51,-77.256,-86.159,0.984,0.327,0.386
-253.17,-78.049,-66.22,0.907,0.272,0.366
-230,-79.39,-47.195,0.845,0.188,0.357
-209.57,-80.976,-29.695,0.789,0.121,0.337
-192.56,-82.622,-14.512,0.739,0.063,0.3
-179.21,-85.244,1.037,0.705,0.002,0.254
-168.96,-87.805,16.402,0.673,-0.044,0.224
-160.49,-89.939,30.732,0.667,-0.067,0.175
-153.96,-91.402,45.61,0.668,-0.08,0.108
-150.79,-92.622,59.939,0.66,-0.093,0.047
-149.57,-93.72,72.561,0.657,-0.118,0.003
-149.88,-94.207,84.085,0.646,-0.147,-0.013
-150.61,-95.122,94.329,0.625,-0.155,-0.017
-151.71,-96.402,102.81,0.603,-0.148,-0.004
-153.48,-97.744,109.45,0.577,-0.129,0.027
-155.06,-98.78,114.02,0.563,-0.125,0.058
-155.24,-99.39,116.77,0.558,-0.119,0.095
-154.27,-99.573,118.42,0.548,-0.091,0.137
-152.81,-99.939,118.9,0.539,-0.055,0.162
-150.73,-100.43,118.11,0.526,-0.017,0.164
-148.29,-100.85,115.92,0.492,0.034,0.166
-146.1,-100.61,112.99,0.479,0.084,0.162
-144.69,-99.817,109.45,0.5,0.115,0.151
-143.96,-97.988,104.88,0.514,0.127,0.123
-141.89,-95.427,99.146,0.533,0.129,0.11
-139.57,-92.195,92.866,0.538,0.166,0.098
-137.68,-88.354,86.22,0.541,0.186,0.079
-135.31,-84.024,79.268,0.556,0.18,0.082
-131.77,-79.146,72.195,0.573,0.169,0.103
-126.83,-74.451,65.061,0.621,0.147,0.106
-122.38,-69.39,57.805,0.677,0.13,0.123
-118.54,-64.024,50.915,0.725,0.109,0.161
-113.72,-58.659,44.268,0.755,0.114,0.194
-110.37,-53.841,37.378,0.788,0.107,0.223
-107.5,-49.39,30.427,0.808,0.104,0.254
-104.08,-45.915,23.72,0.818,0.128,0.299
-100.98,-43.049,17.805,0.819,0.174,0.35
-98.049,-40.244,12.378,0.824,0.224,0.385
-93.902,-37.195,6.524,0.842,0.272,0.402
-89.756,-34.329,1.341,0.86,0.311,0.424
-84.39,-32.256,-2.866,0.869,0.353,0.432
-77.866,-30.793,-7.317,0.864,0.391,0.436
-70.366,-30,-10.976,0.858,0.413,0.43
-62.744,-29.817,-14.024,0.851,0.422,0.42
-55.793,-29.573,-17.134,0.845,0.421,0.429
-49.146,-29.146,-20,0.845,0.41,0.441
-42.927,-29.024,-22.744,0.839,0.391,0.451
-36.707,-28.963,-25.549,0.824,0.363,0.465
-32.5,-28.72,-28.049,0.809,0.344,0.47
-29.085,-28.476,-30.061,0.817,0.336,0.473
-25.793,-28.11,-31.524,0.84,0.339,0.487
-23.902,-27.805,-32.134,0.859,0.356,0.499
-23.415,-27.195,-32.012,0.881,0.379,0.504
-24.207,-26.159,-32.134,0.89,0.396,0.495
-25.976,-25,-32.317,0.89,0.401,0.484
-27.805,-23.902,-32.439,0.889,0.424,0.474
-29.146,-22.744,-32.683,0.883,0.438,0.468
-29.878,-22.378,-32.622,0.872,0.436,0.47
-29.878,-22.5,-32.317,0.86,0.437,0.476
-29.207,-22.622,-31.829,0.846,0.43,0.481
-27.561,-22.622,-31.037,0.846,0.416,0.482
-24.207,-22.195,-29.512,0.857,0.412,0.482
-19.756,-21.89,-27.744,0.866,0.406,0.486
-15,-22.073,-25.305,0.862,0.402,0.485
-10.122,-22.195,-23.049,0.847,0.405,0.494
-6.159,-22.134,-20.671,0.833,0.4,0.507
-2.622,-21.524,-18.232,0.828,0.396,0.513
0.122,-20.793,-15.671,0.815,0.4,0.503
1.768,-19.878,-13.293,0.787,0.413,0.497
2.317,-19.207,-11.098,0.757,0.421,0.494
2.561,-18.476,-8.537,0.736,0.424,0.499
2.073,-17.622,-6.524,0.731,0.421,0.499
1.037,-16.829,-4.573,0.736,0.409,0.493
0.061,-15.976,-2.561,0.739,0.406,0.496
-0.671,-15.183,-0.732,0.735,0.419,0.493
-1.159,-14.207,1.524,0.715,0.426,0.485
-1.402,-13.11,3.476,0.694,0.426,0.491
-1.524,-11.89,5.244,0.677,0.436,0.496
-1.89,-10.732,6.402,0.674,0.442,0.495
-2.012,-9.817,7.073,0.671,0.444,0.491
-1.585,-9.085,7.866,0.67,0.449,0.489
-1.402,-8.293,8.72,0.673,0.452,0.489
-2.134,-7.378,9.573,0.673,0.457,0.49
-2.988,-6.829,9.817,0.675,0.46,0.484
-3.354,-6.28,10.183,0.668,0.467,0.485
-3.78,-5.976,10.854,0.657,0.477,0.495
-3.72,-5.671,11.585,0.644,0.488,0.497
-3.78,-5.305,12.256,0.631,0.485,0.5
-3.659,-4.817,13.11,0.621,0.475,0.512
-2.988,-4.39,13.841,0.614,0.48,0.525
-2.378,-3.963,14.207,0.609,0.482,0.538
-1.89,-3.72,14.146,0.623,0.478,0.535
-0.915,-3.232,14.085,0.639,0.474,0.539
0,-2.378,13.963,0.646,0.47,0.54
0.671,-1.951,14.146,0.635,0.464,0.537
0.671,-1.402,14.085,0.621,0.453,0.533
0.549,-0.549,13.902,0.62,0.444,0.533
0,0.183,13.963,0.616,0.44,0.534
-1.28,0.854,13.78,0.613,0.435,0.539
-2.622,1.28,13.232,0.606,0.435,0.553
-4.268,1.585,12.561,0.595,0.444,0.558
-5.854,2.073,11.402,0.583,0.451,0.554
-7.317,2.561,10.244,0.583,0.459,0.547
-9.207,2.561,9.085,0.588,0.46,0.549
-10.427,2.378,7.927,0.582,0.459,0.544
-11.707,2.012,6.402,0.572,0.46,0.546
-12.805,1.829,4.878,0.56,0.45,0.55
-13.049,1.829,3.232,0.547,0.443,0.548
-12.988,1.768,1.341,0.53,0.441,0.552
-12.927,1.402,-0.61,0.507,0.439,0.545
-12.439,0.854,-2.5,0.495,0.428,0.54
-11.89,0.244,-4.39,0.49,0.413,0.539
-11.463,-0.732,-6.22,0.496,0.4,0.526
-10.854,-1.402,-7.805,0.493,0.394,0.515
-10.793,-2.195,-9.024,0.483,0.392,0.51
-12.012,-3.537,-10.427,0.471,0.391,0.496
-13.598,-4.878,-11.585,0.453,0.379,0.484
-15,-5.976,-12.744,0.434,0.358,0.485
-17.134,-7.317,-13.72,0.411,0.337,0.487
-19.756,-8.537,-14.817,0.387,0.315,0.494
-22.988,-9.817,-16.22,0.36,0.307,0.49
-25.793,-11.098,-18.049,0.336,0.299,0.477
-27.866,-12.317,-19.695,0.309,0.28,0.475
-30.305,-13.659,-21.28,0.29,0.265,0.46
-32.134,-15.061,-22.927,0.275,0.25,0.447
-33.78,-16.646,-24.512,0.266,0.24,0.428
-35.366,-18.232,-25.732,0.252,0.235,0.414
-36.707,-19.756,-26.89,0.252,0.223,0.399
-38.537,-21.463,-27.927,0.256,0.202,0.389
-41.098,-23.354,-28.902,0.254,0.188,0.378
-43.293,-25.305,-29.878,0.248,0.182,0.367
-45.366,-27.073,-30.915,0.234,0.175,0.361
-47.622,-28.841,-31.829,0.229,0.188,0.348
-49.817,-30.488,-32.317,0.212,0.197,0.342
-52.5,-31.829,-32.927,0.196,0.208,0.337
-55.61,-33.415,-33.415,0.191,0.231,0.323
-59.024,-34.695,-34.268,0.182,0.251,0.309
-61.829,-35.976,-35.061,0.173,0.261,0.281
-64.573,-37.561,-35.854,0.166,0.26,0.265
-68.171,-39.268,-36.646,0.154,0.261,0.258
-72.256,-40.915,-37.805,0.151,0.254,0.25
-76.159,-42.378,-39.146,0.139,0.234,0.253
-79.817,-43.72,-40.732,0.125,0.209,0.26
-83.659,-44.878,-42.256,0.099,0.15,0.272
-87.317,-45.976,-43.537,0.073,0.075,0.284
-91.159,-46.524,-45.183,0.059,-0.021,0.282
-95.122,-47.012,-47.073,0.018,-0.037,0.315
-98.902,-47.195,-49.146,0.037,-0.086,0.367
-103.78,-46.89,-51.341,0.055,-0.072,0.331
-109.51,-46.28,-54.085,0.009,-0.063,0.308
-114.94,-45.366,-56.768,0.025,-0.125,0.297
-120.61,-44.573,-59.512,0.041,-0.186,0.281
-125.98,-43.415,-62.805,0.033,-0.238,0.254
-130.98,-41.768,-66.402,0.043,-0.297,0.213
-136.22,-40.244,-69.817,0.076,-0.378,0.185
-140.12,-38.659,-73.293,0.114,-0.426,0.17
-142.81,-36.585,-77.317,0.14,-0.475,0.178
-143.29,-34.878,-81.829,0.167,-0.543,0.192
-140.24,-33.232,-86.463,0.207,-0.609,0.185
-132.99,-31.768,-90.122,0.235,-0.667,0.169
-119.51,-29.085,-93.11,0.235,-0.688,0.128
-100,-27.378,-97.927,0.217,-0.685,0.093
-80.976,-27.988,-107.74,0.213,-0.65,0.041
-67.805,-27.5,-115.98,0.212,-0.602,-0.024
-53.841,-25.915,-126.71,0.224,-0.626,-0.081
-39.268,-24.817,-140.18,0.245,-0.622,-0.158
-27.317,-24.39,-154.51,0.267,-0.586,-0.263
-17.744,-23.963,-170.18,0.321,-0.555,-0.372
-8.78,-22.805,-187.93,0.397,-0.495,-0.46
-1.768,-20.976,-206.89,0.524,-0.401,-0.556
3.354,-19.878,-225.73,0.723,-0.294,-0.65
8.841,-18.049,-245.43,0.939,-0.157,-0.81
16.341,-14.512,-265.61,1.123,0.053,-1.044
23.293,-9.756,-287.13,1.188,0.416,-1.378
31.951,-4.268,-308.9,1.057,0.938,-1.772
42.622,0.183,-332.13,0.764,1.507,-2.26
54.451,5.61,-356.22,0.436,2.093,-2.762
68.11,11.524,-380.55,0.253,2.719,-3.339
86.829,19.146,-407.56,0.234,3.537,-3.956
109.33,28.598,-435.37,0.222,4.685,-4.439
135.79,37.134,-462.99,0.12,5.666,-4.784
167.68,44.39,-491.28,-0.185,6.234,-5.456
204.76,50.244,-520.67,-0.542,6.684,-6.442
249.15,56.22,-550.61,-0.851,6.571,-7.396
299.21,61.646,-581.52,-0.947,6.033,-7.923
355.06,65.427,-613.41,-0.749,5.28,-7.908
417.07,66.159,-642.5,-0.333,4.766,-7.691
485.06,65.61,-667.87,0.185,4.671,-7.55
557.8,62.866,-689.45,0.528,4.343,-7.393
632.01,58.841,-704.76,0.82,3.771,-7.081
704.09,54.634,-711.71,1.125,2.995,-6.669
769.02,51.341,-706.28,1.486,2.329,-6.301
826.95,48.537,-684.7,1.76,1.86,-6.102
877.99,51.098,-648.66,1.649,1.419,-5.878
934.7,69.146,-608.84,1.313,1.008,-5.609
984.39,96.585,-566.28,0.975,0.615,-5.332
1000.3,132.44,-521.95,0.644,0.36,-5.15
987.32,183.78,-490.49,0.345,0.368,-5.029
955,235.61,-457.19,-0.04,0.476,-5.013
907.5,285.37,-421.52,-0.384,0.725,-5.089
820.73,337.56,-396.1,-0.779,0.952,-5.193
675.61,396.46,-388.29,-1.115,1.188,-5.337
504.82,462.68,-385.85,-1.488,1.494,-5.555
326.65,536.4,-375.49,-1.724,1.698,-5.72
148.66,608.23,-359.76,-1.977,1.738,-5.66
-7.378,675.98,-335.61,-2.124,1.709,-5.306
-129.69,742.07,-300.31,-2.118,1.647,-4.91
-209.57,805.79,-254.39,-2.096,1.751,-4.739
-243.9,865.18,-204.02,-2.203,1.87,-4.733
-234.27,913.78,-147.81,-2.503,1.824,-4.778
-191.34,951.46,-85.122,-2.927,1.662,-4.761
-124.76,982.13,-23.476,-3.306,1.5,-4.502
-51.585,1007.1,37.378,-3.546,1.419,-3.886
16.22,1026.6,92.622,-3.537,1.492,-3.757
69.756,1039.5,137.93,-3.769,1.68,-4.133
109.69,1045.9,176.65,-4.5,1.626,-4.195
134.76,1046.2,209.02,-5.591,1.394,-3.858
144.33,1037.1,234.21,-6.493,1.077,-3.61
147.07,1022.6,257.19,-6.879,0.846,-3.476
142.5,1002.7,278.66,-6.521,0.455,-3.076
133.54,977.62,296.04,-5.581,-0.242,-2.491
122.62,948.41,310.24,-4.478,-0.787,-2.121
111.1,916.77,319.63,-3.739,-0.868,-1.774
100.49,880.61,321.71,-3.339,-0.605,-1.335
94.329,838.17,317.01,-3.06,-0.244,-0.921
90.671,790.18,303.48,-2.831,0.022,-0.523
87.683,736.65,281.77,-2.567,0.216,-0.126
79.085,673.41,260.98,-2.317,0.495,0.241
59.756,605.3,247.07,-2.119,0.806,0.483
31.646,545.3,234.39,-2.019,1.074,0.61
1.707,479.57,221.65,-2.046,1.299,0.677
-20.671,402.74,210.61,-2.118,1.395,0.713
-38.171,316.4,202.68,-2.139,1.409,0.7
-39.207,223.9,198.48,-2.081,1.338,0.598
-19.817,140.55,199.45,-1.991,1.224,0.395
14.451,87.439,205.85,-1.906,1.017,0.138
66.402,59.756,212.01,-1.81,0.793,-0.093
128.78,45.488,206.46,-1.668,0.583,-0.245
193.05,38.415,188.6,-1.47,0.37,-0.332
249.76,37.134,163.23,-1.261,0.197,-0.341
290.24,41.585,133.17,-1.05,0.102,-0.31
307.32,48.598,100.79,-0.85,0.065,-0.275
297.19,54.756,71.28,-0.648,0.067,-0.259
260.31,60.183,45.61,-0.483,0.123,-0.256
202.32,63.537,25.366,-0.368,0.21,-0.286
131.71,62.866,11.159,-0.283,0.294,-0.373
55.427,57.866,0.244,-0.255,0.367,-0.494
-19.146,49.39,-9.085,-0.253,0.443,-0.621
-87.073,39.39,-17.866,-0.267,0.561,-0.691
-144.21,26.829,-26.28,-0.254,0.736,-0.718
-188.17,10.671,-34.756,-0.18,0.929,-0.712
-214.09,-8.598,-42.378,-0.07,1.076,-0.686
-222.38,-28.963,-49.512,0.064,1.148,-0.696
-216.71,-49.207,-56.341,0.182,1.152,-0.741
-199.09,-68.841,-62.805,0.248,1.12,-0.778
-173.72,-87.256,-68.963,0.281,1.077,-0.843
-144.76,-103.72,-74.939,0.319,1.029,-0.938
-115.73,-118.6,-80.915,0.373,0.998,-1.065
-89.085,-132.44,-87.5,0.432,0.965,-1.193
-67.683,-145.43,-94.39,0.475,0.953,-1.307
-52.439,-158.35,-102.13,0.501,0.959,-1.388
-43.232,-172.32,-109.94,0.526,0.992,-1.402
-41.28,-186.89,-117.68,0.566,1.064,-1.388
-46.768,-201.16,-125.24,0.647,1.137,-1.407
-57.866,-213.9,-131.77,0.737,1.176,-1.42
-74.634,-224.69,-137.5,0.815,1.193,-1.411
-97.988,-232.5,-142.32,0.885,1.209,-1.457
-126.46,-238.05,-145.85,0.945,1.235,-1.548
-158.72,-242.44,-148.17,0.999,1.24,-1.625
-192.07,-245.85,-148.78,1.042,1.261,-1.642
-224.15,-248.72,-148.6,1.102,1.314,-1.642
-254.09,-250.43,-148.66,1.163,1.427,-1.6
-281.16,-251.1,-148.84,1.215,1.645,-1.475
-305.18,-251.59,-150.55,1.273,1.808,-1.342
-325.37,-251.46,-154.09,1.358,1.887,-1.262
-340.98,-251.4,-159.45,1.396,1.911,-1.174
-353.66,-251.4,-167.38,1.417,1.95,-1.112
-364.69,-250.79,-176.52,1.447,1.943,-1.09
-374.51,-249.21,-186.04,1.478,1.912,-1.06
-384.45,-246.59,-194.76,1.513,1.873,-1.002
-395.43,-244.88,-203.84,1.562,1.873,-0.903
-405.49,-243.41,-211.71,1.623,1.868,-0.796
-414.94,-240.24,-217.87,1.701,1.831,-0.668
-425.49,-237.32,-223.66,1.768,1.813,-0.504
-441.52,-233.9,-228.78,1.815,1.813,-0.355
-461.58,-230.55,-233.6,1.857,1.793,-0.212
-480.06,-224.57,-238.9,1.873,1.747,-0.075
-499.02,-215.85,-241.83,1.867,1.737,0.056
-519.45,-207.26,-242.38,1.847,1.703,0.178
-531.1,-197.5,-245.98,1.807,1.654,0.25
-543.05,-185.61,-248.41,1.753,1.609,0.288
-550.79,-172.62,-249.33,1.683,1.533,0.311
-554.39,-158.23,-248.6,1.632,1.487,0.299
-556.04,-144.88,-246.89,1.585,1.448,0.29
-554.63,-133.72,-243.84,1.527,1.394,0.31
-545.06,-122.32,-239.51,1.501,1.298,0.368
-533.23,-111.77,-233.23,1.468,1.202,0.432
-521.22,-102.13,-225.31,1.434,1.121,0.497
-501.89,-92.195,-216.89,1.369,1.054,0.558
-479.39,-82.927,-206.46,1.305,0.983,0.6
-453.78,-74.207,-193.48,1.227,0.895,0.61
-428.9,-66.463,-178.29,1.158,0.841,0.595
-402.38,-59.939,-162.99,1.091,0.787,0.556
-373.96,-54.207,-145.91,1.027,0.734,0.512
-345.49,-50,-129.69,0.976,0.655,0.463
-317.62,-48.049,-112.87,0.922,0.589,0.4
-292.56,-48.11,-95.305,0.858,0.552,0.343
-268.17,-49.878,-78.72,0.789,0.517,0.294
-244.33,-52.744,-61.585,0.732,0.461,0.257
-220.43,-55.488,-45.183,0.688,0.399,0.232
-198.54,-58.232,-27.195,0.643,0.347,0.231
-178.05,-60.488,-9.085,0.599,0.282,0.263
-158.66,-61.585,8.72,0.574,0.234,0.301
-141.52,-62.5,24.756,0.56,0.193,0.315
-126.16,-64.207,41.585,0.535,0.163,0.34
-113.29,-66.341,57.256,0.5,0.159,0.374
-104.27,-69.146,71.22,0.474,0.182,0.363
-98.354,-72.256,83.232,0.468,0.173,0.33
-94.634,-75.366,93.963,0.471,0.146,0.299
-92.744,-78.171,103.96,0.486,0.115,0.27
-91.707,-81.037,112.93,0.504,0.118,0.222
-92.866,-83.963,120,0.52,0.135,0.157
-95.549,-87.012,125.61,0.54,0.14,0.116
-97.378,-89.695,130.67,0.56,0.141,0.101
-99.207,-91.707,134.88,0.574,0.152,0.09
-102.32,-93.11,138.11,0.583,0.171,0.081
-105.85,-93.902,140.67,0.562,0.203,0.117
-107.26,-93.72,142.32,0.49,0.162,0.195
-107.68,-93.171,142.74,0.517,0.068,0.212
-109.27,-92.866,142.26,0.508,-0.191,0.267
-111.04,-92.622,141.04,0.385,-0.33,0.36
-112.07,-91.768,138.84,0.354,-0.314,0.421
-112.68,-90.122,135.61,0.406,-0.208,0.404
-113.11,-87.744,131.89,0.523,-0.168,0.375
-113.66,-85.366,127.87,0.614,-0.102,0.332
-114.94,-82.988,123.05,0.66,0.005,0.264
-115.98,-80,116.52,0.705,0.139,0.183
-116.34,-76.768,109.33,0.764,0.267,0.117
-117.62,-73.537,102.26,0.814,0.352,0.074
-121.16,-70.427,94.878,0.859,0.423,0.063
-122.87,-67.012,86.463,0.913,0.492,0.061
-123.6,-62.866,77.256,0.954,0.512,0.085
-128.6,-58.963,64.634,0.99,0.508,0.12
-136.34,-55.915,46.098,0.986,0.483,0.176
-135.55,-56.22,29.39,0.969,0.497,0.244
-130.06,-58.72,16.28,0.938,0.555,0.301
-131.28,-59.756,1.341,0.916,0.599,0.34
-133.72,-57.988,-11.89,0.904,0.62,0.363
-132.5,-54.512,-21.037,0.877,0.627,0.372
-127.99,-51.22,-27.683,0.859,0.634,0.377
-123.11,-48.171,-33.293,0.844,0.642,0.382
-117.87,-45,-38.476,0.854,0.634,0.404
-110.61,-41.646,-43.659,0.88,0.626,0.418
-102.32,-38.72,-48.537,0.904,0.625,0.413
-92.805,-35.61,-52.256,0.908,0.617,0.424
-78.902,-32.5,-54.573,0.905,0.584,0.458
-62.927,-29.268,-55.183,0.893,0.534,0.486
-46.341,-26.341,-54.024,0.874,0.486,0.51
-31.341,-23.171,-50.61,0.858,0.447,0.536
-19.024,-20.671,-45.549,0.845,0.412,0.554
-7.683,-17.439,-39.695,0.836,0.37,0.556
2.683,-13.963,-33.537,0.839,0.332,0.554
11.463,-11.098,-27.439,0.85,0.317,0.557
18.171,-8.78,-21.89,0.847,0.324,0.566
22.012,-7.5,-17.256,0.835,0.326,0.563
23.78,-6.89,-13.902,0.83,0.324,0.546
23.354,-6.524,-11.22,0.825,0.321,0.533
20.732,-6.707,-8.902,0.802,0.341,0.518
17.134,-7.073,-7.439,0.781,0.367,0.498
13.171,-7.256,-6.585,0.766,0.373,0.472
8.598,-7.317,-6.037,0.756,0.362,0.46
3.963,-7.622,-5.61,0.74,0.357,0.449
-0.366,-7.805,-5.427,0.731,0.367,0.428
-4.268,-8.171,-5.61,0.721,0.379,0.417
-6.707,-8.415,-6.098,0.727,0.392,0.408
-7.866,-8.841,-6.402,0.741,0.404,0.4
-8.415,-9.329,-6.402,0.752,0.401,0.398
-8.841,-9.939,-6.28,0.754,0.398,0.404
-8.78,-10.122,-6.098,0.747,0.4,0.408
-7.866,-9.939,-5.976,0.732,0.396,0.415
-7.012,-9.207,-5.976,0.712,0.398,0.428
-7.317,-8.841,-5.244,0.698,0.4,0.43
-8.476,-8.537,-4.634,0.695,0.404,0.43
-9.329,-8.049,-4.085,0.682,0.419,0.438
-9.329,-7.195,-3.354,0.653,0.437,0.436
-9.878,-6.341,-2.256,0.629,0.437,0.43
-10.854,-5.793,-0.793,0.614,0.434,0.432
-11.22,-5.488,0.793,0.619,0.438,0.432
-11.22,-5.366,2.256,0.631,0.457,0.425
-10.732,-5,3.476,0.632,0.481,0.412
-9.085,-4.878,4.329,0.625,0.493,0.414
-7.073,-4.451,5.122,0.621,0.494,0.416
-4.268,-3.902,5.549,0.624,0.5,0.421
-1.28,-3.537,5.915,0.619,0.508,0.429
0.976,-3.476,5.732,0.607,0.52,0.438
3.293,-3.415,5.061,0.608,0.519,0.451
5.793,-2.927,4.512,0.601,0.524,0.452
7.561,-2.256,3.963,0.6,0.528,0.45
8.537,-1.341,3.11,0.605,0.514,0.439
9.024,-0.549,2.195,0.61,0.506,0.438
8.659,0.183,1.037,0.613,0.509,0.442
6.951,0.61,-0.061,0.616,0.506,0.442
4.512,0.61,-1.402,0.616,0.497,0.438
1.768,0.549,-2.927,0.606,0.488,0.443
-1.646,0.549,-4.939,0.594,0.486,0.449
-5,0.305,-7.195,0.577,0.499,0.449
-8.293,-0.244,-9.573,0.564,0.513,0.453
-12.195,-0.671,-11.89,0.551,0.515,0.464
-15.183,-1.098,-14.085,0.547,0.521,0.469
-17.378,-1.341,-16.341,0.534,0.539,0.466
-19.329,-1.829,-18.293,0.522,0.548,0.474
-20.61,-2.134,-20.122,0.519,0.553,0.475
-21.341,-2.378,-21.951,0.521,0.547,0.468
-21.463,-2.866,-23.354,0.517,0.535,0.462
-20.976,-3.354,-24.451,0.519,0.527,0.451
-19.817,-3.72,-25.671,0.522,0.517,0.452
-17.866,-4.024,-27.012,0.528,0.492,0.46
-15.549,-4.329,-28.476,0.527,0.462,0.466
-13.537,-4.573,-30.061,0.521,0.441,0.464
-12.073,-5.122,-31.463,0.51,0.411,0.465
-10.671,-5.732,-33.049,0.49,0.386,0.456
-9.573,-6.098,-34.573,0.476,0.361,0.445
-10.122,-6.707,-35.732,0.47,0.34,0.425
-11.89,-7.744,-36.768,0.472,0.333,0.397
-13.902,-8.476,-37.683,0.472,0.333,0.379
-17.073,-9.451,-38.415,0.487,0.342,0.364
-21.524,-10.915,-38.78,0.504,0.35,0.346
-26.707,-12.439,-38.963,0.518,0.348,0.327
-32.5,-14.085,-39.451,0.525,0.349,0.313
-37.561,-15.915,-39.573,0.514,0.343,0.3
-42.378,-17.744,-39.573,0.503,0.338,0.283
-47.012,-19.39,-39.695,0.49,0.339,0.263
-50.549,-20.732,-39.512,0.478,0.343,0.251
-52.683,-21.829,-39.329,0.462,0.344,0.252
-53.659,-22.988,-39.146,0.447,0.333,0.252
-53.598,-24.207,-39.146,0.43,0.319,0.263
-53.415,-25.671,-38.841,0.422,0.307,0.263
-52.378,-27.073,-38.659,0.417,0.297,0.261
-51.22,-28.537,-38.171,0.405,0.296,0.269
-50.854,-29.939,-37.317,0.389,0.313,0.286
-50.549,-31.22,-36.524,0.378,0.322,0.294
-51.159,-31.951,-35.427,0.37,0.336,0.296
-52.439,-32.5,-34.39,0.363,0.356,0.285
-54.085,-32.744,-33.293,0.355,0.378,0.277
-56.768,-33.232,-32.439,0.336,0.381,0.273
-60.061,-33.902,-31.585,0.323,0.369,0.27
-62.988,-34.39,-30.427,0.312,0.358,0.262
-65.183,-34.878,-29.268,0.297,0.325,0.262
-67.561,-35.488,-28.049,0.27,0.28,0.274
-69.695,-36.28,-26.89,0.238,0.243,0.31
-71.707,-36.707,-26.037,0.189,0.173,0.341
-73.841,-37.012,-25.244,0.134,0.124,0.374
-76.646,-37.439,-24.939,0.132,0.053,0.369
-79.939,-37.622,-24.939,0.138,0,0.407
-82.805,-37.5,-25.183,0.169,-0.034,0.429
-86.585,-37.073,-25.854,0.178,-0.068,0.403
-91.89,-36.585,-26.951,0.161,-0.135,0.399
-97.561,-35.854,-28.72,0.182,-0.197,0.392
-103.23,-34.634,-30.671,0.204,-0.275,0.36
-108.78,-33.78,-32.5,0.237,-0.362,0.323
-113.54,-32.561,-35.061,0.271,-0.42,0.298
-116.83,-30.854,-37.378,0.283,-0.493,0.283
-118.6,-28.902,-39.573,0.306,-0.542,0.27
-119.69,-26.402,-41.28,0.334,-0.589,0.263
-121.83,-24.146,-43.11,0.348,-0.635,0.275
-119.27,-23.476,-49.695,0.347,-0.687,0.295
-107.07,-24.268,-57.683,0.339,-0.697,0.319
-91.829,-21.463,-55.915,0.34,-0.684,0.322
-80.61,-15.976,-58.476,0.337,-0.692,0.304
-69.146,-13.415,-70.488,0.333,-0.658,0.249
-57.439,-11.89,-81.585,0.316,-0.609,0.166
-47.744,-9.573,-92.866,0.278,-0.573,0.07
-38.232,-6.646,-107.99,0.233,-0.53,-0.022
-28.841,-3.476,-126.83,0.245,-0.443,-0.139
-21.037,-0.671,-148.17,0.336,-0.341,-0.292
-14.146,2.073,-171.28,0.513,-0.227,-0.418
-7.866,6.22,-196.28,0.715,-0.114,-0.422
-1.585,10.854,-222.26,0.873,-0.022,-0.417
3.537,15.366,-248.66,1.11,0.138,-0.661
9.634,21.402,-276.1,1.117,0.372,-0.76
17.134,29.207,-304.51,0.827,0.703,-0.759
25.183,37.012,-331.58,0.45,1.137,-0.915
35.854,46.341,-357.93,0.085,1.442,-1.237
47.561,56.646,-384.57,-0.222,1.679,-1.654
60.549,68.049,-410.37,-0.438,2.036,-2.133
75.793,80.793,-436.04,-0.55,2.742,-2.798
94.573,93.78,-461.71,-0.687,3.805,-3.508
118.11,106.34,-486.65,-1,4.919,-4.112
147.62,118.54,-511.16,-1.375,5.774,-4.833
182.87,130.85,-536.4,-1.626,6.461,-5.704
223.05,142.44,-562.07,-1.76,6.644,-6.445
269.15,151.46,-588.35,-1.699,6.267,-6.904
323.35,160,-612.99,-1.451,5.58,-7.011
380.92,167.99,-632.62,-0.891,4.917,-6.828
443.66,172.56,-648.41,-0.081,4.647,-6.586
514.63,176.16,-659.45,0.595,4.404,-6.326
594.45,180.49,-665.67,0.954,4.012,-6.034
675.18,185.31,-667.01,1.245,3.469,-5.725
752.68,185.55,-657.56,1.696,2.805,-5.518
827.2,177.74,-635.67,2.137,2.169,-5.46
894.02,168.35,-604.94,2.174,1.739,-5.36
953.96,157.13,-571.59,1.985,1.33,-5.194
998.6,148.54,-535.91,1.618,0.996,-4.927
1013.2,155.31,-494.57,1.303,0.79,-4.693
1002.3,177.74,-458.96,0.99,0.673,-4.547
964.39,207.01,-426.89,0.57,0.681,-4.508
901.95,240.49,-382.38,0.159,0.826,-4.561
808.23,269.39,-335.24,-0.266,0.93,-4.697
664.7,309.51,-296.34,-0.712,1.178,-4.907
495.43,358.6,-268.17,-1.197,1.447,-5.174
317.01,419.76,-242.38,-1.641,1.768,-5.42
145.49,482.81,-215.79,-2.045,1.972,-5.585
-4.573,543.72,-183.72,-2.354,2.111,-5.68
-121.77,606.34,-144.21,-2.596,2.088,-5.495
-201.89,670.24,-101.34,-2.734,1.875,-5.003
-237.87,730.98,-54.268,-2.686,1.763,-4.556
-224.39,786.22,-2.012,-2.621,1.882,-4.29
-176.4,833.54,50.671,-2.761,1.964,-4.064
-102.38,875.55,105.06,-3.068,1.875,-3.755
-20.305,910.91,157.32,-3.335,1.734,-3.469
59.207,939.94,205.61,-3.493,1.785,-3.389
129.09,964.39,250.61,-3.603,1.906,-3.551
179.33,982.8,283.96,-4.193,2,-3.576
214.33,996.46,308.48,-5.227,1.859,-3.446
231.59,1002.5,330,-6.35,1.576,-3.203
234.02,1002.3,343.05,-6.863,1.308,-3.175
227.13,995.06,351.52,-6.689,1.112,-2.923
217.87,981.83,357.56,-5.879,0.62,-2.644
208.35,964.15,361.4,-4.778,-0.015,-2.502
197.81,942.99,363.72,-3.894,-0.292,-2.095
186.16,919.63,362.68,-3.403,-0.26,-1.492
174.57,893.29,356.04,-3.115,-0.162,-0.93
163.84,861.34,342.38,-2.854,-0.029,-0.435
153.41,822.93,320.18,-2.601,0.131,0.042
139.15,776.22,291.71,-2.363,0.379,0.45
118.6,722.01,262.93,-2.224,0.752,0.708
92.5,667.13,235.67,-2.251,1.107,0.876
64.268,611.65,209.57,-2.352,1.361,0.923
34.207,542.38,180.91,-2.414,1.459,0.837
5.671,451.83,151.04,-2.428,1.458,0.707
-16.22,342.74,130.98,-2.354,1.437,0.481
-22.866,239.51,114.82,-2.244,1.336,0.203
-12.866,156.1,105.31,-2.168,1.181,-0.054
14.512,100.55,101.77,-2.063,1.012,-0.258
57.805,63.841,97.805,-1.892,0.765,-0.374
109.27,39.756,88.902,-1.646,0.52,-0.45
161.65,26.159,76.159,-1.376,0.326,-0.483
207.32,20.366,62.866,-1.125,0.196,-0.5
237.74,22.256,48.415,-0.891,0.13,-0.537
245.43,28.841,34.756,-0.666,0.129,-0.596
227.19,35.549,21.951,-0.491,0.215,-0.676
185.98,38.78,8.72,-0.357,0.34,-0.795
126.65,34.268,-2.317,-0.26,0.457,-0.948
58.902,22.866,-9.756,-0.21,0.632,-1.1
-9.085,7.927,-15.305,-0.198,0.825,-1.209
-73.476,-9.695,-21.585,-0.17,1.025,-1.25
-129.39,-30.671,-27.439,-0.112,1.23,-1.243
-171.65,-55.366,-33.598,-0.002,1.395,-1.237
-197.81,-82.134,-41.341,0.135,1.523,-1.273
-207.68,-109.02,-48.963,0.233,1.638,-1.356
-203.17,-134.27,-55.183,0.304,1.709,-1.461
-187.38,-157.01,-60.793,0.359,1.729,-1.584
-162.93,-176.1,-65.732,0.41,1.67,-1.685
-134.09,-192.01,-70,0.468,1.611,-1.786
-104.82,-205.85,-74.451,0.556,1.62,-1.945
-79.207,-217.5,-79.512,0.651,1.636,-2.111
-60.183,-227.87,-84.634,0.742,1.621,-2.225
-50.61,-237.81,-90.671,0.854,1.597,-2.302
-50.976,-247.32,-96.89,0.941,1.598,-2.281
-62.805,-255.73,-103.05,1.028,1.648,-2.188
-85.305,-262.19,-109.45,1.147,1.705,-2.079
-117.87,-265.49,-115.79,1.251,1.737,-1.973
-159.94,-264.57,-121.89,1.356,1.773,-1.788
-210.37,-261.16,-127.38,1.486,1.807,-1.688
-267.56,-256.34,-132.44,1.609,1.853,-1.644
-326.46,-251.83,-136.71,1.718,1.903,-1.605
-384.45,-248.23,-140.06,1.789,1.914,-1.502
-440.37,-245.73,-143.84,1.857,1.848,-1.379
-492.81,-242.01,-147.19,1.941,1.725,-1.32
-536.89,-239.33,-151.65,2.012,1.65,-1.229
-576.59,-234.39,-157.87,2.045,1.603,-1.067
-608.72,-228.96,-166.16,2.09,1.508,-0.86
-633.66,-223.78,-175.55,2.142,1.497,-0.635
-655.73,-217.68,-184.88,2.187,1.463,-0.438
-672.44,-208.05,-194.94,2.217,1.369,-0.282
-681.1,-198.72,-205.79,2.243,1.287,-0.16
-687.74,-187.38,-215.37,2.24,1.283,-0.048
-690.06,-179.27,-222.93,2.236,1.316,0.017
-693.72,-166.89,-227.44,2.212,1.345,0.069
-693.72,-154.45,-230.43,2.191,1.278,0.106
-682.07,-143.17,-232.44,2.143,1.188,0.13
-665.85,-129.69,-233.84,2.089,1.079,0.159
-645.98,-114.33,-233.05,2.012,1.008,0.209
-622.01,-103.54,-228.9,1.949,0.916,0.243
-595.43,-91.707,-221.46,1.901,0.806,0.278
-567.68,-80.488,-212.68,1.821,0.765,0.332
-535.06,-73.293,-203.35,1.74,0.731,0.354
-492.56,-65.122,-191.59,1.658,0.703,0.348
-447.13,-56.159,-178.23,1.55,0.673,0.338
-404.08,-48.171,-163.35,1.446,0.647,0.331
-365.24,-41.402,-147.13,1.338,0.609,0.347
-330.55,-36.585,-130.79,1.248,0.539,0.369
-295.06,-32.866,-115.55,1.197,0.466,0.353
-261.65,-30.244,-100.79,1.174,0.429,0.313
-233.23,-28.11,-86.22,1.169,0.392,0.272
-209.39,-27.805,-70.915,1.114,0.337,0.228
-187.56,-28.232,-55.122,1.076,0.249,0.172
-168.41,-29.329,-39.756,0.956,0.185,0.149
-151.59,-31.524,-23.415,0.844,0.176,0.128
-139.21,-33.78,-6.159,0.765,0.096,0.117
-129.88,-35.671,9.146,0.699,0.039,0.123
-122.5,-38.049,23.293,0.628,0.029,0.131
-118.48,-40.61,37.195,0.564,0.004,0.155
-117.56,-43.171,49.878,0.517,-0.028,0.175
-119.33,-45.427,60.854,0.509,-0.011,0.18
-121.95,-47.744,71.402,0.527,0.031,0.17
-124.33,-50.488,81.585,0.562,0.048,0.159
-127.26,-53.902,89.939,0.592,0.051,0.161
-131.4,-56.89,97.561,0.611,0.07,0.149
-135.98,-58.476,104.33,0.624,0.085,0.122
-136.95,-62.134,108.6,0.62,0.068,0.117
-138.05,-64.817,116.22,0.603,0.023,0.121
-140.61,-66.402,120.31,0.576,-0.073,0.118
-140.06,-67.988,122.32,0.641,-0.303,0.091
-140.06,-68.841,124.76,0.515,-0.509,0.159
-140.91,-68.841,126.1,0.378,-0.473,0.252
-141.04,-67.561,126.04,0.395,-0.375,0.258
-140.91,-65.915,125.31,0.522,-0.33,0.238
-141.34,-64.573,124.57,0.618,-0.256,0.221
-141.77,-63.415,122.68,0.632,-0.117,0.192
-142.26,-61.098,118.9,0.641,0.021,0.136
-142.87,-58.049,114.33,0.678,0.132,0.071
-143.17,-54.695,108.84,0.731,0.202,0.026
-142.07,-50.915,102.07,0.811,0.266,-0.004
-139.69,-47.256,94.268,0.897,0.321,-0.014
-136.46,-44.085,85.976,0.953,0.347,0.005
-132.44,-41.098,75.366,1.011,0.419,0.057
-133.54,-38.293,58.11,0.997,0.422,0.146
-132.38,-38.11,38.476,0.967,0.436,0.205
-120.37,-41.28,24.573,0.942,0.489,0.235
-111.83,-45.122,9.817,0.924,0.55,0.26
-110.37,-45.793,-5.305,0.934,0.592,0.284
-107.38,-42.439,-16.524,0.908,0.624,0.305
-102.26,-38.78,-25.671,0.875,0.629,0.318
-98.11,-35.854,-33.659,0.863,0.622,0.347
-93.476,-32.927,-40.976,0.877,0.602,0.374
-87.073,-29.878,-47.439,0.895,0.577,0.406
-79.268,-27.256,-52.683,0.908,0.555,0.441
-71.341,-24.573,-56.402,0.897,0.523,0.472
-62.744,-21.829,-57.561,0.875,0.479,0.508
-52.256,-19.024,-57.195,0.853,0.425,0.544
-39.512,-15.427,-56.402,0.829,0.384,0.572
-25.244,-12.439,-53.659,0.808,0.375,0.594
-13.232,-10,-49.329,0.802,0.376,0.611
-3.598,-7.195,-43.902,0.802,0.367,0.609
2.561,-4.024,-38.171,0.801,0.367,0.593
6.707,-1.037,-32.561,0.811,0.382,0.564
8.963,1.524,-27.561,0.828,0.385,0.532
10.183,3.415,-22.927,0.832,0.404,0.518
9.939,4.756,-18.72,0.817,0.436,0.502
8.963,6.037,-14.878,0.793,0.461,0.483
7.622,7.256,-11.89,0.771,0.491,0.483
5.671,8.476,-9.451,0.764,0.509,0.496
4.695,9.451,-7.744,0.758,0.509,0.5
4.39,10,-6.707,0.738,0.513,0.509
3.659,9.878,-6.037,0.719,0.518,0.511
3.476,9.451,-5.976,0.703,0.528,0.509
3.415,8.963,-6.341,0.691,0.517,0.499
3.293,8.415,-6.89,0.695,0.495,0.497
2.683,7.561,-7.134,0.718,0.483,0.485
1.646,6.037,-7.195,0.726,0.469,0.468
0.366,4.268,-7.073,0.71,0.454,0.459
-1.829,2.683,-6.829,0.68,0.441,0.452
-4.512,0.915,-5.915,0.648,0.431,0.449
-9.085,-1.037,-4.634,0.635,0.428,0.454
-14.39,-2.805,-3.293,0.632,0.429,0.45
-17.866,-4.268,-1.341,0.623,0.436,0.45
-21.341,-5.488,0.732,0.611,0.44,0.448
-25.183,-5.915,2.866,0.608,0.447,0.439
-28.11,-5.976,4.939,0.604,0.459,0.436
-30.183,-5.854,6.585,0.599,0.463,0.426
-31.159,-5.976,7.622,0.598,0.467,0.428
-31.646,-6.098,8.232,0.6,0.469,0.437
-31.159,-6.341,8.841,0.604,0.471,0.445
-29.329,-6.159,9.207,0.601,0.466,0.464
-27.134,-5.732,9.39,0.603,0.462,0.47
-24.573,-5.427,9.329,0.6,0.438,0.47
-22.012,-5.305,8.537,0.588,0.414,0.479
-20.183,-5.488,7.622,0.58,0.41,0.478
-19.878,-5.732,6.524,0.571,0.403,0.477
-20.061,-5.488,5.427,0.562,0.409,0.464
-20.671,-5.366,4.451,0.565,0.412,0.447
-22.012,-5.549,3.354,0.566,0.422,0.435
-24.024,-5.671,2.073,0.57,0.437,0.436
-26.585,-5.671,0.793,0.571,0.452,0.441
-29.268,-5.671,-0.61,0.565,0.465,0.447
-31.951,-5.793,-2.5,0.567,0.465,0.455
-33.11,-5.671,-4.024,0.576,0.458,0.463
-33.841,-5.366,-5.671,0.581,0.46,0.47
-33.598,-4.695,-7.317,0.584,0.451,0.477
-32.256,-3.598,-9.268,0.578,0.445,0.486
-30.549,-2.683,-11.341,0.57,0.438,0.487
-28.476,-1.951,-13.232,0.561,0.43,0.479
-26.159,-1.402,-14.939,0.55,0.42,0.481
-23.659,-1.098,-16.463,0.545,0.416,0.474
-21.341,-1.037,-17.866,0.537,0.414,0.466
-20.244,-1.341,-18.963,0.528,0.409,0.465
-19.512,-2.012,-20,0.515,0.407,0.459
-19.39,-2.805,-20.793,0.504,0.403,0.445
-19.939,-3.354,-21.707,0.496,0.399,0.434
-21.037,-4.085,-22.866,0.486,0.39,0.426
-22.622,-5,-24.085,0.479,0.373,0.42
-24.085,-5.671,-25.366,0.474,0.346,0.417
-25.366,-6.28,-26.646,0.464,0.322,0.403
-26.768,-6.89,-27.866,0.456,0.299,0.397
-28.72,-7.378,-29.146,0.444,0.29,0.395
-30.488,-7.866,-30.793,0.422,0.28,0.394
-31.341,-8.476,-32.134,0.396,0.264,0.383
-32.866,-9.024,-32.988,0.392,0.231,0.382
-34.756,-9.817,-33.537,0.38,0.209,0.383
-35.976,-10.915,-33.963,0.362,0.21,0.389
-37.317,-11.89,-33.902,0.355,0.199,0.38
-39.024,-12.927,-33.963,0.353,0.18,0.357
-40.61,-14.024,-33.963,0.348,0.171,0.334
-41.89,-15.122,-34.146,0.344,0.175,0.32
-42.866,-16.159,-34.207,0.361,0.193,0.289
-43.293,-17.256,-34.085,0.38,0.215,0.261
-43.171,-18.11,-33.963,0.412,0.229,0.227
-42.561,-18.78,-34.085,0.437,0.24,0.198
-41.829,-19.451,-33.78,0.45,0.247,0.18
-40.427,-20,-33.476,0.456,0.257,0.171
-38.476,-20.732,-33.354,0.456,0.264,0.156
-36.159,-21.22,-33.354,0.45,0.266,0.149
-33.72,-21.037,-33.659,0.447,0.283,0.17
-31.768,-20.976,-33.476,0.45,0.272,0.192
-29.512,-21.037,-33.537,0.427,0.27,0.214
-26.463,-20.854,-33.537,0.437,0.282,0.219
-23.537,-20.732,-33.476,0.418,0.271,0.24
-21.402,-20.976,-33.841,0.4,0.272,0.266
-21.341,-21.524,-34.451,0.389,0.253,0.287
-21.951,-22.5,-35.061,0.353,0.257,0.289
-22.622,-23.476,-35.671,0.333,0.25,0.293
-23.354,-24.207,-36.585,0.304,0.231,0.296
-24.512,-24.939,-37.317,0.268,0.216,0.285
-26.646,-25.976,-37.866,0.248,0.198,0.285
-29.634,-27.195,-38.476,0.227,0.171,0.306
-31.341,-28.476,-39.024,0.216,0.145,0.327
-31.829,-29.695,-39.207,0.229,0.105,0.34
-33.11,-30.732,-39.878,0.248,0.059,0.342
-34.756,-32.195,-40.793,0.266,0.016,0.342
-35.549,-33.841,-41.28,0.293,-0.027,0.332
-35.061,-35.549,-42.317,0.321,-0.065,0.309
-32.805,-36.585,-43.11,0.347,-0.106,0.289
-31.524,-37.622,-43.78,0.37,-0.153,0.268
-30.793,-38.841,-44.878,0.386,-0.228,0.258
-29.39,-39.207,-46.159,0.413,-0.28,0.25
-28.963,-39.39,-48.049,0.434,-0.295,0.225
-28.841,-39.695,-50.488,0.461,-0.299,0.189
-28.659,-39.939,-53.598,0.473,-0.314,0.166
-29.085,-40.183,-57.256,0.479,-0.309,0.147
-30.183,-40.061,-61.89,0.481,-0.336,0.12
-30.61,-39.146,-67.439,0.498,-0.358,0.091
-30.549,-37.866,-73.841,0.503,-0.318,0.072
-30.61,-36.098,-81.341,0.503,-0.325,0.04
-29.695,-33.659,-90.244,0.521,-0.327,-0.008
-27.805,-30.427,-100.24,0.559,-0.291,-0.094
-25.061,-26.646,-111.16,0.577,-0.289,-0.196
-21.159,-22.988,-123.35,0.61,-0.259,-0.329
-16.707,-18.963,-136.71,0.669,-0.235,-0.481
-12.134,-14.085,-151.28,0.744,-0.229,-0.591
-7.195,-9.024,-166.46,0.865,-0.221,-0.773
-0.793,-3.537,-181.95,1.097,-0.113,-1.059
7.866,2.988,-198.6,1.253,0.118,-1.287
17.256,8.841,-216.16,1.26,0.603,-1.516
28.354,15.305,-235.24,1.106,1.299,-1.814
41.463,22.866,-256.58,0.859,1.921,-2.188
56.28,30.915,-278.11,0.689,2.359,-2.637
74.512,38.476,-299.88,0.578,2.973,-3.101
97.988,48.11,-323.11,0.498,3.945,-3.626
124.94,57.744,-345.92,0.451,4.988,-4.196
157.62,68.476,-370.92,0.363,5.842,-4.792
196.46,79.268,-397.56,0.275,6.352,-5.465
242.5,90.854,-424.76,0.32,6.54,-6.203
294.15,102.32,-452.56,0.422,6.402,-6.799
352.13,112.5,-481.28,0.535,6.111,-7.002
419.21,121.4,-509.51,0.816,5.717,-6.774
489.57,127.74,-534.02,1.279,5.162,-6.323
561.4,130.06,-558.41,1.825,4.683,-5.869
634.15,128.96,-581.52,2.16,4.115,-5.469
706.71,126.89,-600.43,2.386,3.617,-5.112
773.41,125.24,-613.48,2.543,3.201,-4.759
827.01,119.51,-614.88,2.633,2.839,-4.434
870.61,111.83,-601.59,2.581,2.437,-4.15
909.88,110.24,-573.23,2.388,2.036,-3.926
946.71,114.51,-535.67,2.102,1.7,-3.74
968.05,134.69,-495.98,1.787,1.417,-3.598
972.56,161.34,-451.46,1.473,1.111,-3.563
956.1,195.18,-412.74,1.084,0.968,-3.673
923.35,236.04,-373.54,0.672,0.831,-3.913
877.2,281.65,-333.54,0.181,0.796,-4.156
811.65,333.29,-301.04,-0.273,0.767,-4.407
710.24,391.4,-280.12,-0.67,0.852,-4.648
588.54,454.45,-263.78,-1.018,0.946,-4.743
461.46,516.34,-246.83,-1.248,0.944,-4.621
333.96,579.39,-230.49,-1.357,0.914,-4.37
216.46,641.46,-210.31,-1.379,1.003,-4.171
118.17,697.93,-183.6,-1.452,1.169,-4.067
45.671,751.95,-149.09,-1.639,1.351,-3.999
-0.671,800.24,-108.17,-1.925,1.392,-3.755
-22.378,843.05,-61.341,-2.182,1.346,-3.432
-20.793,880.18,-9.695,-2.45,1.36,-3.117
-5.61,911.34,44.39,-2.521,1.478,-3.427
20.488,936.65,96.646,-2.894,1.658,-4.116
50.671,955.55,146.28,-3.609,1.708,-4.676
81.646,965.67,189.76,-4.737,1.587,-4.497
112.07,969.57,226.34,-5.947,1.27,-4.084
138.72,966.28,256.46,-6.612,0.831,-3.931
161.16,958.11,278.66,-6.558,0.472,-3.699
176.83,947.13,295.85,-5.823,-0.117,-2.966
184.88,932.56,306.89,-4.814,-0.911,-2.317
184.63,913.6,312.5,-4.01,-1.272,-1.869
176.52,889.09,311.46,-3.479,-1.083,-1.395
162.74,856.83,302.99,-3.108,-0.56,-1.03
143.17,815.85,287.74,-2.826,-0.098,-0.784
115.24,767.87,264.76,-2.625,0.188,-0.454
75.061,712.62,239.39,-2.48,0.505,-0.025
21.89,645.43,217.99,-2.324,0.979,0.253
-37.256,569.09,202.99,-2.242,1.413,0.441
-89.573,484.08,194.15,-2.27,1.698,0.549
-129.45,395.98,183.72,-2.286,1.764,0.511
-158.41,300.73,169.09,-2.26,1.711,0.386
-167.38,201.46,158.29,-2.199,1.529,0.235
-143.66,114.33,153.72,-2.099,1.337,0.032
-89.207,55.244,156.1,-1.981,1.132,-0.166
-15,23.354,161.34,-1.821,0.842,-0.327
77.378,9.146,161.46,-1.609,0.533,-0.464
174.15,4.695,150.43,-1.349,0.266,-0.561
258.66,7.439,131.34,-1.073,0.102,-0.622
317.87,15.793,106.52,-0.816,0.027,-0.681
343.11,24.634,79.024,-0.587,0.042,-0.768
330.12,30.366,53.354,-0.41,0.135,-0.883
278.66,33.476,31.341,-0.283,0.264,-0.969
201.4,33.171,12.805,-0.16,0.407,-1.057
112.74,26.829,-0.488,-0.059,0.597,-1.15
17.927,15.671,-11.159,0.043,0.802,-1.222
-68.598,1.037,-20.671,0.149,0.998,-1.251
-142.68,-15.732,-30.427,0.24,1.171,-1.221
-202.5,-35.671,-40,0.337,1.337,-1.184
-240.98,-58.232,-50.61,0.449,1.439,-1.215
-257.62,-81.402,-61.159,0.558,1.53,-1.292
-254.39,-104.39,-70.183,0.641,1.605,-1.39
-235.79,-126.77,-77.073,0.735,1.658,-1.54
-204.88,-147.68,-82.5,0.79,1.684,-1.716
-168.66,-166.22,-86.89,0.832,1.727,-1.902
-132.62,-183.23,-91.402,0.87,1.773,-2.036
-99.146,-200.24,-95.793,0.921,1.816,-2.12
-72.805,-216.4,-99.451,0.987,1.853,-2.182
-56.22,-230.98,-102.74,1.104,1.874,-2.266
-49.817,-244.02,-106.04,1.224,1.91,-2.294
-56.89,-255.43,-109.08,1.376,1.923,-2.33
-77.073,-264.02,-112.44,1.522,1.896,-2.388
-108.42,-270.24,-115.92,1.663,1.837,-2.323
-149.15,-273.35,-118.66,1.797,1.825,-2.152
-199.57,-272.32,-121.46,1.948,1.813,-2.035
-254.09,-270.92,-124.88,2.083,1.706,-1.881
-313.29,-266.58,-128.54,2.157,1.579,-1.647
-376.95,-261.89,-133.96,2.226,1.446,-1.431
-443.29,-255.31,-139.21,2.242,1.422,-1.159
-510.18,-248.96,-145.37,2.241,1.339,-0.936
-574.82,-244.15,-153.35,2.246,1.297,-0.817
-636.83,-239.39,-163.17,2.255,1.2,-0.743
-694.02,-234.57,-175.67,2.248,1.089,-0.659
-747.74,-226.77,-188.78,2.222,1.046,-0.508
-794.21,-217.38,-202.74,2.186,0.99,-0.32
-830.06,-207.87,-217.74,2.186,0.89,-0.169
-857.32,-190,-229.63,2.164,0.827,-0.043
-879.15,-176.52,-239.27,2.116,0.857,0.087
-890.73,-156.77,-246.1,2.088,0.791,0.253
-889.7,-136.22,-251.52,2.038,0.697,0.384
-878.11,-117.56,-253.72,2.027,0.606,0.455
-856.28,-100.43,-252.81,1.987,0.53,0.468
-830.79,-83.537,-244.63,1.903,0.54,0.447
-797.26,-67.134,-234.94,1.826,0.581,0.406
-755.37,-54.695,-223.9,1.745,0.571,0.354
-705.18,-43.354,-210.12,1.661,0.552,0.305
-653.11,-34.695,-196.1,1.595,0.527,0.291
-596.95,-27.622,-181.83,1.539,0.499,0.297
-538.29,-22.073,-168.48,1.47,0.471,0.312
-480.92,-17.805,-155.91,1.395,0.415,0.339
-423.66,-14.146,-142.26,1.313,0.379,0.362
-371.52,-11.707,-128.48,1.217,0.388,0.361
-320.37,-11.707,-112.87,1.128,0.396,0.35
-273.96,-13.11,-94.573,1.059,0.373,0.319
-232.62,-15.366,-76.829,0.998,0.325,0.275
-195.18,-18.415,-58.476,0.942,0.27,0.238
-162.5,-21.341,-40.366,0.897,0.199,0.189
-134.57,-24.512,-25,0.87,0.117,0.139
-111.46,-28.354,-11.585,0.84,0.048,0.103
-92.988,-32.439,0.305,0.806,-0.013,0.071
-78.354,-36.463,9.634,0.752,-0.058,0.038
-67.012,-40.122,18.232,0.713,-0.095,0.013
-59.146,-42.988,27.195,0.683,-0.157,0.021
-55.488,-44.695,35.549,0.67,-0.184,0.062
-57.134,-45.793,43.902,0.678,-0.164,0.091
-62.805,-46.524,51.402,0.683,-0.127,0.123
-70.793,-47.256,57.5,0.676,-0.092,0.155
-81.037,-47.012,62.5,0.665,-0.057,0.179
-94.512,-46.22,65.976,0.66,-0.025,0.196
-109.02,-45.61,67.927,0.674,0.001,0.209
-121.22,-45.61,68.598,0.68,-0.017,0.205
-131.89,-45.793,68.963,0.656,-0.074,0.212
-141.46,-45.549,68.902,0.688,-0.122,0.171
-148.11,-44.634,67.134,0.605,-0.259,0.164
-151.89,-43.902,64.878,0.483,-0.304,0.198
-151.89,-42.744,61.707,0.487,-0.245,0.179
-148.11,-41.159,57.622,0.598,-0.167,0.13
-142.62,-39.329,53.415,0.7,-0.104,0.104
-136.95,-37.256,49.268,0.747,0.006,0.081
-130.06,-34.573,44.878,0.781,0.138,0.067
-122.62,-31.463,40.732,0.813,0.245,0.104
-115.31,-28.476,36.951,0.854,0.339,0.163
-108.48,-25.488,32.683,0.904,0.41,0.204
-103.05,-22.561,28.476,0.925,0.464,0.25
-99.573,-19.573,22.866,0.924,0.521,0.291
-95.488,-17.073,15.671,0.913,0.57,0.311
-93.415,-14.146,5.976,0.892,0.592,0.314
-92.256,-11.951,-6.037,0.872,0.611,0.319
-84.939,-12.622,-14.756,0.857,0.616,0.326
-76.829,-15.61,-21.22,0.851,0.594,0.339
-73.171,-17.744,-27.805,0.855,0.586,0.355
-68.293,-17.256,-32.927,0.863,0.578,0.387
-60.793,-16.402,-36.524,0.87,0.55,0.433
-53.902,-16.22,-39.512,0.872,0.523,0.474
-47.622,-15.915,-42.561,0.873,0.482,0.511
-40.427,-15.427,-44.817,0.876,0.446,0.539
-32.378,-15.061,-45.915,0.862,0.416,0.558
-24.146,-14.085,-45.793,0.847,0.378,0.563
-16.829,-12.561,-44.573,0.833,0.343,0.569
-10.915,-11.098,-42.561,0.815,0.313,0.578
-6.28,-9.939,-39.695,0.813,0.302,0.583
-2.378,-9.207,-36.524,0.82,0.308,0.576
0.549,-8.293,-32.927,0.83,0.319,0.556
2.317,-7.927,-29.268,0.851,0.333,0.539
2.317,-7.927,-25.488,0.869,0.348,0.523
1.829,-7.805,-21.707,0.86,0.366,0.513
1.159,-7.744,-18.293,0.848,0.397,0.516
0.305,-7.195,-15.183,0.835,0.435,0.511
-0.122,-6.463,-12.744,0.831,0.459,0.51
-0.122,-5.549,-10.793,0.826,0.469,0.522
0.366,-4.756,-9.451,0.811,0.481,0.528
1.341,-3.963,-8.78,0.797,0.497,0.518
3.293,-3.537,-8.354,0.788,0.503,0.496
4.878,-3.354,-8.232,0.796,0.5,0.477
6.524,-3.415,-8.171,0.805,0.508,0.468
8.354,-3.659,-7.866,0.801,0.509,0.476
9.451,-3.841,-7.439,0.791,0.512,0.481
9.939,-3.78,-6.89,0.762,0.517,0.479
10.61,-3.78,-6.037,0.729,0.499,0.485
10.61,-3.598,-4.817,0.708,0.479,0.487
9.817,-3.598,-3.232,0.683,0.458,0.487
8.963,-3.598,-1.89,0.667,0.445,0.487
7.988,-3.659,-0.732,0.667,0.448,0.472
6.951,-3.659,0.732,0.665,0.453,0.467
5.427,-3.476,2.073,0.656,0.455,0.473
3.902,-3.171,3.598,0.651,0.462,0.48
2.439,-2.805,5.549,0.638,0.477,0.476
0.915,-2.744,7.5,0.634,0.478,0.475
-0.732,-2.744,9.268,0.638,0.48,0.468
-1.951,-2.439,10.671,0.63,0.478,0.461
-3.171,-2.317,11.951,0.614,0.469,0.464
-4.024,-2.073,12.5,0.599,0.456,0.468
-4.146,-1.646,12.805,0.59,0.455,0.477
-4.268,-1.341,12.927,0.592,0.465,0.486
-3.78,-1.037,12.866,0.603,0.486,0.488
-3.415,-1.037,12.988,0.615,0.483,0.486
-3.537,-1.402,12.805,0.627,0.473,0.477
-3.354,-1.646,12.378,0.634,0.483,0.46
-3.354,-1.89,11.707,0.631,0.497,0.449
-3.963,-2.012,11.037,0.623,0.487,0.439
-5,-2.256,10.244,0.62,0.468,0.436
-5.854,-2.5,9.146,0.622,0.454,0.437
-6.829,-2.744,7.927,0.617,0.448,0.442
-7.561,-2.866,7.012,0.616,0.449,0.443
-8.11,-2.805,5.976,0.622,0.438,0.445
-8.293,-2.805,4.878,0.633,0.437,0.443
-8.537,-3.11,3.78,0.647,0.434,0.438
-9.39,-3.537,2.378,0.655,0.439,0.428
-9.817,-4.024,0.915,0.648,0.444,0.423
-9.817,-4.085,-0.366,0.632,0.442,0.425
-10.488,-4.024,-2.012,0.616,0.439,0.428
-11.524,-4.146,-3.841,0.605,0.438,0.437
-12.195,-4.024,-5.549,0.593,0.442,0.445
-12.439,-3.963,-6.951,0.58,0.44,0.458
-12.683,-4.024,-8.171,0.579,0.436,0.474
-12.561,-4.024,-9.146,0.581,0.43,0.474
-12.317,-4.207,-9.817,0.572,0.414,0.475
-11.829,-4.512,-10.366,0.566,0.402,0.468
-10.671,-4.634,-11.159,0.568,0.391,0.456
-9.146,-4.878,-11.89,0.574,0.384,0.447
-7.561,-5.305,-12.561,0.577,0.385,0.436
-6.89,-5.671,-13.293,0.576,0.392,0.423
-5.915,-5.976,-13.841,0.566,0.388,0.417
-5.244,-6.524,-14.573,0.552,0.386,0.409
-6.037,-7.256,-15.183,0.545,0.387,0.402
-6.646,-7.866,-15.732,0.547,0.399,0.395
-7.256,-8.293,-15.976,0.549,0.403,0.397
-7.866,-8.476,-16.646,0.552,0.392,0.396
-8.415,-8.841,-17.256,0.544,0.385,0.394
-8.963,-8.963,-17.805,0.536,0.383,0.383
-8.659,-9.085,-18.354,0.532,0.366,0.379
-8.232,-9.329,-19.085,0.53,0.347,0.371
-7.866,-9.817,-19.512,0.527,0.345,0.377
-7.622,-10.366,-19.939,0.511,0.362,0.38
-8.232,-11.22,-20.488,0.493,0.366,0.377
-8.476,-11.829,-20.915,0.481,0.375,0.373
-8.232,-12.256,-21.28,0.475,0.385,0.368
-8.841,-12.561,-21.402,0.47,0.377,0.368
-10.305,-13.354,-21.22,0.46,0.364,0.363
-12.622,-14.207,-21.037,0.437,0.374,0.353
-14.329,-14.512,-21.28,0.41,0.382,0.337
-16.037,-14.573,-21.524,0.399,0.373,0.328
-17.988,-14.695,-21.585,0.396,0.361,0.322
-19.329,-14.756,-21.585,0.395,0.36,0.323
-20.122,-14.817,-21.585,0.385,0.373,0.315
-20.549,-14.817,-21.402,0.374,0.378,0.319
-20.854,-15,-21.159,0.354,0.38,0.326
-21.037,-15.122,-20.854,0.34,0.392,0.34
-21.463,-15.244,-20.732,0.33,0.399,0.36
-22.866,-15.549,-20.915,0.317,0.406,0.372
-24.39,-15.854,-21.341,0.313,0.432,0.368
-26.159,-15.854,-22.134,0.311,0.45,0.361
-28.963,-16.098,-22.805,0.305,0.444,0.358
-32.683,-16.463,-23.232,0.293,0.421,0.367
-35.915,-16.524,-23.537,0.292,0.399,0.368
-38.78,-16.768,-23.72,0.289,0.363,0.363
-41.707,-17.073,-24.146,0.284,0.331,0.352
-43.841,-17.378,-24.451,0.262,0.297,0.339
-45.976,-18.11,-24.817,0.233,0.264,0.332
-47.561,-18.963,-25.549,0.212,0.21,0.324
-49.085,-19.817,-26.89,0.198,0.202,0.316
-50.305,-20.427,-28.171,0.191,0.185,0.311
-51.037,-21.098,-29.695,0.15,0.132,0.31
-52.927,-22.195,-31.159,0.163,0.142,0.29
-55.915,-23.415,-32.866,0.202,0.099,0.257
-59.085,-24.512,-34.878,0.203,0.031,0.249
-62.195,-25.488,-36.89,0.193,-0.03,0.242
-65.122,-26.28,-39.146,0.188,-0.077,0.234
-67.927,-27.256,-41.524,0.208,-0.16,0.218
-69.451,-27.988,-44.39,0.244,-0.247,0.189
-69.146,-28.354,-47.256,0.275,-0.315,0.162
-67.317,-28.537,-50.122,0.307,-0.356,0.14
-63.659,-28.78,-52.927,0.332,-0.385,0.127
-58.902,-28.659,-55.854,0.347,-0.397,0.112
-54.207,-28.476,-59.207,0.37,-0.398,0.107
-49.146,-27.317,-63.11,0.382,-0.407,0.106
-43.049,-25.915,-67.561,0.379,-0.415,0.102
-36.707,-24.085,-72.134,0.375,-0.429,0.107
-32.439,-20.427,-78.963,0.371,-0.452,0.139
-29.329,-16.646,-88.171,0.406,-0.432,0.145
-26.585,-12.927,-98.232,0.456,-0.346,0.119
-24.756,-8.598,-109.88,0.481,-0.256,0.104
-24.146,-3.232,-122.93,0.505,-0.149,0.086
-24.146,3.11,-137.68,0.521,-0.02,0.066
-24.939,10.122,-153.23,0.544,0.091,0.013
-26.463,17.439,-169.27,0.582,0.204,-0.018
-28.293,25.183,-186.59,0.643,0.396,-0.008
-29.756,33.476,-204.57,0.74,0.669,-0.019
-30.183,41.89,-223.78,0.82,0.94,0.007
-29.573,50.854,-243.9,0.848,1.234,0.093
-28.11,61.037,-263.66,0.82,1.626,0.111
-24.451,72.195,-283.29,0.728,2.182,-0.021
-17.5,83.415,-303.42,0.579,2.783,-0.193
-7.317,94.268,-322.87,0.454,3.358,-0.462
6.646,105.79,-341.22,0.469,3.866,-0.872
23.72,117.19,-358.54,0.551,4.363,-1.37
44.207,127.5,-375.43,0.609,4.945,-1.896
69.512,137.44,-392.13,0.665,5.509,-2.458
100.06,147.5,-408.29,0.704,5.962,-2.975
135,156.89,-423.11,0.854,6.237,-3.43
175.12,163.96,-436.04,1.115,6.401,-3.891
220.55,168.23,-446.71,1.444,6.382,-4.324
271.16,173.17,-456.89,1.747,6.168,-4.675
327.68,177.19,-464.69,2.026,5.748,-4.888
389.51,176.83,-469.45,2.188,5.161,-4.872
453.84,173.41,-470.06,2.355,4.542,-4.6
518.6,168.23,-466.65,2.651,4.006,-4.281
585.73,161.77,-461.1,2.921,3.643,-4.01
654.27,153.78,-449.82,2.996,3.273,-3.728
722.68,145.31,-428.78,2.923,2.829,-3.512
787.07,138.17,-400.37,2.782,2.427,-3.389
848.35,133.72,-365.31,2.644,2.038,-3.279
905.79,134.27,-325.55,2.481,1.596,-3.182
957.2,140.06,-282.01,2.264,1.175,-3.136
996.71,153.96,-236.1,2.002,0.775,-3.229
1021.8,177.32,-191.95,1.666,0.487,-3.389
1020.7,209.02,-151.59,1.261,0.246,-3.619
992.26,249.39,-117.81,0.776,0.164,-3.893
940.37,295.55,-90.488,0.291,0.208,-4.156
864.76,345.73,-70.671,-0.151,0.245,-4.316
768.72,395.79,-58.171,-0.496,0.208,-4.351
657.5,449.82,-50.915,-0.724,0.155,-4.279
539.63,509.82,-47.195,-0.849,0.236,-4.156
424.82,571.4,-47.256,-0.967,0.484,-4.09
316.28,628.11,-46.22,-1.178,0.745,-4.133
221.4,682.93,-38.171,-1.464,0.891,-4.239
144.57,733.78,-23.902,-1.889,0.968,-4.216
87.988,778.6,-1.951,-2.463,1.013,-3.978
51.951,819.45,28.72,-2.92,1.118,-3.597
33.841,856.04,64.329,-3.091,1.309,-3.508
31.951,885.67,104.69,-3.269,1.379,-4.009
45.549,907.26,145.73,-3.862,1.352,-4.343
68.841,920.98,185.49,-4.802,1.356,-4.097
99.939,927.56,221.1,-5.972,1.422,-3.496
134.39,928.11,251.71,-6.995,1.267,-3.114
168.72,925.43,276.89,-7.39,0.958,-2.97
197.93,919.76,295.37,-6.772,0.43,-2.741
220.24,910.67,308.6,-5.361,-0.548,-2.359
236.04,894.09,316.77,-4.223,-1.255,-2.135
244.39,875.85,314.21,-3.751,-1.25,-2.013
244.88,853.66,303.72,-3.591,-0.849,-1.738
239.69,821.34,287.5,-3.276,-0.416,-1.39
224.21,775.91,265.79,-2.806,-0.047,-0.917
196.59,722.8,235.79,-2.365,0.364,-0.447
157.13,659.51,213.9,-2.113,0.845,-0.063
105.55,593.6,197.26,-2.04,1.412,0.169
51.098,522.13,184.63,-2.004,1.851,0.267
4.756,444.27,176.52,-1.954,1.899,0.33
-39.024,365.18,162.07,-1.722,1.985,0.271
-73.659,272.87,147.81,-1.602,1.79,0.218
-82.744,172.93,137.74,-1.504,1.583,0.131
-60.549,94.817,133.41,-1.364,1.394,0.004
-12.317,45,142.38,-1.199,1.154,-0.13
58.537,14.573,154.27,-0.908,0.881,-0.371
142.13,-8.841,153.23,-0.646,0.572,-0.609
228.41,-28.963,139.27,-0.428,0.35,-0.801
300.92,-40.732,118.9,-0.173,0.204,-0.954
344.88,-44.756,96.89,0.047,0.115,-1.087
353.42,-42.805,77.5,0.264,0.093,-1.213
326.83,-39.39,61.524,0.409,0.15,-1.306
270.24,-40,49.329,0.518,0.333,-1.394
197.38,-46.829,39.756,0.597,0.556,-1.438
115.73,-57.073,30.976,0.691,0.75,-1.45
33.537,-69.695,25.732,0.778,0.962,-1.474
-39.085,-84.024,19.939,0.831,1.112,-1.516
-100.24,-100.85,10.854,0.874,1.261,-1.539
-145.73,-121.16,1.402,0.904,1.336,-1.533
-171.95,-142.26,-8.78,0.937,1.426,-1.572
-182.13,-164.02,-18.659,0.979,1.528,-1.678
-177.87,-186.89,-26.585,0.985,1.593,-1.82
-160.73,-209.39,-31.951,0.966,1.645,-1.983
-134.45,-230.12,-35.488,0.953,1.736,-2.152
-103.35,-248.29,-37.378,0.972,1.834,-2.301
-71.037,-264.45,-37.5,1.024,1.911,-2.44
-43.963,-278.54,-37.927,1.105,1.943,-2.51
-25.915,-291.28,-39.451,1.222,1.911,-2.582
-18.598,-302.19,-42.317,1.338,1.882,-2.604
-24.695,-310.49,-46.037,1.485,1.913,-2.581
-42.927,-315.43,-50.366,1.608,1.988,-2.536
-74.817,-318.05,-55.976,1.823,1.96,-2.609
-117.19,-317.87,-61.159,1.965,1.822,-2.593
-167.99,-315.61,-67.622,2.002,1.744,-2.555
-227.19,-311.34,-75.915,2.063,1.677,-2.483
-293.96,-305.06,-86.524,2.08,1.617,-2.297
-365.49,-297.38,-99.634,2.072,1.557,-2.055
-440.43,-290.67,-113.78,2.037,1.425,-1.771
-519.51,-285.31,-129.76,1.96,1.258,-1.483
-599.57,-281.71,-147.5,1.86,1.16,-1.158
-677.87,-276.28,-164.94,1.734,1.098,-0.812
-751.4,-266.58,-181.4,1.637,0.988,-0.517
-820.79,-254.88,-197.44,1.574,0.898,-0.266
-885.79,-242.81,-211.34,1.558,0.858,-0.102
-943.23,-228.96,-225.85,1.553,0.819,0
-991.95,-204.82,-234.45,1.574,0.833,0.059
-1026.6,-178.66,-246.59,1.571,0.809,0.124
-1047.9,-156.1,-254.39,1.555,0.745,0.191
-1059.8,-130.43,-259.33,1.521,0.658,0.266
-1057.2,-109.76,-260.55,1.483,0.575,0.352
-1044.8,-90.671,-255,1.42,0.571,0.43
-1021.4,-73.171,-249.63,1.382,0.561,0.462
-988.66,-58.415,-242.56,1.328,0.495,0.52
-943.96,-44.634,-228.54,1.278,0.465,0.6
-887.38,-32.439,-209.27,1.238,0.515,0.644
-821.95,-22.805,-190.31,1.219,0.576,0.625
-749.51,-14.634,-170.37,1.193,0.61,0.585
-671.4,-8.11,-150.67,1.169,0.629,0.537
-591.89,-5.427,-130.73,1.134,0.635,0.492
-515.06,-3.598,-113.48,1.102,0.615,0.434
-438.66,-2.195,-98.293,1.078,0.563,0.376
-367.74,-2.012,-85.244,1.024,0.503,0.353
-300.85,-5.305,-72.134,0.945,0.429,0.366
-239.76,-10.915,-58.171,0.871,0.351,0.386
-186.4,-19.024,-43.049,0.805,0.287,0.391
-139.94,-26.951,-28.476,0.754,0.23,0.359
-101.65,-34.756,-13.841,0.724,0.143,0.334
-72.195,-43.659,0.732,0.693,0.055,0.296
-50.366,-52.195,15.183,0.671,-0.016,0.238
-35.976,-60.976,28.232,0.658,-0.078,0.171
-29.451,-69.085,39.39,0.664,-0.128,0.107
-30.122,-75.854,49.085,0.666,-0.143,0.053
-35.549,-81.585,57.378,0.674,-0.149,0.019
-44.024,-86.28,64.207,0.677,-0.13,0.006
-54.573,-90.183,70.183,0.695,-0.105,0
-67.317,-92.439,75.244,0.708,-0.089,0.036
-81.951,-93.354,79.634,0.706,-0.04,0.099
-96.037,-92.927,83.293,0.699,0.036,0.162
-107.99,-92.134,86.402,0.685,0.105,0.215
-118.54,-91.159,89.329,0.673,0.197,0.252
-127.99,-89.39,92.073,0.664,0.283,0.276
-135.85,-87.622,93.415,0.646,0.331,0.277
-141.4,-85,93.476,0.632,0.333,0.241
-143.6,-82.5,92.744,0.572,0.303,0.202
-143.29,-80.305,91.463,0.518,0.234,0.169
-140.61,-78.293,89.634,0.48,0.128,0.144
-135.49,-75.061,87.134,0.434,-0.026,0.137
-129.76,-71.707,84.024,0.35,-0.111,0.154
-124.33,-67.927,80.305,0.311,-0.117,0.171
-120.31,-63.598,75.427,0.327,-0.109,0.207
-117.07,-59.39,69.817,0.414,-0.011,0.223
-111.83,-54.939,63.78,0.581,0.218,0.198
-108.11,-50.793,57.317,0.649,0.263,0.213
-107.99,-47.317,50.854,0.723,0.355,0.216
-109.15,-44.085,44.085,0.79,0.496,0.22
-110.61,-40.549,36.524,0.836,0.553,0.241
-113.6,-37.012,28.232,0.844,0.513,0.258
-119.02,-34.329,19.268,0.829,0.473,0.263
-122.5,-33.537,11.037,0.856,0.531,0.251
-124.88,-33.537,1.402,0.88,0.521,0.244
-126.1,-34.634,-8.841,0.832,0.478,0.261
-123.78,-37.561,-16.768,0.776,0.506,0.279
-118.84,-41.341,-21.768,0.75,0.581,0.287
-112.01,-44.817,-26.524,0.787,0.57,0.31
-104.33,-46.89,-31.159,0.804,0.557,0.349
-95.854,-46.402,-35.915,0.804,0.572,0.385
-86.402,-44.329,-41.829,0.806,0.566,0.413
-76.646,-42.744,-48.415,0.836,0.529,0.433
-69.268,-41.098,-55.854,0.874,0.486,0.436
-62.683,-38.72,-63.171,0.891,0.443,0.433
-56.037,-36.22,-68.598,0.894,0.384,0.443
-49.207,-34.756,-71.28,0.887,0.334,0.47
-41.463,-33.841,-70.366,0.884,0.285,0.484
-34.329,-31.951,-67.073,0.894,0.238,0.49
-27.683,-30.122,-61.463,0.902,0.207,0.497
-21.829,-28.902,-53.78,0.906,0.181,0.5
-17.073,-27.622,-45.549,0.917,0.17,0.499
-13.598,-25.488,-38.232,0.92,0.178,0.489
-10.183,-23.11,-32.073,0.926,0.199,0.492
-6.524,-20.976,-26.829,0.917,0.227,0.492
-3.841,-18.963,-23.232,0.914,0.256,0.487
-1.402,-17.073,-20.549,0.914,0.276,0.483
0.976,-15.183,-18.293,0.918,0.304,0.47
2.622,-13.598,-16.89,0.925,0.327,0.461
3.476,-12.073,-15.854,0.924,0.354,0.452
3.476,-10.915,-14.878,0.913,0.375,0.443
2.866,-10,-13.902,0.89,0.402,0.442
2.378,-9.451,-12.744,0.872,0.417,0.443
1.951,-9.146,-11.524,0.863,0.429,0.444
1.89,-8.659,-10.305,0.846,0.456,0.451
2.134,-8.598,-9.268,0.818,0.479,0.454
2.622,-8.598,-8.841,0.789,0.48,0.46
3.415,-8.171,-8.537,0.779,0.476,0.465
3.659,-7.744,-8.11,0.777,0.486,0.468
4.268,-7.317,-7.866,0.765,0.49,0.465
5.305,-7.012,-7.622,0.737,0.481,0.467
6.159,-6.585,-6.951,0.721,0.462,0.466
6.829,-5.915,-5.854,0.724,0.438,0.466
6.951,-5.183,-4.39,0.73,0.417,0.47
6.89,-4.878,-2.805,0.719,0.402,0.478
6.707,-4.451,-1.28,0.699,0.399,0.474
6.768,-4.146,0.793,0.679,0.395,0.457
6.463,-3.963,2.866,0.661,0.384,0.455
6.037,-3.598,4.939,0.658,0.383,0.458
5.976,-3.049,6.829,0.67,0.386,0.46
5.854,-2.378,8.476,0.68,0.391,0.458
6.037,-2.073,9.939,0.674,0.397,0.457
6.341,-2.134,11.28,0.663,0.407,0.459
7.012,-2.073,12.256,0.649,0.413,0.466
7.317,-2.134,12.866,0.649,0.413,0.481
7.378,-2.805,12.744,0.654,0.419,0.481
7.622,-3.354,12.256,0.651,0.429,0.484
7.683,-3.415,11.768,0.646,0.426,0.484
7.744,-3.598,11.28,0.646,0.406,0.481
7.622,-3.476,10.61,0.648,0.395,0.475
7.683,-3.659,9.756,0.649,0.399,0.457
8.049,-3.841,8.659,0.641,0.398,0.448
7.866,-4.268,7.378,0.632,0.396,0.451
7.561,-4.695,6.159,0.626,0.402,0.463
6.89,-4.695,5.427,0.625,0.4,0.477
5.915,-4.573,4.573,0.617,0.405,0.479
5.549,-4.573,3.537,0.604,0.397,0.48
4.939,-4.451,2.317,0.603,0.392,0.473
4.024,-4.207,1.22,0.613,0.393,0.463
3.415,-3.963,-0.061,0.618,0.39,0.454
3.171,-3.598,-1.707,0.621,0.382,0.439
3.11,-2.805,-3.293,0.623,0.373,0.432
3.659,-2.195,-4.878,0.614,0.369,0.43
4.756,-1.89,-5.976,0.601,0.374,0.422
5.549,-1.646,-6.707,0.584,0.375,0.421
6.341,-1.341,-7.561,0.565,0.371,0.425
7.073,-0.976,-8.537,0.554,0.367,0.43
6.951,-0.793,-9.146,0.55,0.369,0.417
6.524,-0.671,-9.512,0.544,0.356,0.402
5.732,-0.122,-10.244,0.535,0.352,0.394
4.756,0.427,-10.793,0.53,0.353,0.383
3.902,0.732,-11.463,0.526,0.358,0.38
3.049,1.037,-12.134,0.524,0.355,0.386
1.707,1.22,-12.683,0.514,0.354,0.394
0.793,1.402,-13.171,0.502,0.356,0.388
0.061,1.524,-13.537,0.48,0.349,0.377
-0.366,1.707,-13.963,0.458,0.341,0.371
-1.037,1.89,-14.268,0.443,0.341,0.353
-2.195,1.89,-14.512,0.43,0.342,0.34
-3.354,1.89,-14.878,0.421,0.339,0.324
-4.634,1.585,-15.122,0.415,0.336,0.308
-6.524,1.463,-15.061,0.404,0.33,0.304
-7.622,1.402,-15.183,0.392,0.322,0.307
-9.085,1.098,-15.305,0.38,0.316,0.317
-11.098,0.61,-15.488,0.378,0.322,0.315
-13.171,0,-15.793,0.373,0.33,0.311
-15.122,-0.488,-16.402,0.357,0.329,0.312
-17.012,-1.037,-17.134,0.334,0.327,0.301
-18.476,-1.524,-17.927,0.311,0.32,0.28
-19.512,-1.89,-18.841,0.29,0.309,0.263
-20.793,-2.5,-19.817,0.273,0.301,0.245
-22.256,-3.232,-20.671,0.25,0.282,0.238
-22.988,-4.024,-21.28,0.188,0.197,0.261
-23.963,-4.939,-21.707,0.161,0.214,0.277
-25.122,-6.159,-21.707,0.165,0.169,0.292
-25.671,-7.317,-21.585,0.189,0.194,0.311
-26.341,-8.537,-21.646,0.19,0.162,0.324
-27.317,-9.878,-22.134,0.167,0.136,0.333
-28.537,-11.098,-22.561,0.152,0.112,0.322
-29.817,-12.012,-23.171,0.153,0.089,0.304
-31.159,-12.866,-24.329,0.157,0.06,0.29
-33.415,-13.415,-25.854,0.171,0.025,0.272
-35.244,-13.841,-28.049,0.19,-0.013,0.256
-37.073,-14.207,-30.61,0.212,-0.039,0.234
-38.902,-14.695,-33.232,0.252,-0.074,0.203
-40.976,-14.878,-36.22,0.287,-0.106,0.182
-41.585,-15.122,-38.963,0.317,-0.133,0.166
-39.512,-15.732,-40.793,0.337,-0.148,0.155
-36.098,-15.427,-42.683,0.364,-0.155,0.154
-32.134,-13.963,-45.122,0.388,-0.149,0.156
-28.415,-11.89,-48.659,0.421,-0.14,0.18
-24.329,-9.878,-53.476,0.437,-0.159,0.197
-20.427,-7.866,-59.146,0.474,-0.148,0.213
-17.134,-5.671,-66.098,0.495,-0.152,0.214
-13.659,-2.927,-74.329,0.521,-0.177,0.167
-10.915,-0.183,-83.11,0.57,-0.142,0.07
-9.756,2.378,-92.622,0.662,-0.123,-0.01
-9.573,5.366,-102.87,0.793,-0.098,-0.061
-9.085,8.902,-113.78,0.943,-0.056,-0.076
-8.415,12.866,-125.43,1.054,0.059,-0.033
-8.476,17.012,-137.5,1.115,0.188,-0.006
-8.659,21.098,-149.76,1.135,0.319,0.021
-8.476,25.915,-162.81,1.128,0.493,0.01
-6.707,31.28,-176.89,1.151,0.644,-0.071
-4.695,36.829,-190.55,1.159,0.884,-0.156
-0.305,44.329,-206.22,1.138,1.051,-0.232
5,51.646,-222.19,1.125,1.229,-0.309
11.524,58.963,-236.95,1.099,1.445,-0.419
22.805,69.512,-254.63,1.064,1.704,-0.58
36.951,79.939,-271.16,0.995,2.142,-0.807
55.183,89.207,-287.38,0.904,2.724,-1.086
75.183,98.049,-303.84,0.876,3.356,-1.39
97.683,107.32,-321.16,0.896,3.891,-1.747
122.68,115.67,-338.54,0.959,4.316,-2.187
152.19,122.93,-355.92,1.038,4.749,-2.668
185.24,130.55,-373.84,1.135,5.118,-3.172
220.43,137.19,-390.79,1.228,5.348,-3.562
262.74,144.76,-407.93,1.354,5.333,-3.753
305.24,151.89,-422.87,1.593,5.21,-3.995
352.19,157.38,-437.26,1.91,4.996,-4.308
402.01,159.82,-447.81,2.09,4.637,-4.596
453.48,157.01,-450.61,2.15,4.194,-4.664
507.01,150.49,-446.89,2.25,3.645,-4.517
560.91,142.44,-437.93,2.452,3.274,-4.316
618.05,135.06,-423.42,2.618,3.053,-4.13
679.94,132.26,-403.05,2.584,2.734,-3.95
745.12,131.59,-377.99,2.4,2.339,-3.802
810.98,132.56,-346.65,2.223,1.903,-3.68
873.84,137.56,-310.61,2.082,1.407,-3.608
930.06,147.38,-273.66,1.886,1.007,-3.558
977.07,160.67,-236.16,1.635,0.703,-3.599
1013,177.74,-202.01,1.323,0.443,-3.699
1024.8,202.74,-171.04,0.955,0.345,-3.833
1013.9,236.34,-139.45,0.571,0.327,-3.964
976.77,276.89,-113.48,0.231,0.338,-4.098
909.7,321.28,-90.732,-0.099,0.37,-4.152
820.85,363.6,-71.768,-0.352,0.377,-4.161
721.16,413.48,-62.988,-0.542,0.405,-4.157
605.37,469.33,-58.598,-0.706,0.526,-4.128
489.69,527.38,-54.024,-0.887,0.663,-4.053
378.23,579.21,-47.073,-1.055,0.851,-3.996
280.61,628.96,-37.866,-1.293,0.939,-3.956
205,676.59,-21.463,-1.578,1.067,-3.976
152.26,718.35,1.402,-2.049,1.094,-3.964
122.19,754.94,30.915,-2.48,1.158,-3.939
110.55,787.01,63.902,-2.807,1.284,-3.907
115.85,813.78,99.085,-2.949,1.466,-4.014
136.46,834.45,133.05,-3.158,1.564,-3.93
164.57,850.79,165.18,-3.569,1.712,-3.519
196.95,861.04,192.87,-4.135,1.755,-2.882
231.52,866.1,215.49,-4.746,1.528,-2.342
265.92,867.74,234.02,-5.028,1.143,-2.458
291.77,865.73,246.89,-5.11,0.857,-2.395
312.87,859.76,252.13,-4.758,0.448,-2.178
327.87,850.85,251.04,-4.203,-0.083,-2.16
335.79,838.41,244.51,-3.585,-0.382,-2.184
333.6,821.04,232.26,-3.065,-0.413,-1.914
323.9,799.51,215.43,-2.599,-0.314,-1.464
303.66,770.55,191.89,-2.272,-0.157,-0.971
271.89,730.98,168.78,-2.025,0.053,-0.524
234.15,676.28,151.1,-1.834,0.38,-0.134
186.1,622.32,139.09,-1.773,0.768,0.204
132.32,566.28,135.98,-1.815,1.175,0.436
79.512,508.54,133.48,-1.823,1.498,0.513
31.89,450.06,130.18,-1.785,1.599,0.487
-5.61,389.57,123.35,-1.687,1.583,0.396
-28.841,317.19,124.69,-1.579,1.468,0.293
-35.671,245.31,124.82,-1.501,1.308,0.174
-24.817,176.1,125,-1.441,1.154,0.002
5.671,119.08,124.69,-1.325,0.976,-0.176
54.329,74.634,124.08,-1.124,0.742,-0.325
111.1,42.805,120.43,-0.868,0.501,-0.424
166.28,22.378,113.48,-0.611,0.311,-0.502
